time,seconds_elapsed,z,y,x
1701889237366634000,0.105634033203125,-0.9933209419250488,0.05308389663696289,-0.1194307804107666
1701889237383626200,0.122626220703125,-0.7899770736694336,-0.3079547882080078,-0.41510701179504395
1701889237400615000,0.139614990234375,-0.3549833297729492,-0.646975040435791,-0.22530579566955566
1701889237417606000,0.15660595703125,-1.6071481704711914,-0.35735416412353516,1.7959649562835693
1701889237434590700,0.1735908203125,-0.7389497756958008,0.9049606323242188,0.7605690956115723
1701889237451568400,0.190568359375,-0.582308292388916,0.31911754608154297,-0.1148306131362915
1701889237468571600,0.207571533203125,-0.5834088325500488,0.37678098678588867,-0.32987403869628906
1701889237485558500,0.22455859375,-0.7446699142456055,0.2518949508666992,-0.22687160968780518
1701889237502548700,0.241548828125,-0.3874673843383789,-0.004738330841064453,-1.0164272785186768
1701889237519537400,0.258537353515625,-0.23173284530639648,-0.5005288124084473,-1.6604671478271484
1701889237536523500,0.2755234375,0.0599055290222168,-1.204665184020996,-2.339397668838501
1701889237553519000,0.29251904296875,-0.6455225944519043,-1.6782863140106201,-3.0179355144500732
1701889237570501400,0.30950146484375,-3.027740478515625,-2.076308012008667,-3.789156198501587
1701889237587492600,0.32649267578125,-5.734757900238037,-2.3160195350646973,-4.05234956741333
1701889237604482600,0.343482666015625,-6.437020301818848,-2.5233898162841797,-3.608546733856201
1701889237621471500,0.360471435546875,-3.8155884742736816,-2.846566915512085,-3.824601411819458
1701889237638461200,0.377461181640625,-0.612917423248291,-3.8653223514556885,-4.264506816864014
1701889237655447600,0.394447509765625,0.759239673614502,-4.6358747482299805,-5.340888977050781
1701889237672440000,0.411440185546875,0.10819053649902344,-4.934695243835449,-6.5306596755981445
1701889237689415700,0.428415771484375,-3.1578941345214844,-3.8578412532806396,-6.704689025878906
1701889237706413300,0.445413330078125,-5.927234172821045,-3.3709564208984375,-4.1949615478515625
1701889237723394800,0.462394775390625,-4.1128339767456055,-2.645106554031372,-1.1756696701049805
1701889237740403200,0.4794033203125,-1.1607074737548828,-2.8304991722106934,0.4832296371459961
1701889237757376000,0.4963759765625,0.7788106203079224,-3.153397560119629,0.1555767059326172
1701889237774370000,0.5133701171875,1.2624120712280273,-4.75117301940918,-0.7041559219360352
1701889237791361000,0.530361083984375,0.533292293548584,-3.7171332836151123,-1.8355121612548828
1701889237808351500,0.5473515625,3.043717861175537,-2.600092887878418,-1.7822036743164062
1701889237825336300,0.56433642578125,2.952014923095703,-2.9296038150787354,1.8694229125976562
1701889237842327600,0.58132763671875,2.981562852859497,-3.3847529888153076,7.468908309936523
1701889237859318300,0.598318359375,2.7325057983398438,-3.3546578884124756,10.297172546386719
1701889237876303000,0.61530322265625,1.6303043365478516,-2.6166911125183105,7.708671569824219
1701889237893292300,0.632292236328125,1.3153386116027832,-2.202772855758667,5.385437965393066
1701889237910283300,0.649283203125,1.1479392051696777,-1.504711627960205,6.958698272705078
1701889237927274200,0.666274169921875,-1.298682689666748,-1.0955548286437988,11.592501640319824
1701889237944258800,0.6832587890625,-3.9592039585113525,0.14018988609313965,13.759870529174805
1701889237961247000,0.7002470703125,-4.2575788497924805,2.1725621223449707,12.675464630126953
1701889237978240800,0.71724072265625,-1.6018898487091064,3.238279342651367,13.637114524841309
1701889237995225000,0.73422509765625,1.3909096717834473,2.932565689086914,14.918320655822754
1701889238012217600,0.751217529296875,1.5269417762756348,3.295422077178955,11.857837677001953
1701889238029207600,0.76820751953125,0.10332344472408295,3.8296937942504883,7.579836845397949
1701889238046192400,0.7851923828125,-0.709733247756958,4.651266098022461,5.310002326965332
1701889238063185200,0.80218505859375,-1.9657831192016602,5.01767110824585,4.38120174407959
1701889238080174300,0.81917431640625,-2.0971667766571045,5.336029052734375,3.3706836700439453
1701889238097161500,0.836161376953125,0.15597206354141235,6.062976837158203,1.1905059814453125
1701889238114152700,0.853152587890625,1.1943620443344116,5.915583610534668,-1.2086925506591797
1701889238131133000,0.8701328125,1.646598219871521,5.913349151611328,-3.3261170387268066
1701889238148128800,0.887128662109375,2.650864839553833,6.0059075355529785,-5.55474328994751
1701889238165112000,0.904112060546875,2.6815638542175293,6.223138809204102,-7.797728538513184
1701889238182100700,0.921100830078125,2.560845375061035,6.599038600921631,-9.745519638061523
1701889238199094800,0.9380947265625,2.6008005142211914,7.456439971923828,-10.116033554077148
1701889238216082700,0.955082763671875,2.576716899871826,8.023330688476562,-10.685441970825195
1701889238233076200,0.972076171875,1.9589817523956299,8.039702415466309,-10.425543785095215
1701889238250059500,0.9890595703125,0.31741905212402344,7.618919849395752,-8.723271369934082
1701889238267049200,1.00604931640625,-1.4499521255493164,7.469541549682617,-6.865589141845703
1701889238284037600,1.02303759765625,-2.3840739727020264,7.605010986328125,-5.119043827056885
1701889238301028900,1.04002880859375,-2.15043306350708,8.222203254699707,-3.510230541229248
1701889238318019600,1.05701953125,-2.304201602935791,9.808591842651367,-1.0677366256713867
1701889238335004400,1.07400439453125,-2.5566763877868652,12.380017280578613,4.419594764709473
1701889238351994600,1.09099462890625,-2.2261366844177246,16.148468017578125,10.73574447631836
1701889238368991000,1.107990966796875,-1.4819554090499878,17.089813232421875,18.789749145507812
1701889238385965600,1.124965576171875,2.3165700435638428,14.812174797058105,23.651893615722656
1701889238402963200,1.141963134765625,5.52895450592041,11.14518928527832,23.71963882446289
1701889238419954200,1.1589541015625,6.187479496002197,6.649754524230957,21.639326095581055
1701889238436938800,1.175938720703125,5.991301536560059,0.9884371757507324,19.058839797973633
1701889238453930000,1.192929931640625,5.531824111938477,-4.358982086181641,14.453210830688477
1701889238470908200,1.209908203125,4.917976379394531,-8.631500244140625,9.77114486694336
1701889238487908900,1.226908935546875,6.089865207672119,-12.632074356079102,6.132837772369385
1701889238504893700,1.243893798828125,10.056113243103027,-17.159774780273438,3.0850419998168945
1701889238521885200,1.26088525390625,15.351181030273438,-22.137998580932617,0.22502517700195312
1701889238538875600,1.277875732421875,17.82378578186035,-26.004756927490234,-3.682081937789917
1701889238555859700,1.294859619140625,13.714061737060547,-26.059612274169922,-8.080055236816406
1701889238572851200,1.311851318359375,7.44304084777832,-24.466909408569336,-10.254374504089355
1701889238589828900,1.328828857421875,4.442470550537109,-22.376197814941406,-10.222182273864746
1701889238606826200,1.345826171875,3.7223005294799805,-20.74679183959961,-7.9317169189453125
1701889238623804400,1.362804443359375,4.563383102416992,-18.065879821777344,-4.894777774810791
1701889238640797000,1.379796875,5.12429666519165,-14.571044921875,0.7121453285217285
1701889238657794600,1.396794677734375,2.670818328857422,-10.899136543273926,5.547331809997559
1701889238674787000,1.413787109375,-2.4252209663391113,-8.092151641845703,6.002937316894531
1701889238691764000,1.430763916015625,-10.367734909057617,-5.586691856384277,5.84941291809082
1701889238708765000,1.447764892578125,-17.237098693847656,-5.0958356857299805,10.456831932067871
1701889238725749000,1.4647490234375,-14.735530853271484,-3.6528408527374268,18.197677612304688
1701889238742742000,1.481741943359375,-8.836065292358398,0.09468960762023926,26.71872329711914
1701889238759731700,1.498731689453125,-4.388185977935791,4.811792373657227,31.699848175048828
1701889238776720100,1.51572021484375,-1.7691738605499268,5.953989505767822,26.655075073242188
1701889238793702100,1.5327021484375,1.754859209060669,7.184537887573242,14.616759300231934
1701889238810700000,1.549699951171875,3.7071542739868164,7.024454116821289,7.014070510864258
1701889238827681800,1.566681884765625,4.044085502624512,7.527724266052246,4.096527099609375
1701889238844672500,1.583672607421875,3.4401981830596924,8.27945613861084,3.914332389831543
1701889238861666300,1.600666259765625,1.9116356372833252,8.787155151367188,3.7296457290649414
1701889238878654000,1.617654052734375,1.3118045330047607,10.107316017150879,-1.1718854904174805
1701889238895639300,1.634639404296875,1.3285918235778809,10.64616584777832,-6.711154937744141
1701889238912630500,1.651630615234375,1.2516103982925415,11.029239654541016,-10.107442855834961
1701889238929621000,1.66862109375,0.36964941024780273,11.156063079833984,-12.127298355102539
1701889238946605300,1.685605224609375,-0.097930908203125,11.092639923095703,-10.307403564453125
1701889238963598600,1.7025986328125,-2.518580436706543,10.69774055480957,-7.305085182189941
1701889238980583000,1.7195830078125,-3.8004348278045654,11.10839557647705,-7.700592041015625
1701889238997580500,1.73658056640625,-2.0655062198638916,11.504478454589844,-6.840247631072998
1701889239014554600,1.7535546875,1.471287488937378,10.997686386108398,-2.7242064476013184
1701889239031553000,1.770552978515625,3.2762763500213623,10.488958358764648,5.104389190673828
1701889239048552700,1.787552734375,3.450759172439575,10.252776145935059,10.259344100952148
1701889239065522400,1.8045224609375,5.4635467529296875,13.395696640014648,12.628355026245117
1701889239082519800,1.821519775390625,7.206637382507324,10.58787727355957,18.57880973815918
1701889239099510300,1.83851025390625,9.59591007232666,5.578312397003174,19.152915954589844
1701889239116495000,1.8554951171875,11.396337509155273,-0.36116743087768555,16.75798988342285
1701889239133476900,1.872476806640625,16.723350524902344,-6.990983963012695,15.345381736755371
1701889239150475500,1.8894755859375,17.66790008544922,-13.052055358886719,13.190347671508789
1701889239167465200,1.90646533203125,13.410065650939941,-18.805727005004883,11.768601417541504
1701889239184451800,1.923451904296875,10.6951265335083,-23.728111267089844,9.71586799621582
1701889239201442300,1.9404423828125,8.171599388122559,-26.43938446044922,4.790097713470459
1701889239218434800,1.957434814453125,4.848224639892578,-27.701950073242188,-1.2220964431762695
1701889239235411000,1.974410888671875,2.5037755966186523,-26.615325927734375,-5.465625762939453
1701889239252408000,1.991407958984375,-0.029953479766845703,-26.096405029296875,-3.4631617069244385
1701889239269403400,2.0084033203125,-1.7707469463348389,-24.403095245361328,-0.9091010093688965
1701889239286380000,2.025380126953125,-2.8109560012817383,-21.454071044921875,1.4983406066894531
1701889239303367200,2.0423671875,-4.0322957038879395,-17.713855743408203,2.5277585983276367
1701889239320367400,2.059367431640625,-5.586501598358154,-13.596273422241211,5.2838969230651855
1701889239337355500,2.07635546875,-6.576539039611816,-8.690229415893555,10.91098690032959
1701889239354340000,2.093340087890625,-10.510797500610352,-4.624537467956543,14.426239013671875
1701889239371328500,2.11032861328125,-14.411528587341309,-1.5152263641357422,16.45800018310547
1701889239388322300,2.127322265625,-13.889607429504395,1.4390997886657715,21.065780639648438
1701889239405307000,2.144306884765625,-3.8867604732513428,5.073004245758057,24.335983276367188
1701889239422298000,2.161298095703125,5.726586818695068,9.212167739868164,26.126895904541016
1701889239439295500,2.17829541015625,7.42899751663208,9.980854034423828,23.526432037353516
1701889239456266800,2.195266845703125,6.94660758972168,9.844358444213867,13.149288177490234
1701889239473249500,2.21224951171875,6.429451942443848,8.816730499267578,4.429909706115723
1701889239490242300,2.2292421875,6.697370529174805,6.848311424255371,0.21878910064697266
1701889239507234000,2.246234130859375,10.042489051818848,5.229748725891113,-4.768229961395264
1701889239524229600,2.263229736328125,14.132957458496094,4.973052978515625,-8.123247146606445
1701889239541220900,2.280220947265625,12.824512481689453,6.38619327545166,-8.891477584838867
1701889239558210800,2.2972109375,6.874849796295166,8.58398723602295,-10.525472640991211
1701889239575197000,2.314197021484375,0.9397238492965698,9.239830017089844,-12.759137153625488
1701889239592186600,2.3311865234375,-3.0161046981811523,9.523791313171387,-15.788947105407715
1701889239609182200,2.34818212890625,-3.703554153442383,9.873520851135254,-17.311033248901367
1701889239626158000,2.365157958984375,-1.470447063446045,10.209196090698242,-14.69240951538086
1701889239643156700,2.38215673828125,1.4119371175765991,9.673537254333496,-8.768620491027832
1701889239660143900,2.399143798828125,4.134675025939941,8.671263694763184,-5.010363578796387
1701889239677128000,2.4161279296875,4.45646858215332,9.666017532348633,-3.3513684272766113
1701889239694122200,2.433122314453125,2.8622469902038574,14.986957550048828,1.9446744918823242
1701889239711105300,2.450105224609375,2.819714069366455,19.93153190612793,12.239981651306152
1701889239728098000,2.46709814453125,4.335625171661377,20.06804847717285,18.176799774169922
1701889239745088800,2.4840888671875,6.021851539611816,16.982582092285156,20.418479919433594
1701889239762069500,2.501069580078125,6.59649658203125,11.295269012451172,21.27533531188965
1701889239779068000,2.51806787109375,7.634963035583496,3.3357086181640625,20.18883514404297
1701889239796053200,2.53505322265625,7.987265110015869,-4.619661808013916,17.13677215576172
1701889239813040000,2.5520400390625,6.078529357910156,-10.876472473144531,13.456134796142578
1701889239830030300,2.5690302734375,4.286557197570801,-15.873266220092773,10.693635940551758
1701889239847019300,2.586019287109375,3.7478466033935547,-20.237892150878906,8.436056137084961
1701889239864011000,2.603010986328125,6.426058292388916,-24.538909912109375,5.302129745483398
1701889239880996000,2.61999609375,8.99593734741211,-26.4871768951416,-0.233048677444458
1701889239897989600,2.63698974609375,6.875936508178711,-27.066951751708984,-4.146366119384766
1701889239914974700,2.653974609375,2.8937878608703613,-27.036701202392578,-5.601336479187012
1701889239931948500,2.670948486328125,-0.8904023170471191,-25.597509384155273,-6.208844184875488
1701889239948947000,2.687947021484375,-2.917111396789551,-23.176334381103516,-5.25795316696167
1701889239965941500,2.70494140625,-3.3158791065216064,-20.487926483154297,-0.5426297187805176
1701889239982933500,2.72193359375,-3.070572853088379,-17.502628326416016,4.360412120819092
1701889239999922200,2.738922119140625,-2.699758768081665,-14.3718843460083,5.992435932159424
1701889240016909000,2.755908935546875,-5.878750801086426,-12.136833190917969,8.509511947631836
1701889240033900300,2.772900390625,-11.413692474365234,-7.411613464355469,9.457725524902344
1701889240050878200,2.789878173828125,-15.261630058288574,0.4619598388671875,16.959033966064453
1701889240067878100,2.806878173828125,-11.988897323608398,5.229720115661621,36.43400573730469
1701889240084864000,2.823864013671875,1.1427675485610962,10.258734703063965,48.024871826171875
1701889240101856300,2.840856201171875,16.38395881652832,13.979463577270508,35.13359832763672
1701889240118844700,2.8578447265625,19.258262634277344,14.285591125488281,18.148014068603516
1701889240135832600,2.87483251953125,9.751216888427734,12.048114776611328,6.180055618286133
1701889240152822500,2.891822509765625,0.944972038269043,10.738776206970215,-0.8057775497436523
1701889240169810700,2.908810791015625,-2.041315793991089,9.658753395080566,-4.223317623138428
1701889240186797300,2.92579736328125,1.7698805332183838,9.011251449584961,-7.48033332824707
1701889240203786200,2.9427861328125,8.530803680419922,9.114694595336914,-9.808337211608887
1701889240220777500,2.959777587890625,12.235223770141602,10.440755844116211,-12.643742561340332
1701889240237768200,2.976768310546875,9.224775314331055,11.034409523010254,-12.530313491821289
1701889240254753000,2.9937529296875,1.939428687095642,10.387005805969238,-12.106855392456055
1701889240271734000,3.010734130859375,-1.713092565536499,10.290340423583984,-14.279220581054688
1701889240288735000,3.02773486328125,0.29611873626708984,10.078648567199707,-14.586981773376465
1701889240305720000,3.044719970703125,3.7956390380859375,9.855555534362793,-11.043179512023926
1701889240322700500,3.061700439453125,5.276371955871582,9.738859176635742,-5.152760982513428
1701889240339701800,3.07870166015625,4.8852033615112305,11.25851821899414,-0.23585033416748047
1701889240356683000,3.09568310546875,1.8848090171813965,15.537063598632812,5.39962911605835
1701889240373684700,3.112684814453125,-0.7967770099639893,20.718406677246094,12.209758758544922
1701889240390656500,3.129656494140625,-2.5040977001190186,22.362092971801758,20.219175338745117
1701889240407655000,3.146655029296875,-0.6265571117401123,22.09966468811035,25.359346389770508
1701889240424648200,3.163648193359375,0.4836771488189697,17.969593048095703,29.637184143066406
1701889240441634600,3.180634521484375,0.5868186950683594,9.743060111999512,30.27728843688965
1701889240458623500,3.19762353515625,1.2647733688354492,0.5293426513671875,25.47544288635254
1701889240475612400,3.2146123046875,3.6061227321624756,-9.136687278747559,20.491764068603516
1701889240492601300,3.231601318359375,5.054186820983887,-17.54278564453125,15.697575569152832
1701889240509579300,3.248579345703125,6.373246669769287,-23.33660125732422,9.634482383728027
1701889240526573800,3.26557373046875,7.756645202636719,-26.191482543945312,3.3100032806396484
1701889240543569700,3.282569580078125,7.539344787597656,-27.386104583740234,-0.14383679628372192
1701889240560554000,3.299553955078125,6.014148712158203,-27.64989471435547,-1.4850869178771973
1701889240577544700,3.316544677734375,3.8328311443328857,-27.812847137451172,-0.04559195041656494
1701889240594536000,3.333535888671875,4.100493907928467,-26.985307693481445,0.38210201263427734
1701889240611526400,3.3505263671875,6.021998882293701,-24.367938995361328,-0.8286142349243164
1701889240628512800,3.3675126953125,6.649438381195068,-21.19969367980957,-0.019222736358642578
1701889240645501400,3.38450146484375,4.410429000854492,-18.751094818115234,4.644408702850342
1701889240662490600,3.40149072265625,-0.4131958484649658,-16.38639259338379,10.056270599365234
1701889240679479300,3.418479248046875,-4.762382507324219,-12.9456787109375,11.779333114624023
1701889240696468200,3.43546826171875,-6.143385887145996,-9.695436477661133,11.156574249267578
1701889240713454000,3.4524541015625,-5.506894588470459,-8.44340705871582,12.946029663085938
1701889240730446000,3.469446044921875,-6.761085510253906,-2.131887197494507,12.237327575683594
1701889240747438800,3.48643896484375,-9.18572998046875,7.10194730758667,17.994752883911133
1701889240764415700,3.503415771484375,-12.76204776763916,13.313508033752441,35.203102111816406
1701889240781407000,3.520406982421875,-3.400444269180298,16.535688400268555,45.06040954589844
1701889240798396400,3.537396484375,10.260568618774414,19.558429718017578,29.01422691345215
1701889240815380200,3.554380126953125,15.88064956665039,19.218740463256836,11.270651817321777
1701889240832368600,3.57136865234375,9.040146827697754,14.940923690795898,3.2863569259643555
1701889240849358300,3.5883583984375,1.3344104290008545,12.396400451660156,-2.88454008102417
1701889240866354400,3.6053544921875,-1.3029146194458008,11.155149459838867,-8.483953475952148
1701889240883332600,3.62233251953125,0.5482139587402344,10.367403984069824,-11.144906044006348
1701889240900326000,3.639325927734375,4.1230292320251465,11.050142288208008,-13.26889419555664
1701889240917314300,3.656314208984375,5.0227532386779785,12.469839096069336,-14.20011043548584
1701889240934306000,3.67330615234375,1.4877129793167114,12.31305980682373,-12.287405014038086
1701889240951291100,3.690291015625,-2.2235546112060547,11.001805305480957,-11.215485572814941
1701889240968284400,3.707284423828125,-2.505324602127075,8.98084831237793,-12.042577743530273
1701889240985278000,3.72427783203125,0.42195725440979004,8.119895935058594,-12.115303039550781
1701889241002266000,3.74126611328125,5.390477657318115,7.526013374328613,-8.454333305358887
1701889241019255600,3.758255615234375,9.56361198425293,7.4458723068237305,-1.713027000427246
1701889241036238000,3.775238037109375,8.93316650390625,10.994049072265625,4.516397476196289
1701889241053226500,3.7922265625,3.872042655944824,12.896163940429688,12.807134628295898
1701889241070217200,3.80921728515625,3.5119845867156982,18.490413665771484,17.15267562866211
1701889241087207700,3.826207763671875,3.2353293895721436,20.15097427368164,24.788061141967773
1701889241104195300,3.8431953125,1.513390302658081,17.117050170898438,28.35051727294922
1701889241121185500,3.860185546875,0.8796710968017578,11.311622619628906,28.722198486328125
1701889241138181600,3.877181640625,2.1911182403564453,4.071343421936035,26.49939727783203
1701889241155169000,3.8941689453125,3.2799973487854004,-4.945826053619385,23.026470184326172
1701889241172157700,3.91115771484375,4.9842143058776855,-14.804747581481934,17.65139389038086
1701889241189146600,3.928146728515625,8.675963401794434,-22.52737045288086,11.340946197509766
1701889241206135300,3.94513525390625,9.148571014404297,-26.734935760498047,5.646170616149902
1701889241223121200,3.96212109375,5.477027893066406,-28.388351440429688,1.7984488010406494
1701889241240109800,3.97910986328125,0.906041145324707,-28.471267700195312,-0.14344578981399536
1701889241257092400,3.99609228515625,-0.5890474319458008,-27.526718139648438,-1.2265815734863281
1701889241274097700,4.01309765625,0.9481258392333984,-26.934246063232422,-0.5197920799255371
1701889241291077000,4.0300771484375,3.2797014713287354,-25.839784622192383,0.08745193481445312
1701889241308069000,4.047069091796875,4.271439552307129,-23.29037094116211,-0.15990757942199707
1701889241325058000,4.06405810546875,1.8085705041885376,-20.479990005493164,1.2304189205169678
1701889241342047000,4.081046875,-1.7485501766204834,-17.386959075927734,3.166466236114502
1701889241359036000,4.098035888671875,-3.5625205039978027,-14.507935523986816,6.2710347175598145
1701889241376024600,4.115024658203125,-1.4700117111206055,-10.677240371704102,11.217906951904297
1701889241393013500,4.132013427734375,0.13926196098327637,-7.552140235900879,14.889108657836914
1701889241409998600,4.14899853515625,-1.0299749374389648,-2.013390302658081,14.718511581420898
1701889241426992400,4.165992431640625,-7.5748748779296875,7.230775356292725,18.20020866394043
1701889241443979500,4.1829794921875,-13.418318748474121,10.886127471923828,37.54473114013672
1701889241460969700,4.1999697265625,-5.469771862030029,14.672276496887207,49.675899505615234
1701889241477958000,4.2169580078125,7.267650604248047,16.878334045410156,32.104331970214844
1701889241494947800,4.23394775390625,10.44497299194336,14.512680053710938,11.365534782409668
1701889241511936000,4.25093603515625,6.040775775909424,11.305342674255371,0.9982986450195312
1701889241528924700,4.267924560546875,3.5467448234558105,10.8251953125,-3.6159939765930176
1701889241545913900,4.284913818359375,1.35198974609375,11.136131286621094,-6.424674987792969
1701889241562902800,4.30190283203125,0.9234278202056885,10.902027130126953,-7.719970226287842
1701889241579891700,4.3188916015625,2.874655246734619,10.926608085632324,-9.563767433166504
1701889241596880400,4.33588037109375,4.065274715423584,11.717277526855469,-11.55502986907959
1701889241613866500,4.352866455078125,2.0296554565429688,13.205305099487305,-13.267475128173828
1701889241630851600,4.3698515625,-0.36762189865112305,12.873424530029297,-12.292023658752441
1701889241647839200,4.386839111328125,-0.8165342807769775,11.288423538208008,-10.396903991699219
1701889241664818400,4.403818359375,-0.6166088581085205,9.155625343322754,-8.140917778015137
1701889241681814300,4.420814208984375,1.3526597023010254,8.182818412780762,-7.972134113311768
1701889241698814000,4.43781396484375,2.8958985805511475,9.141820907592773,-5.8003387451171875
1701889241715802000,4.454802001953125,1.46192467212677,11.805789947509766,-0.46886110305786133
1701889241732789200,4.471789306640625,-1.2858548164367676,14.10767650604248,9.289636611938477
1701889241749780500,4.488780517578125,-0.5165755748748779,18.129032135009766,15.053775787353516
1701889241766767000,4.50576708984375,1.1080782413482666,20.580562591552734,18.099403381347656
1701889241783750100,4.522750244140625,-1.218122959136963,18.489089965820312,23.00758171081543
1701889241800744200,4.539744140625,-2.001217842102051,15.910906791687012,25.81941032409668
1701889241817736200,4.556736083984375,-0.12882518768310547,10.167549133300781,25.392961502075195
1701889241834725400,4.573725341796875,4.120012283325195,2.3520736694335938,23.826717376708984
1701889241851702300,4.590702392578125,7.2144269943237305,-7.084222316741943,22.40348243713379
1701889241868703000,4.607702880859375,10.311275482177734,-16.102169036865234,17.428447723388672
1701889241885694000,4.62469384765625,11.876836776733398,-23.072999954223633,10.982656478881836
1701889241902679600,4.641679443359375,11.593527793884277,-27.97467613220215,5.640069961547852
1701889241919669200,4.658669189453125,10.258265495300293,-29.565919876098633,1.429362177848816
1701889241936658700,4.67565869140625,8.063263893127441,-29.323246002197266,-1.3962881565093994
1701889241953647400,4.6926474609375,5.333924293518066,-28.967674255371094,-1.9447423219680786
1701889241970625500,4.70962548828125,4.270528793334961,-27.960121154785156,-1.8644435405731201
1701889241987622700,4.72662255859375,4.945209980010986,-25.984785079956055,-1.027408480644226
1701889242004616700,4.74361669921875,5.538163185119629,-23.811491012573242,1.136584997177124
1701889242021603000,4.76060302734375,4.833770275115967,-21.731895446777344,5.418867588043213
1701889242038592000,4.777592041015625,2.025235176086426,-18.776744842529297,9.148005485534668
1701889242055576800,4.794576904296875,-0.26793575286865234,-15.589683532714844,14.466386795043945
1701889242072569300,4.8115693359375,-2.353194236755371,-12.412723541259766,15.923063278198242
1701889242089558300,4.828558349609375,-6.075301647186279,-7.12510871887207,12.959663391113281
1701889242106530300,4.8455302734375,-9.596826553344727,1.851637840270996,18.904338836669922
1701889242123529000,4.862529052734375,-9.51162052154541,8.65949821472168,37.18987274169922
1701889242140525300,4.879525390625,-4.442811965942383,14.929746627807617,50.18861389160156
1701889242157503500,4.89650341796875,2.0316877365112305,19.801105499267578,39.92257308959961
1701889242174503200,4.913503173828125,6.680939674377441,19.30644989013672,21.212249755859375
1701889242191491800,4.930491943359375,7.051689147949219,16.94609832763672,8.368359565734863
1701889242208480800,4.947480712890625,5.704977035522461,14.137930870056152,0.9217643737792969
1701889242225469700,4.9644697265625,3.2702887058258057,13.019279479980469,-3.9824233055114746
1701889242242458600,4.981458740234375,1.4670968055725098,12.780319213867188,-8.153131484985352
1701889242259447600,4.998447509765625,2.7915446758270264,14.608771324157715,-13.536279678344727
1701889242276436700,5.015436767578125,3.221355438232422,17.032621383666992,-15.916603088378906
1701889242293425400,5.03242529296875,1.0635898113250732,17.15542221069336,-15.25175666809082
1701889242310408200,5.049408203125,-1.4700729846954346,15.562320709228516,-13.53915023803711
1701889242327403300,5.0664033203125,-2.9420175552368164,13.147485733032227,-10.856002807617188
1701889242344395300,5.083395263671875,-2.7200570106506348,11.265535354614258,-7.967428207397461
1701889242361380900,5.100380859375,-0.259793758392334,9.814241409301758,-5.764371871948242
1701889242378369800,5.117369873046875,3.1684610843658447,9.330672264099121,-2.136399269104004
1701889242395359000,5.13435888671875,4.064612865447998,11.541120529174805,5.093725681304932
1701889242412337400,5.15133740234375,1.195757508277893,13.406547546386719,16.041658401489258
1701889242429336600,5.168336669921875,0.5432693958282471,15.827722549438477,23.424467086791992
1701889242446325800,5.18532568359375,0.25687432289123535,15.472492218017578,26.518831253051758
1701889242463314400,5.202314453125,-0.33002591133117676,12.84260368347168,26.325986862182617
1701889242480303400,5.219303466796875,0.827913761138916,8.021506309509277,26.462129592895508
1701889242497294600,5.236294677734375,2.363173484802246,2.2950820922851562,24.238258361816406
1701889242514281700,5.25328173828125,6.7601399421691895,-5.07988166809082,21.28346824645996
1701889242531259400,5.27025927734375,9.32404899597168,-12.994795799255371,16.642749786376953
1701889242548248000,5.287248046875,9.692997932434082,-18.86949920654297,10.366340637207031
1701889242565247500,5.30424755859375,8.725488662719727,-22.874162673950195,5.285773277282715
1701889242582236700,5.321236572265625,5.767496109008789,-24.86334991455078,1.523789882659912
1701889242599225300,5.338225341796875,1.802422285079956,-25.154373168945312,-0.7472764253616333
1701889242616214300,5.35521435546875,1.4043142795562744,-25.485855102539062,-1.7047160863876343
1701889242633200000,5.3722001953125,3.871689558029175,-26.28822135925293,-2.0121312141418457
1701889242650192100,5.389192138671875,5.786539077758789,-25.486759185791016,-3.6140594482421875
1701889242667171000,5.406171142578125,5.562398910522461,-23.632076263427734,-4.4048943519592285
1701889242684170000,5.423169921875,3.955693244934082,-22.013099670410156,-2.289938449859619
1701889242701156600,5.440156494140625,2.3167219161987305,-20.434221267700195,2.2535977363586426
1701889242718150000,5.45714990234375,-0.19479751586914062,-17.976558685302734,9.917405128479004
1701889242735134500,5.474134521484375,-4.024083137512207,-14.207794189453125,14.971240997314453
1701889242752128300,5.491128173828125,-3.616847276687622,-10.822220802307129,15.976119995117188
1701889242769111300,5.508111328125,-3.9231510162353516,-5.378807544708252,9.830249786376953
1701889242786103300,5.525103271484375,-7.766645431518555,3.656859874725342,12.180057525634766
1701889242803082000,5.54208203125,-8.75396728515625,9.201990127563477,30.62130355834961
1701889242820076500,5.55907666015625,-2.617327928543091,13.093676567077637,52.864540100097656
1701889242837059300,5.576059326171875,8.16063117980957,17.53028678894043,44.04279708862305
1701889242854061600,5.5930615234375,14.448392868041992,18.30417251586914,16.481430053710938
1701889242871047700,5.610047607421875,11.056519508361816,13.661792755126953,2.422438621520996
1701889242888035800,5.627035888671875,5.963019371032715,10.354069709777832,-2.977911949157715
1701889242905026600,5.644026611328125,2.501984119415283,9.784331321716309,-8.191286087036133
1701889242922003000,5.6610029296875,2.3763279914855957,9.87675952911377,-12.318572044372559
1701889242938993200,5.6779931640625,3.690824508666992,10.235809326171875,-12.693143844604492
1701889242955981800,5.69498193359375,4.727161884307861,12.220117568969727,-13.07585334777832
1701889242972970500,5.711970458984375,4.080387115478516,13.965520858764648,-13.506295204162598
1701889242989960000,5.7289599609375,1.1815060377120972,13.812273025512695,-12.192841529846191
1701889243006948400,5.7459482421875,-0.8963890075683594,12.782681465148926,-11.17578125
1701889243023941600,5.762941650390625,-1.2709555625915527,11.008115768432617,-10.181041717529297
1701889243040926700,5.7799267578125,0.814784049987793,9.683097839355469,-7.6794819831848145
1701889243057917400,5.79691748046875,2.9773526191711426,9.138507843017578,-3.2170791625976562
1701889243074908000,5.813907958984375,4.271291732788086,10.027830123901367,2.646332263946533
1701889243091903500,5.830903564453125,3.7016072273254395,13.0534029006958,11.979490280151367
1701889243108892200,5.84789208984375,6.065899848937988,18.30949592590332,18.829044342041016
1701889243125881000,5.864881103515625,6.8322553634643555,17.309303283691406,27.80470085144043
1701889243142864100,5.881864013671875,6.61729621887207,14.293553352355957,26.39457893371582
1701889243159861500,5.898861572265625,3.1376218795776367,10.92707633972168,25.994956970214844
1701889243176846300,5.915846435546875,-0.362438440322876,4.797033309936523,25.77093505859375
1701889243193837000,5.932837158203125,-0.12623047828674316,-2.9821853637695312,22.876283645629883
1701889243210817500,5.949817626953125,3.76363468170166,-11.98384952545166,17.554988861083984
1701889243227811800,5.966811767578125,8.664060592651367,-20.143125534057617,10.882884979248047
1701889243244806000,5.983805908203125,11.61389446258545,-24.99736213684082,4.498591423034668
1701889243261792300,6.000792236328125,9.30184555053711,-27.055973052978516,0.5265297889709473
1701889243278781000,6.017781005859375,4.424869060516357,-27.522830963134766,-0.705365777015686
1701889243295769000,6.03476904296875,2.676799774169922,-27.403533935546875,-1.8485352993011475
1701889243312759600,6.051759521484375,3.9112319946289062,-27.00601577758789,-3.4139223098754883
1701889243329747000,6.068746826171875,5.531341075897217,-26.156246185302734,-4.092283248901367
1701889243346734600,6.085734619140625,5.66985559463501,-23.81430435180664,-3.388148784637451
1701889243363722000,6.102721923828125,4.4754462242126465,-21.20415687561035,-0.4278240203857422
1701889243380703500,6.119703369140625,4.108579635620117,-19.01382827758789,5.1398844718933105
1701889243397702100,6.1367021484375,2.636348009109497,-16.302547454833984,12.14471435546875
1701889243414697500,6.153697509765625,-2.0948662757873535,-13.519054412841797,16.365745544433594
1701889243431666000,6.170666015625,-4.420802116394043,-8.247495651245117,11.872795104980469
1701889243448669700,6.187669677734375,-2.9932198524475098,0.5123429298400879,10.692730903625488
1701889243465658600,6.20465869140625,-7.463742256164551,6.774820327758789,23.6905517578125
1701889243482647600,6.2216474609375,-3.599198341369629,9.359851837158203,37.603782653808594
1701889243499636500,6.238636474609375,6.122439384460449,12.971874237060547,43.45641326904297
1701889243516625400,6.25562548828125,10.783855438232422,16.056547164916992,30.875274658203125
1701889243533611000,6.272611083984375,11.408660888671875,16.19493865966797,9.44540786743164
1701889243550584300,6.289584228515625,7.401829719543457,13.210201263427734,-1.2599196434020996
1701889243567591000,6.3065908203125,2.779367208480835,11.964765548706055,-5.578128814697266
1701889243584579800,6.323579833984375,1.5443181991577148,12.05441665649414,-8.612544059753418
1701889243601575000,6.340574951171875,2.5018815994262695,12.509721755981445,-10.528010368347168
1701889243618552600,6.357552490234375,3.553676128387451,13.479536056518555,-10.131299018859863
1701889243635548400,6.37454833984375,1.8722257614135742,13.35812759399414,-11.41043472290039
1701889243652535800,6.391535888671875,-1.5546783208847046,12.176566123962402,-13.820108413696289
1701889243669522400,6.4085224609375,-3.402195930480957,10.702152252197266,-14.767168998718262
1701889243686514200,6.42551416015625,-1.3865267038345337,9.727344512939453,-12.349308013916016
1701889243703517000,6.442516845703125,3.2461392879486084,9.447406768798828,-7.538412094116211
1701889243720480500,6.45948046875,6.2192888259887695,10.655799865722656,-2.921905040740967
1701889243737480700,6.476480712890625,4.733418941497803,12.717408180236816,2.005931854248047
1701889243754469600,6.4934697265625,2.1770172119140625,13.844263076782227,9.63332462310791
1701889243771458300,6.510458251953125,3.464421510696411,16.65557289123535,15.41699504852295
1701889243788447200,6.527447265625,5.506229877471924,16.758281707763672,23.26090431213379
1701889243805432800,6.544432861328125,6.188076972961426,13.900558471679688,26.337295532226562
1701889243822418000,6.56141796875,6.124835968017578,10.576784133911133,27.146465301513672
1701889243839409000,6.578408935546875,5.365185737609863,4.561115264892578,28.707006454467773
1701889243856393000,6.59539306640625,5.41585636138916,-3.5447754859924316,25.672941207885742
1701889243873391600,6.6123916015625,6.497261047363281,-11.621378898620605,17.7916202545166
1701889243890380500,6.629380615234375,8.258984565734863,-18.62987518310547,10.167326927185059
1701889243907367000,6.646366943359375,8.40197467803955,-23.402652740478516,4.416646957397461
1701889243924347400,6.663347412109375,7.260424613952637,-26.110763549804688,1.5779378414154053
1701889243941347000,6.68034716796875,6.019820213317871,-27.09760093688965,0.7447530031204224
1701889243958336000,6.6973359375,5.2392964363098145,-26.901748657226562,1.0420382022857666
1701889243975325200,6.7143251953125,5.327181816101074,-26.186908721923828,0.41327130794525146
1701889243992313900,6.73131396484375,5.304512977600098,-24.81714630126953,-2.1291654109954834
1701889244009302800,6.748302734375,3.988196849822998,-21.93789291381836,-5.608438491821289
1701889244026290700,6.765290771484375,1.8383266925811768,-19.774978637695312,-2.982083320617676
1701889244043278300,6.7822783203125,-0.30647993087768555,-17.786813735961914,5.207082748413086
1701889244060268000,6.79926806640625,-1.504500150680542,-14.563614845275879,12.846475601196289
1701889244077257200,6.81625732421875,0.15288448333740234,-9.71327018737793,14.613306045532227
1701889244094249500,6.83324951171875,0.09449100494384766,-3.084751605987549,7.73649787902832
1701889244111235800,6.85023583984375,-7.565034866333008,5.289827823638916,7.483247756958008
1701889244128225000,6.86722509765625,-14.503345489501953,11.543453216552734,22.961633682250977
1701889244145213700,6.884213623046875,-11.386499404907227,13.475836753845215,41.18437576293945
1701889244162202600,6.90120263671875,0.6663162708282471,14.3248291015625,43.62659454345703
1701889244179191600,6.918191650390625,14.585624694824219,15.140527725219727,23.002620697021484
1701889244196180200,6.93518017578125,17.192968368530273,12.462677001953125,3.5667858123779297
1701889244213169200,6.952169189453125,10.222359657287598,8.691045761108398,-4.441024303436279
1701889244230154000,6.969154052734375,3.4906129837036133,6.518709659576416,-6.993405342102051
1701889244247133200,6.98613330078125,1.549256443977356,5.4416985511779785,-9.26330280303955
1701889244264135400,7.003135498046875,3.9619078636169434,5.12300443649292,-9.768905639648438
1701889244281125000,7.020125,6.485966682434082,5.2672505378723145,-10.219656944274902
1701889244298103800,7.037103759765625,7.919071197509766,5.739002704620361,-12.116365432739258
1701889244315089400,7.05408935546875,6.370845794677734,5.36428689956665,-13.3140869140625
1701889244332082000,7.07108203125,3.969360589981079,5.382650375366211,-13.637736320495605
1701889244349072000,7.08807177734375,2.9702019691467285,5.523995399475098,-12.288385391235352
1701889244366061800,7.105061767578125,4.429355144500732,6.60244083404541,-10.560100555419922
1701889244383048400,7.12204833984375,5.878823280334473,7.890351295471191,-7.092790603637695
1701889244400041000,7.139041015625,6.56540060043335,9.108952522277832,-1.958005428314209
1701889244417031700,7.15603173828125,4.908562660217285,12.735469818115234,3.259652614593506
1701889244434015500,7.173015380859375,3.1447839736938477,19.141368865966797,10.638416290283203
1701889244450999000,7.1899990234375,2.0447542667388916,21.483108520507812,19.623966217041016
1701889244467998000,7.206998046875,1.5653250217437744,19.116798400878906,23.376405715942383
1701889244484986000,7.223986083984375,1.1441857814788818,15.571533203125,23.396747589111328
1701889244501976000,7.24097607421875,-1.8950951099395752,8.99841022491455,22.866943359375
1701889244518963000,7.257962890625,-3.897549629211426,1.642756462097168,19.92107391357422
1701889244535950800,7.274950927734375,-3.179927349090576,-5.421914100646973,15.968864440917969
1701889244552940000,7.29193994140625,0.17614364624023438,-13.312087059020996,12.756542205810547
1701889244569938200,7.308938232421875,5.917285442352295,-20.22742462158203,7.481475830078125
1701889244586924300,7.32592431640625,10.913681030273438,-24.356428146362305,3.0966153144836426
1701889244603913200,7.342913330078125,11.284892082214355,-25.761627197265625,1.1543941497802734
1701889244620902000,7.35990185546875,9.64509391784668,-26.489715576171875,2.259927272796631
1701889244637890800,7.376890869140625,8.664559364318848,-26.478046417236328,2.5056872367858887
1701889244654879700,7.393879638671875,8.109341621398926,-24.697479248046875,-0.5934180617332458
1701889244671858200,7.410858154296875,7.043163299560547,-21.801054000854492,-2.714414358139038
1701889244688839000,7.4278388671875,5.819201469421387,-19.535667419433594,1.977083683013916
1701889244705843500,7.444843505859375,4.508533000946045,-17.119382858276367,10.29140853881836
1701889244722824700,7.46182470703125,2.2570858001708984,-14.527984619140625,14.001431465148926
1701889244739823000,7.478822998046875,0.7285466194152832,-12.856171607971191,12.162495613098145
1701889244756813600,7.4958134765625,-2.3615646362304688,-8.245036125183105,10.167976379394531
1701889244773801500,7.512801513671875,-7.923351764678955,-1.424300193786621,12.405460357666016
1701889244790785000,7.529784912109375,-8.382162094116211,4.865480422973633,24.090423583984375
1701889244807778300,7.5467783203125,-1.5627796649932861,12.659799575805664,37.727840423583984
1701889244824769000,7.56376904296875,3.070821762084961,18.73687171936035,38.731353759765625
1701889244841757000,7.5807568359375,5.194728374481201,21.369579315185547,23.51024627685547
1701889244858746000,7.59774609375,3.9722321033477783,19.798959732055664,8.982757568359375
1701889244875735800,7.61473583984375,2.2633306980133057,16.232162475585938,0.6487941741943359
1701889244892720600,7.631720703125,2.6845381259918213,12.60464096069336,-5.302812099456787
1701889244909715200,7.648715087890625,4.018016338348389,10.34494686126709,-7.019137382507324
1701889244926698800,7.66569873046875,4.90548038482666,9.008953094482422,-6.996699333190918
1701889244943695000,7.682695068359375,6.6746320724487305,8.555880546569824,-10.579004287719727
1701889244960677000,7.699677001953125,5.908137321472168,7.826385021209717,-13.60403060913086
1701889244977668000,7.716668212890625,3.185821294784546,6.231405735015869,-14.986141204833984
1701889244994656800,7.73365673828125,0.5408937931060791,4.9984450340271,-14.835128784179688
1701889245011658500,7.750658447265625,0.9168248176574707,4.325875282287598,-13.274755477905273
1701889245028634600,7.767634521484375,3.520369052886963,4.9363226890563965,-11.317052841186523
1701889245045623600,7.78462353515625,4.2910614013671875,5.686977386474609,-7.353691101074219
1701889245062609000,7.80160888671875,2.2793378829956055,7.087212085723877,-3.905073642730713
1701889245079601200,7.81860107421875,-2.064558744430542,10.063613891601562,0.39676427841186523
1701889245096584400,7.83558447265625,-4.849164009094238,14.180391311645508,5.414456367492676
1701889245113568000,7.852568115234375,-3.7801833152770996,20.458202362060547,11.439529418945312
1701889245130555000,7.869554931640625,-2.564087390899658,21.108928680419922,21.71353530883789
1701889245147555000,7.88655517578125,-1.5117254257202148,19.27945327758789,24.47158432006836
1701889245164546000,7.903546142578125,-0.3362102508544922,14.243891716003418,24.568012237548828
1701889245181534200,7.9205341796875,2.446803569793701,6.974109649658203,23.233882904052734
1701889245198523100,7.937523193359375,5.409861087799072,-1.89227294921875,20.355010986328125
1701889245215511800,7.95451171875,7.753114223480225,-9.924763679504395,15.771718978881836
1701889245232501000,7.9715009765625,8.108295440673828,-16.17115020751953,10.684385299682617
1701889245249489200,7.9884892578125,6.9222412109375,-20.298738479614258,6.290726184844971
1701889245266479000,8.00547900390625,5.196669578552246,-23.459754943847656,3.033700942993164
1701889245283467300,8.02246728515625,4.605152606964111,-24.757991790771484,0.3245801329612732
1701889245300457000,8.03945703125,5.686514854431152,-25.446880340576172,-0.2711033821105957
1701889245317431300,8.056431396484374,7.4479475021362305,-25.428823471069336,-0.12238457798957825
1701889245334438700,8.073438720703125,8.756906509399414,-24.117046356201172,-0.8461872339248657
1701889245351417300,8.090417236328125,7.384444236755371,-21.50748062133789,0.41864490509033203
1701889245368411000,8.107410888671875,4.161028861999512,-18.42040252685547,4.778578758239746
1701889245385405200,8.1244052734375,0.48076963424682617,-16.01009750366211,11.418354034423828
1701889245402389500,8.141389404296875,-2.2230358123779297,-14.05941390991211,15.198549270629883
1701889245419378200,8.158378173828124,-3.175285816192627,-11.965473175048828,13.367938041687012
1701889245436364500,8.175364501953124,-5.7194600105285645,-5.600781440734863,12.262399673461914
1701889245453355300,8.192355224609376,-10.110569953918457,3.1242151260375977,17.992839813232422
1701889245470344700,8.2093447265625,-11.644298553466797,9.288854598999023,33.94451141357422
1701889245487331300,8.226331298828125,-7.886011600494385,14.13577651977539,41.37873458862305
1701889245504324900,8.243324951171875,-2.14438533782959,16.9232177734375,28.940643310546875
1701889245521304300,8.26030419921875,3.0485382080078125,15.81761646270752,13.855367660522461
1701889245538289400,8.277289306640625,5.607603073120117,13.605049133300781,3.7851481437683105
1701889245555283700,8.29428369140625,7.585247993469238,12.540458679199219,-2.2240853309631348
1701889245572268500,8.3112685546875,9.33344554901123,12.374324798583984,-4.577424049377441
1701889245589256200,8.328256103515624,10.250284194946289,12.754035949707031,-5.676363468170166
1701889245606255400,8.34525537109375,10.691873550415039,14.17255973815918,-7.4905924797058105
1701889245623244500,8.36224462890625,11.294723510742188,15.0703125,-10.08382797241211
1701889245640229000,8.37922900390625,9.400247573852539,13.816611289978027,-12.351439476013184
1701889245657222700,8.39622265625,5.840359687805176,11.755908966064453,-14.116357803344727
1701889245674211000,8.413211181640625,4.088728904724121,9.56369686126709,-14.481189727783203
1701889245691189200,8.430189208984375,3.933248519897461,7.817026615142822,-11.694108009338379
1701889245708188700,8.447188720703124,5.132360935211182,6.534119606018066,-6.899761199951172
1701889245725177600,8.464177490234375,6.3508148193359375,6.490851879119873,-3.051757574081421
1701889245742165000,8.4811650390625,4.037819862365723,8.468440055847168,0.6540894508361816
1701889245759158300,8.498158203125,-0.49126315116882324,12.340034484863281,5.240538597106934
1701889245776140800,8.515140869140625,-0.8881397247314453,18.948152542114258,10.98876953125
1701889245793132000,8.532132080078124,-0.6160562038421631,19.327621459960938,21.489635467529297
1701889245810124300,8.549124267578126,-0.34621286392211914,16.97919464111328,25.524213790893555
1701889245827109600,8.566109619140626,-2.353571653366089,13.027617454528809,27.35558319091797
1701889245844100000,8.58310009765625,-3.8219008445739746,6.284563064575195,26.957250595092773
1701889245861088300,8.600088134765626,-2.2594375610351562,-1.0070829391479492,22.24540138244629
1701889245878077200,8.6170771484375,0.5721757411956787,-8.098076820373535,16.333972930908203
1701889245895066000,8.634066162109375,3.9363551139831543,-14.543354988098145,11.327513694763184
1701889245912054800,8.6510546875,6.262819290161133,-19.622695922851562,6.942323684692383
1701889245929043700,8.668043701171875,6.938717365264893,-23.137895584106445,3.7239787578582764
1701889245946032000,8.6850322265625,5.4701385498046875,-25.332504272460938,2.2578868865966797
1701889245963004000,8.70200390625,3.8949360847473145,-25.79791259765625,1.4725531339645386
1701889245979999500,8.71899951171875,4.985174179077148,-26.064430236816406,0.6054468154907227
1701889245996992300,8.7359921875,6.903879165649414,-26.058866500854492,0.12410664558410645
1701889246013993000,8.752992919921875,6.812600612640381,-24.257354736328125,-0.2716025114059448
1701889246030966000,8.769966064453126,3.634720802307129,-21.007640838623047,1.3385915756225586
1701889246047965400,8.78696533203125,0.4239625930786133,-17.234901428222656,6.188764572143555
1701889246064958000,8.8039580078125,-1.2079744338989258,-13.454109191894531,10.610943794250488
1701889246081939700,8.820939697265626,-1.9302725791931152,-10.478570938110352,12.878984451293945
1701889246098932000,8.837931884765625,-5.0975236892700195,-4.90118408203125,11.707292556762695
1701889246115921000,8.8549208984375,-9.517276763916016,5.170525074005127,11.977669715881348
1701889246132909800,8.871909912109375,-9.334988594055176,11.886058807373047,21.778514862060547
1701889246149897700,8.888897705078126,-7.919956684112549,13.630860328674316,38.146018981933594
1701889246166887400,8.905887451171875,-1.7314515113830566,13.575252532958984,45.18338394165039
1701889246183874600,8.92287451171875,6.6699538230896,16.127368927001953,23.90085220336914
1701889246200867800,8.939867919921875,7.2659173011779785,12.8577880859375,4.622538089752197
1701889246217852000,8.956851806640625,5.050607681274414,8.79220199584961,-4.040319442749023
1701889246234842000,8.973842041015626,3.5024430751800537,6.7235283851623535,-7.447595119476318
1701889246251823600,8.99082373046875,3.121751308441162,6.224208831787109,-5.889619827270508
1701889246268820500,9.007820556640626,3.4008703231811523,6.521134376525879,-4.029628276824951
1701889246285809000,9.024808837890625,5.682046413421631,7.060359001159668,-5.9907732009887695
1701889246302796300,9.04179638671875,5.9640607833862305,7.488865375518799,-11.232025146484375
1701889246319776300,9.0587763671875,3.5741522312164307,6.41816520690918,-14.835958480834961
1701889246336766700,9.0757666015625,2.008401870727539,5.114365100860596,-16.291893005371094
1701889246353767200,9.09276708984375,1.9545671939849854,4.510359764099121,-15.14895248413086
1701889246370752500,9.10975244140625,2.8680472373962402,4.191622257232666,-10.889373779296875
1701889246387742500,9.126742431640626,4.8595499992370605,4.708831310272217,-7.319214820861816
1701889246404722700,9.14372265625,4.7303924560546875,6.428863525390625,-4.598644733428955
1701889246421705200,9.160705322265626,1.736937165260315,9.694323539733887,-0.9087400436401367
1701889246438695200,9.177695068359375,-0.5760848522186279,16.29319190979004,5.969763278961182
1701889246455686100,9.19468603515625,-0.3464341163635254,22.067293167114258,17.587919235229492
1701889246472677600,9.211677734375,0.03786969184875488,22.108474731445312,26.896549224853516
1701889246489664500,9.22866455078125,-0.6569385528564453,17.846723556518555,27.854705810546875
1701889246506656300,9.24565625,-0.4075939655303955,10.431492805480957,23.71735954284668
1701889246523648500,9.2626484375,0.8806381225585938,2.6293859481811523,18.146207809448242
1701889246540632800,9.2796328125,4.276008129119873,-6.089821815490723,14.361666679382324
1701889246557623800,9.296623779296874,6.443146705627441,-12.96045970916748,9.799836158752441
1701889246574615000,9.313614990234376,6.4698896408081055,-17.45150375366211,6.0133161544799805
1701889246591607000,9.33060693359375,5.38191032409668,-21.283023834228516,4.355443000793457
1701889246608597000,9.347596923828124,4.742185115814209,-24.91462516784668,2.608806848526001
1701889246625586000,9.3645859375,5.036543846130371,-27.457374572753906,-2.0921897888183594
1701889246642574800,9.381574951171874,6.255187034606934,-28.251001358032227,-7.078174591064453
1701889246659559200,9.39855908203125,6.358774185180664,-28.27596664428711,-8.00680923461914
1701889246676554500,9.415554443359374,5.366927146911621,-27.06139373779297,-4.522393226623535
1701889246693543700,9.432543701171875,3.936225175857544,-24.233806610107422,3.1745245456695557
1701889246710530000,9.449530029296875,1.8250980377197266,-20.21918487548828,8.473542213439941
1701889246727516400,9.466516357421876,0.4150664806365967,-16.040218353271484,10.897636413574219
1701889246744510200,9.48351025390625,-1.6635222434997559,-12.186450958251953,11.329183578491211
1701889246761496600,9.50049658203125,-3.912675380706787,-8.694589614868164,12.199434280395508
1701889246778485500,9.517485595703125,-6.417263507843018,-0.677976131439209,14.039521217346191
1701889246795474400,9.534474365234376,-7.371963977813721,7.355217933654785,25.345935821533203
1701889246812463000,9.551463134765624,-5.7958760261535645,13.366752624511719,43.38034439086914
1701889246829441500,9.568441650390625,2.7642455101013184,17.471948623657227,41.57183074951172
1701889246846439700,9.585439697265626,10.389795303344727,16.118356704711914,22.062908172607422
1701889246863430100,9.60243017578125,7.622687339782715,11.353897094726562,7.053348541259766
1701889246880407000,9.619406982421875,2.8872475624084473,8.758060455322266,-1.0017504692077637
1701889246897395700,9.636395751953126,1.5292096138000488,8.251052856445312,-4.434399604797363
1701889246914398000,9.65339794921875,1.1978580951690674,8.030216217041016,-6.091886520385742
1701889246931384800,9.670384765625,2.13816237449646,8.045671463012695,-6.037036895751953
1701889246948373500,9.68737353515625,3.2446677684783936,8.390005111694336,-8.965643882751465
1701889246965362400,9.704362548828126,3.2805988788604736,8.893447875976562,-11.792428970336914
1701889246982348000,9.72134814453125,2.12276029586792,9.164831161499023,-12.914863586425781
1701889246999340300,9.73834033203125,0.08247184753417969,8.352229118347168,-13.020732879638672
1701889247016328700,9.75532861328125,-0.5112612247467041,7.713188648223877,-12.632617950439453
1701889247033318000,9.77231787109375,0.9923210144042969,7.515170097351074,-9.680105209350586
1701889247050303200,9.78930322265625,3.023406505584717,6.981677532196045,-4.602527618408203
1701889247067295700,9.806295654296875,4.343335151672363,6.563729286193848,-1.5012755393981934
1701889247084283000,9.823282958984375,2.8133327960968018,8.388965606689453,0.2912936210632324
1701889247101272000,9.84027197265625,0.4012444019317627,11.074882507324219,5.833479404449463
1701889247118264000,9.85726416015625,2.3564043045043945,17.085988998413086,12.772436141967773
1701889247135250700,9.874250732421874,2.8830881118774414,18.27290916442871,24.109821319580078
1701889247152239600,9.891239501953125,2.5290322303771973,14.851164817810059,26.278976440429688
1701889247169227500,9.9082275390625,1.8752105236053467,7.932619094848633,22.502634048461914
1701889247186218000,9.925218017578125,0.7271368503570557,0.6756124496459961,18.62019157409668
1701889247203206000,9.942205810546875,1.9665179252624512,-6.844215393066406,13.650654792785645
1701889247220194800,9.95919482421875,5.857890605926514,-13.961099624633789,8.399744033813477
1701889247237183000,9.976182861328125,8.766305923461914,-19.37329864501953,4.309764385223389
1701889247254173200,9.993173095703124,8.701089859008789,-23.402843475341797,3.2344157695770264
1701889247271154000,10.01015380859375,7.264215469360352,-24.57579803466797,2.5561070442199707
1701889247288149800,10.027149658203125,6.331782341003418,-24.49872589111328,2.0387864112854004
1701889247305128400,10.04412841796875,6.5093092918396,-23.806720733642578,0.8248255252838135
1701889247322118700,10.06111865234375,6.181693077087402,-22.586702346801758,-0.9776273965835571
1701889247339120400,10.078120361328125,4.814908027648926,-20.527029037475586,-1.8380284309387207
1701889247356105200,10.095105224609375,1.0693209171295166,-17.197031021118164,-0.6721408367156982
1701889247373091000,10.112091064453125,-1.8502554893493652,-13.499679565429688,2.5779836177825928
1701889247390083000,10.1290830078125,-1.0222816467285156,-9.86009693145752,5.817793846130371
1701889247407071700,10.14607177734375,1.314396858215332,-9.12531566619873,11.111221313476562
1701889247424057900,10.163057861328125,0.49236273765563965,-6.790869235992432,11.303295135498047
1701889247441050600,10.180050537109375,-4.733447074890137,-2.286147356033325,6.654764652252197
1701889247458039800,10.197039794921874,-9.062479972839355,3.0666022300720215,10.974491119384766
1701889247475024600,10.214024658203124,-10.490462303161621,7.454041481018066,28.535005569458008
1701889247492015400,10.231015380859375,-3.5856189727783203,9.52762222290039,41.235923767089844
1701889247509002200,10.248002197265626,8.878646850585938,12.682378768920898,31.244346618652344
1701889247525992400,10.264992431640625,13.798501014709473,12.635591506958008,15.8856201171875
1701889247542984000,10.28198388671875,7.466548919677734,9.507625579833984,4.396390438079834
1701889247559973600,10.2989736328125,-0.6416134834289551,7.559510231018066,-3.683595657348633
1701889247576955100,10.315955078125,-4.39740514755249,6.528556823730469,-7.846200466156006
1701889247593949000,10.332948974609375,-3.4698939323425293,5.798389911651611,-10.05235767364502
1701889247610927000,10.349927001953125,0.5392374992370605,5.377378940582275,-10.772138595581055
1701889247627926500,10.366926513671874,4.797781467437744,5.9865851402282715,-10.985121726989746
1701889247644915500,10.38391552734375,5.639708995819092,7.014297962188721,-10.997023582458496
1701889247661904000,10.40090380859375,2.467068910598755,6.921273708343506,-10.201801300048828
1701889247678893000,10.41789306640625,-1.311647891998291,7.07057523727417,-11.006579399108887
1701889247695871200,10.434871337890625,-2.436279535293579,6.940282344818115,-10.679760932922363
1701889247712867000,10.4518671875,0.07973814010620117,7.311296463012695,-7.940395832061768
1701889247729848600,10.4688486328125,4.305426120758057,8.279447555541992,-3.0124878883361816
1701889247746837000,10.4858369140625,6.810795307159424,9.781721115112305,1.2346210479736328
1701889247763827500,10.502827392578125,6.323860168457031,10.613361358642578,6.493261337280273
1701889247780825900,10.519825927734376,6.034940242767334,15.504735946655273,10.668970108032227
1701889247797810200,10.53681005859375,3.104994773864746,17.034278869628906,17.660625457763672
1701889247814799600,10.553799560546874,-0.05250120162963867,17.9633846282959,20.926851272583008
1701889247831781600,10.57078173828125,-2.8637428283691406,15.723344802856445,25.40707015991211
1701889247848773000,10.587773193359375,-2.288168430328369,8.799764633178711,27.389930725097656
1701889247865762300,10.60476220703125,1.3661224842071533,-0.77410888671875,22.836074829101562
1701889247882749700,10.621749755859375,6.274168968200684,-10.109675407409668,16.104379653930664
1701889247899739400,10.638739501953125,9.659073829650879,-16.885385513305664,8.268492698669434
1701889247916726800,10.655726806640626,10.508174896240234,-20.391019821166992,2.3599274158477783
1701889247933715700,10.6727158203125,7.972050666809082,-22.91529655456543,-0.13203254342079163
1701889247950701000,10.689701171875,3.9156012535095215,-25.31922149658203,0.4866693615913391
1701889247967697000,10.70669677734375,1.0044329166412354,-26.870319366455078,2.3379316329956055
1701889247984684800,10.723684814453126,1.805356740951538,-26.112571716308594,0.350033164024353
1701889248001672700,10.740672607421875,4.750872611999512,-24.39913558959961,-2.9135608673095703
1701889248018663700,10.75766357421875,6.743690490722656,-22.364709854125977,-2.756466865539551
1701889248035651600,10.774651611328125,5.6627197265625,-20.177894592285156,1.8494019508361816
1701889248052646700,10.791646728515625,2.163267135620117,-17.29810333251953,8.728182792663574
1701889248069635000,10.808635009765625,-2.5083112716674805,-14.055750846862793,14.985469818115234
1701889248086621200,10.82562109375,-4.764737606048584,-10.710184097290039,13.295327186584473
1701889248103617500,10.842617431640624,-5.46218204498291,-6.242106914520264,7.554571628570557
1701889248120602000,10.85960205078125,-5.559274196624756,-1.2627372741699219,9.821535110473633
1701889248137580000,10.876580078125,-6.051583290100098,0.6879963874816895,30.048568725585938
1701889248154583000,10.8935830078125,-5.106501579284668,6.484555244445801,49.092098236083984
1701889248171560000,10.910559814453125,2.5617620944976807,13.399938583374023,34.685272216796875
1701889248188567300,10.9275673828125,9.155786514282227,15.875378608703613,13.799280166625977
1701889248205546000,10.9445458984375,5.141063213348389,14.514432907104492,5.510786056518555
1701889248222535000,10.961534912109375,0.6281280517578125,13.613176345825195,2.7659549713134766
1701889248239523600,10.978523681640626,-0.22672271728515625,12.996663093566895,-0.061272621154785156
1701889248256511700,10.99551171875,0.005674839019775391,11.48414134979248,0.31368541717529297
1701889248273502200,11.012502197265626,1.455754041671753,11.286410331726074,-4.625730037689209
1701889248290490000,11.029489990234374,2.7620391845703125,11.662007331848145,-10.653282165527344
1701889248307478000,11.04647802734375,3.646238088607788,11.679960250854492,-13.437385559082031
1701889248324468700,11.06346875,3.566403865814209,10.497849464416504,-13.817352294921875
1701889248341453800,11.080453857421874,2.310035228729248,8.772600173950195,-11.281657218933105
1701889248358450200,11.0974501953125,2.657299041748047,7.643544673919678,-9.193770408630371
1701889248375432000,11.114431884765626,4.271470546722412,7.400512218475342,-7.3188018798828125
1701889248392419600,11.131419677734375,5.007307052612305,7.582559108734131,-4.321186542510986
1701889248409409500,11.148409423828125,3.814891815185547,7.886713027954102,-0.20403528213500977
1701889248426400500,11.165400390625,2.1988916397094727,7.475954055786133,5.919434070587158
1701889248443392000,11.18239208984375,4.418729782104492,12.012700080871582,10.110085487365723
1701889248460377900,11.1993779296875,4.621963024139404,16.89830780029297,18.252517700195312
1701889248477366800,11.21636669921875,2.318962812423706,16.786434173583984,24.730005264282227
1701889248494355700,11.233355712890624,-1.0425209999084473,14.627729415893555,26.925403594970703
1701889248511344400,11.250344482421875,-2.8242292404174805,8.656388282775879,26.77371597290039
1701889248528333300,11.267333251953126,-0.45598840713500977,-0.18467998504638672,22.34549331665039
1701889248545322000,11.284322021484375,2.8410775661468506,-8.063431739807129,15.140300750732422
1701889248562308000,11.30130810546875,4.817272663116455,-14.24207592010498,8.772045135498047
1701889248579288600,11.31828857421875,5.183128356933594,-19.27988052368164,5.090196132659912
1701889248596276000,11.33527587890625,4.220111846923828,-22.274459838867188,1.702152967453003
1701889248613282300,11.3522822265625,3.134664297103882,-23.524227142333984,-1.0749866962432861
1701889248630255600,11.369255615234374,3.9506325721740723,-24.445213317871094,-2.213804244995117
1701889248647254000,11.38625390625,5.889087677001953,-24.855609893798828,-1.9949734210968018
1701889248664244200,11.403244140625,6.768715858459473,-24.683908462524414,-0.18681371212005615
1701889248681232400,11.420232421875,5.091747760772705,-23.358257293701172,0.376971960067749
1701889248698221300,11.43722119140625,2.5641098022460938,-20.61405372619629,-0.48331379890441895
1701889248715210000,11.4542099609375,0.6889164447784424,-18.303699493408203,1.013817310333252
1701889248732198700,11.47119873046875,0.09663009643554688,-15.778251647949219,7.210689067840576
1701889248749187600,11.4881875,-0.5233941078186035,-12.180272102355957,16.60399627685547
1701889248766175700,11.50517578125,-0.17230749130249023,-7.3600687980651855,17.67549705505371
1701889248783166500,11.52216650390625,-2.7690439224243164,-0.14585351943969727,10.197264671325684
1701889248800157400,11.539157470703126,-7.783107280731201,6.5283942222595215,10.402883529663086
1701889248817137700,11.5561376953125,-9.651082992553711,10.886453628540039,24.196496963500977
1701889248834130200,11.573130126953124,-3.834397315979004,12.907526016235352,42.27654266357422
1701889248851123700,11.590123779296874,9.615669250488281,15.329158782958984,37.467918395996094
1701889248868107300,11.607107177734376,16.55227279663086,16.120201110839844,14.833066940307617
1701889248885100800,11.624100830078126,9.304201126098633,11.366856575012207,0.908261775970459
1701889248902083800,11.641083740234375,0.8560130596160889,8.693302154541016,-5.223011016845703
1701889248919075800,11.658075927734375,-2.7882394790649414,7.753629684448242,-8.257340431213379
1701889248936064500,11.675064453125,-3.1106905937194824,6.910565376281738,-8.62702751159668
1701889248953053200,11.69205322265625,0.12140417098999023,5.707419395446777,-8.187983512878418
1701889248970039000,11.7090390625,5.1133527755737305,5.883331775665283,-10.984822273254395
1701889248987031600,11.726031494140624,5.9365010261535645,6.611526966094971,-14.078256607055664
1701889249004018700,11.743018798828125,1.8030635118484497,6.076622486114502,-15.286924362182617
1701889249021020700,11.760020751953125,-2.127047538757324,5.637394905090332,-15.513189315795898
1701889249037978600,11.776978515625,-2.3929688930511475,5.537492275238037,-12.565247535705566
1701889249054979300,11.793979248046876,1.036393404006958,5.940018177032471,-8.882892608642578
1701889249071964200,11.810964111328126,5.250465393066406,7.4470601081848145,-5.151165962219238
1701889249088961300,11.827961181640624,8.00624942779541,9.189590454101562,-1.211747169494629
1701889249105954800,11.844954833984374,5.85174036026001,10.861662864685059,4.156502723693848
1701889249122941200,11.861941162109375,3.7084782123565674,15.713997840881348,8.306867599487305
1701889249139929900,11.878929931640625,3.406845808029175,19.953357696533203,14.875720977783203
1701889249156918000,11.89591796875,4.549456596374512,20.668392181396484,20.504709243774414
1701889249173908500,11.912908447265625,11.122621536254883,20.21223258972168,20.161853790283203
1701889249190885600,11.9298857421875,10.027883529663086,15.685359001159668,23.33820343017578
1701889249207883300,11.94688330078125,-0.8464760780334473,5.426449298858643,25.806201934814453
1701889249224873700,11.963873779296875,-7.3882012367248535,-1.6100707054138184,20.865659713745117
1701889249241864000,11.980864013671875,-3.844315528869629,-8.331779479980469,16.377248764038086
1701889249258855400,11.99785546875,2.8869218826293945,-15.827737808227539,12.69094467163086
1701889249275835400,12.01483544921875,9.311399459838867,-21.42601776123047,8.819382667541504
1701889249292828700,12.03182861328125,11.679468154907227,-24.764175415039062,5.192651271820068
1701889249309817900,12.04881787109375,11.007530212402344,-26.5634765625,2.006899356842041
1701889249326806800,12.065806884765625,10.408344268798828,-26.730167388916016,0.6846741437911987
1701889249343799000,12.082799072265624,9.374458312988281,-25.454059600830078,0.6508203148841858
1701889249360784100,12.0997841796875,8.019489288330078,-22.645565032958984,2.3598780632019043
1701889249377773300,12.116773193359375,5.846217632293701,-19.60789680480957,6.355429649353027
1701889249394762000,12.133761962890626,4.0780029296875,-16.6739444732666,8.853962898254395
1701889249411740200,12.150740234375,2.152621030807495,-14.367439270019531,9.921557426452637
1701889249428744200,12.167744140625,0.5201025009155273,-13.044317245483398,11.417906761169434
1701889249445717800,12.1847177734375,-2.0135655403137207,-11.400452613830566,13.34775161743164
1701889249462724900,12.201724853515625,-6.449613094329834,-4.338837146759033,12.842754364013672
1701889249479699200,12.21869921875,-7.09678316116333,8.971854209899902,16.975465774536133
1701889249496684800,12.235684814453125,-8.770463943481445,14.782426834106445,38.652732849121094
1701889249513683500,12.252683349609375,-7.640018939971924,18.095609664916992,48.03633499145508
1701889249530678300,12.26967822265625,0.7052488327026367,19.457988739013672,29.085830688476562
1701889249547660800,12.286660888671875,8.36758041381836,17.069786071777344,8.243276596069336
1701889249564649700,12.303649658203126,7.42885684967041,12.918323516845703,-0.46564579010009766
1701889249581638700,12.320638671875,4.744307518005371,10.792638778686523,-3.9659528732299805
1701889249598621700,12.33762158203125,4.56294584274292,9.788843154907227,-6.5447587966918945
1701889249615616300,12.3546162109375,4.868353366851807,9.3853759765625,-6.8519134521484375
1701889249632605000,12.37160498046875,5.55003023147583,9.44137954711914,-7.204349517822266
1701889249649593600,12.388593505859374,6.077753067016602,10.523955345153809,-10.630853652954102
1701889249666580200,12.405580322265624,5.19696569442749,10.446415901184082,-13.247577667236328
1701889249683573500,12.422573486328124,3.550696611404419,9.206733703613281,-13.840705871582031
1701889249700559400,12.439559326171874,3.4760313034057617,7.862482070922852,-13.7124605178833
1701889249717547300,12.45654736328125,5.1148505210876465,7.1072096824646,-11.820394515991211
1701889249734537000,12.473536865234376,5.637818813323975,7.212292671203613,-7.992424964904785
1701889249751526400,12.4905263671875,5.468713760375977,8.218286514282227,-4.858648300170898
1701889249768515000,12.50751513671875,4.553636074066162,9.88809585571289,-1.2966117858886719
1701889249785504300,12.524504150390625,2.488839626312256,10.621047973632812,4.479528427124023
1701889249802489600,12.541489501953125,2.5425591468811035,16.79067039489746,8.188138961791992
1701889249827968500,12.566968505859375,1.9405596256256104,20.820775985717773,25.562788009643555
1701889249844954400,12.583954345703125,1.7727200984954834,17.376840591430664,29.470548629760742
1701889249861953000,12.600953125,1.0941917896270752,12.711009979248047,26.747802734375
1701889249878942000,12.61794189453125,0.14461994171142578,4.657291412353516,24.409685134887695
1701889249895916000,12.634916015625,1.0299129486083984,-4.249966144561768,20.25165367126465
1701889249912908000,12.651907958984374,3.674539089202881,-13.482479095458984,14.945159912109375
1701889249929897700,12.668897705078125,5.699916839599609,-20.211563110351562,9.307300567626953
1701889249946886400,12.685886474609376,5.867629528045654,-23.64818572998047,4.012140274047852
1701889249963879200,12.702879150390626,5.283988952636719,-24.993431091308594,1.1865670680999756
1701889249980865500,12.719865478515626,5.104383945465088,-25.408422470092773,2.442336320877075
1701889249997855000,12.73685498046875,5.842916488647461,-24.61505889892578,4.207837104797363
1701889250014843100,12.753843017578125,6.185764312744141,-23.15247344970703,5.130136013031006
1701889250031829200,12.770829345703126,4.288700103759766,-21.686988830566406,4.445547580718994
1701889250048823800,12.78782373046875,2.994523286819458,-19.31204605102539,2.259350299835205
1701889250065809700,12.8048095703125,2.8620285987854004,-17.28236961364746,4.260019302368164
1701889250082802200,12.82180224609375,3.3028931617736816,-14.621803283691406,9.020200729370117
1701889250099788500,12.83878857421875,2.1903562545776367,-11.891813278198242,14.339849472045898
1701889250116786000,12.855785888671875,-1.7464518547058105,-8.325220108032227,15.155515670776367
1701889250133770500,12.8727705078125,-7.230233192443848,-1.398294448852539,10.653882026672363
1701889250150754800,12.8897548828125,-8.809672355651855,6.948333740234375,13.888285636901855
1701889250167751700,12.906751708984375,-10.356412887573242,10.79675579071045,33.1380729675293
1701889250184743000,12.923742919921875,-4.506895542144775,14.731554985046387,42.9678840637207
1701889250201729500,12.9407294921875,2.5510852336883545,17.83377456665039,30.928327560424805
1701889250218718000,12.957718017578125,6.389901161193848,16.20610237121582,13.908056259155273
1701889250235707000,12.974706787109374,0.1443338394165039,12.48027515411377,1.3580036163330078
1701889250252692000,12.99169189453125,-3.027341365814209,9.586132049560547,-3.9357876777648926
1701889250269684700,13.008684814453124,-1.1209473609924316,8.086671829223633,-8.56203842163086
1701889250286670300,13.02567041015625,5.2392354011535645,8.128427505493164,-9.977633476257324
1701889250303665400,13.04266552734375,7.887075901031494,9.73802375793457,-9.361715316772461
1701889250320650000,13.05964990234375,7.263612270355225,11.525671005249023,-8.119316101074219
1701889250337639400,13.076639404296875,4.585526466369629,11.639734268188477,-9.346990585327148
1701889250354628000,13.093628173828124,1.013230800628662,10.192525863647461,-13.500096321105957
1701889250371603200,13.110603271484376,-1.4036269187927246,8.992162704467773,-15.654502868652344
1701889250388605400,13.12760546875,1.7500104904174805,8.878368377685547,-13.794001579284668
1701889250405594600,13.1445947265625,8.393226623535156,8.64869499206543,-8.654683113098145
1701889250422583300,13.161583251953125,10.935609817504883,8.258255958557129,-2.9618194103240967
1701889250439571200,13.1785712890625,7.760813236236572,8.180743217468262,0.37461185455322266
1701889250456561400,13.1955615234375,2.4032843112945557,9.760857582092285,3.696258544921875
1701889250473549800,13.2125498046875,-1.651118278503418,14.913726806640625,8.444587707519531
1701889250490538200,13.229538330078125,0.2508735656738281,20.229795455932617,15.256546020507812
1701889250507524600,13.246524658203125,0.19791316986083984,18.466325759887695,24.975385665893555
1701889250524518100,13.26351806640625,-2.487785816192627,16.739543914794922,26.7385311126709
1701889250541503000,13.2805029296875,-3.611074447631836,10.517313003540039,27.261762619018555
1701889250558494500,13.297494384765624,-0.499936580657959,1.2146940231323242,24.340099334716797
1701889250575480000,13.31447998046875,4.391749382019043,-8.417731285095215,18.816640853881836
1701889250592474000,13.33147412109375,6.591111183166504,-15.676315307617188,12.114899635314941
1701889250609459700,13.348459716796874,6.855154514312744,-20.19688606262207,7.613866806030273
1701889250626448000,13.36544775390625,6.052271366119385,-23.361251831054688,6.040050029754639
1701889250643438000,13.38243798828125,4.947757244110107,-24.947925567626953,4.964800834655762
1701889250660425700,13.39942578125,4.7800140380859375,-25.382404327392578,4.052854061126709
1701889250677415200,13.416415283203126,7.177953720092773,-25.032114028930664,2.2788450717926025
1701889250694400500,13.433400390625,8.581019401550293,-24.199630737304688,1.6994240283966064
1701889250711392300,13.450392333984375,7.002964019775391,-22.256193161010742,2.788776397705078
1701889250728379000,13.46737890625,3.4452104568481445,-19.805973052978516,4.502357006072998
1701889250745372200,13.4843720703125,1.0978951454162598,-16.9749755859375,6.454533576965332
1701889250762355200,13.501355224609375,-2.2148571014404297,-13.88992691040039,8.64744758605957
1701889250779340500,13.518340576171875,-3.647332191467285,-11.571359634399414,11.271661758422852
1701889250796327400,13.535327392578125,-4.406452655792236,-8.859304428100586,11.80595588684082
1701889250813314800,13.552314697265626,-6.568112850189209,-3.0490803718566895,9.634590148925781
1701889250830314000,13.56931396484375,-10.363210678100586,6.556262016296387,12.776874542236328
1701889250847302400,13.586302490234376,-12.688777923583984,11.012859344482422,29.653053283691406
1701889250864291000,13.603291015625,-8.075935363769531,14.544910430908203,43.46800994873047
1701889250881280300,13.6202802734375,0.18298101425170898,17.926631927490234,33.3234977722168
1701889250898268700,13.6372685546875,6.428554058074951,18.461841583251953,13.505976676940918
1701889250915257600,13.654257568359375,4.7689127922058105,14.558304786682129,2.042428970336914
1701889250932246000,13.67124609375,1.6098756790161133,11.95343017578125,-3.640697956085205
1701889250949233000,13.68823291015625,1.0723156929016113,10.403083801269531,-7.476696968078613
1701889250966226700,13.705226806640624,3.262526273727417,9.397001266479492,-8.146245956420898
1701889250983210000,13.7222099609375,5.940215110778809,9.647289276123047,-8.777366638183594
1701889251000204300,13.739204345703126,6.143020153045654,10.560409545898438,-10.825756072998047
1701889251017188600,13.756188720703125,3.5193963050842285,9.696525573730469,-12.081072807312012
1701889251034181000,13.77318115234375,0.6539187431335449,7.63341760635376,-12.990372657775879
1701889251051167700,13.790167724609375,0.1925201416015625,7.009462833404541,-13.846256256103516
1701889251068156200,13.80715625,2.1772196292877197,7.484317779541016,-11.905120849609375
1701889251085145900,13.824145751953125,5.87142276763916,8.456293106079102,-6.846303462982178
1701889251102134000,13.841134033203126,7.557355880737305,9.370071411132812,-1.0009760856628418
1701889251119123000,13.858123046875,4.730874061584473,11.27135944366455,3.6801557540893555
1701889251136110600,13.875110595703125,2.1637210845947266,12.872478485107422,8.352010726928711
1701889251153101300,13.892101318359375,2.768033981323242,19.169715881347656,12.198270797729492
1701889251170078500,13.909078369140625,2.23091721534729,18.294748306274414,22.94725227355957
1701889251187073800,13.92607373046875,0.6710371971130371,18.190872192382812,25.19452667236328
1701889251204055600,13.9430556640625,-3.1123204231262207,13.943861961364746,27.27947425842285
1701889251221045500,13.96004541015625,-2.4884276390075684,5.6277618408203125,27.309162139892578
1701889251238034000,13.977033935546874,1.1423213481903076,-4.080742835998535,22.093385696411133
1701889251255032800,13.99403271484375,5.312610626220703,-13.277393341064453,15.72275161743164
1701889251272010800,14.0110107421875,8.794116973876953,-19.74990463256836,9.887273788452148
1701889251289010700,14.0280107421875,9.1213960647583,-23.48419952392578,5.645933151245117
1701889251305988000,14.044988037109375,6.0919952392578125,-24.97527313232422,2.6795382499694824
1701889251322980900,14.06198095703125,3.127595901489258,-25.27080726623535,1.100419521331787
1701889251339967500,14.078967529296875,3.4570205211639404,-25.641368865966797,0.6495596170425415
1701889251356960000,14.0959599609375,5.007369041442871,-26.319232940673828,1.795013427734375
1701889251373952500,14.112952392578125,5.819112300872803,-24.95703887939453,1.1624749898910522
1701889251390932700,14.1299326171875,5.798059940338135,-21.984682083129883,-0.8350080251693726
1701889251407931400,14.146931396484375,4.368152618408203,-19.91614532470703,0.028797149658203125
1701889251424919800,14.163919921875,2.6407949924468994,-18.023330688476562,5.570528030395508
1701889251441906200,14.18090625,-0.30254268646240234,-14.387791633605957,13.410758972167969
1701889251458893300,14.197893310546876,-3.6290431022644043,-8.678991317749023,17.136615753173828
1701889251475883800,14.2148837890625,-7.604409217834473,3.0464372634887695,12.218814849853516
1701889251492867300,14.231867431640625,-16.038177490234375,12.174825668334961,19.61397361755371
1701889251509858300,14.2488583984375,-20.847187042236328,14.862007141113281,35.068878173828125
1701889251526846700,14.2658466796875,-9.55128288269043,15.346884727478027,40.91873550415039
1701889251543843800,14.28284375,10.598264694213867,14.315393447875977,27.654441833496094
1701889251560826600,14.29982666015625,18.53780746459961,11.81764030456543,11.43055248260498
1701889251577821700,14.31682177734375,12.773279190063477,7.316051483154297,1.4166698455810547
1701889251594808600,14.33380859375,4.215372562408447,5.235424995422363,-4.7656569480896
1701889251611786500,14.350786376953126,-0.9517478942871094,5.718574047088623,-11.077377319335938
1701889251628768300,14.367768310546875,-1.1084504127502441,6.383068561553955,-12.496114730834961
1701889251645773600,14.384773681640626,0.9123315811157227,7.154053688049316,-10.343578338623047
1701889251662759200,14.40175927734375,5.951788902282715,7.803900241851807,-10.320874214172363
1701889251679742000,14.418741943359375,10.888568878173828,8.28802490234375,-11.501214981079102
1701889251696741000,14.4357412109375,10.121021270751953,7.196162223815918,-12.018250465393066
1701889251713729500,14.4527294921875,6.024868011474609,6.204322814941406,-14.0245943069458
1701889251730718200,14.46971826171875,3.114596128463745,7.136803150177002,-16.881877899169922
1701889251747706600,14.48670654296875,3.2627885341644287,7.854140758514404,-14.126747131347656
1701889251764695800,14.50369580078125,6.139525413513184,8.101228713989258,-6.199247360229492
1701889251781681400,14.520681396484376,8.711193084716797,9.185050010681152,-0.07929563522338867
1701889251798673200,14.537673095703125,8.559958457946777,13.673376083374023,1.928314208984375
1701889251815661800,14.554661865234374,7.373283863067627,23.043231964111328,6.302062511444092
1701889251832651000,14.571651123046875,5.20119571685791,25.86870574951172,18.272432327270508
1701889251849639000,14.588638916015626,4.154484748840332,27.912004470825195,22.804033279418945
1701889251866630700,14.605630615234375,-2.794633388519287,28.21623992919922,28.642221450805664
1701889251883615700,14.62261572265625,-10.831645965576172,18.373308181762695,38.916011810302734
1701889251900609000,14.639609130859375,-8.64123249053955,4.033363342285156,34.097835540771484
1701889251917594400,14.656594482421875,0.8423182964324951,-7.714226245880127,21.717260360717773
1701889251934583600,14.67358349609375,7.026989936828613,-17.097990036010742,14.870086669921875
1701889251951571700,14.69057177734375,8.367816925048828,-23.384931564331055,10.661828994750977
1701889251968560400,14.707560302734375,5.640440940856934,-27.075124740600586,7.851599216461182
1701889251985550300,14.72455029296875,2.36403751373291,-29.702579498291016,7.234307289123535
1701889252002538500,14.74153857421875,1.3598337173461914,-31.322416305541992,6.881669044494629
1701889252019527000,14.75852685546875,3.9450414180755615,-31.16564178466797,3.0693063735961914
1701889252036515300,14.775515380859375,6.728226184844971,-28.885478973388672,-0.7651972770690918
1701889252053496800,14.792496826171876,6.636573791503906,-25.39295196533203,0.21303260326385498
1701889252070493200,14.8094931640625,4.554221153259277,-22.578384399414062,6.606795310974121
1701889252087480000,14.82647998046875,3.769099712371826,-19.55091094970703,11.623917579650879
1701889252104462800,14.843462890625,3.1381847858428955,-16.00531005859375,12.300430297851562
1701889252121444000,14.860444091796875,-0.10230541229248047,-11.644651412963867,12.820199966430664
1701889252138448400,14.877448486328126,-2.975557327270508,-4.831691741943359,12.335941314697266
1701889252155436800,14.894436767578124,-8.0498628616333,5.710881233215332,15.600835800170898
1701889252172423200,14.911423095703125,-11.732402801513672,13.34760856628418,28.794940948486328
1701889252189414700,14.92841455078125,-6.448631286621094,16.546401977539062,45.60719680786133
1701889252206400800,14.94540087890625,-0.7085628509521484,17.819929122924805,41.039119720458984
1701889252223394600,14.96239453125,6.6152143478393555,17.647300720214844,15.311075210571289
1701889252240381200,14.979381103515625,8.45638656616211,13.957008361816406,2.150144100189209
1701889252257368600,14.99636865234375,4.680622100830078,11.178068161010742,-2.257080078125
1701889252274357000,15.01335693359375,3.5225071907043457,10.42154598236084,-5.031429767608643
1701889252291349200,15.030349365234375,2.465214729309082,9.74022388458252,-3.497232437133789
1701889252308329500,15.04732958984375,4.604752063751221,9.805736541748047,-3.8367040157318115
1701889252325325800,15.064325927734375,7.70839786529541,10.300172805786133,-8.12791919708252
1701889252342316000,15.08131591796875,8.058295249938965,9.563236236572266,-11.559090614318848
1701889252359301000,15.098301025390626,5.323079586029053,8.064996719360352,-14.147232055664062
1701889252376292000,15.1152919921875,2.1674201488494873,8.43160343170166,-16.641712188720703
1701889252393279700,15.13227978515625,1.7820444107055664,9.55596923828125,-13.55595588684082
1701889252410268400,15.149268310546875,4.995657920837402,9.757499694824219,-7.454298973083496
1701889252427256800,15.1662568359375,8.149555206298828,11.245100021362305,-3.1256978511810303
1701889252444246300,15.183246337890624,7.334303855895996,11.875332832336426,0.402498722076416
1701889252461234700,15.200234619140625,5.093011856079102,15.25882339477539,4.167098522186279
1701889252478223400,15.217223388671876,2.047642230987549,23.423198699951172,12.24544906616211
1701889252495211500,15.23421142578125,-0.5570359230041504,22.643550872802734,24.701520919799805
1701889252512205000,15.251205078125,0.03543519973754883,21.53270721435547,25.287235260009766
1701889252529181700,15.268181640625,-3.401549816131592,15.386402130126953,26.079660415649414
1701889252546169900,15.285169921875,-1.5843186378479004,5.245475769042969,24.267623901367188
1701889252563167700,15.302167724609374,0.7600569725036621,-4.416743278503418,19.471830368041992
1701889252580156200,15.31915625,2.6192705631256104,-12.144838333129883,14.408220291137695
1701889252597144600,15.33614453125,4.50325345993042,-17.75678253173828,10.631478309631348
1701889252614130200,15.353130126953126,5.383206367492676,-21.53615379333496,7.732410907745361
1701889252631122000,15.370121826171875,5.943731307983398,-24.324790954589844,6.296632766723633
1701889252648111000,15.387111083984376,7.7613935470581055,-26.35981559753418,5.299091815948486
1701889252665099500,15.404099609375,9.730093002319336,-27.007062911987305,3.6176459789276123
1701889252682085000,15.421085205078125,9.568259239196777,-26.479663848876953,2.060971975326538
1701889252699077600,15.43807763671875,6.902098655700684,-24.015945434570312,1.0621137619018555
1701889252716065500,15.4550654296875,4.2816267013549805,-20.90813446044922,2.930469036102295
1701889252733052000,15.472052001953125,3.9142374992370605,-18.746883392333984,6.816769599914551
1701889252750042000,15.4890419921875,5.05466890335083,-16.94013214111328,10.847386360168457
1701889252767035400,15.506035400390624,5.6688947677612305,-15.226764678955078,13.377288818359375
1701889252784018700,15.523018798828126,3.9027485847473145,-12.934077262878418,12.452309608459473
1701889252801009400,15.540009521484375,-5.1649980545043945,-5.844480514526367,8.835149765014648
1701889252817998300,15.556998291015624,-13.942893981933594,3.2878928184509277,11.676766395568848
1701889252834986800,15.57398681640625,-18.204936981201172,7.297237396240234,30.694278717041016
1701889252851976000,15.590975830078126,-11.400838851928711,10.83150863647461,48.628211975097656
1701889252868963800,15.6079638671875,2.5076050758361816,17.599472045898438,36.85309982299805
1701889252885954000,15.6249541015625,12.524856567382812,18.277759552001953,15.113275527954102
1701889252902941700,15.641941650390624,5.698237419128418,13.998477935791016,2.605792999267578
1701889252919920400,15.65892041015625,-2.6421165466308594,10.928617477416992,-2.4883456230163574
1701889252936926000,15.675926025390625,-4.441905498504639,10.390413284301758,-7.374573230743408
1701889252953897700,15.692897705078124,-1.3689384460449219,9.570626258850098,-4.995497226715088
1701889252970884400,15.70988427734375,5.359927177429199,9.779437065124512,-3.0272011756896973
1701889252987875300,15.726875244140626,11.105173110961914,10.918818473815918,-6.243366718292236
1701889253004877300,15.743877197265626,10.728130340576172,11.019773483276367,-11.738058090209961
1701889253021863200,15.76086328125,5.947132110595703,10.655378341674805,-14.99549674987793
1701889253038851600,15.7778515625,1.771752119064331,11.672103881835938,-16.269758224487305
1701889253055840000,15.794840087890625,1.7297642230987549,12.789493560791016,-12.435898780822754
1701889253072830200,15.811830322265624,5.910083770751953,12.2108154296875,-5.073831558227539
1701889253089818000,15.828818115234375,11.657838821411133,11.785711288452148,0.8606777191162109
1701889253106806500,15.845806640625,11.246747970581055,11.806304931640625,4.422104835510254
1701889253123793200,15.862793212890624,8.319730758666992,13.00339126586914,8.489561080932617
1701889253140784600,15.87978466796875,4.63578987121582,17.050146102905273,14.92836856842041
1701889253157773000,15.89677294921875,2.813849449157715,16.842365264892578,23.415328979492188
1701889253174764300,15.913764404296876,0.3337526321411133,17.399192810058594,23.924367904663086
1701889253191737000,15.930737060546875,-4.834045886993408,12.378790855407715,26.722496032714844
1701889253208740000,15.947739990234375,-5.56547212600708,1.9375886917114258,29.34635353088379
1701889253225730800,15.964730712890624,0.8074698448181152,-9.196268081665039,22.134899139404297
1701889253242716400,15.98171630859375,7.484959602355957,-18.02043914794922,13.211243629455566
1701889253259700000,15.998699951171876,8.872308731079102,-23.719730377197266,6.857901573181152
1701889253276687600,16.0156875,4.667164325714111,-26.51927947998047,2.691119909286499
1701889253293683000,16.032682861328126,0.8968751430511475,-26.92440414428711,-0.7222670316696167
1701889253310678000,16.049677978515625,0.16184711456298828,-26.76806640625,-1.626442551612854
1701889253336150300,16.075150390625,4.55141019821167,-25.429567337036133,-2.7403054237365723
1701889253353136400,16.092136474609376,7.04642391204834,-22.70035743713379,-1.6749038696289062
1701889253370118400,16.109118408203123,6.195195198059082,-19.658414840698242,2.3758108615875244
1701889253387108400,16.1261083984375,4.777254581451416,-16.7159423828125,4.526798248291016
1701889253404114000,16.143114013671877,3.0275497436523438,-14.449047088623047,7.490175724029541
1701889253421088000,16.160087890625,-0.029584407806396484,-12.455909729003906,10.138378143310547
1701889253438077200,16.1770771484375,-2.4031314849853516,-9.23977279663086,9.204715728759766
1701889253455067100,16.194067138671876,-5.160245418548584,-2.2729122638702393,8.929370880126953
1701889253472054300,16.21105419921875,-7.482419013977051,4.321735382080078,20.1462345123291
1701889253489047600,16.228047607421875,-7.474654197692871,7.903329849243164,41.28022384643555
1701889253506031900,16.245031982421875,0.11666202545166016,12.702376365661621,46.788177490234375
1701889253523025000,16.26202490234375,6.986952781677246,15.365324020385742,27.926788330078125
1701889253540016600,16.2790166015625,7.196935653686523,12.692893028259277,8.136398315429688
1701889253557003500,16.29600341796875,4.084376335144043,9.640905380249023,-1.6670722961425781
1701889253573995300,16.312995361328124,1.7830593585968018,8.178970336914062,-5.583657264709473
1701889253590975500,16.3299755859375,1.9458355903625488,8.05175495147705,-7.9079813957214355
1701889253607970300,16.34697021484375,3.2037711143493652,8.169811248779297,-6.036808490753174
1701889253624969700,16.3639697265625,5.840022563934326,9.729936599731445,-5.436745643615723
1701889253641944300,16.3809443359375,6.2069010734558105,11.361653327941895,-8.446676254272461
1701889253658940400,16.3979404296875,2.8404672145843506,11.062564849853516,-11.42463493347168
1701889253675932200,16.41493212890625,-1.0802617073059082,9.950431823730469,-14.520426750183105
1701889253692918300,16.431918212890626,-2.229579448699951,10.510869979858398,-17.086103439331055
1701889253709907000,16.448906982421875,0.12391233444213867,11.015243530273438,-14.070395469665527
1701889253726895600,16.4658955078125,5.016709327697754,11.31662368774414,-5.03816556930542
1701889253743884500,16.482884521484376,8.94111156463623,11.488164901733398,2.3376336097717285
1701889253760863000,16.499863037109375,7.484076499938965,13.313787460327148,4.107914924621582
1701889253777862000,16.51686181640625,3.015226125717163,16.196348190307617,7.250099182128906
1701889253794850300,16.533850341796875,2.0682103633880615,21.69638442993164,14.75192642211914
1701889253811829200,16.550829345703125,3.0707428455352783,20.689699172973633,25.600065231323242
1701889253828827000,16.567826904296876,1.0070078372955322,20.421375274658203,25.528488159179688
1701889253845812000,16.58481201171875,-3.3304901123046875,15.869722366333008,26.415590286254883
1701889253862795500,16.60179541015625,-2.484355926513672,6.748786926269531,25.569074630737305
1701889253879791600,16.61879150390625,0.805452823638916,-3.5029702186584473,23.42047119140625
1701889253896785400,16.635785400390624,5.380114555358887,-13.141253471374512,19.097164154052734
1701889253913771800,16.652771728515624,9.818941116333008,-20.226245880126953,13.327398300170898
1701889253930752800,16.669752685546875,10.83218765258789,-23.897605895996094,7.656614303588867
1701889253947749000,16.6867490234375,8.969820022583008,-26.187145233154297,5.177621364593506
1701889253964737800,16.70373779296875,7.579471588134766,-27.11195182800293,4.05947208404541
1701889253981726700,16.720726806640624,6.9326276779174805,-27.391212463378906,2.713538885116577
1701889253998715400,16.73771533203125,6.849834442138672,-27.034286499023438,2.117658853530884
1701889254015703800,16.754703857421877,5.9895100593566895,-25.085609436035156,0.8811429738998413
1701889254032693000,16.77169287109375,4.860246181488037,-23.079269409179688,1.712593913078308
1701889254049678600,16.7886787109375,4.2399067878723145,-21.21271514892578,2.3293423652648926
1701889254066670800,16.8056708984375,4.2190470695495605,-19.900066375732422,5.478001594543457
1701889254083661600,16.82266162109375,1.671982765197754,-17.454864501953125,10.848852157592773
1701889254100647700,16.839647705078125,-0.2628650665283203,-14.11319637298584,12.477611541748047
1701889254117637000,16.85663720703125,-4.2523298263549805,-6.416075706481934,7.441956043243408
1701889254134626800,16.873626708984375,-16.538427352905273,4.1307878494262695,10.035163879394531
1701889254151601000,16.890600830078125,-23.07500648498535,10.791220664978027,25.283742904663086
1701889254168602600,16.9076025390625,-4.0906901359558105,11.890518188476562,49.93257522583008
1701889254185591300,16.92459130859375,18.85857391357422,14.48425579071045,60.57002258300781
1701889254202580000,16.941580078125,27.543914794921875,17.964563369750977,27.612106323242188
1701889254219568600,16.958568603515626,16.425369262695312,12.622843742370605,0.5501017570495605
1701889254236552400,16.975552490234374,0.711444616317749,7.097869396209717,-5.969026565551758
1701889254253546000,16.9925458984375,-7.435787200927734,5.571221351623535,-8.88527774810791
1701889254270539500,17.00953955078125,-6.088339328765869,5.073092937469482,-10.22966480255127
1701889254287520800,17.026520751953125,-0.6617546081542969,4.310605525970459,-8.908655166625977
1701889254304514800,17.043514892578123,6.064329147338867,4.953098773956299,-8.274225234985352
1701889254321501000,17.0605009765625,9.824146270751953,6.409395694732666,-9.164237976074219
1701889254338488800,17.07748876953125,9.030586242675781,7.059847831726074,-10.660478591918945
1701889254355479300,17.094479248046873,6.04265022277832,7.1460862159729,-13.351692199707031
1701889254372467200,17.11146728515625,5.243146896362305,7.71851921081543,-15.088891983032227
1701889254389456000,17.128455810546875,5.851241111755371,9.864404678344727,-13.221656799316406
1701889254406443800,17.14544384765625,4.989282608032227,12.5010347366333,-6.777609825134277
1701889254423434200,17.162434326171876,4.968911170959473,15.148670196533203,4.076460361480713
1701889254440419600,17.179419677734376,3.8107171058654785,15.659015655517578,9.670913696289062
1701889254457413600,17.19641357421875,3.8969993591308594,20.374528884887695,6.919951915740967
1701889254474395100,17.21339501953125,5.251461029052734,21.50432586669922,10.837821960449219
1701889254491388400,17.230388427734376,3.964022636413574,22.057941436767578,15.918508529663086
1701889254508377300,17.24737744140625,1.2879009246826172,21.14811897277832,23.62259292602539
1701889254525366800,17.26436669921875,2.1391408443450928,14.599311828613281,34.99033737182617
1701889254542354400,17.2813544921875,5.737715244293213,1.9498786926269531,33.470027923583984
1701889254559343000,17.298343017578127,9.408592224121094,-9.637957572937012,21.88630485534668
1701889254576331800,17.315331787109375,8.955707550048828,-18.69615936279297,12.789313316345215
1701889254593320400,17.332320556640624,6.927169322967529,-24.669857025146484,6.445138931274414
1701889254610309400,17.349309326171873,5.490638256072998,-28.335433959960938,2.7456703186035156
1701889254627298000,17.366298095703126,6.2542266845703125,-30.43970489501953,1.5603816509246826
1701889254644286700,17.38328662109375,7.731878280639648,-31.282236099243164,1.544569730758667
1701889254661265400,17.400265380859373,6.424074649810791,-29.87116813659668,1.3247456550598145
1701889254678253600,17.417253662109374,4.70113468170166,-26.49609375,-0.24147677421569824
1701889254695235800,17.43423583984375,3.0175669193267822,-23.283443450927734,2.6240122318267822
1701889254712244500,17.451244384765626,2.7255795001983643,-20.838743209838867,7.323483943939209
1701889254729218800,17.46821875,3.363990306854248,-18.11060333251953,12.069040298461914
1701889254746219800,17.4852197265625,1.0219838619232178,-15.513948440551758,17.899621963500977
1701889254763207700,17.502207763671876,-3.0100011825561523,-10.136597633361816,14.739320755004883
1701889254780196400,17.5191962890625,-6.835428714752197,1.0981535911560059,10.571269989013672
1701889254797173500,17.536173583984375,-9.261775970458984,6.839965343475342,28.601783752441406
1701889254814166500,17.55316650390625,-6.123881816864014,9.942925453186035,57.71373748779297
1701889254831152400,17.57015234375,4.867372989654541,15.988276481628418,49.246315002441406
1701889254848145000,17.587144775390627,16.681777954101562,17.730558395385742,20.30469512939453
1701889254865137200,17.60413720703125,15.597734451293945,12.736221313476562,7.23016881942749
1701889254882123500,17.62112353515625,8.943143844604492,9.132908821105957,1.0115699768066406
1701889254899110000,17.63810986328125,6.056238174438477,8.669561386108398,-5.479515075683594
1701889254916101600,17.6551015625,6.201518535614014,8.99923324584961,-7.785397529602051
1701889254933084400,17.67208447265625,8.194164276123047,9.91929817199707,-7.751300811767578
1701889254950086100,17.689086181640626,10.681816101074219,11.534662246704102,-9.34628677368164
1701889254967070000,17.706070068359374,9.873734474182129,12.158614158630371,-13.651517868041992
1701889254984057600,17.7230576171875,7.169723033905029,11.2721529006958,-17.01352310180664
1701889255001044000,17.7400439453125,5.376535415649414,11.052156448364258,-17.49549102783203
1701889255018029000,17.757029052734374,6.090010643005371,11.173959732055664,-13.758638381958008
1701889255035022600,17.774022705078124,8.27301025390625,11.675479888916016,-8.220108985900879
1701889255052007700,17.791007568359376,8.800250053405762,11.585641860961914,-2.126225471496582
1701889255069004500,17.808004638671875,6.238732814788818,12.716102600097656,1.885016918182373
1701889255085993200,17.8249931640625,3.1881802082061768,17.085905075073242,7.962573051452637
1701889255102974000,17.841973876953126,1.9566949605941772,21.60934829711914,19.006404876708984
1701889255119985400,17.8589853515625,3.5119073390960693,21.635290145874023,25.95686912536621
1701889255136952300,17.875952392578125,1.9273862838745117,21.88128662109375,27.31119728088379
1701889255153931500,17.892931640625,-2.8950448036193848,14.612252235412598,33.13239288330078
1701889255170920700,17.909920654296876,-2.46938419342041,4.239579200744629,32.08516311645508
1701889255187925500,17.926925537109376,1.4233222007751465,-5.385210990905762,23.836843490600586
1701889255204914200,17.9439140625,4.996504783630371,-13.509403228759766,16.20354652404785
1701889255221902800,17.96090283203125,5.723573207855225,-19.652263641357422,11.342235565185547
1701889255238890800,17.977890869140627,4.52803373336792,-24.269874572753906,7.671172618865967
1701889255255881200,17.994881103515624,4.467662334442139,-27.629905700683594,3.864722967147827
1701889255272853800,18.011853759765625,7.112964630126953,-30.210277557373047,1.230291724205017
1701889255289857500,18.028857421875,8.696298599243164,-31.02262306213379,0.06642727553844452
1701889255306844000,18.045843994140625,7.372194290161133,-30.12119483947754,-0.07315889000892639
1701889255323838000,18.062837890625,5.01237154006958,-26.728816986083984,0.3140820264816284
1701889255340821000,18.079821044921875,2.9663610458374023,-23.282989501953125,3.0061697959899902
1701889255357814500,18.096814453125,3.848330020904541,-21.392868041992188,5.774497032165527
1701889255374799600,18.113799560546877,4.71784782409668,-19.99237632751465,10.63900375366211
1701889255391779800,18.13077978515625,2.5082154273986816,-17.127256393432617,16.209182739257812
1701889255408781300,18.14778125,-2.7031521797180176,-12.98924446105957,15.604059219360352
1701889255425766700,18.1647666015625,-7.572362899780273,-5.191864490509033,12.145635604858398
1701889255442756900,18.1817568359375,-10.396453857421875,5.6275105476379395,19.66383171081543
1701889255459744800,18.198744873046873,-7.585785388946533,11.795419692993164,41.44445037841797
1701889255476733700,18.215733642578126,-3.0821757316589355,17.116119384765625,47.404335021972656
1701889255493719000,18.232718994140626,8.217443466186523,20.64966583251953,29.643817901611328
1701889255510710800,18.249710693359376,11.614168167114258,19.77184295654297,15.453506469726562
1701889255527688700,18.266688720703126,10.474067687988281,15.616217613220215,7.116551876068115
1701889255544686800,18.283686767578125,6.981310844421387,12.262920379638672,-0.23450756072998047
1701889255561667300,18.300667236328124,5.306703090667725,10.527421951293945,-5.480225563049316
1701889255578652000,18.31765185546875,6.771803855895996,10.629146575927734,-7.978457927703857
1701889255595644000,18.334643798828125,8.075738906860352,10.554794311523438,-9.658454895019531
1701889255612625200,18.351625244140624,8.4365816116333,10.356500625610352,-12.000896453857422
1701889255629632000,18.368632080078125,7.623653411865234,9.804952621459961,-14.774621963500977
1701889255646609200,18.385609130859375,6.394158840179443,9.698037147521973,-17.667152404785156
1701889255663612400,18.4026123046875,7.084112167358398,8.542304992675781,-15.769063949584961
1701889255680597800,18.41959765625,10.897342681884766,8.232450485229492,-11.445268630981445
1701889255697586400,18.43658642578125,11.056772232055664,7.683843612670898,-3.172719955444336
1701889255714575400,18.453575439453125,11.986319541931152,8.436040878295898,1.0390853881835938
1701889255731564000,18.47056396484375,8.389609336853027,11.374540328979492,6.29142427444458
1701889255748551200,18.48755126953125,5.423592567443848,16.912681579589844,13.541475296020508
1701889255765543200,18.504543212890624,3.1298270225524902,20.082544326782227,22.983783721923828
1701889255782530800,18.52153076171875,2.835721731185913,21.40389633178711,26.846647262573242
1701889255799517700,18.538517578125,-0.47290563583374023,18.080852508544922,31.633193969726562
1701889255816508200,18.555508056640626,-2.3564610481262207,7.446623802185059,34.54787063598633
1701889255833496000,18.57249609375,-1.6474018096923828,-1.9866876602172852,25.802959442138672
1701889255850485000,18.589485107421876,1.6924471855163574,-10.088537216186523,16.875091552734375
1701889255867468800,18.60646875,5.24302339553833,-17.369625091552734,10.442585945129395
1701889255884463900,18.6234638671875,7.359360218048096,-22.395517349243164,5.835309028625488
1701889255901450800,18.64045068359375,4.727893352508545,-25.498390197753906,2.858898162841797
1701889255918439700,18.657439697265627,2.2152774333953857,-27.111156463623047,0.8098769783973694
1701889255935428600,18.6744287109375,2.7996649742126465,-28.39207649230957,0.10571444034576416
1701889255952417000,18.6914169921875,5.381126403808594,-28.882911682128906,-1.9783339500427246
1701889255969395200,18.708395263671875,7.942778587341309,-26.91476821899414,-4.218049049377441
1701889255986391600,18.7253916015625,7.321176528930664,-23.64270782470703,-1.9677327871322632
1701889256003387600,18.7423876953125,4.160853385925293,-20.517318725585938,4.736288070678711
1701889256020366800,18.759366943359375,0.8968045711517334,-16.733657836914062,10.596217155456543
1701889256037360400,18.7763603515625,-2.3799710273742676,-13.059282302856445,12.385050773620605
1701889256054349000,18.79334912109375,-5.964279651641846,-9.74789047241211,11.461064338684082
1701889256071334700,18.810334716796874,-7.394784927368164,-0.7618961334228516,10.003097534179688
1701889256088326700,18.82732666015625,-9.318004608154297,9.165830612182617,21.04793930053711
1701889256105315300,18.8443154296875,-11.107019424438477,15.735111236572266,41.65657043457031
1701889256122304000,18.861303955078125,-4.592016220092773,19.854480743408203,46.79994201660156
1701889256139292700,18.878292724609373,7.574660301208496,19.5244140625,28.63851547241211
1701889256156281300,18.89528125,13.391256332397461,14.545892715454102,10.799151420593262
1701889256173267500,18.912267333984374,10.077264785766602,8.94238567352295,0.10682392120361328
1701889256190261000,18.929260986328124,6.455596923828125,5.791589736938477,-6.305665969848633
1701889256207248100,18.946248046875,4.316436767578125,4.536848545074463,-10.801321029663086
1701889256224233500,18.9632333984375,4.723395824432373,3.9669060707092285,-10.774898529052734
1701889256241225000,18.980224853515626,6.172435283660889,4.221894264221191,-8.286615371704102
1701889256258215400,18.99721533203125,8.287040710449219,5.73392915725708,-9.445048332214355
1701889256275192800,19.01419287109375,7.087852478027344,6.6025896072387695,-13.064605712890625
1701889256292190700,19.031190673828124,2.1920688152313232,7.343035697937012,-16.653366088867188
1701889256309179600,19.0481796875,0.12920570373535156,8.14457893371582,-17.522666931152344
1701889256326167600,19.06516748046875,2.5154004096984863,8.522520065307617,-11.854011535644531
1701889256343158000,19.082157958984375,6.8323564529418945,8.638818740844727,-2.9336800575256348
1701889256360145700,19.099145751953124,9.561800956726074,10.378531455993652,-0.0533299446105957
1701889256377134300,19.11613427734375,5.8237223625183105,13.634847640991211,2.148745536804199
1701889256394112500,19.133112548828127,1.6750235557556152,20.335153579711914,6.0664448738098145
1701889256411095000,19.150094970703126,0.6333377361297607,25.933286666870117,18.056678771972656
1701889256428089600,19.167089599609376,-0.9016342163085938,23.941204071044922,30.04918098449707
1701889256445075000,19.184074951171876,-2.710547924041748,21.089534759521484,29.553508758544922
1701889256462067500,19.2010673828125,-2.785327434539795,13.422958374023438,27.933841705322266
1701889256479066400,19.21806640625,0.17482757568359375,2.55496883392334,24.99185562133789
1701889256496055300,19.23505517578125,4.606017112731934,-6.862978458404541,18.286304473876953
1701889256513043700,19.252043701171875,7.589919090270996,-14.24094009399414,12.701945304870605
1701889256530033200,19.269033203125,8.427017211914062,-19.730009078979492,9.204623222351074
1701889256547021300,19.286021240234376,7.723466873168945,-23.606182098388672,7.174267292022705
1701889256564010000,19.303010009765625,6.251666069030762,-26.691104888916016,6.7446746826171875
1701889256580995600,19.31999560546875,7.301277160644531,-28.54920196533203,5.841399192810059
1701889256597987600,19.336987548828127,9.674971580505371,-29.134153366088867,4.027371406555176
1701889256614971600,19.3539716796875,9.659317016601562,-27.443073272705078,1.433761715888977
1701889256631956500,19.37095654296875,7.3748908042907715,-24.419998168945312,0.5811066627502441
1701889256648956700,19.387956787109374,5.474887847900391,-21.614818572998047,3.7882583141326904
1701889256665943000,19.404943115234374,5.594787120819092,-19.2116756439209,9.187698364257812
1701889256682929200,19.42192919921875,5.9808244705200195,-16.86383819580078,13.991296768188477
1701889256699919600,19.438919677734376,3.524251937866211,-14.685698509216309,15.058509826660156
1701889256716908500,19.455908447265625,-3.674851894378662,-10.240827560424805,11.34836196899414
1701889256733896700,19.472896728515625,-12.170181274414062,-2.119154930114746,10.942450523376465
1701889256750877200,19.489877197265624,-14.551862716674805,3.3415122032165527,25.181901931762695
1701889256767873500,19.50687353515625,-10.075376510620117,7.842939376831055,46.41325378417969
1701889256784863700,19.52386376953125,0.47348451614379883,13.159149169921875,52.03274917602539
1701889256801851600,19.5408515625,14.043258666992188,18.1641845703125,27.50069808959961
1701889256818840300,19.55784033203125,9.326372146606445,16.334129333496094,7.191694259643555
1701889256844308200,19.58330810546875,-4.770479202270508,13.180131912231445,-3.895416736602783
1701889256861310500,19.600310546875,-0.3298499584197998,10.08745288848877,-2.6649222373962402
1701889256878297300,19.61729736328125,10.64781665802002,9.927705764770508,1.3276901245117188
1701889256895278600,19.634278564453126,14.784611701965332,12.972427368164062,-5.572355270385742
1701889256912265000,19.651264892578126,8.960979461669922,14.027009963989258,-11.629827499389648
1701889256929257500,19.668257568359376,1.3656238317489624,13.603155136108398,-14.87479305267334
1701889256946246400,19.685246337890625,-2.074305772781372,13.437753677368164,-16.73075294494629
1701889256963234000,19.702234130859374,0.37750792503356934,12.415377616882324,-12.33104133605957
1701889256980225300,19.719225341796875,7.094343185424805,12.1776762008667,-8.306565284729004
1701889256997211600,19.736211669921875,10.426506042480469,13.128301620483398,-4.924189567565918
1701889257014200800,19.753200927734376,6.884682655334473,14.194890975952148,1.1178803443908691
1701889257031188000,19.77018798828125,2.176537036895752,15.303207397460938,8.03246784210205
1701889257048179700,19.7871796875,1.6365302801132202,18.91846466064453,15.237396240234375
1701889257065177000,19.804177001953125,3.730867624282837,21.98445701599121,24.321514129638672
1701889257082165800,19.821165771484374,3.3151841163635254,21.86240577697754,29.931121826171875
1701889257099152400,19.83815234375,1.9981701374053955,20.166820526123047,32.61381530761719
1701889257116145000,19.855144775390624,0.027822017669677734,10.638943672180176,34.82571029663086
1701889257133131300,19.87213134765625,3.1450438499450684,-0.9696178436279297,29.125385284423828
1701889257150119700,19.88911962890625,6.731180191040039,-11.856325149536133,22.944049835205078
1701889257167108600,19.906108642578126,9.123590469360352,-20.225059509277344,16.99311637878418
1701889257184096800,19.9230966796875,9.271913528442383,-24.666656494140625,10.97723388671875
1701889257201086000,19.9400859375,8.732147216796875,-27.56355857849121,6.432099342346191
1701889257218073300,19.9570732421875,6.766299247741699,-29.21930694580078,3.2904114723205566
1701889257235063800,19.974063720703125,5.008768558502197,-29.711572647094727,1.5570083856582642
1701889257252051500,19.991051513671874,5.498032093048096,-30.210058212280273,1.6357191801071167
1701889257269040400,20.008040283203126,8.009809494018555,-29.40886688232422,0.8914890289306641
1701889257286017500,20.025017578125,9.752058029174805,-26.234386444091797,1.3737928867340088
1701889257303018200,20.042018310546876,8.194501876831055,-22.619754791259766,6.050054550170898
1701889257319993600,20.05899365234375,5.7775750160217285,-19.805835723876953,10.830597877502441
1701889257336985000,20.075985107421875,2.9996023178100586,-17.526926040649414,12.926408767700195
1701889257353980400,20.09298046875,-2.9831676483154297,-15.153376579284668,13.95727825164795
1701889257370962000,20.1099619140625,-8.770366668701172,-7.8757452964782715,11.485735893249512
1701889257387960800,20.1269609375,-8.424538612365723,3.6871471405029297,16.923295974731445
1701889257404939500,20.143939453125,-8.72166633605957,7.2320237159729,38.09735107421875
1701889257421938400,20.1609384765625,-3.2009263038635254,11.81790542602539,49.64047622680664
1701889257438927000,20.177927001953126,4.306224346160889,18.114097595214844,38.566383361816406
1701889257455915500,20.19491552734375,8.263985633850098,20.64812660217285,19.514774322509766
1701889257472904700,20.21190478515625,5.717716693878174,18.133708953857422,9.979352951049805
1701889257489893000,20.22889306640625,2.749663829803467,14.837348937988281,2.1709556579589844
1701889257506882000,20.245882080078125,2.9255223274230957,12.30036735534668,-3.3745923042297363
1701889257523868700,20.26286865234375,4.3199462890625,10.768960952758789,-2.8893795013427734
1701889257540855300,20.279855224609374,7.274693489074707,12.457683563232422,-6.397365093231201
1701889257557850400,20.296850341796876,6.826122283935547,13.882475852966309,-11.203060150146484
1701889257574836500,20.31383642578125,3.2227935791015625,13.219147682189941,-13.656925201416016
1701889257591816200,20.330816162109375,0.3739652633666992,11.392538070678711,-15.282652854919434
1701889257608813300,20.347813232421874,0.7348999977111816,10.579463005065918,-14.65564250946045
1701889257625802800,20.364802734375,3.2372887134552,9.845178604125977,-11.91059684753418
1701889257642791700,20.381791748046876,7.315253257751465,10.551015853881836,-7.397921085357666
1701889257659779600,20.398779541015625,7.2927350997924805,11.675979614257812,-3.10209584236145
1701889257676769000,20.41576904296875,4.05844783782959,14.104795455932617,1.3367366790771484
1701889257693757200,20.432757080078126,1.0345783233642578,16.867992401123047,9.095670700073242
1701889257710745600,20.44974560546875,2.2816925048828125,22.82841682434082,17.568580627441406
1701889257727733200,20.466733154296875,2.018444299697876,21.445463180541992,30.582735061645508
1701889257744719000,20.483718994140624,0.1706085205078125,18.634784698486328,30.579830169677734
1701889257761705200,20.500705322265624,-3.586186408996582,13.276557922363281,28.873571395874023
1701889257778700800,20.51770068359375,-3.4346489906311035,4.975255966186523,28.034147262573242
1701889257795689000,20.53468896484375,2.9306185245513916,-4.382756233215332,24.164344787597656
1701889257812678100,20.55167822265625,8.088132858276367,-13.658977508544922,18.965614318847656
1701889257829666600,20.56866650390625,11.273735046386719,-20.23982048034668,13.94399642944336
1701889257846652700,20.585652587890625,10.924540519714355,-24.64975357055664,9.504814147949219
1701889257863643100,20.60264306640625,7.8741888999938965,-27.107166290283203,5.709005355834961
1701889257880632800,20.6196328125,6.154181957244873,-28.847002029418945,1.881206750869751
1701889257897621200,20.636621337890624,7.565091133117676,-30.193832397460938,-0.8354922533035278
1701889257914612500,20.653612548828125,9.331433296203613,-31.26166343688965,-0.7457059621810913
1701889257931599600,20.670599609375,8.907339096069336,-29.25307846069336,-0.5121030807495117
1701889257948585200,20.687585205078125,6.712715148925781,-25.59265899658203,1.5096821784973145
1701889257965575400,20.704575439453127,6.197854042053223,-22.650684356689453,6.315479755401611
1701889257982565000,20.721565185546876,6.5092878341674805,-20.049217224121094,11.467713356018066
1701889257999555600,20.7385556640625,3.718256950378418,-17.06320571899414,15.567657470703125
1701889258016542200,20.755542236328125,-3.4363255500793457,-13.891704559326172,17.173879623413086
1701889258033530600,20.772530517578126,-10.6814603805542,-5.679144859313965,14.353005409240723
1701889258050515500,20.789515380859374,-13.369850158691406,2.6508960723876953,22.174560546875
1701889258067506000,20.806505859375,-5.641359806060791,10.53709888458252,45.547279357910156
1701889258084499500,20.82349951171875,1.8496413230895996,18.546600341796875,63.606719970703125
1701889258101485300,20.8404853515625,8.927547454833984,23.551361083984375,40.05680847167969
1701889258118473000,20.857472900390626,8.295511245727539,22.011524200439453,10.867063522338867
1701889258135452700,20.87445263671875,1.1533050537109375,17.386821746826172,-1.344250202178955
1701889258152451300,20.891451416015624,-1.1822185516357422,15.543577194213867,-7.5385050773620605
1701889258169430500,20.908430419921874,0.938143253326416,13.378689765930176,-10.069855690002441
1701889258186440000,20.92543994140625,8.07193660736084,11.573348999023438,-6.498955726623535
1701889258203406300,20.94240625,11.778223037719727,11.998918533325195,-3.6747589111328125
1701889258220406300,20.95940625,7.550031661987305,12.711817741394043,-12.004965782165527
1701889258237394700,20.976394775390624,1.573157548904419,12.290229797363281,-17.23480224609375
1701889258254380300,20.99338037109375,-0.6673102378845215,11.144370079040527,-16.39818572998047
1701889258271371800,21.010371826171873,1.3904621601104736,10.479621887207031,-12.81903076171875
1701889258288346000,21.02734619140625,4.630391597747803,10.135580062866211,-4.002771377563477
1701889258305343700,21.04434375,7.1273345947265625,9.832117080688477,0.6306319236755371
1701889258322328300,21.061328369140625,6.980853080749512,11.408288955688477,2.0413818359375
1701889258339319000,21.078319091796875,3.8769173622131348,13.385478973388672,7.788527011871338
1701889258356306200,21.09530615234375,2.0729868412017822,20.016067504882812,18.318437576293945
1701889258373296400,21.11229638671875,0.18583059310913086,22.5047664642334,35.18662643432617
1701889258390285600,21.12928564453125,-2.765532970428467,15.778260231018066,37.96171569824219
1701889258407274500,21.1462744140625,-3.9274449348449707,10.966846466064453,29.752422332763672
1701889258424262700,21.1632626953125,-2.0765938758850098,0.38466644287109375,28.2734432220459
1701889258441249500,21.18024951171875,3.7927262783050537,-9.534205436706543,22.691450119018555
1701889258458242800,21.197242919921877,10.128847122192383,-18.240718841552734,14.267375946044922
1701889258475227600,21.2142275390625,12.036664962768555,-23.817420959472656,8.287158966064453
1701889258492216300,21.23121630859375,8.445470809936523,-26.92295265197754,5.151436805725098
1701889258509203200,21.248203125,2.3651015758514404,-28.368793487548828,2.5439770221710205
1701889258526204200,21.2652041015625,0.08098459243774414,-28.34930992126465,-0.18676477670669556
1701889258543190300,21.282190185546874,2.286149263381958,-28.447586059570312,-1.7902202606201172
1701889258560179500,21.299179443359375,6.359191417694092,-27.60837173461914,-2.018921136856079
1701889258577151200,21.316151123046875,8.52735424041748,-25.1937255859375,-1.093503713607788
1701889258594148400,21.3331484375,7.538722991943359,-22.719947814941406,2.182422637939453
1701889258611134200,21.35013427734375,5.676421642303467,-20.086627960205078,4.814970016479492
1701889258628137000,21.367136962890626,5.277499198913574,-17.446069717407227,7.023036003112793
1701889258645123300,21.384123291015626,3.9129130840301514,-15.060635566711426,9.780052185058594
1701889258662100500,21.4011005859375,-0.6482973098754883,-13.407144546508789,13.8494873046875
1701889258679099600,21.418099609375,-5.959579944610596,-6.829325199127197,13.982443809509277
1701889258696088800,21.4350888671875,-6.848819732666016,5.205092430114746,17.960376739501953
1701889258713077200,21.4520771484375,-8.36110782623291,11.383981704711914,35.18353271484375
1701889258730063600,21.469063720703126,-7.436392307281494,10.7183198928833,47.27943801879883
1701889258747054000,21.48605419921875,-4.859455585479736,10.197829246520996,49.89189147949219
1701889258764040200,21.503040283203124,-1.6184749603271484,15.0137300491333,20.742141723632812
1701889258781030700,21.52003076171875,1.5915517807006836,13.576184272766113,2.163520336151123
1701889258798018800,21.537018798828125,3.432403802871704,10.648786544799805,-2.0728402137756348
1701889258815007700,21.5540078125,3.5611186027526855,9.643406867980957,-3.5024399757385254
1701889258832002600,21.57100244140625,4.31673526763916,10.385835647583008,-6.8925652503967285
1701889258848983300,21.5879833984375,6.262253761291504,11.798598289489746,-6.569424629211426
1701889258865977600,21.6049775390625,5.989438056945801,13.94481372833252,-7.018645286560059
1701889258882963500,21.62196337890625,3.8946731090545654,14.117331504821777,-10.438849449157715
1701889258899952600,21.63895263671875,0.3712191581726074,13.36202621459961,-13.362627029418945
1701889258916941000,21.655941162109375,-0.2579326629638672,13.106493949890137,-14.560178756713867
1701889258933929700,21.6729296875,2.0652410984039307,12.807016372680664,-10.265029907226562
1701889258950907600,21.68990771484375,4.295620441436768,11.809616088867188,-3.229618549346924
1701889258967907300,21.7069072265625,5.869717597961426,10.598400115966797,1.0615921020507812
1701889258984895700,21.723895751953126,5.092843055725098,10.871909141540527,2.409921169281006
1701889259001888500,21.740888427734376,2.5711991786956787,14.316702842712402,7.854182243347168
1701889259018862300,21.7578623046875,-0.5322232246398926,19.417741775512695,21.162887573242188
1701889259035855400,21.77485546875,-4.098008632659912,17.256423950195312,35.85221862792969
1701889259052850200,21.79185009765625,-4.677574157714844,14.994941711425781,33.8255500793457
