time,seconds_elapsed,z,y,x
1700938814050673000,0.1106728515625,8.445466041564941,4.654450416564941,1.8017505407333374
1700938814067659800,0.12765966796875,8.448349952697754,4.647143840789795,1.8070811033248901
1700938814084654600,0.144654541015625,8.450207710266113,4.6416335105896,1.8125488758087158
1700938814101647000,0.161647216796875,8.452569007873535,4.635436058044434,1.8173938989639282
1700938814118635300,0.17863525390625,8.455355644226074,4.628027439117432,1.8233013153076172
1700938814135634000,0.195634033203125,8.457813262939453,4.620837688446045,1.8301266431808472
1700938814152617700,0.21261767578125,8.460386276245117,4.612871170043945,1.838313102722168
1700938814169605600,0.229605712890625,8.462323188781738,4.604194641113281,1.851102352142334
1700938814186609200,0.246609130859375,8.460177421569824,4.59999418258667,1.8712437152862549
1700938814203585000,0.2635849609375,8.455430030822754,4.599706172943115,1.893283724784851
1700938814220588500,0.280588623046875,8.448859214782715,4.60205078125,1.916772723197937
1700938814237575700,0.29757568359375,8.437320709228516,4.610559940338135,1.946911334991455
1700938814254571300,0.3145712890625,8.41671371459961,4.6300950050354,1.989284634590149
1700938814271563000,0.33156298828125,8.37742805480957,4.669985771179199,2.0605924129486084
1700938814288552200,0.34855224609375,8.324942588806152,4.721162796020508,2.154545783996582
1700938814305541000,0.365541015625,8.290250778198242,4.7452192306518555,2.2339987754821777
1700938814322538500,0.38253857421875,8.292231559753418,4.711998462677002,2.2961013317108154
1700938814339525400,0.399525390625,8.3236722946167,4.625323295593262,2.357747793197632
1700938814356521200,0.416521240234375,8.358083724975586,4.521349906921387,2.4363811016082764
1700938814373511400,0.433511474609375,8.372878074645996,4.43702507019043,2.538470506668091
1700938814390505000,0.4505048828125,8.345843315124512,4.4067769050598145,2.6764402389526367
1700938814407487500,0.467487548828125,8.258382797241211,4.448416709899902,2.87172794342041
1700938814424486700,0.484486572265625,8.151650428771973,4.492142200469971,3.0995757579803467
1700938814441479200,0.501479248046875,8.09722900390625,4.459888935089111,3.2833480834960938
1700938814458467300,0.51846728515625,8.121339797973633,4.333970069885254,3.3906712532043457
1700938814475461000,0.535461181640625,8.185247421264648,4.159310817718506,3.4551355838775635
1700938814492454700,0.55245458984375,8.227646827697754,4.005928039550781,3.5347518920898438
1700938814509441800,0.56944189453125,8.189718246459961,3.9460630416870117,3.6868977546691895
1700938814526437000,0.58643701171875,8.031892776489258,4.00576639175415,3.9596264362335205
1700938814543427300,0.60342724609375,7.769869804382324,4.119582176208496,4.34675407409668
1700938814560421000,0.620421142578125,7.4864959716796875,4.183651924133301,4.762934684753418
1700938814577405200,0.6374052734375,7.2501654624938965,4.14589262008667,5.146142482757568
1700938814594405600,0.654405517578125,7.061982154846191,4.007652282714844,5.5048394203186035
1700938814611395600,0.6713955078125,6.846236705780029,3.8331432342529297,5.888308525085449
1700938814628383500,0.688383544921875,6.510416507720947,3.6893019676208496,6.343472480773926
1700938814645379300,0.70537939453125,6.060352802276611,3.574510335922241,6.8360161781311035
1700938814662369500,0.72236962890625,5.59153938293457,3.4330620765686035,7.292796611785889
1700938814679356700,0.739356689453125,5.157748222351074,3.238234281539917,7.690746784210205
1700938814696353300,0.756353271484375,4.715176105499268,3.0034306049346924,8.061180114746094
1700938814713343200,0.77334326171875,4.245871067047119,2.7242941856384277,8.413496017456055
1700938814730326800,0.790326904296875,3.815230131149292,2.3788845539093018,8.71900463104248
1700938814747324200,0.80732421875,3.4652647972106934,1.967203140258789,8.964272499084473
1700938814764318700,0.824318603515625,3.1801047325134277,1.5172843933105469,9.155375480651855
1700938814781311700,0.841311767578125,2.919027328491211,1.08446204662323,9.302651405334473
1700938814798299600,0.858299560546875,2.6468429565429688,0.7054566740989685,9.419801712036133
1700938814815293200,0.875293212890625,2.3670594692230225,0.3619070053100586,9.513262748718262
1700938814832287000,0.892286865234375,2.107027292251587,0.01800796389579773,9.581035614013672
1700938814849271300,0.909271240234375,1.8742163181304932,-0.3508665859699249,9.622906684875488
1700938814866271700,0.926271728515625,1.6595053672790527,-0.761200487613678,9.638606071472168
1700938814883260200,0.94326025390625,1.4437425136566162,-1.2210620641708374,9.626044273376465
1700938814900252700,0.960252685546875,1.236366868019104,-1.7273105382919312,9.57726001739502
1700938814917240600,0.977240478515625,1.048840880393982,-2.256911516189575,9.489067077636719
1700938814934235000,0.99423486328125,0.8734272718429565,-2.7956817150115967,9.362553596496582
1700938814951228000,1.011227783203125,0.695414662361145,-3.3343448638916016,9.19970989227295
1700938814968215600,1.028215576171875,0.4971419870853424,-3.869321346282959,9.000962257385254
1700938814985209300,1.045209228515625,0.30222561955451965,-4.393644332885742,8.765881538391113
1700938815002203000,1.062202880859375,0.1346110999584198,-4.8878068923950195,8.504548072814941
1700938815019190000,1.07918994140625,-0.004418156109750271,-5.334769248962402,8.232638359069824
1700938815036185300,1.096185302734375,-0.10246193408966064,-5.737890720367432,7.956271171569824
1700938815053175600,1.113175537109375,-0.1415681093931198,-6.1007513999938965,7.680945873260498
1700938815070160400,1.130160400390625,-0.11206189543008804,-6.420016765594482,7.416667938232422
1700938815087152600,1.147152587890625,-0.026789603754878044,-6.690025329589844,7.1748833656311035
1700938815104161000,1.1641611328125,0.09407468885183334,-6.903905868530273,6.968739986419678
1700938815121159700,1.18115966796875,0.22674743831157684,-7.059172630310059,6.808287620544434
1700938815138129000,1.19812890625,0.34876304864883423,-7.161748886108398,6.695061206817627
1700938815155124700,1.215124755859375,0.45212018489837646,-7.220432281494141,6.625484943389893
1700938815172124200,1.232124267578125,0.5392144918441772,-7.248620510101318,6.588086128234863
1700938815189107000,1.24910693359375,0.6066311001777649,-7.259920120239258,6.5697526931762695
1700938815206102300,1.266102294921875,0.6533001065254211,-7.258730411529541,6.566593170166016
1700938815223091700,1.283091796875,0.6830311417579651,-7.244203090667725,6.579598426818848
1700938815240087000,1.300087158203125,0.7013288140296936,-7.216612339019775,6.607933044433594
1700938815257071600,1.317071533203125,0.7097107768058777,-7.179066181182861,6.6478142738342285
1700938815274067200,1.334067138671875,0.7128311395645142,-7.136634826660156,6.693014621734619
1700938815291060000,1.35106005859375,0.7118257284164429,-7.091692924499512,6.740721225738525
1700938815308040700,1.368040771484375,0.7020895481109619,-7.042303085327148,6.793315410614014
1700938815325039600,1.38503955078125,0.6866990923881531,-6.986734390258789,6.852015495300293
1700938815342037000,1.402037109375,0.6652714014053345,-6.923192024230957,6.91830587387085
1700938815359022300,1.419022216796875,0.640661895275116,-6.852625846862793,6.990505695343018
1700938815376017700,1.436017578125,0.6154919862747192,-6.77657413482666,7.066492557525635
1700938815393008000,1.453008056640625,0.5972574353218079,-6.696266174316406,7.144187927246094
1700938815410002000,1.470001953125,0.5825470089912415,-6.611504554748535,7.223902702331543
1700938815426989800,1.48698974609375,0.5677629113197327,-6.521862983703613,7.3060994148254395
1700938815443983000,1.503983154296875,0.5469328165054321,-6.422423362731934,7.395232200622559
1700938815460976400,1.520976318359375,0.5166143774986267,-6.313472270965576,7.490612983703613
1700938815477964300,1.53796435546875,0.47658082842826843,-6.199319839477539,7.587978363037109
1700938815494957600,1.55495751953125,0.4356374740600586,-6.0874342918396,7.6804609298706055
1700938815511951600,1.57195166015625,0.3979223370552063,-5.982396602630615,7.764581203460693
1700938815528936200,1.588936279296875,0.3652206063270569,-5.886765956878662,7.838922500610352
1700938815545936400,1.605936279296875,0.3366014063358307,-5.795753479003906,7.907721042633057
1700938815562913800,1.622913818359375,0.30733728408813477,-5.708762168884277,7.971932888031006
1700938815579915300,1.639915283203125,0.27604004740715027,-5.622696399688721,8.034004211425781
1700938815596909300,1.656909423828125,0.24160344898700714,-5.536757469177246,8.09457015991211
1700938815613900000,1.673900146484375,0.20742765069007874,-5.453165054321289,8.152060508728027
1700938815630889200,1.69088916015625,0.17609183490276337,-5.375133991241455,8.204453468322754
1700938815647877600,1.707877685546875,0.1522737741470337,-5.308253288269043,8.248356819152832
1700938815664875500,1.72487548828125,0.13784576952457428,-5.2541937828063965,8.283149719238281
1700938815681866500,1.741866455078125,0.1291971653699875,-5.211008548736572,8.310524940490723
1700938815698855200,1.758855224609375,0.12502048909664154,-5.179123401641846,8.330496788024902
1700938815715850500,1.7758505859375,0.12514211237430573,-5.1611328125,8.341651916503906
1700938815732829400,1.792829345703125,0.12807273864746094,-5.158989429473877,8.342933654785156
1700938815749833200,1.809833251953125,0.1321248561143875,-5.1694207191467285,8.336410522460938
1700938815766821000,1.826821044921875,0.13526365160942078,-5.189281463623047,8.324010848999023
1700938815783813000,1.843813232421875,0.1386445015668869,-5.218808650970459,8.305477142333984
1700938815800810000,1.86081005859375,0.14683470129966736,-5.2610764503479,8.278624534606934
1700938815817797400,1.87779736328125,0.16105981171131134,-5.316256046295166,8.243035316467285
1700938815834790400,1.894790283203125,0.18032754957675934,-5.380080699920654,8.201117515563965
1700938815851784000,1.911783935546875,0.2033568173646927,-5.450221538543701,8.154131889343262
1700938815868770800,1.928770751953125,0.22684916853904724,-5.526562213897705,8.101961135864258
1700938815885765600,1.945765625,0.24883177876472473,-5.606629848480225,8.046111106872559
1700938815902758000,1.9627578125,0.2672078311443329,-5.688445091247559,7.987886428833008
1700938815919740200,1.979740234375,0.2815849483013153,-5.771640777587891,7.927484512329102
1700938815936738000,1.996738037109375,0.29523003101348877,-5.854975700378418,7.865634918212891
1700938815953734400,2.013734375,0.31068480014801025,-5.937444686889648,7.802970886230469
1700938815970724900,2.030724853515625,0.3266155421733856,-6.016128063201904,7.741812705993652
1700938815987712800,2.047712646484375,0.34364381432533264,-6.090071678161621,7.6830363273620605
1700938816004706300,2.064706298828125,0.35901379585266113,-6.158391952514648,7.627676010131836
1700938816021700000,2.0817001953125,0.3703889548778534,-6.222631931304932,7.5748114585876465
1700938816038687200,2.098687255859375,0.376676470041275,-6.285525321960449,7.522394180297852
1700938816055681300,2.115681396484375,0.37855637073516846,-6.34661865234375,7.470827579498291
1700938816072667100,2.132667236328125,0.3776342570781708,-6.400653839111328,7.424631118774414
1700938816089663700,2.149663818359375,0.3735353648662567,-6.441713809967041,7.389242649078369
1700938816106656000,2.166656005859375,0.36428213119506836,-6.4689412117004395,7.36588191986084
1700938816123640600,2.183640625,0.35061192512512207,-6.485443592071533,7.352019786834717
1700938816140630500,2.200630615234375,0.33381521701812744,-6.494710445404053,7.344619274139404
1700938816157628700,2.217628662109375,0.31749504804611206,-6.499621391296387,7.340997219085693
1700938816174612200,2.2346123046875,0.3029974699020386,-6.499479293823242,7.341734886169434
1700938816191613700,2.25161376953125,0.28977280855178833,-6.492579460144043,7.34837007522583
1700938816208605700,2.268605712890625,0.2745080888271332,-6.476382732391357,7.363235950469971
1700938816225598200,2.28559814453125,0.2555221617221832,-6.4490790367126465,7.387842178344727
1700938816242588000,2.302587890625,0.23510368168354034,-6.413302898406982,7.419595241546631
1700938816259579400,2.319579345703125,0.21806782484054565,-6.3724846839904785,7.455199718475342
1700938816276573000,2.336572998046875,0.20567698776721954,-6.328553676605225,7.492877960205078
1700938816293565400,2.3535654296875,0.19491694867610931,-6.2822346687316895,7.532041549682617
1700938816310564400,2.370564453125,0.18225888907909393,-6.232275009155273,7.5737481117248535
1700938816327544800,2.387544921875,0.16907458007335663,-6.178458213806152,7.618015289306641
1700938816344536300,2.404536376953125,0.15847358107566833,-6.122276306152344,7.663466930389404
1700938816361534200,2.4215341796875,0.15366074442863464,-6.066440105438232,7.7078399658203125
1700938816378519600,2.43851953125,0.15633174777030945,-6.013510227203369,7.749154090881348
1700938816395511800,2.45551171875,0.16169247031211853,-5.964386463165283,7.786916255950928
1700938816412509000,2.472509033203125,0.16456112265586853,-5.916755199432373,7.823110580444336
1700938816429494800,2.489494873046875,0.163066565990448,-5.868455410003662,7.859436988830566
1700938816446489300,2.5064892578125,0.15629959106445312,-5.818374156951904,7.896721363067627
1700938816463480600,2.52348046875,0.14911627769470215,-5.768328666687012,7.933490753173828
1700938816480473300,2.540473388671875,0.14838537573814392,-5.722525119781494,7.966605186462402
1700938816497461500,2.55746142578125,0.1564948856830597,-5.6858062744140625,7.99269962310791
1700938816514444300,2.5744443359375,0.16689708828926086,-5.660858154296875,8.010178565979004
1700938816531438300,2.591438232421875,0.1712433248758316,-5.645477771759033,8.02093505859375
1700938816548435500,2.608435546875,0.16640065610408783,-5.638180255889893,8.026166915893555
1700938816565430300,2.62543017578125,0.15779589116573334,-5.638628005981445,8.026025772094727
1700938816582420700,2.642420654296875,0.15244393050670624,-5.643617630004883,8.022623062133789
1700938816599413200,2.659413330078125,0.15371277928352356,-5.651793956756592,8.016838073730469
1700938816616395000,2.67639501953125,0.15972839295864105,-5.664570331573486,8.007699012756348
1700938816633395000,2.69339501953125,0.16495288908481598,-5.681770324707031,7.995398998260498
1700938816650391600,2.7103916015625,0.1657475233078003,-5.703112602233887,7.9801716804504395
1700938816667377700,2.727377685546875,0.16272509098052979,-5.727709770202637,7.962599277496338
1700938816684369400,2.744369384765625,0.1595032811164856,-5.755013465881348,7.942951679229736
1700938816701366800,2.76136669921875,0.15814556181430817,-5.785067081451416,7.921116828918457
1700938816718352000,2.778351806640625,0.15758655965328217,-5.8171162605285645,7.8976216316223145
1700938816735346700,2.7953466796875,0.15739886462688446,-5.848752975463867,7.8742265701293945
1700938816752324900,2.812324951171875,0.1549629122018814,-5.878889083862305,7.851800918579102
1700938816769327400,2.829327392578125,0.1499384045600891,-5.9073872566223145,7.830481052398682
1700938816786321700,2.84632177734375,0.1372850239276886,-5.931561470031738,7.8124165534973145
1700938816803296300,2.863296142578125,0.12422995269298553,-5.951927185058594,7.797131538391113
1700938816820305700,2.8803056640625,0.11295534670352936,-5.968239784240723,7.784822463989258
1700938816837293800,2.8972939453125,0.10454763472080231,-5.982686996459961,7.773843288421631
1700938816854287600,2.91428759765625,0.09581072628498077,-5.996244430541992,7.763503551483154
1700938816871281200,2.93128125,0.08451390266418457,-6.005544662475586,7.756445407867432
1700938816888268500,2.9482685546875,0.07086650282144547,-6.006143093109131,7.75611686706543
1700938816905255700,2.965255615234375,0.05734832584857941,-5.995090961456299,7.764772415161133
1700938816922255400,2.98225537109375,0.043947674334049225,-5.977429389953613,7.778466701507568
1700938816939250700,2.999250732421875,0.029045460745692253,-5.958573818206787,7.7929887771606445
1700938816956238000,3.016238037109375,0.010817348957061768,-5.937617301940918,7.8090128898620605
1700938816973229000,3.03322900390625,-0.01003908459097147,-5.914917945861816,7.826222896575928
1700938816990211800,3.0502119140625,-0.02984652854502201,-5.891716957092285,7.843654632568359
1700938817007202300,3.067202392578125,-0.047303978353738785,-5.870054721832275,7.859793663024902
1700938817024204500,3.08420458984375,-0.06435679644346237,-5.84932804107666,7.8751091957092285
1700938817041197600,3.101197509765625,-0.0783638060092926,-5.827785968780518,7.890937805175781
1700938817058184400,3.118184326171875,-0.0855342447757721,-5.804375648498535,7.908098220825195
1700938817075169300,3.135169189453125,-0.08684869855642319,-5.77677059173584,7.9282708168029785
1700938817092172000,3.152172119140625,-0.08569972217082977,-5.746540069580078,7.95022439956665
1700938817109160000,3.169159912109375,-0.0834871307015419,-5.715092182159424,7.972884178161621
1700938817126154500,3.186154541015625,-0.07975076138973236,-5.684674263000488,7.9946393966674805
1700938817143146500,3.203146484375,-0.07507415860891342,-5.657620429992676,8.0138521194458
1700938817160137700,3.2201376953125,-0.0686001181602478,-5.635067939758301,8.029784202575684
1700938817177130000,3.2371298828125,-0.061538439244031906,-5.614594459533691,8.044169425964355
1700938817194108400,3.2541083984375,-0.05605316534638405,-5.594942092895508,8.057888984680176
1700938817211105300,3.271105224609375,-0.05253372713923454,-5.575984954833984,8.071043014526367
1700938817228101600,3.2881015625,-0.05002059414982796,-5.556515693664551,8.084476470947266
1700938817245099000,3.30509912109375,-0.047340814024209976,-5.536581516265869,8.09815502166748
1700938817262077000,3.322076904296875,-0.04234962910413742,-5.518925666809082,8.110227584838867
1700938817279079400,3.339079345703125,-0.03472544625401497,-5.505616664886475,8.119304656982422
1700938817296070700,3.356070556640625,-0.024880487471818924,-5.497727870941162,8.12468433380127
1700938817313063000,3.37306298828125,-0.014497587457299232,-5.494792461395264,8.126694679260254
1700938817330041600,3.39004150390625,-0.005720916204154491,-5.495118141174316,8.126486778259277
1700938817347046100,3.407046142578125,0.0015050733927637339,-5.500218868255615,8.123034477233887
1700938817364037400,3.424037353515625,0.009367239661514759,-5.511141777038574,8.11562442779541
1700938817381029600,3.441029541015625,0.017194323241710663,-5.524305820465088,8.106656074523926
1700938817398020400,3.458020263671875,0.02398761920630932,-5.536088943481445,8.09859561920166
1700938817415009800,3.475009765625,0.02993716113269329,-5.545146465301514,8.092378616333008
1700938817432006700,3.492006591796875,0.033939581364393234,-5.552163600921631,8.087550163269043
1700938817448995600,3.50899560546875,0.03726489096879959,-5.5580644607543945,8.083479881286621
1700938817465986600,3.525986572265625,0.040549274533987045,-5.564600467681885,8.078967094421387
1700938817482977000,3.54297705078125,0.044508423656225204,-5.573493480682373,8.072813987731934
1700938817499973000,3.55997314453125,0.04729695990681648,-5.584811210632324,8.064972877502441
1700938817516962600,3.576962646484375,0.04728468134999275,-5.597525596618652,8.056151390075684
1700938817533953500,3.59395361328125,0.046417538076639175,-5.6120991706848145,8.046011924743652
1700938817550945800,3.61094580078125,0.0474717915058136,-5.626025676727295,8.036273956298828
1700938817567937000,3.62793701171875,0.04887629300355911,-5.6356706619262695,8.029504776000977
1700938817584929000,3.644928955078125,0.0483950674533844,-5.640710353851318,8.02596664428711
1700938817601918700,3.661918701171875,0.046347957104444504,-5.643685817718506,8.02388858795166
1700938817618913800,3.678913818359375,0.047708019614219666,-5.647104740142822,8.021472930908203
1700938817635903200,3.6959033203125,0.054545167833566666,-5.653472423553467,8.016945838928223
1700938817652893000,3.712892822265625,0.0639638677239418,-5.660599231719971,8.011845588684082
1700938817669889000,3.729888916015625,0.07232128828763962,-5.666010856628418,8.007946014404297
1700938817686879000,3.74687890625,0.0766909122467041,-5.669097900390625,8.005721092224121
1700938817703870000,3.763869873046875,0.07888186722993851,-5.671594619750977,8.00393009185791
1700938817720862000,3.780862060546875,0.08329300582408905,-5.6762776374816895,8.000565528869629
1700938817737851400,3.797851318359375,0.09045876562595367,-5.683107852935791,7.995639324188232
1700938817754847500,3.814847412109375,0.09793209284543991,-5.690994739532471,7.9899373054504395
1700938817771836700,3.831836669921875,0.10646025836467743,-5.698013782501221,7.98482608795166
1700938817788828400,3.848828369140625,0.11841430515050888,-5.704183578491211,7.980250358581543
1700938817805819600,3.865819580078125,0.13427604734897614,-5.709901809692383,7.975908279418945
1700938817822812000,3.88281201171875,0.1529315859079361,-5.716668605804443,7.970724105834961
1700938817839803100,3.89980322265625,0.1721724420785904,-5.725078582763672,7.964291572570801
1700938817856795000,3.916794921875,0.1897982954978943,-5.734405040740967,7.957178115844727
1700938817873785600,3.93378564453125,0.20317380130290985,-5.743154048919678,7.950536251068115
1700938817890779100,3.950779052734375,0.21293045580387115,-5.7507147789001465,7.944812774658203
1700938817907759400,3.96775927734375,0.22153931856155396,-5.756548881530762,7.940351486206055
1700938817924759000,3.984759033203125,0.22889745235443115,-5.759374141693115,7.9380927085876465
1700938817941765600,4.001765625,0.23690053820610046,-5.7596049308776855,7.937692165374756
1700938817958745000,4.0187451171875,0.24577952921390533,-5.760015964508057,7.9371232986450195
1700938817975736000,4.035736083984375,0.25437143445014954,-5.761807441711426,7.935552597045898
1700938817992728000,4.05272802734375,0.26199209690093994,-5.76345682144165,7.934106349945068
1700938818009719600,4.069719482421875,0.26909881830215454,-5.763038635253906,7.934172630310059
1700938818026711600,4.086711669921875,0.274702787399292,-5.760497570037842,7.935824871063232
1700938818043702800,4.103702880859375,0.27694228291511536,-5.753560543060303,7.9407782554626465
1700938818060694800,4.12069482421875,0.27677327394485474,-5.742973327636719,7.9484453201293945
1700938818077685800,4.137685791015625,0.27562254667282104,-5.7315287590026855,7.956742763519287
1700938818094666800,4.154666748046875,0.27128157019615173,-5.720424175262451,7.964876174926758
1700938818111670000,4.171669921875,0.26379072666168213,-5.708990573883057,7.973329067230225
1700938818128661200,4.1886611328125,0.2551976442337036,-5.698303699493408,7.981247901916504
1700938818145652500,4.205652587890625,0.24700452387332916,-5.691178798675537,7.986587047576904
1700938818162644500,4.22264453125,0.24062755703926086,-5.687922954559326,7.989101409912109
1700938818179635700,4.2396357421875,0.23387108743190765,-5.68583869934082,7.990785598754883
1700938818196627700,4.256627685546875,0.2261890172958374,-5.68385648727417,7.992416858673096
1700938818213619200,4.273619140625,0.2191261649131775,-5.682261943817139,7.993746757507324
1700938818230611200,4.290611083984375,0.2157915085554123,-5.6814117431640625,7.994443893432617
1700938818247602200,4.307602294921875,0.21788948774337769,-5.6805901527404785,7.994970321655273
1700938818264596500,4.324596435546875,0.22455473244190216,-5.6789984703063965,7.99591588973999
1700938818281583900,4.341583984375,0.23196198046207428,-5.674100399017334,7.999181747436523
1700938818298575000,4.3585751953125,0.2382693737745285,-5.6668925285339355,8.004105567932129
1700938818315560200,4.375560302734375,0.2443118840456009,-5.659059047698975,8.009461402893066
1700938818332556800,4.392556884765625,0.25052571296691895,-5.650261878967285,8.015478134155273
1700938818349549600,4.409549560546875,0.2574821412563324,-5.641149044036865,8.021672248840332
1700938818366546700,4.426546630859375,0.2656536400318146,-5.633874893188477,8.026519775390625
1700938818383535400,4.443535400390625,0.2735649049282074,-5.629021644592285,8.029655456542969
1700938818400527600,4.460527587890625,0.2793501615524292,-5.624811172485352,8.03240966796875
1700938818417518800,4.477518798828125,0.2804161012172699,-5.6203718185424805,8.035477638244629
1700938818434510800,4.4945107421875,0.2781772017478943,-5.613436698913574,8.040403366088867
1700938818451501800,4.511501708984375,0.27734047174453735,-5.603428363800049,8.047409057617188
1700938818468494300,4.528494384765625,0.278748482465744,-5.591996669769287,8.055309295654297
1700938818485485300,4.5454853515625,0.2801307439804077,-5.584073543548584,8.060754776000977
1700938818502477600,4.5624775390625,0.2782619893550873,-5.580638885498047,8.06319808959961
1700938818519468800,4.57946875,0.2728714346885681,-5.577425003051758,8.065606117248535
1700938818536460500,4.59646044921875,0.26368486881256104,-5.56887149810791,8.071818351745605
1700938818553452000,4.6134521484375,0.25003865361213684,-5.550892353057861,8.084627151489258
1700938818570443500,4.630443603515625,0.23103752732276917,-5.524055004119873,8.10355281829834
1700938818587435000,4.64743505859375,0.21104882657527924,-5.494515419006348,8.124152183532715
1700938818604427300,4.66442724609375,0.1951432228088379,-5.4700703620910645,8.141030311584473
1700938818621418500,4.68141845703125,0.18612857162952423,-5.454367160797119,8.15177059173584
1700938818638410500,4.698410400390625,0.18048952519893646,-5.445590972900391,8.157760620117188
1700938818655403000,4.715403076171875,0.17308109998703003,-5.438666343688965,8.162540435791016
1700938818672392200,4.73239208984375,0.15730179846286774,-5.426899433135986,8.170687675476074
1700938818689384700,4.749384765625,0.12984386086463928,-5.4059247970581055,8.185062408447266
1700938818706377200,4.766377197265625,0.09615220129489899,-5.378913402557373,8.203301429748535
1700938818723368200,4.7833681640625,0.06576071679592133,-5.35224723815918,8.221025466918945
1700938818740360200,4.800360107421875,0.04242271929979324,-5.326885223388672,8.237635612487793
1700938818757351700,4.8173515625,0.020995013415813446,-5.29423713684082,8.258735656738281
1700938818774344000,4.834343994140625,-0.005081815179437399,-5.248495101928711,8.287906646728516
1700938818791335000,4.8513349609375,-0.04232039302587509,-5.194478511810303,8.321762084960938
1700938818808327000,4.868326904296875,-0.09000911563634872,-5.137850284576416,8.356466293334961
1700938818825318100,4.885318115234375,-0.13648629188537598,-5.084386825561523,8.388473510742188
1700938818842310400,4.902310302734375,-0.17492881417274475,-5.038741588592529,8.41525936126709
1700938818859301000,4.919301025390625,-0.2068364918231964,-4.999427318572998,8.43795394897461
1700938818876293600,4.936293701171875,-0.2306416779756546,-4.9655890464782715,8.457295417785645
1700938818893284600,4.95328466796875,-0.24393415451049805,-4.941215991973877,8.471186637878418
1700938818910276900,4.97027685546875,-0.24610406160354614,-4.927029609680176,8.479381561279297
1700938818927270400,4.9872705078125,-0.2342628538608551,-4.922974586486816,8.482073783874512
1700938818944257800,5.0042578125,-0.21027757227420807,-4.9284281730651855,8.479533195495605
1700938818961251000,5.0212509765625,-0.1825430691242218,-4.9398298263549805,8.473541259765625
1700938818978243300,5.038243408203125,-0.15492725372314453,-4.9554033279418945,8.464991569519043
1700938818995234600,5.055234619140625,-0.12765875458717346,-4.972442150115967,8.455451011657715
1700938819012230000,5.07222998046875,-0.09925122559070587,-4.990212440490723,8.445356369018555
1700938819029215500,5.089215576171875,-0.0668933168053627,-5.009570121765137,8.43420696258545
1700938819046210000,5.1062099609375,-0.0317533053457737,-5.030256271362305,8.422093391418457
1700938819063201300,5.123201171875,0.004738583695143461,-5.053216457366943,8.408394813537598
1700938819080190500,5.1401904296875,0.04143863543868065,-5.07802152633667,8.39333724975586
1700938819097186800,5.157186767578125,0.07396961748600006,-5.100053787231445,8.379742622375488
1700938819114166000,5.174166015625,0.09933484345674515,-5.117321968078613,8.368947982788086
1700938819131167700,5.191167724609375,0.11784946918487549,-5.1316752433776855,8.359912872314453
1700938819148160000,5.208159912109375,0.13421699404716492,-5.145533084869385,8.351141929626465
1700938819165148400,5.2251484375,0.1545395702123642,-5.161705493927002,8.34080696105957
1700938819182145300,5.242145263671875,0.17761093378067017,-5.1793060302734375,8.329426765441895
1700938819199134700,5.259134765625,0.19596534967422485,-5.195713996887207,8.3187894821167
1700938819216125000,5.276125,0.20739313960075378,-5.2101311683654785,8.309489250183105
1700938819233117400,5.293117431640625,0.21488752961158752,-5.2233171463012695,8.301017761230469
1700938819250107100,5.310107177734375,0.22308941185474396,-5.238431930541992,8.291271209716797
1700938819267103200,5.327103271484375,0.2317017763853073,-5.255486965179443,8.280233383178711
1700938819284085200,5.344085205078125,0.2412327378988266,-5.275476932525635,8.267240524291992
1700938819301084200,5.361084228515625,0.25189805030822754,-5.298991680145264,8.251870155334473
1700938819318076400,5.378076416015625,0.2630276381969452,-5.3248186111450195,8.234879493713379
1700938819335066400,5.39506640625,0.2735152244567871,-5.3511762619018555,8.217434883117676
1700938819352059600,5.4120595703125,0.2814463675022125,-5.377232074737549,8.200139045715332
1700938819369049300,5.42904931640625,0.2876233756542206,-5.401418209075928,8.184014320373535
1700938819386044700,5.446044677734375,0.2911580204963684,-5.423537254333496,8.169246673583984
1700938819403025200,5.463025146484375,0.29732683300971985,-5.444437026977539,8.155110359191895
1700938819420026400,5.4800263671875,0.30602630972862244,-5.465829849243164,8.14046573638916
1700938819437017600,5.497017578125,0.3129962086677551,-5.488529682159424,8.124913215637207
1700938819454006500,5.514006591796875,0.31695595383644104,-5.5135674476623535,8.1077880859375
1700938819471003400,5.53100341796875,0.3160443603992462,-5.542322158813477,8.088193893432617
1700938819487982000,5.547982177734375,0.3155952990055084,-5.572148323059082,8.067693710327148
1700938819504984000,5.564984130859375,0.3172699213027954,-5.601695537567139,8.047140121459961
1700938819521976300,5.581976318359375,0.3200128674507141,-5.629147529602051,8.027851104736328
1700938819538967300,5.59896728515625,0.3213033378124237,-5.655246734619141,8.009437561035156
1700938819555959300,5.615959228515625,0.3184686005115509,-5.681098461151123,7.991235256195068
1700938819572950300,5.6329501953125,0.3101690709590912,-5.708444118499756,7.972050189971924
1700938819589942800,5.64994287109375,0.2958603501319885,-5.7400288581848145,7.949882984161377
1700938819606933800,5.666933837890625,0.27489691972732544,-5.778056621551514,7.923042297363281
1700938819623925800,5.68392578125,0.24741441011428833,-5.824087619781494,7.890176773071289
1700938819640917000,5.7009169921875,0.2161359041929245,-5.874444007873535,7.8536810874938965
1700938819657909200,5.7179091796875,0.18374642729759216,-5.923343658447266,7.817695140838623
1700938819674891800,5.734891845703125,0.15146569907665253,-5.964412689208984,7.7871012687683105
1700938819691892700,5.751892822265625,0.11762785911560059,-5.99411678314209,7.7648468017578125
1700938819708884000,5.768884033203125,0.0837935283780098,-6.0105299949646,7.75258731842041
1700938819725874000,5.7858740234375,0.05315820872783661,-6.014625072479248,7.7496819496154785
1700938819742869000,5.802868896484375,0.0273930374532938,-6.006191730499268,7.75635290145874
1700938819759848700,5.8198486328125,0.004699407611042261,-5.9852294921875,7.772587776184082
1700938819776850400,5.836850341796875,-0.018933869898319244,-5.954506874084473,7.796128273010254
1700938819793842700,5.8538427734375,-0.04470079764723778,-5.916486740112305,7.82491397857666
1700938819810833400,5.87083349609375,-0.07478822767734528,-5.875611782073975,7.8554253578186035
1700938819827825700,5.88782568359375,-0.10723677277565002,-5.836257457733154,7.884334564208984
1700938819844817000,5.90481689453125,-0.139656662940979,-5.800076961517334,7.910481929779053
1700938819861799000,5.921798828125,-0.171226367354393,-5.765932559967041,7.93478536605835
1700938819878800100,5.938800048828125,-0.2011968493461609,-5.732434272766113,7.958316802978516
1700938819895792000,5.955792236328125,-0.2285466194152832,-5.700693607330322,7.980350494384766
1700938819912781000,5.972781005859375,-0.25075843930244446,-5.673645973205566,7.998935699462891
1700938819929778400,5.9897783203125,-0.264992892742157,-5.649433612823486,8.015597343444824
1700938819946767000,6.00676708984375,-0.27066588401794434,-5.6242146492004395,8.033123016357422
1700938819963759000,6.023759033203125,-0.2718522846698761,-5.59501838684082,8.053444862365723
1700938819980740900,6.040740966796875,-0.27093425393104553,-5.560728549957275,8.077190399169922
1700938819997741600,6.057741455078125,-0.2652776539325714,-5.5224738121032715,8.103581428527832
1700938820014734300,6.074734375,-0.25704947113990784,-5.484677791595459,8.129474639892578
1700938820031725600,6.0917255859375,-0.2465449422597885,-5.452055931091309,8.151713371276855
1700938820048716500,6.108716552734375,-0.23842023313045502,-5.425507545471191,8.169647216796875
1700938820065709000,6.125708984375,-0.23711512982845306,-5.40411376953125,8.183853149414062
1700938820082699800,6.14269970703125,-0.24422593414783478,-5.386254787445068,8.195409774780273
1700938820099676000,6.159676025390625,-0.25716933608055115,-5.369862079620361,8.205763816833496
1700938820116683300,6.176683349609375,-0.2720808982849121,-5.352065563201904,8.216903686523438
1700938820133665300,6.193665283203125,-0.2847898304462433,-5.329278945922852,8.231269836425781
1700938820150664200,6.210664306640625,-0.2911621034145355,-5.299879550933838,8.250007629394531
1700938820167661300,6.227661376953125,-0.2910159230232239,-5.263826370239258,8.273061752319336
1700938820184649700,6.244649658203125,-0.28602710366249084,-5.22242546081543,8.299432754516602
1700938820201642000,6.26164208984375,-0.2814551591873169,-5.177089214324951,8.327943801879883
1700938820218633500,6.278633544921875,-0.2801535725593567,-5.133272171020508,8.35506820678711
1700938820235625500,6.29562548828125,-0.2786894142627716,-5.097315311431885,8.37710189819336
1700938820252616700,6.31261669921875,-0.27367544174194336,-5.071351051330566,8.393009185791016
1700938820269609000,6.32960888671875,-0.26641902327537537,-5.054231643676758,8.403564453125
1700938820286599700,6.346599609375,-0.2626294493675232,-5.044547080993652,8.409500122070312
1700938820303592200,6.36359228515625,-0.2650788426399231,-5.041388511657715,8.411317825317383
1700938820320583200,6.380583251953125,-0.2754553258419037,-5.044196128845215,8.4093017578125
1700938820337575400,6.397575439453125,-0.2910393178462982,-5.052931308746338,8.40353012084961
1700938820354566400,6.41456640625,-0.30796700716018677,-5.068653106689453,8.393450736999512
1700938820371558700,6.43155859375,-0.32448363304138184,-5.0895161628723145,8.380193710327148
1700938820388557800,6.448557861328125,-0.34161949157714844,-5.111282825469971,8.366254806518555
1700938820405540000,6.4655400390625,-0.3608732223510742,-5.130369663238525,8.353754997253418
1700938820422533000,6.482533203125,-0.3824892044067383,-5.143238544464111,8.344874382019043
1700938820439525400,6.499525390625,-0.40600553154945374,-5.1507649421691895,8.339117050170898
1700938820456516600,6.5165166015625,-0.42840445041656494,-5.157174110412598,8.33403491973877
1700938820473508600,6.533508544921875,-0.44524794816970825,-5.166479110717773,8.327387809753418
1700938820490499800,6.550499755859375,-0.45625239610671997,-5.1784892082214355,8.319327354431152
1700938820507492000,6.5674921875,-0.4682959318161011,-5.1917033195495605,8.310416221618652
1700938820524483000,6.584483154296875,-0.48734673857688904,-5.2042741775512695,8.301453590393066
1700938820541464600,6.601464599609375,-0.5132575035095215,-5.2164626121521,8.292236328125
1700938820558466300,6.61846630859375,-0.5384344458580017,-5.2292094230651855,8.282607078552246
1700938820575458600,6.63545849609375,-0.5605854392051697,-5.243321895599365,8.272208213806152
1700938820592449800,6.65244970703125,-0.5808343887329102,-5.256178855895996,8.262645721435547
1700938820609441800,6.66944189453125,-0.5993940234184265,-5.2648420333862305,8.255803108215332
1700938820626433000,6.68643310546875,-0.616794764995575,-5.269613265991211,8.251477241516113
1700938820643425000,6.703425048828125,-0.6329517364501953,-5.2722086906433105,8.248595237731934
1700938820660416300,6.720416259765625,-0.6468096971511841,-5.272979736328125,8.247025489807129
1700938820677408300,6.737408203125,-0.6623691320419312,-5.270125389099121,8.247614860534668
1700938820694400300,6.754400146484375,-0.6822373867034912,-5.2646684646606445,8.249481201171875
1700938820711391700,6.771391845703125,-0.7031750679016113,-5.260494709014893,8.250386238098145
1700938820728383000,6.788383056640625,-0.7197004556655884,-5.260035514831543,8.249252319335938
1700938820745374200,6.805374267578125,-0.7346687912940979,-5.26262903213501,8.246277809143066
1700938820762367500,6.822367431640625,-0.7520186305046082,-5.264955997467041,8.243229866027832
1700938820779358500,6.8393583984375,-0.7700684070587158,-5.267351150512695,8.240031242370605
1700938820796349400,6.856349365234375,-0.7825334668159485,-5.273253917694092,8.235078811645508
1700938820813342000,6.873342041015625,-0.7850688695907593,-5.287083148956299,8.225966453552246
1700938820830333000,6.8903330078125,-0.7808138132095337,-5.311511039733887,8.210620880126953
1700938820847325200,6.9073251953125,-0.7738199830055237,-5.347635269165039,8.1878023147583
1700938820864313600,6.924313720703125,-0.7665033340454102,-5.392784118652344,8.158825874328613
1700938820881311000,6.94131103515625,-0.7568572163581848,-5.441064834594727,8.127614974975586
1700938820898312700,6.958312744140625,-0.7442184090614319,-5.4874749183654785,8.09752368927002
1700938820915291600,6.975291748046875,-0.7295740842819214,-5.529917240142822,8.069936752319336
1700938820932280000,6.992280029296875,-0.715978741645813,-5.568650245666504,8.044479370117188
1700938820949275400,7.009275390625,-0.7064220309257507,-5.603185176849365,8.021308898925781
1700938820966268200,7.02626806640625,-0.7024301290512085,-5.631120204925537,8.0020751953125
1700938820983258400,7.04325830078125,-0.7057992815971375,-5.649440765380859,7.9888529777526855
1700938821000242200,7.0602421875,-0.7157852053642273,-5.658092498779297,7.981839656829834
1700938821017241900,7.077241943359375,-0.729644238948822,-5.659640789031982,7.979485988616943
1700938821034233000,7.094233154296875,-0.7452183365821838,-5.65726900100708,7.9797282218933105
1700938821051214600,7.111214599609375,-0.7632540464401245,-5.651097297668457,7.982397556304932
1700938821068216000,7.128216064453125,-0.7847010493278503,-5.640517234802246,7.987799167633057
1700938821085208300,7.145208251953125,-0.8047769069671631,-5.624565124511719,7.997045516967773
1700938821102199300,7.16219921875,-0.8197065591812134,-5.603153228759766,8.010546684265137
1700938821119191800,7.17919189453125,-0.8279318809509277,-5.576169490814209,8.028510093688965
1700938821136182800,7.196182861328125,-0.833956241607666,-5.542771339416504,8.050983428955078
1700938821153175000,7.213175048828125,-0.8418242335319519,-5.507601261138916,8.07426643371582
1700938821170166000,7.230166015625,-0.8505781292915344,-5.471775054931641,8.097674369812012
1700938821187158300,7.247158203125,-0.8598044514656067,-5.435733318328857,8.120938301086426
1700938821204149200,7.264149169921875,-0.8673111200332642,-5.399415016174316,8.144336700439453
1700938821221131000,7.281131103515625,-0.8734126687049866,-5.360984802246094,8.169034957885742
1700938821238133000,7.298133056640625,-0.8766432404518127,-5.321287631988525,8.194602012634277
1700938821255123700,7.315123779296875,-0.8784985542297363,-5.279198169708252,8.221582412719727
1700938821272117500,7.332117431640625,-0.882500410079956,-5.235104560852051,8.249300956726074
1700938821289108000,7.34910791015625,-0.8822688460350037,-5.19202995300293,8.276506423950195
1700938821306099500,7.366099365234375,-0.8745248317718506,-5.152751445770264,8.301835060119629
1700938821323094800,7.3830947265625,-0.8628987669944763,-5.118197917938232,8.324396133422852
1700938821340082700,7.400082763671875,-0.851651668548584,-5.086528778076172,8.344940185546875
1700938821357075000,7.417074951171875,-0.840624988079071,-5.05361795425415,8.36602783203125
1700938821374066200,7.434066162109375,-0.8274073600769043,-5.016700744628906,8.389530181884766
1700938821391058000,7.451057861328125,-0.8115193247795105,-4.976004123687744,8.415279388427734
1700938821408049400,7.46804931640625,-0.7931093573570251,-4.931963920593262,8.442916870117188
1700938821425041700,7.485041748046875,-0.7737147212028503,-4.887261867523193,8.470664978027344
1700938821442032600,7.50203271484375,-0.7529997825622559,-4.847553253173828,8.495312690734863
1700938821459025000,7.51902490234375,-0.7295407652854919,-4.818309783935547,8.513975143432617
1700938821476015900,7.536015869140625,-0.7036299705505371,-4.801994323730469,8.525365829467773
1700938821493008400,7.55300830078125,-0.6790254712104797,-4.797684669494629,8.529786109924316
1700938821509999400,7.569999267578125,-0.6601752042770386,-4.8035888671875,8.527942657470703
1700938821526991600,7.58699169921875,-0.6432048678398132,-4.816905975341797,8.52172565460205
1700938821543982600,7.603982666015625,-0.6225641965866089,-4.836126804351807,8.512367248535156
1700938821560974800,7.620974853515625,-0.5975217223167419,-4.861281871795654,8.499826431274414
1700938821577966300,7.63796630859375,-0.5703386068344116,-4.893872261047363,8.482973098754883
1700938821594958000,7.6549580078125,-0.5460837483406067,-4.931904315948486,8.462518692016602
1700938821611949600,7.671949462890625,-0.5268832445144653,-4.972558498382568,8.439915657043457
1700938821628941600,7.688941650390625,-0.5136095285415649,-5.0149312019348145,8.415627479553223
1700938821645932800,7.705932861328125,-0.4994756281375885,-5.060641765594482,8.389073371887207
1700938821662924800,7.7229248046875,-0.4796161353588104,-5.110289573669434,8.360085487365723
1700938821679907300,7.7399072265625,-0.4576820433139801,-5.160839080810547,8.330208778381348
1700938821696906500,7.756906494140625,-0.44066256284713745,-5.210843563079834,8.299942016601562
1700938821713899800,7.773899658203125,-0.42830798029899597,-5.257172107696533,8.271324157714844
1700938821730891500,7.7908916015625,-0.4179993271827698,-5.297123908996582,8.246325492858887
1700938821747871500,7.80787158203125,-0.4065300226211548,-5.330789566040039,8.225175857543945
1700938821764875000,7.824875,-0.38835686445236206,-5.36137580871582,8.206151962280273
1700938821781866000,7.841865966796875,-0.3634728789329529,-5.3894758224487305,8.18886947631836
1700938821798855700,7.858855712890625,-0.334261953830719,-5.417792797088623,8.171407699584961
1700938821815851800,7.875851806640625,-0.30433356761932373,-5.448218822479248,8.152325630187988
1700938821832841700,7.892841796875,-0.27437475323677063,-5.48129940032959,8.131185531616211
1700938821849832400,7.90983251953125,-0.24697178602218628,-5.513408184051514,8.110329627990723
1700938821866834400,7.92683447265625,-0.22333499789237976,-5.539433002471924,8.09326457977295
1700938821883816000,7.94381591796875,-0.2020944058895111,-5.55939245223999,8.080124855041504
1700938821900808000,7.960807861328125,-0.18029597401618958,-5.573714256286621,8.070769309997559
1700938821917799400,7.97779931640625,-0.15519680082798004,-5.5821990966796875,8.065424919128418
1700938821934791400,7.99479150390625,-0.12832534313201904,-5.58608341217041,8.06320858001709
1700938821951782400,8.011782470703125,-0.1023467406630516,-5.587805271148682,8.062387466430664
1700938821968775000,8.02877490234375,-0.07960575073957443,-5.5890374183654785,8.061789512634277
1700938821985750300,8.045750244140624,-0.06276752054691315,-5.59262752532959,8.0594482421875
1700938822002758100,8.062758056640625,-0.051287099719047546,-5.597968578338623,8.055819511413574
1700938822019749400,8.079749267578125,-0.045642782002687454,-5.602364540100098,8.0527982711792
1700938822036741400,8.096741455078124,-0.04512004181742668,-5.601816654205322,8.053180694580078
1700938822053732600,8.113732666015625,-0.04795828089118004,-5.5955119132995605,8.057547569274902
1700938822070724600,8.130724609375,-0.0522717721760273,-5.586005210876465,8.06411361694336
1700938822087716000,8.147716064453125,-0.05905571207404137,-5.5750732421875,8.071627616882324
1700938822104708000,8.1647080078125,-0.06951930373907089,-5.56364107131958,8.079428672790527
1700938822121699300,8.18169921875,-0.08364208787679672,-5.551558494567871,8.087604522705078
1700938822138691300,8.19869140625,-0.0993453711271286,-5.536828517913818,8.097516059875488
1700938822155682800,8.215682861328125,-0.1156596839427948,-5.516381740570068,8.111242294311523
1700938822172674800,8.2326748046875,-0.13100570440292358,-5.491138935089111,8.128121376037598
1700938822189666000,8.249666015625,-0.14543487131595612,-5.464064598083496,8.146100997924805
1700938822206658000,8.266657958984375,-0.1598067432641983,-5.434864521026611,8.165343284606934
1700938822223649000,8.28364892578125,-0.1733003705739975,-5.404199123382568,8.185397148132324
1700938822240641500,8.3006416015625,-0.184321790933609,-5.375991344451904,8.203709602355957
1700938822257632800,8.3176328125,-0.19186703860759735,-5.352282524108887,8.219025611877441
1700938822274625000,8.334625,-0.19720202684402466,-5.334927082061768,8.23017406463623
1700938822291618600,8.35161865234375,-0.20234115421772003,-5.325160026550293,8.236372947692871
1700938822308605200,8.368605224609375,-0.20960865914821625,-5.320785045623779,8.239017486572266
1700938822325599200,8.38559912109375,-0.2172129601240158,-5.315749645233154,8.242072105407715
1700938822342591700,8.402591796875,-0.22062306106090546,-5.307763576507568,8.247126579284668
1700938822359582500,8.41958251953125,-0.21813389658927917,-5.299615859985352,8.25243091583252
1700938822376574700,8.43657470703125,-0.20886430144309998,-5.295795440673828,8.255121231079102
1700938822393566000,8.45356591796875,-0.19444507360458374,-5.299206256866455,8.253286361694336
1700938822410558200,8.47055810546875,-0.17958904802799225,-5.308825969696045,8.247437477111816
1700938822427549400,8.487549560546874,-0.16817761957645416,-5.322200298309326,8.239054679870605
1700938822444541700,8.504541748046876,-0.15766257047653198,-5.3355913162231445,8.230596542358398
1700938822461532700,8.52153271484375,-0.14601901173591614,-5.347006320953369,8.223401069641113
1700938822478525000,8.53852490234375,-0.132642924785614,-5.355273723602295,8.218246459960938
1700938822495516200,8.55551611328125,-0.1190563291311264,-5.3610992431640625,8.214654922485352
1700938822512505600,8.572505615234375,-0.10621234029531479,-5.367190837860107,8.210851669311523
1700938822529502200,8.589502197265626,-0.09543416649103165,-5.375243663787842,8.205714225769043
1700938822546491600,8.60649169921875,-0.08636337518692017,-5.384462356567383,8.1997709274292
1700938822563482600,8.623482666015626,-0.07762295752763748,-5.3917388916015625,8.195074081420898
1700938822580475100,8.64047509765625,-0.06853287667036057,-5.394591331481934,8.193277359008789
1700938822597465900,8.6574658203125,-0.05947963520884514,-5.392917156219482,8.194451332092285
1700938822614458000,8.6744580078125,-0.05211798846721649,-5.386729717254639,8.198569297790527
1700938822631437800,8.691437744140625,-0.046512264758348465,-5.377786636352539,8.204472541809082
1700938822648443000,8.70844287109375,-0.04195377230644226,-5.367658615112305,8.211126327514648
1700938822665422000,8.725422119140624,-0.037597596645355225,-5.355189800262451,8.219285011291504
1700938822682424300,8.74242431640625,-0.03485583886504173,-5.340038299560547,8.229148864746094
1700938822699416300,8.759416259765626,-0.035399045795202255,-5.324899673461914,8.2389497756958
1700938822716408000,8.776407958984375,-0.03658836707472801,-5.312835693359375,8.246729850769043
1700938822733399300,8.7933994140625,-0.037716880440711975,-5.303686618804932,8.252612113952637
1700938822750389000,8.810388916015626,-0.04100944846868515,-5.296638011932373,8.257121086120605
1700938822767385000,8.827385009765624,-0.04708061367273331,-5.292150974273682,8.259966850280762
1700938822784375000,8.844375,-0.05220452696084976,-5.289335250854492,8.261739730834961
1700938822801366000,8.861365966796875,-0.05322369933128357,-5.285793304443359,8.263998031616211
1700938822818358300,8.878358154296874,-0.051316920667886734,-5.280646800994873,8.267300605773926
1700938822835349500,8.895349609375,-0.05044393241405487,-5.273616790771484,8.271790504455566
1700938822852341500,8.912341552734375,-0.053040094673633575,-5.264894008636475,8.27733039855957
1700938822869333000,8.9293330078125,-0.05679108574986458,-5.254543304443359,8.283879280090332
1700938822886324700,8.94632470703125,-0.06009768322110176,-5.244620323181152,8.290142059326172
1700938822903305500,8.963305419921875,-0.06258918344974518,-5.23707389831543,8.294894218444824
1700938822920311000,8.98031103515625,-0.06268332153558731,-5.233225345611572,8.297322273254395
1700938822937299700,8.9972998046875,-0.060870688408613205,-5.232229709625244,8.297961235046387
1700938822954291700,9.014291748046874,-0.05992519110441208,-5.234060287475586,8.296813011169434
1700938822971283200,9.031283203125,-0.059811171144247055,-5.238977909088135,8.293710708618164
1700938822988275000,9.04827490234375,-0.05931825190782547,-5.245789051055908,8.289407730102539
1700938823005266400,9.065266357421875,-0.05834995210170746,-5.252131462097168,8.285399436950684
1700938823022258200,9.082258056640624,-0.05832481011748314,-5.255127906799316,8.283498764038086
1700938823039249400,9.09924951171875,-0.0592147558927536,-5.255828380584717,8.283048629760742
1700938823056241700,9.11624169921875,-0.05920247733592987,-5.256481647491455,8.282633781433105
1700938823073233000,9.13323291015625,-0.05716179683804512,-5.257155418395996,8.282218933105469
1700938823090225200,9.15022509765625,-0.054140541702508926,-5.2575225830078125,8.282008171081543
1700938823107216100,9.167216064453125,-0.05285181477665901,-5.257460594177246,8.282054901123047
1700938823124208400,9.18420849609375,-0.052442509680986404,-5.257564544677734,8.281990051269531
1700938823141190700,9.201190673828124,-0.053159963339567184,-5.258742809295654,8.281238555908203
1700938823158191600,9.218191650390626,-0.053564004600048065,-5.258352279663086,8.281485557556152
1700938823175182800,9.235182861328125,-0.05242379754781723,-5.2564921379089355,8.282670974731445
1700938823192175000,9.252175048828125,-0.0492604561150074,-5.254603385925293,8.283890724182129
1700938823209166300,9.269166259765624,-0.04662160575389862,-5.252500057220459,8.285239219665527
1700938823226158600,9.28615869140625,-0.04607898369431496,-5.249048709869385,8.287429809570312
1700938823243149600,9.303149658203125,-0.046920984983444214,-5.245332717895508,8.289777755737305
1700938823260141800,9.320141845703125,-0.048598550260066986,-5.243508815765381,8.290922164916992
1700938823277133000,9.337133056640624,-0.051650211215019226,-5.244636535644531,8.290188789367676
1700938823294125300,9.354125244140626,-0.050945620983839035,-5.246861934661865,8.288784980773926
1700938823311116500,9.371116455078125,-0.045547474175691605,-5.248417854309082,8.287832260131836
1700938823328108500,9.388108642578125,-0.04012827202677727,-5.2478179931640625,8.288238525390625
1700938823345098000,9.405097900390626,-0.03844018280506134,-5.244019985198975,8.290651321411133
1700938823362093600,9.422093505859374,-0.03969324007630348,-5.238499164581299,8.294135093688965
1700938823379082800,9.439082763671875,-0.040895428508520126,-5.232636451721191,8.297828674316406
1700938823396075000,9.456074951171875,-0.0410948172211647,-5.226984977722168,8.30138874053955
1700938823413056500,9.473056396484376,-0.04042297229170799,-5.222329139709473,8.3043212890625
1700938823430042400,9.49004248046875,-0.040405429899692535,-5.2203898429870605,8.305541038513184
1700938823447050000,9.507050048828125,-0.04268233850598335,-5.220574378967285,8.305415153503418
1700938823464039400,9.524039306640624,-0.04565213993191719,-5.219757080078125,8.305912017822266
1700938823481035500,9.541035400390625,-0.048800863325595856,-5.215728759765625,8.308425903320312
1700938823498025000,9.55802490234375,-0.051576536148786545,-5.20935583114624,8.312405586242676
1700938823515016200,9.57501611328125,-0.053732406347990036,-5.201956748962402,8.317022323608398
1700938823532008000,9.592008056640625,-0.05671916529536247,-5.194307804107666,8.321783065795898
1700938823549000200,9.609000244140624,-0.06073210760951042,-5.187243461608887,8.32616138458252
1700938823565979000,9.625978759765625,-0.06549232453107834,-5.179874420166016,8.330711364746094
1700938823582981600,9.642981689453125,-0.0707969218492508,-5.168874740600586,8.337495803833008
1700938823599968000,9.659968017578125,-0.07623658329248428,-5.15342903137207,8.347003936767578
1700938823616969000,9.676968994140625,-0.08189727365970612,-5.134807109832764,8.358419418334961
1700938823633948200,9.6939482421875,-0.08742406219244003,-5.114735126495361,8.370660781860352
1700938823650949600,9.71094970703125,-0.0905529111623764,-5.0955939292907715,8.382293701171875
1700938823667942000,9.72794189453125,-0.09056343138217926,-5.0798187255859375,8.391862869262695
1700938823684933000,9.74493310546875,-0.08980388194322586,-5.06869649887085,8.398592948913574
1700938823701925000,9.761925048828125,-0.09053770452737808,-5.060947895050049,8.403257369995117
1700938823718916400,9.778916259765625,-0.09337770193815231,-5.053225517272949,8.407872200012207
1700938823735915300,9.795915283203126,-0.09794554114341736,-5.04445219039917,8.413087844848633
1700938823752889300,9.812889404296875,-0.10233622044324875,-5.035028457641602,8.41867733001709
1700938823769892000,9.82989208984375,-0.10491250455379486,-5.024634838104248,8.424853324890137
1700938823786883000,9.846883056640625,-0.10427749156951904,-5.012796401977539,8.431909561157227
1700938823803875600,9.86387548828125,-0.10326241701841354,-4.9985032081604,8.44040298461914
1700938823820866800,9.88086669921875,-0.10727886855602264,-4.98227071762085,8.449947357177734
1700938823837858600,9.897858642578125,-0.11413004994392395,-4.964759826660156,8.460156440734863
1700938823854850000,9.91485009765625,-0.10968967527151108,-4.943704128265381,8.472536087036133
1700938823871842300,9.93184228515625,-0.08637624233961105,-4.908439636230469,8.493284225463867
1700938823888833500,9.94883349609375,-0.05082867667078972,-4.848405361175537,8.527984619140625
1700938823905825300,9.9658251953125,-0.022311221808195114,-4.764949321746826,8.5750150680542
1700938823922806000,9.982805908203124,-0.010951835662126541,-4.669078350067139,8.627613067626953
1700938823939809000,9.99980908203125,-0.010734318755567074,-4.567880153656006,8.68161678314209
1700938823956800300,10.01680029296875,-0.005158413667231798,-4.457331657409668,8.738896369934082
1700938823973792300,10.033792236328125,0.0187876895070076,-4.323541164398193,8.805837631225586
1700938823990783200,10.050783203125,0.06600746512413025,-4.148085594177246,8.889609336853027
1700938824007775700,10.067775634765624,0.12390484660863876,-3.913957357406616,8.994537353515625
1700938824024766700,10.0847666015625,0.19137294590473175,-3.6335318088531494,9.110264778137207
1700938824041759000,10.101759033203125,0.27272409200668335,-3.3251259326934814,9.225251197814941
1700938824058750200,10.118750244140625,0.38036373257637024,-3.005009889602661,9.330667495727539
1700938824075740200,10.135740234375,0.5120816230773926,-2.6693358421325684,9.425950050354004
1700938824092735700,10.15273583984375,0.6633719205856323,-2.3016974925994873,9.513056755065918
1700938824109725700,10.1697255859375,0.8174296617507935,-1.8902289867401123,9.591400146484375
1700938824126717000,10.186717041015624,0.9836894273757935,-1.4458805322647095,9.652870178222656
1700938824143709000,10.203708984375,1.1927794218063354,-0.9886215329170227,9.686899185180664
1700938824160700200,10.2207001953125,1.466791033744812,-0.5321115851402283,9.6851167678833
1700938824177694000,10.23769384765625,1.803536295890808,-0.08326786011457443,9.642428398132324
1700938824194677500,10.254677490234375,2.1780364513397217,0.3556484282016754,9.558545112609863
1700938824211680300,10.27168017578125,2.5616307258605957,0.787294864654541,9.436861038208008
1700938824228667000,10.2886669921875,2.9496660232543945,1.2177128791809082,9.27646255493164
1700938824245656600,10.305656494140624,3.35528564453125,1.6445084810256958,9.070487976074219
1700938824262653000,10.32265283203125,3.809048891067505,2.040980577468872,8.80690860748291
1700938824279642400,10.339642333984376,4.304807662963867,2.3955636024475098,8.48327922821045
1700938824296633900,10.3566337890625,4.8116960525512695,2.6986539363861084,8.111780166625977
1700938824313609700,10.373609619140625,5.302377223968506,2.95076060295105,7.708042621612549
1700938824330619100,10.390619140625,5.7665910720825195,3.1590449810028076,7.280314922332764
1700938824347609300,10.407609375,6.210781097412109,3.3311073780059814,6.8239312171936035
1700938824364600600,10.4246005859375,6.647368907928467,3.4583375453948975,6.331547737121582
1700938824381592800,10.4415927734375,7.07240104675293,3.5338754653930664,5.8076653480529785
1700938824398583600,10.45858349609375,7.458477020263672,3.558502197265625,5.28623628616333
1700938824415575800,10.475575927734376,7.771295547485352,3.558899164199829,4.814281940460205
1700938824432567300,10.4925673828125,8.000785827636719,3.5608668327331543,4.420832633972168
1700938824449559600,10.5095595703125,8.160593032836914,3.5811572074890137,4.100749969482422
1700938824466550500,10.526550537109374,8.273818969726562,3.6249806880950928,3.8261640071868896
1700938824483542800,10.543542724609376,8.345515251159668,3.6914515495300293,3.6002326011657715
1700938824500534000,10.560533935546875,8.384160995483398,3.7676775455474854,3.427326202392578
1700938824517526000,10.577526123046875,8.409947395324707,3.827634572982788,3.29516339302063
1700938824534517200,10.594517333984374,8.435258865356445,3.8620433807373047,3.188595771789551
1700938824551509500,10.611509521484376,8.462992668151855,3.8805809020996094,3.091109037399292
1700938824568500500,10.62850048828125,8.485298156738281,3.9016711711883545,3.002131938934326
1700938824585492700,10.64549267578125,8.492177963256836,3.9325549602508545,2.9417734146118164
1700938824602483700,10.662483642578126,8.487772941589355,3.961311101913452,2.915789842605591
1700938824619473400,10.679473388671875,8.489347457885742,3.970241069793701,2.899012327194214
1700938824636470000,10.696469970703125,8.512675285339355,3.9350852966308594,2.878466844558716
1700938824653459700,10.713459716796875,8.56014347076416,3.866457462310791,2.830293655395508
1700938824670450700,10.73045068359375,8.617161750793457,3.7981443405151367,2.7485904693603516
1700938824687454000,10.747453857421876,8.660298347473145,3.758126735687256,2.666799306869507
1700938824704418000,10.76441796875,8.677157402038574,3.7522952556610107,2.6197967529296875
1700938824721426200,10.78142626953125,8.67537784576416,3.7644765377044678,2.6081886291503906
1700938824738417700,10.798417724609376,8.673065185546875,3.7693653106689453,2.6088175773620605
1700938824755409700,10.81540966796875,8.674180030822754,3.764770269393921,2.611743211746216
1700938824772401000,10.83240087890625,8.672323226928711,3.764171838760376,2.618765115737915
1700938824789393200,10.84939306640625,8.66698169708252,3.7760002613067627,2.6194212436676025
1700938824806384400,10.86638427734375,8.657776832580566,3.8001554012298584,2.614924669265747
1700938824823376100,10.883376220703125,8.643362998962402,3.833949089050293,2.613279342651367
1700938824840367600,10.90036767578125,8.627716064453125,3.8671061992645264,2.616126298904419
1700938824857359600,10.917359619140624,8.616125106811523,3.8910677433013916,2.6187937259674072
1700938824874350000,10.93435009765625,8.610945701599121,3.904789447784424,2.615402936935425
1700938824891340500,10.951340576171875,8.610729217529297,3.9131925106048584,2.6035308837890625
1700938824908337000,10.9683369140625,8.608780860900879,3.926792860031128,2.589458465576172
1700938824925326600,10.98532666015625,8.598050117492676,3.9509637355804443,2.5883450508117676
1700938824942317800,11.00231787109375,8.580878257751465,3.9794750213623047,2.601619243621826
1700938824959307500,11.0193076171875,8.565367698669434,4.001396656036377,2.619046449661255
1700938824976303900,11.036303955078125,8.557388305664062,4.010136604309082,2.6317336559295654
1700938824993293300,11.053293212890624,8.557523727416992,4.005340576171875,2.6385905742645264
1700938825010284500,11.070284423828125,8.560583114624023,3.996598482131958,2.6419177055358887
1700938825027277000,11.087277099609375,8.562379837036133,3.993079423904419,2.6414148807525635
1700938825044265200,11.10426513671875,8.56127643585205,3.99504017829895,2.642028331756592
1700938825061262000,11.121261962890625,8.561522483825684,3.99476957321167,2.6416375637054443
1700938825078251300,11.138251220703125,8.565807342529297,3.9868264198303223,2.6397457122802734
1700938825095251500,11.15525146484375,8.569586753845215,3.9781734943389893,2.6405372619628906
1700938825112234500,11.172234375,8.568001747131348,3.9774367809295654,2.646779775619507
1700938825129226800,11.189226806640624,8.563728332519531,3.981210231781006,2.6549248695373535
1700938825146218000,11.206218017578125,8.562335968017578,3.981445550918579,2.6590638160705566
1700938825163210200,11.223210205078125,8.56431770324707,3.9770851135253906,2.6592042446136475
1700938825180201500,11.240201416015625,8.565376281738281,3.974128484725952,2.660212516784668
1700938825197193200,11.257193115234376,8.562888145446777,3.975715160369873,2.665849208831787
1700938825214185000,11.27418505859375,8.557723045349121,3.9805119037628174,2.675259828567505
1700938825231177000,11.291177001953125,8.550858497619629,3.988316774368286,2.685563802719116
1700938825248168000,11.30816796875,8.54509449005127,3.996702194213867,2.6914384365081787
1700938825265161700,11.32516162109375,8.542197227478027,4.002511024475098,2.6920037269592285
1700938825282151400,11.3421513671875,8.540655136108398,4.006117343902588,2.691530227661133
1700938825299143700,11.359143798828125,8.538745880126953,4.009690761566162,2.6922664642333984
1700938825316136000,11.376135986328125,8.535724639892578,4.015244960784912,2.6935715675354004
1700938825333125600,11.393125732421876,8.530328750610352,4.022983551025391,2.699113130569458
1700938825350106000,11.410106201171875,8.523831367492676,4.029698371887207,2.709599494934082
1700938825367110400,11.4271103515625,8.521883964538574,4.029092788696289,2.7166175842285156
1700938825384101600,11.4441015625,8.523837089538574,4.025005340576172,2.716548204421997
1700938825401094000,11.461093994140626,8.525595664978027,4.022562503814697,2.7146482467651367
1700938825418084900,11.4780849609375,8.524103164672852,4.025049686431885,2.7156500816345215
1700938825435067100,11.495067138671875,8.51885986328125,4.033531665802002,2.719515085220337
1700938825452068000,11.512068115234374,8.511444091796875,4.04559850692749,2.7248053550720215
1700938825469060400,11.529060302734376,8.505658149719238,4.0539727210998535,2.730419635772705
1700938825486051800,11.5460517578125,8.503312110900879,4.05678129196167,2.733555793762207
1700938825503043800,11.5630439453125,8.505263328552246,4.053672790527344,2.7320942878723145
1700938825520034800,11.580034912109374,8.507974624633789,4.05192232131958,2.7262439727783203
1700938825537027300,11.59702734375,8.506614685058594,4.058112621307373,2.7212753295898438
1700938825554015700,11.614015625,8.500624656677246,4.071203708648682,2.7204415798187256
1700938825571013400,11.631013427734375,8.493992805480957,4.083774566650391,2.7223117351531982
1700938825588001800,11.648001708984374,8.489109992980957,4.091113090515137,2.726522922515869
1700938825604993800,11.664993896484376,8.487058639526367,4.092731475830078,2.7304751873016357
1700938825621985300,11.6819853515625,8.488174438476562,4.090818881988525,2.729872465133667
1700938825638977500,11.6989775390625,8.490071296691895,4.0904154777526855,2.724574565887451
1700938825655968800,11.71596875,8.489852905273438,4.094152450561523,2.7196359634399414
1700938825672960000,11.7329599609375,8.487357139587402,4.099950313568115,2.7186927795410156
1700938825689952800,11.749952880859375,8.484965324401855,4.103720188140869,2.7204675674438477
1700938825706944300,11.7669443359375,8.484899520874023,4.1025471687316895,2.722445011138916
1700938825723935500,11.783935546875,8.487371444702148,4.098334789276123,2.7210826873779297
1700938825740908300,11.800908203125,8.489847183227539,4.095360279083252,2.717836856842041
1700938825757923000,11.817923095703126,8.489474296569824,4.097878456115723,2.7152040004730225
1700938825774919700,11.834919677734375,8.486068725585938,4.104148864746094,2.716377019882202
1700938825791902000,11.85190185546875,8.482123374938965,4.10992431640625,2.719966411590576
1700938825808894500,11.86889453125,8.48037052154541,4.111377239227295,2.723234176635742
1700938825825888300,11.88588818359375,8.481104850769043,4.109729766845703,2.723433256149292
1700938825842875100,11.902875244140626,8.483336448669434,4.107676029205322,2.719576835632324
1700938825859869000,11.919868896484376,8.483945846557617,4.107985973358154,2.7172086238861084
1700938825876852500,11.9368525390625,8.482137680053711,4.110899925231934,2.718446969985962
1700938825893852400,11.953852294921875,8.47919750213623,4.115267753601074,2.721008539199829
1700938825910844700,11.9708447265625,8.476598739624023,4.120431423187256,2.721292734146118
1700938825927826700,11.98782666015625,8.473291397094727,4.127857208251953,2.7203376293182373
1700938825944828000,12.004827880859375,8.469557762145996,4.136124134063721,2.719407320022583
1700938825961819100,12.021819091796875,8.4673490524292,4.142152309417725,2.717108726501465
1700938825978811400,12.038811279296874,8.466399192810059,4.1456990242004395,2.7146573066711426
1700938825995799800,12.0557998046875,8.464584350585938,4.1501641273498535,2.7134974002838135
1700938826012797000,12.072796875,8.461400032043457,4.156522750854492,2.7136952877044678
1700938826029775000,12.089775146484374,8.458312034606934,4.161178112030029,2.716184139251709
1700938826046778000,12.106778076171874,8.457929611206055,4.158695697784424,2.7211735248565674
1700938826063767600,12.123767578125,8.460742950439453,4.150576591491699,2.7248222827911377
1700938826080763100,12.14076318359375,8.464235305786133,4.144608020782471,2.723059892654419
1700938826097752300,12.15775244140625,8.46580982208252,4.144508361816406,2.7183120250701904
1700938826114744600,12.17474462890625,8.463838577270508,4.14946174621582,2.716893434524536
1700938826131736800,12.19173681640625,8.4598970413208,4.155287265777588,2.7202634811401367
1700938826148728300,12.208728271484375,8.455541610717773,4.159844398498535,2.7268357276916504
1700938826165719600,12.225719482421875,8.452393531799316,4.16303825378418,2.731712579727173
1700938826182711800,12.2427119140625,8.450090408325195,4.16678524017334,2.7331275939941406
1700938826199703000,12.259703125,8.450323104858398,4.169785499572754,2.727827310562134
1700938826216695000,12.276695068359375,8.45209789276123,4.17121696472168,2.720127820968628
1700938826233683500,12.293683349609376,8.452189445495605,4.172392845153809,2.71804141998291
1700938826250680800,12.310680908203125,8.450339317321777,4.1736063957214355,2.721926689147949
1700938826267669500,12.32766943359375,8.44872760772705,4.173236846923828,2.7274909019470215
1700938826284661800,12.344661865234375,8.448576927185059,4.171305179595947,2.730910062789917
1700938826301653000,12.361653076171875,8.449090003967285,4.169924259185791,2.731431484222412
1700938826318645200,12.378645263671874,8.448816299438477,4.171109676361084,2.730468273162842
1700938826335636500,12.395636474609375,8.446778297424316,4.175962924957275,2.729355573654175
1700938826352626000,12.4126259765625,8.442466735839844,4.184077739715576,2.7302677631378174
1700938826369622300,12.429622314453125,8.43661880493164,4.193713665008545,2.733555316925049
1700938826386609200,12.446609130859375,8.43114185333252,4.202705383300781,2.7366435527801514
1700938826403605800,12.463605712890624,8.427438735961914,4.209610462188721,2.737436056137085
1700938826420595500,12.480595458984375,8.426226615905762,4.213790416717529,2.7347376346588135
1700938826437586400,12.49758642578125,8.426422119140625,4.2146711349487305,2.7327778339385986
1700938826454579000,12.514578857421874,8.426273345947266,4.213275909423828,2.7353827953338623
1700938826471570000,12.53156982421875,8.425381660461426,4.212656021118164,2.7390830516815186
1700938826488562200,12.548562255859375,8.426328659057617,4.210883617401123,2.738895893096924
1700938826505548800,12.565548828125,8.428025245666504,4.2087483406066895,2.736957550048828
1700938826522535000,12.582534912109375,8.42562198638916,4.212776184082031,2.738161087036133
1700938826539536600,12.59953662109375,8.419231414794922,4.223123550415039,2.741875410079956
1700938826556518100,12.61651806640625,8.412867546081543,4.235124588012695,2.742896556854248
1700938826573520000,12.633519775390624,8.407764434814453,4.246531009674072,2.740908145904541
1700938826590501600,12.650501708984375,8.401692390441895,4.259814262390137,2.738914966583252
1700938826607503600,12.667503662109375,8.387792587280273,4.282988548278809,2.7453696727752686
1700938826624493300,12.684493408203124,8.372963905334473,4.305272102355957,2.7557623386383057
1700938826641489400,12.701489501953125,8.356149673461914,4.329233169555664,2.7692251205444336
1700938826658479000,12.71847900390625,8.343897819519043,4.345950603485107,2.7799623012542725
1700938826675470000,12.735469970703125,8.347140312194824,4.345483303070068,2.7709453105926514
1700938826692462300,12.75246240234375,8.366511344909668,4.327418804168701,2.7406303882598877
1700938826709453600,12.76945361328125,8.386987686157227,4.307628631591797,2.7090396881103516
1700938826726446000,12.786446044921876,8.390806198120117,4.307764053344727,2.696970224380493
