time,seconds_elapsed,z,y,x
1701897687072930600,0.1079306640625,9.113930702209473,3.2663536071777344,1.5821866989135742
1701897687089931000,0.124930908203125,9.081300735473633,3.350494146347046,1.5938233137130737
1701897687106921000,0.1419208984375,9.019410133361816,3.4846205711364746,1.6564340591430664
1701897687123915800,0.158915771484375,8.931302070617676,3.6277151107788086,1.8186897039413452
1701897687140904000,0.175904052734375,8.848225593566895,3.728459119796753,2.0108718872070312
1701897687157899500,0.1928994140625,8.770424842834473,3.794478178024292,2.2175889015197754
1701897687174890800,0.209890869140625,8.687159538269043,3.836883783340454,2.4592044353485107
1701897687191883000,0.226883056640625,8.57543659210205,3.896545171737671,2.741339921951294
1701897687208878000,0.243878173828125,8.387417793273926,4.026095390319824,3.1109302043914795
1701897687225871600,0.26087158203125,8.084051132202148,4.233766555786133,3.5999233722686768
1701897687242861300,0.277861328125,7.710874080657959,4.413671970367432,4.159090995788574
1701897687259857400,0.294857421875,7.327247619628906,4.4589009284973145,4.760856628417969
1701897687276848000,0.31184814453125,6.955588340759277,4.368165969848633,5.364236831665039
1701897687293845200,0.32884521484375,6.569973945617676,4.180461883544922,5.966179370880127
1701897687310826000,0.345825927734375,6.106168746948242,3.957158088684082,6.579644680023193
1701897687327828700,0.362828857421875,5.538220405578613,3.7262685298919678,7.188820838928223
1701897687344812300,0.379812255859375,4.9468512535095215,3.4032089710235596,7.7577667236328125
1701897687361811500,0.3968115234375,4.444037914276123,2.9364993572235107,8.237937927246094
1701897687378806500,0.413806640625,4.067253589630127,2.344356060028076,8.613800048828125
1701897687395800800,0.43080078125,3.7488903999328613,1.6988369226455688,8.904824256896973
1701897687412790800,0.447790771484375,3.39473557472229,1.0861577987670898,9.139592170715332
1701897687429785600,0.46478564453125,3.0066962242126465,0.5506051182746887,9.321627616882324
1701897687446779000,0.48177880859375,2.633758544921875,0.0854225605726242,9.449451446533203
1701897687463762200,0.49876220703125,2.2995193004608154,-0.3401375114917755,9.53061580657959
1701897687480761300,0.51576123046875,2.024186372756958,-0.7547428607940674,9.56917667388916
1701897687497756700,0.532756591796875,1.7914097309112549,-1.1870982646942139,9.571717262268066
1701897687514740700,0.54974072265625,1.5713450908660889,-1.650312066078186,9.541668891906738
1701897687531739400,0.566739501953125,1.3598028421401978,-2.083310604095459,9.489303588867188
1701897687548736000,0.583736083984375,1.1289705038070679,-2.4853386878967285,9.42255973815918
1701897687565730000,0.60072998046875,0.8923430442810059,-2.8468234539031982,9.345343589782715
1701897687582718500,0.617718505859375,0.6710428595542908,-3.1760647296905518,9.257344245910645
1701897687599715000,0.634715087890625,0.48990723490715027,-3.486466884613037,9.156453132629395
1701897687616706800,0.651706787109375,0.339115709066391,-3.788377523422241,9.042638778686523
1701897687633701600,0.66870166015625,0.19323879480361938,-4.088435173034668,8.915349960327148
1701897687650685000,0.685684814453125,0.04097611829638481,-4.390257358551025,8.772688865661621
1701897687667686400,0.702686279296875,-0.0861031785607338,-4.687424182891846,8.617237091064453
1701897687684678700,0.7196787109375,-0.16967977583408356,-4.965790271759033,8.45862102508545
1701897687701670100,0.736670166015625,-0.20851172506809235,-5.2184157371521,8.304264068603516
1701897687718652400,0.75365234375,-0.21389524638652802,-5.440568923950195,8.16030502319336
1701897687735659000,0.770658935546875,-0.21235685050487518,-5.6317219734191895,8.029616355895996
1701897687752647400,0.7876474609375,-0.21979157626628876,-5.795152187347412,7.912269115447998
1701897687769633000,0.804633056640625,-0.2276613563299179,-5.936150074005127,7.806819915771484
1701897687786635800,0.8216357421875,-0.22180478274822235,-6.056993007659912,7.713608741760254
1701897687803630300,0.83863037109375,-0.19270552694797516,-6.156712532043457,7.635043144226074
1701897687820618800,0.85561865234375,-0.14430227875709534,-6.238219738006592,7.5696702003479
1701897687837612800,0.87261279296875,-0.09081895649433136,-6.306928634643555,7.513356685638428
1701897687854610400,0.8896103515625,-0.039614301174879074,-6.3679280281066895,7.462174415588379
1701897687871598000,0.90659814453125,0.0038650096394121647,-6.422309875488281,7.41552734375
1701897687888591400,0.92359130859375,0.037804003804922104,-6.467394828796387,7.376143455505371
1701897687905588700,0.940588623046875,0.06406151503324509,-6.500871658325195,7.346473693847656
1701897687922576100,0.957576171875,0.08403092622756958,-6.524896144866943,7.324943542480469
1701897687939572000,0.974572021484375,0.09927929192781448,-6.54191780090332,7.3095526695251465
1701897687956565200,0.991565185546875,0.11305592209100723,-6.551809310913086,7.300489902496338
1701897687973558800,1.008558837890625,0.12376217544078827,-6.551548004150391,7.300549507141113
1701897687990547700,1.025547607421875,0.12126307189464569,-6.535872459411621,7.314629077911377
1701897688007543600,1.04254345703125,0.10051364451646805,-6.5056562423706055,7.341829299926758
1701897688024537300,1.059537353515625,0.07033557444810867,-6.463139057159424,7.379633903503418
1701897688041524700,1.076524658203125,0.04129303991794586,-6.407691478729248,7.428048133850098
1701897688058523400,1.0935234375,0.02070089802145958,-6.341718673706055,7.484537601470947
1701897688075516400,1.110516357421875,0.00895033311098814,-6.26520299911499,7.5487260818481445
1701897688092497200,1.1274970703125,0.0028429164085537195,-6.176150798797607,7.621762752532959
1701897688109501000,1.1445009765625,-0.0053139496594667435,-6.07558012008667,7.702169895172119
1701897688126493700,1.16149365234375,-0.017440490424633026,-5.973291397094727,7.781747341156006
1701897688143490300,1.178490234375,-0.027218790724873543,-5.877470016479492,7.854343414306641
1701897688160476400,1.195476318359375,-0.03563760966062546,-5.793377876281738,7.9165425300598145
1701897688177472000,1.212471923828125,-0.04371495544910431,-5.719017505645752,7.970386981964111
1701897688194460700,1.229460693359375,-0.05316230282187462,-5.643736362457275,8.023809432983398
1701897688211455500,1.24645556640625,-0.06581100076436996,-5.562075614929199,8.080537796020508
1701897688228450000,1.263449951171875,-0.07816324383020401,-5.4778571128845215,8.137757301330566
1701897688245444900,1.28044482421875,-0.08614352345466614,-5.402516841888428,8.187888145446777
1701897688262433800,1.297433837890625,-0.08833038061857224,-5.342653751373291,8.227051734924316
1701897688279430000,1.314429931640625,-0.0839911624789238,-5.295805931091309,8.257330894470215
1701897688296435700,1.331435791015625,-0.08147627860307693,-5.250345706939697,8.286335945129395
1701897688313406000,1.348406005859375,-0.0858856588602066,-5.202214241027832,8.316591262817383
1701897688330401300,1.3654013671875,-0.09549965709447861,-5.152962684631348,8.347092628479004
1701897688347401700,1.382401611328125,-0.10504289716482162,-5.111427307128906,8.372479438781738
1701897688364397600,1.3993974609375,-0.1096738874912262,-5.085153579711914,8.388402938842773
1701897688381386800,1.41638671875,-0.1116742193698883,-5.073208808898926,8.39560604095459
1701897688398380300,1.43338037109375,-0.11542287468910217,-5.070043563842773,8.397467613220215
1701897688415370800,1.450370849609375,-0.12279913574457169,-5.070006847381592,8.397384643554688
1701897688432362500,1.467362548828125,-0.13373635709285736,-5.0731587409973145,8.39531421661377
1701897688449358000,1.484358154296875,-0.1443987488746643,-5.081401824951172,8.39015007019043
1701897688466351900,1.501351806640625,-0.1505003273487091,-5.099888324737549,8.37881851196289
1701897688483345700,1.518345703125,-0.14850057661533356,-5.134869575500488,8.357463836669922
1701897688500333800,1.535333740234375,-0.14139153063297272,-5.186801433563232,8.325456619262695
1701897688517329400,1.552329345703125,-0.13244353234767914,-5.247803211212158,8.287288665771484
1701897688534324200,1.56932421875,-0.12550288438796997,-5.308061122894287,8.248930931091309
1701897688551313400,1.5863134765625,-0.12242666631937027,-5.366322040557861,8.211194038391113
1701897688568311800,1.603311767578125,-0.11956562846899033,-5.426888942718506,8.171334266662598
1701897688585299500,1.620299560546875,-0.11628182977437973,-5.492948532104492,8.12712287902832
1701897688602291500,1.63729150390625,-0.11591286957263947,-5.561150074005127,8.080611228942871
1701897688619277300,1.65427734375,-0.11727292835712433,-5.6263108253479,8.035358428955078
1701897688636279600,1.671279541015625,-0.12359318882226944,-5.688855171203613,7.991105079650879
1701897688653271000,1.68827099609375,-0.1307343989610672,-5.75015926361084,7.946993350982666
1701897688670263300,1.70526318359375,-0.13673831522464752,-5.807828426361084,7.904843807220459
1701897688687256800,1.7222568359375,-0.14018993079662323,-5.85680627822876,7.868564128875732
1701897688704254500,1.73925439453125,-0.14399470388889313,-5.896214008331299,7.839006423950195
1701897688721241900,1.756241943359375,-0.15166743099689484,-5.927122592926025,7.815518379211426
1701897688738244600,1.77324462890625,-0.16038796305656433,-5.9490227699279785,7.7986860275268555
1701897688755231700,1.790231689453125,-0.16907985508441925,-5.960970401763916,7.789375305175781
1701897688772220000,1.807219970703125,-0.17834827303886414,-5.961565017700195,7.788712024688721
1701897688789216300,1.82421630859375,-0.19011345505714417,-5.948153972625732,7.798682689666748
1701897688806208500,1.84120849609375,-0.20324747264385223,-5.9260640144348145,7.815151214599609
1701897688823203000,1.858203125,-0.21638967096805573,-5.901035308837891,7.833714485168457
1701897688840190500,1.8751904296875,-0.2292512059211731,-5.874764442443848,7.853071212768555
1701897688857188000,1.89218798828125,-0.2415350377559662,-5.848579406738281,7.872223854064941
1701897688874182700,1.9091826171875,-0.2495042085647583,-5.822819709777832,7.891048431396484
1701897688891172400,1.92617236328125,-0.256134957075119,-5.795474052429199,7.910942077636719
1701897688908166100,1.943166259765625,-0.26405149698257446,-5.762659549713135,7.934616565704346
1701897688925156000,1.960156005859375,-0.2701495587825775,-5.727360248565674,7.959929466247559
1701897688942150100,1.977150146484375,-0.2762020230293274,-5.6929121017456055,7.984396934509277
1701897688959146200,1.994146240234375,-0.2806400656700134,-5.661989688873291,8.00620174407959
1701897688976134700,2.011134765625,-0.28284505009651184,-5.636054039001465,8.02440071105957
1701897688993130800,2.028130859375,-0.28497809171676636,-5.611721515655518,8.041359901428223
1701897689010107600,2.045107666015625,-0.2915503680706024,-5.5865583419799805,8.05862808227539
1701897689027114200,2.0621142578125,-0.30339333415031433,-5.558696746826172,8.077435493469238
1701897689044100600,2.0791005859375,-0.31846392154693604,-5.527634620666504,8.098145484924316
1701897689061100800,2.096100830078125,-0.33467885851860046,-5.496501445770264,8.118656158447266
1701897689078091500,2.113091552734375,-0.34883788228034973,-5.467971324920654,8.137304306030273
1701897689095086000,2.130086181640625,-0.35979849100112915,-5.442905426025391,8.15361499786377
1701897689112071700,2.14707177734375,-0.36861491203308105,-5.421919822692871,8.167191505432129
1701897689129064400,2.164064453125,-0.3784131109714508,-5.401299476623535,8.18039608001709
1701897689146067200,2.181067138671875,-0.3899900019168854,-5.378856182098389,8.194628715515137
1701897689163058200,2.19805810546875,-0.40370991826057434,-5.355712413787842,8.209110260009766
1701897689180050400,2.215050537109375,-0.41911497712135315,-5.334274768829346,8.222286224365234
1701897689197044500,2.23204443359375,-0.43185314536094666,-5.3173956871032715,8.232553482055664
1701897689214039000,2.2490390625,-0.43961474299430847,-5.3053789138793945,8.239891052246094
1701897689231021800,2.266021728515625,-0.44290614128112793,-5.299290180206299,8.243632316589355
1701897689248023000,2.28302294921875,-0.45160093903541565,-5.296600341796875,8.244889259338379
1701897689265015600,2.300015625,-0.4757300615310669,-5.290857791900635,8.247220039367676
1701897689282008800,2.3170087890625,-0.5083481669425964,-5.278777122497559,8.253011703491211
1701897689299003400,2.33400341796875,-0.5333906412124634,-5.2548675537109375,8.266678810119629
1701897689315994600,2.35099462890625,-0.5451985001564026,-5.220747470855713,8.287500381469727
1701897689332986000,2.367986083984375,-0.545242965221405,-5.185464382171631,8.309619903564453
1701897689349971000,2.384970947265625,-0.54193514585495,-5.153015613555908,8.329997062683105
1701897689366974500,2.401974365234375,-0.5386928915977478,-5.124751567840576,8.347627639770508
1701897689383968000,2.418968017578125,-0.5375538468360901,-5.1015305519104,8.361909866333008
1701897689400957000,2.43595703125,-0.5404470562934875,-5.079846382141113,8.37491512298584
1701897689417952300,2.4529521484375,-0.549235999584198,-5.05811882019043,8.387483596801758
1701897689434946800,2.46994677734375,-0.5594896674156189,-5.044196605682373,8.395186424255371
1701897689451930400,2.486930419921875,-0.5660812258720398,-5.043717384338379,8.395034790039062
1701897689468918500,2.50391845703125,-0.5720500946044922,-5.053722858428955,8.388609886169434
1701897689485923600,2.520923583984375,-0.5800221562385559,-5.06821870803833,8.37930965423584
1701897689502915000,2.5379150390625,-0.5897806286811829,-5.079237937927246,8.371953964233398
1701897689519910400,2.554910400390625,-0.6029906272888184,-5.086677074432373,8.366493225097656
1701897689536899800,2.57189990234375,-0.6180968880653381,-5.092794895172119,8.361669540405273
1701897689553897000,2.58889697265625,-0.63265061378479,-5.097825050354004,8.357514381408691
1701897689570888700,2.605888671875,-0.6445672512054443,-5.103131294250488,8.353363990783691
1701897689587878000,2.6228779296875,-0.6553296446800232,-5.109259605407715,8.348779678344727
1701897689604876000,2.6398759765625,-0.668495237827301,-5.113717555999756,8.345006942749023
1701897689621863400,2.656863525390625,-0.6813246011734009,-5.114104747772217,8.343730926513672
1701897689638860800,2.67386083984375,-0.6927705407142639,-5.112187385559082,8.343963623046875
1701897689655852800,2.690852783203125,-0.7027324438095093,-5.109752178192139,8.344621658325195
1701897689672843000,2.707843017578125,-0.7099297642707825,-5.107327461242676,8.345497131347656
1701897689689837600,2.724837646484375,-0.7144643068313599,-5.1040802001953125,8.347097396850586
1701897689706834200,2.741834228515625,-0.7187567353248596,-5.101043224334717,8.348586082458496
1701897689723825700,2.75882568359375,-0.7273597717285156,-5.097347736358643,8.350098609924316
1701897689740814300,2.775814453125,-0.7353605031967163,-5.09166145324707,8.352865219116211
1701897689757809700,2.7928095703125,-0.7396090626716614,-5.082731246948242,8.357927322387695
1701897689774804700,2.8098046875,-0.7394687533378601,-5.072330951690674,8.36425495147705
1701897689791793000,2.82679296875,-0.7347412705421448,-5.064044952392578,8.36968994140625
1701897689808788500,2.84378857421875,-0.7288858890533447,-5.060325622558594,8.372452735900879
1701897689825782500,2.860782470703125,-0.7274708151817322,-5.058299541473389,8.373800277709961
1701897689842774300,2.877774169921875,-0.7281327247619629,-5.055978775024414,8.375144004821777
1701897689859765200,2.89476513671875,-0.7252535820007324,-5.054469108581543,8.376303672790527
1701897689876760800,2.9117607421875,-0.7170616388320923,-5.054813861846924,8.376802444458008
1701897689893743000,2.9287431640625,-0.7049427032470703,-5.058866024017334,8.375383377075195
1701897689910744800,2.945744873046875,-0.693000316619873,-5.0684075355529785,8.370611190795898
1701897689927751000,2.9627509765625,-0.6849884986877441,-5.079483985900879,8.364553451538086
1701897689944733400,2.9797333984375,-0.6818999648094177,-5.088472366333008,8.359341621398926
1701897689961721900,2.996721923828125,-0.6827548146247864,-5.094441890716553,8.355633735656738
1701897689978717700,3.0137177734375,-0.6855649948120117,-5.096954822540283,8.35387134552002
1701897689995710500,3.03071044921875,-0.6880214214324951,-5.096745014190674,8.353798866271973
1701897690012702000,3.047701904296875,-0.6869876384735107,-5.09495735168457,8.354973793029785
1701897690029697000,3.064697021484375,-0.6832939386367798,-5.090657711029053,8.357895851135254
1701897690046687500,3.0816875,-0.6811936497688293,-5.083535671234131,8.362401008605957
1701897690063684900,3.098684814453125,-0.6832810640335083,-5.075531482696533,8.36709213256836
1701897690080667600,3.115667724609375,-0.6903199553489685,-5.069639205932617,8.370084762573242
1701897690097668600,3.132668701171875,-0.6978453397750854,-5.066339492797852,8.3714599609375
1701897690114659000,3.1496591796875,-0.7017594575881958,-5.063116073608398,8.373082160949707
1701897690131656700,3.16665673828125,-0.7009952068328857,-5.0592474937438965,8.37548542022705
1701897690148647000,3.18364697265625,-0.697323203086853,-5.056420803070068,8.377497673034668
1701897690165640000,3.200639892578125,-0.6912028789520264,-5.0550031661987305,8.378861427307129
1701897690182630100,3.217630126953125,-0.6862000226974487,-5.052993297576904,8.38048267364502
1701897690199625500,3.23462548828125,-0.6828548312187195,-5.049569129943848,8.382820129394531
1701897690216620300,3.251620361328125,-0.6823770999908447,-5.045914649963379,8.385059356689453
1701897690233611500,3.268611572265625,-0.681125819683075,-5.041007041931152,8.38811206817627
1701897690250603500,3.285603515625,-0.6790371537208557,-5.033694744110107,8.392671585083008
1701897690267597000,3.30259716796875,-0.6753329634666443,-5.024801254272461,8.398298263549805
1701897690284590000,3.319590087890625,-0.6694688200950623,-5.014790058135986,8.40474796295166
1701897690301583000,3.3365830078125,-0.6603301763534546,-5.006143093109131,8.410623550415039
1701897690318566000,3.35356591796875,-0.6502496004104614,-4.997979164123535,8.416264533996582
1701897690335565300,3.3705654296875,-0.6409683227539062,-4.990888595581055,8.421182632446289
1701897690352565200,3.387565185546875,-0.6312829852104187,-4.987279891967773,8.424052238464355
1701897690369554200,3.40455419921875,-0.6174490451812744,-4.988265037536621,8.424495697021484
1701897690386549000,3.421549072265625,-0.6008628010749817,-4.994194984436035,8.422179222106934
1701897690403540000,3.4385400390625,-0.5827493071556091,-5.00161075592041,8.419052124023438
1701897690420533500,3.455533447265625,-0.5686101913452148,-5.009912490844727,8.415080070495605
1701897690437527000,3.472527099609375,-0.5598498582839966,-5.0194315910339355,8.409994125366211
1701897690454518500,3.4895185546875,-0.5552153587341309,-5.026988506317139,8.40578556060791
1701897690471511800,3.50651171875,-0.5532606244087219,-5.0310235023498535,8.403498649597168
1701897690488490800,3.52349072265625,-0.5521987676620483,-5.033251762390137,8.402237892150879
1701897690505497900,3.540497802734375,-0.5513263940811157,-5.035042762756348,8.401220321655273
1701897690522490600,3.55749072265625,-0.5519181489944458,-5.037525653839111,8.399693489074707
1701897690539483100,3.574483154296875,-0.5523431897163391,-5.0414557456970215,8.397306442260742
1701897690556476200,3.59147607421875,-0.5536670088768005,-5.045423984527588,8.39483642578125
1701897690573465900,3.6084658203125,-0.5564397573471069,-5.050107002258301,8.391836166381836
1701897690590462500,3.62546240234375,-0.5593668818473816,-5.05496883392334,8.388713836669922
1701897690607455000,3.642455078125,-0.5606983304023743,-5.060425758361816,8.385334014892578
1701897690624447700,3.65944775390625,-0.5609374642372131,-5.065853595733643,8.382040977478027
1701897690641441000,3.67644091796875,-0.5615812540054321,-5.072689056396484,8.377861976623535
1701897690658434000,3.69343408203125,-0.5620461106300354,-5.079898834228516,8.37346076965332
1701897690675426300,3.71042626953125,-0.5622431635856628,-5.085761547088623,8.369888305664062
1701897690692409000,3.7274091796875,-0.5619624853134155,-5.0898027420043945,8.367450714111328
1701897690709409800,3.744409912109375,-0.5626547932624817,-5.091721534729004,8.36623477935791
1701897690726408200,3.761408203125,-0.5642814636230469,-5.09312629699707,8.365270614624023
1701897690743384800,3.778384765625,-0.5658169388771057,-5.094150543212891,8.364544868469238
1701897690760392200,3.79539208984375,-0.5656152367591858,-5.09639310836792,8.363190650939941
1701897690777382400,3.81238232421875,-0.5633459091186523,-5.099770545959473,8.361286163330078
1701897690794377000,3.829376953125,-0.559449315071106,-5.104306221008301,8.358778953552246
1701897690811369200,3.846369140625,-0.5553264617919922,-5.108331680297852,8.356595993041992
1701897690828362800,3.86336279296875,-0.5530799627304077,-5.111435413360596,8.354846000671387
1701897690845353200,3.880353271484375,-0.5523888468742371,-5.114634037017822,8.352932929992676
1701897690862351400,3.897351318359375,-0.5532846450805664,-5.118093013763428,8.350754737854004
1701897690879341000,3.914341064453125,-0.5543990731239319,-5.121729373931885,8.348451614379883
1701897690896334600,3.93133447265625,-0.5540225505828857,-5.125789165496826,8.345985412597656
1701897690913326800,3.948326904296875,-0.5506030917167664,-5.1283650398254395,8.34462833404541
1701897690930320100,3.965320068359375,-0.5482074618339539,-5.1305670738220215,8.343432426452637
1701897690947301400,3.98230126953125,-0.5472573041915894,-5.133296012878418,8.341817855834961
1701897690964306700,3.999306640625,-0.5468374490737915,-5.135862350463867,8.340264320373535
1701897690981295900,4.0162958984375,-0.5437589287757874,-5.138500213623047,8.338839530944824
1701897690998294300,4.033294189453125,-0.5396196842193604,-5.1417646408081055,8.33709716796875
1701897691015284500,4.050284423828125,-0.5368217825889587,-5.1472859382629395,8.333869934082031
1701897691032277200,4.06727734375,-0.5355547070503235,-5.15339469909668,8.330177307128906
1701897691049266700,4.0842666015625,-0.5365902185440063,-5.157628059387207,8.327488899230957
1701897691066263300,4.10126318359375,-0.5392279028892517,-5.159024238586426,8.32645320892334
1701897691083244000,4.118244140625,-0.5428221821784973,-5.158607006072998,8.326478004455566
1701897691100250400,4.13525048828125,-0.5478355884552002,-5.156338214874268,8.327554702758789
1701897691117241900,4.152241943359375,-0.5531653165817261,-5.152907371520996,8.329326629638672
1701897691134234600,4.169234619140625,-0.5592861771583557,-5.149117946624756,8.331259727478027
1701897691151216600,4.186216552734375,-0.566247284412384,-5.145081520080566,8.333285331726074
1701897691168220400,4.203220458984375,-0.5751333236694336,-5.138899326324463,8.336488723754883
1701897691185210400,4.22021044921875,-0.5882591605186462,-5.129956245422363,8.341078758239746
1701897691202209300,4.237209228515625,-0.6035245060920715,-5.120491981506348,8.345804214477539
1701897691219198500,4.254198486328125,-0.6155142188072205,-5.113398551940918,8.349278450012207
1701897691236189400,4.271189453125,-0.6227694153785706,-5.109988212585449,8.350826263427734
1701897691253187600,4.2881875,-0.6252480745315552,-5.1110687255859375,8.34997844696045
1701897691270174200,4.30517431640625,-0.6262415051460266,-5.114002704620361,8.34811019897461
1701897691287175200,4.322175048828125,-0.6288002133369446,-5.115928649902344,8.346736907958984
1701897691304163600,4.33916357421875,-0.6329225301742554,-5.115375518798828,8.346763610839844
1701897691321156600,4.356156494140625,-0.6377353668212891,-5.113296031951904,8.347671508789062
1701897691338156300,4.37315625,-0.6429160237312317,-5.111562252044678,8.348335266113281
1701897691355143400,4.390143310546875,-0.6450169086456299,-5.111258506774902,8.348361015319824
1701897691372134000,4.4071337890625,-0.644166111946106,-5.112109184265137,8.347904205322266
1701897691389120800,4.424120849609375,-0.6407846808433533,-5.114047527313232,8.346976280212402
1701897691406121500,4.44112158203125,-0.6368781924247742,-5.11514139175415,8.346606254577637
1701897691423113500,4.458113525390625,-0.634924590587616,-5.114347457885742,8.347241401672363
1701897691440096000,4.475095947265625,-0.6339978575706482,-5.112240314483643,8.348603248596191
1701897691457096700,4.4920966796875,-0.6344685554504395,-5.110506534576416,8.349628448486328
1701897691474093600,4.509093505859375,-0.6341562867164612,-5.1104841232299805,8.349664688110352
1701897691491085000,4.5260849609375,-0.6327979564666748,-5.110728740692139,8.34961986541748
1701897691508078300,4.543078369140625,-0.6308947205543518,-5.1090803146362305,8.3507719039917
1701897691525070800,4.56007080078125,-0.6300626397132874,-5.104698657989502,8.353514671325684
1701897691542064400,4.577064453125,-0.6290762424468994,-5.099248886108398,8.356915473937988
1701897691559056600,4.594056640625,-0.6272904872894287,-5.093642711639404,8.360469818115234
1701897691576049700,4.611049560546875,-0.625674307346344,-5.0879621505737305,8.36404800415039
1701897691593024300,4.628024169921875,-0.6250749826431274,-5.082045555114746,8.36768913269043
1701897691610034000,4.645033935546875,-0.6257310509681702,-5.077442169189453,8.370433807373047
1701897691627026200,4.662026123046875,-0.6242797374725342,-5.076147079467773,8.371326446533203
1701897691644023600,4.6790234375,-0.6180758476257324,-5.077225208282471,8.371134757995605
1701897691661014300,4.69601416015625,-0.6083770990371704,-5.077395439147949,8.37174129486084
1701897691678007600,4.713007568359375,-0.5970779061317444,-5.077345848083496,8.37258529663086
1701897691694999600,4.72999951171875,-0.5875516533851624,-5.080289363861084,8.37147331237793
1701897691711974400,4.746974365234375,-0.5806952118873596,-5.085849285125732,8.368576049804688
1701897691728984000,4.763984130859375,-0.5753157734870911,-5.095948219299316,8.362799644470215
1701897691745979000,4.780978759765625,-0.5708157420158386,-5.112026214599609,8.353291511535645
1701897691762971400,4.797971435546875,-0.5672992467880249,-5.132000923156738,8.341272354125977
1701897691779962400,4.81496240234375,-0.5668302774429321,-5.151748180389404,8.329123497009277
1701897691796959700,4.831959716796875,-0.5680014491081238,-5.168826580047607,8.318456649780273
1701897691813942800,4.84894287109375,-0.5697492361068726,-5.180698871612549,8.31094741821289
1701897691830941000,4.86594091796875,-0.574560284614563,-5.184808731079102,8.308053016662598
1701897691847937300,4.882937255859375,-0.5834176540374756,-5.18101167678833,8.309804916381836
1701897691864942000,4.899942138671875,-0.5932865738868713,-5.169004440307617,8.316582679748535
1701897691881919500,4.91691943359375,-0.6012235879898071,-5.150542736053467,8.327459335327148
1701897691898917000,4.933917236328125,-0.607855498790741,-5.128180027008057,8.340767860412598
1701897691915907800,4.950907958984375,-0.6143500208854675,-5.104804039001465,8.354618072509766
1701897691932897800,4.967897705078125,-0.6220747828483582,-5.082211971282959,8.367810249328613
1701897691949885700,4.9848857421875,-0.6300217509269714,-5.060361385345459,8.380449295043945
1701897691966885400,5.001885498046875,-0.6360519528388977,-5.040194511413574,8.39214038848877
1701897691983879700,5.018879638671875,-0.638896644115448,-5.02089262008667,8.403486251831055
1701897692000872000,5.035871826171875,-0.6397473812103271,-5.001806735992432,8.414794921875
1701897692017861600,5.052861572265625,-0.6381312012672424,-4.984443187713623,8.425213813781738
1701897692034857700,5.069857666015625,-0.6345831155776978,-4.97012186050415,8.433938026428223
1701897692051850200,5.086850341796875,-0.6291422843933105,-4.958067893981934,8.441437721252441
1701897692068844000,5.103843994140625,-0.6245774030685425,-4.948467254638672,8.447406768798828
1701897692085836500,5.12083642578125,-0.619140625,-4.943288326263428,8.45083999633789
1701897692102826000,5.137825927734375,-0.6109259128570557,-4.941915512084961,8.452239036560059
1701897692119822000,5.154822021484375,-0.6003313064575195,-4.943318843841553,8.452177047729492
1701897692136815000,5.171815185546875,-0.589378297328949,-4.946775436401367,8.450927734375
1701897692153808400,5.188808349609375,-0.5793637633323669,-4.951603889465332,8.448792457580566
1701897692170797300,5.20579736328125,-0.56928551197052,-4.960366725921631,8.444334983825684
1701897692187794000,5.2227939453125,-0.558290421962738,-4.973392963409424,8.43740463256836
1701897692204789200,5.239789306640625,-0.5480373501777649,-4.985601902008057,8.430869102478027
1701897692221777400,5.25677734375,-0.5406855940818787,-4.994467735290527,8.426095008850098
1701897692238772500,5.2737724609375,-0.5362312197685242,-5.000834941864014,8.422600746154785
1701897692255764700,5.2907646484375,-0.5320597887039185,-5.007238864898682,8.419061660766602
1701897692272759000,5.307759033203125,-0.5236082673072815,-5.016582012176514,8.41402816772461
1701897692289751800,5.324751708984375,-0.5162314176559448,-5.030648708343506,8.40608024597168
1701897692306743600,5.34174365234375,-0.5097813606262207,-5.04507303237915,8.39782428741455
1701897692323737000,5.358737060546875,-0.506843090057373,-5.056498050689697,8.391128540039062
1701897692340727600,5.3757275390625,-0.5062987208366394,-5.066571235656738,8.385085105895996
1701897692357724400,5.392724365234375,-0.5071892738342285,-5.07550048828125,8.379626274108887
1701897692374716000,5.4097158203125,-0.5100748538970947,-5.082075595855713,8.375468254089355
1701897692391708700,5.426708740234375,-0.5142860412597656,-5.085660934448242,8.37303352355957
1701897692408701400,5.443701416015625,-0.5192263126373291,-5.086604118347168,8.37215518951416
1701897692425695000,5.460695068359375,-0.5235152840614319,-5.086064338684082,8.37221622467041
1701897692442674000,5.477673828125,-0.5265254378318787,-5.085731029510498,8.37222957611084
1701897692459682600,5.4946826171875,-0.5289625525474548,-5.086060523986816,8.371875762939453
1701897692476673300,5.51167333984375,-0.5327333807945251,-5.086256980895996,8.371517181396484
1701897692493663000,5.5286630859375,-0.5370521545410156,-5.086471080780029,8.371112823486328
1701897692510656000,5.545656005859375,-0.5418193936347961,-5.086584568023682,8.370735168457031
1701897692527654400,5.562654296875,-0.5448166728019714,-5.086701393127441,8.370468139648438
1701897692544644600,5.57964453125,-0.5466059446334839,-5.08494758605957,8.371417045593262
1701897692561638000,5.596637939453125,-0.5475298166275024,-5.082160472869873,8.37304973602295
1701897692578630400,5.61363037109375,-0.5484098196029663,-5.077834606170654,8.375617980957031
1701897692595623400,5.63062353515625,-0.5494821667671204,-5.073064804077148,8.378436088562012
1701897692612612900,5.64761279296875,-0.5485536456108093,-5.068890571594238,8.381023406982422
1701897692629610800,5.66461083984375,-0.5463375449180603,-5.064828395843506,8.383624076843262
1701897692646597600,5.68159765625,-0.5454253554344177,-5.0600690841674805,8.386557579040527
1701897692663598000,5.69859814453125,-0.5470625758171082,-5.0538763999938965,8.39018440246582
1701897692680584200,5.715584228515625,-0.549891471862793,-5.047124862670898,8.394062042236328
1701897692697580800,5.732580810546875,-0.5513439178466797,-5.041329383850098,8.397449493408203
1701897692714573300,5.7495732421875,-0.5479250550270081,-5.037915229797363,8.399721145629883
1701897692731566600,5.766566650390625,-0.5415884256362915,-5.036708831787109,8.400856018066406
1701897692748556800,5.783556884765625,-0.5361084342002869,-5.037093639373779,8.40097427368164
1701897692765555000,5.800554931640625,-0.532652735710144,-5.038668155670166,8.400250434875488
1701897692782534700,5.81753466796875,-0.5309973955154419,-5.040955066680908,8.3989839553833
1701897692799538200,5.8345380859375,-0.5295034050941467,-5.04421329498291,8.39712142944336
1701897692816531200,5.85153125,-0.5271662473678589,-5.0478901863098145,8.395058631896973
1701897692833521200,5.868521240234375,-0.5228065848350525,-5.052491664886475,8.392563819885254
1701897692850519800,5.885519775390625,-0.518171489238739,-5.056586742401123,8.390384674072266
1701897692867496400,5.902496337890625,-0.515509843826294,-5.059778213500977,8.388625144958496
1701897692884505000,5.919505126953125,-0.5146690011024475,-5.061479091644287,8.387650489807129
1701897692901493000,5.936492919921875,-0.5142082571983337,-5.060762405395508,8.388108253479004
1701897692918490400,5.953490478515625,-0.5140603184700012,-5.0571441650390625,8.390300750732422
1701897692935481000,5.970481201171875,-0.5147362351417542,-5.053264617919922,8.392596244812012
1701897692952466200,5.987466064453125,-0.5142094492912292,-5.05239200592041,8.39315414428711
1701897692969467400,6.00446728515625,-0.5129645466804504,-5.055587291717529,8.39130687713623
1701897692986459600,6.021459716796875,-0.511684000492096,-5.062283992767334,8.387347221374512
1701897693003449300,6.038449462890625,-0.5123289823532104,-5.0709052085876465,8.382098197937012
1701897693020445400,6.055445556640625,-0.5141433477401733,-5.078545570373535,8.377358436584473
1701897693037439000,6.07243896484375,-0.515354335308075,-5.08405065536499,8.373944282531738
1701897693054431200,6.08943115234375,-0.5155612826347351,-5.088033676147461,8.371514320373535
1701897693071424000,6.106424072265625,-0.5166237354278564,-5.089605808258057,8.370492935180664
1701897693088417000,6.1234169921875,-0.5207875370979309,-5.087897777557373,8.371272087097168
1701897693105410000,6.14041015625,-0.526337742805481,-5.08411979675293,8.373220443725586
1701897693122403000,6.157403076171875,-0.5307506322860718,-5.080212593078613,8.375313758850098
1701897693139395600,6.1743955078125,-0.5347191095352173,-5.075882911682129,8.377686500549316
1701897693156388600,6.191388671875,-0.5388291478157043,-5.071634292602539,8.37999439239502
1701897693173382100,6.208382080078125,-0.5420982837677002,-5.067972183227539,8.381999015808105
1701897693190373000,6.225373046875,-0.5442565083503723,-5.064502716064453,8.383956909179688
1701897693207365000,6.242365234375,-0.5463451147079468,-5.061361312866211,8.385717391967773
1701897693224360400,6.2593603515625,-0.5495219230651855,-5.057093143463135,8.388083457946777
1701897693241353700,6.276353759765625,-0.5530664920806885,-5.05190372467041,8.39097785949707
1701897693258345700,6.293345703125,-0.5555334687232971,-5.047593116760254,8.393407821655273
1701897693275339000,6.310339111328125,-0.5559328198432922,-5.042330265045166,8.396544456481934
1701897693292322800,6.32732275390625,-0.5552446246147156,-5.036208152770996,8.400263786315918
1701897693309324800,6.34432470703125,-0.5543885827064514,-5.030109405517578,8.403972625732422
1701897693326317800,6.36131787109375,-0.5534752607345581,-5.024524211883545,8.407373428344727
1701897693343310600,6.378310546875,-0.5521432161331177,-5.019124507904053,8.410687446594238
1701897693360303600,6.3953037109375,-0.5503534078598022,-5.013408660888672,8.41421127319336
1701897693377296100,6.412296142578125,-0.5486518740653992,-5.008169174194336,8.41744327545166
1701897693394277000,6.429277099609375,-0.5481799840927124,-5.004724025726318,8.419523239135742
1701897693411277800,6.44627783203125,-0.5493348240852356,-5.003487586975098,8.420182228088379
1701897693428275200,6.463275146484375,-0.5518678426742554,-5.004080295562744,8.41966438293457
1701897693445268500,6.4802685546875,-0.5532664656639099,-5.005580902099609,8.418679237365723
1701897693462260700,6.4972607421875,-0.5534109473228455,-5.008059024810791,8.417196273803711
1701897693479253800,6.514253662109375,-0.5522935390472412,-5.011059284210205,8.415483474731445
1701897693496246800,6.531246826171875,-0.5529495477676392,-5.012584686279297,8.414531707763672
1701897693513236700,6.54823681640625,-0.5563719272613525,-5.013425350189209,8.413805961608887
1701897693530232000,6.565232177734375,-0.561012327671051,-5.014772891998291,8.412694931030273
1701897693547225600,6.5822255859375,-0.5649620890617371,-5.016819953918457,8.411209106445312
1701897693564218400,6.59921826171875,-0.5673208832740784,-5.018985748291016,8.409758567810059
1701897693581208800,6.616208740234375,-0.5711694955825806,-5.021747589111328,8.407848358154297
1701897693598206700,6.633206787109375,-0.5779294371604919,-5.024526119232178,8.40572738647461
1701897693615197000,6.650197021484375,-0.5856325626373291,-5.026028156280518,8.404294967651367
1701897693632190000,6.66718994140625,-0.5900793671607971,-5.026261329650879,8.40384578704834
1701897693649183200,6.684183349609375,-0.5902413725852966,-5.025920867919922,8.40403938293457
1701897693666175200,6.70117529296875,-0.5894385576248169,-5.026108264923096,8.403983116149902
1701897693683157800,6.71815771484375,-0.5928339958190918,-5.026364326477051,8.403590202331543
1701897693700157400,6.735157470703125,-0.5984029173851013,-5.027278423309326,8.402649879455566
1701897693717155300,6.7521552734375,-0.6038343906402588,-5.02960205078125,8.400870323181152
1701897693734147000,6.76914697265625,-0.6078286170959473,-5.032366752624512,8.398924827575684
1701897693751140000,6.78614013671875,-0.6118006110191345,-5.033931255340576,8.397699356079102
1701897693768139000,6.803138916015625,-0.6159539222717285,-5.032632827758789,8.398173332214355
1701897693785127200,6.820127197265625,-0.6211450695991516,-5.030325889587402,8.399174690246582
1701897693802118400,6.837118408203125,-0.625214159488678,-5.028217315673828,8.400135040283203
1701897693819111700,6.854111572265625,-0.6274852156639099,-5.026543140411377,8.40096664428711
1701897693836105000,6.87110498046875,-0.628865122795105,-5.024676322937012,8.401981353759766
1701897693853097700,6.88809765625,-0.6316542625427246,-5.023229598999023,8.40263557434082
1701897693870090200,6.90509033203125,-0.6351544260978699,-5.022609233856201,8.40274429321289
1701897693887082500,6.92208251953125,-0.6393591165542603,-5.022176742553711,8.402682304382324
1701897693904077300,6.939077392578125,-0.6430183053016663,-5.0225043296813965,8.402209281921387
1701897693921069000,6.956069091796875,-0.6465319395065308,-5.02497673034668,8.400460243225098
1701897693938061800,6.973061767578125,-0.6494274735450745,-5.02928352355957,8.397658348083496
1701897693955055000,6.99005517578125,-0.6516494154930115,-5.035616874694824,8.39369010925293
1701897693972047400,7.00704736328125,-0.6525148153305054,-5.0425310134887695,8.389472961425781
1701897693989040600,7.02404052734375,-0.6532357335090637,-5.048340797424316,8.385920524597168
1701897694006019800,7.041019775390625,-0.6540286540985107,-5.052343845367432,8.38344669342041
1701897694023026200,7.058026123046875,-0.6553337574005127,-5.05516242980957,8.381646156311035
1701897694040016400,7.075016357421875,-0.656229555606842,-5.057092666625977,8.380411148071289
1701897694057012500,7.092012451171875,-0.6567897200584412,-5.058640003204346,8.379433631896973
1701897694074002000,7.109001953125,-0.6575311422348022,-5.05968713760376,8.378743171691895
1701897694090995000,7.125994873046875,-0.6584567427635193,-5.0595011711120605,8.3787841796875
1701897694107990800,7.14299072265625,-0.6606225371360779,-5.0569610595703125,8.380146026611328
1701897694124984300,7.159984375,-0.6657534837722778,-5.052323818206787,8.382536888122559
1701897694141970200,7.17697021484375,-0.6720807552337646,-5.046583652496338,8.385489463806152
1701897694158969600,7.193969482421875,-0.6774911880493164,-5.040872573852539,8.38848876953125
1701897694175962400,7.21096240234375,-0.6798657178878784,-5.036417484283447,8.390970230102539
1701897694192955400,7.227955322265625,-0.6800528168678284,-5.033147811889648,8.39291763305664
1701897694209947400,7.244947509765625,-0.678058385848999,-5.03204870223999,8.39373779296875
1701897694226942200,7.261942138671875,-0.6755838394165039,-5.033443450927734,8.393101692199707
1701897694243934200,7.278934326171875,-0.6749482154846191,-5.035958766937256,8.391644477844238
1701897694260927500,7.295927490234375,-0.6770011782646179,-5.038183212280273,8.390142440795898
1701897694277919000,7.3129189453125,-0.679806649684906,-5.03920316696167,8.389304161071777
1701897694294913500,7.32991357421875,-0.6798107624053955,-5.0402913093566895,8.388648986816406
1701897694311905500,7.346905517578125,-0.6768327951431274,-5.0412397384643555,8.388321876525879
1701897694328898800,7.36389892578125,-0.6721467971801758,-5.041996955871582,8.388243675231934
1701897694345891600,7.3808916015625,-0.6657628417015076,-5.043880939483643,8.387618064880371
1701897694362882600,7.397882568359375,-0.660857617855072,-5.047961711883545,8.385552406311035
1701897694379879400,7.41487939453125,-0.6579725742340088,-5.0535149574279785,8.38243293762207
1701897694396867800,7.431867919921875,-0.6571767926216125,-5.058845520019531,8.379278182983398
1701897694413862400,7.4488623046875,-0.6561020612716675,-5.062829494476318,8.376956939697266
1701897694430853400,7.465853271484375,-0.6535099744796753,-5.064639091491699,8.37606430053711
1701897694447851800,7.482851806640625,-0.6502069234848022,-5.064241886138916,8.376564025878906
1701897694464842000,7.499842041015625,-0.6452940702438354,-5.06079626083374,8.379024505615234
1701897694481823700,7.51682373046875,-0.6388311386108398,-5.056449890136719,8.382142066955566
1701897694498824700,7.53382470703125,-0.6310905814170837,-5.05322265625,8.384678840637207
1701897694515823400,7.5508232421875,-0.6243242025375366,-5.051238536834717,8.386377334594727
1701897694532811300,7.567811279296875,-0.6198920011520386,-5.0493340492248535,8.387853622436523
1701897694549795300,7.58479541015625,-0.617996335029602,-5.046678066253662,8.389591217041016
1701897694566788600,7.60178857421875,-0.615288496017456,-5.044473171234131,8.391115188598633
1701897694583791400,7.618791259765625,-0.6084554195404053,-5.044217109680176,8.391767501831055
1701897694600782600,7.635782470703125,-0.5996589064598083,-5.046504497528076,8.391026496887207
1701897694617777400,7.65277734375,-0.5897788405418396,-5.04926061630249,8.390069961547852
1701897694634756400,7.66975634765625,-0.5807501673698425,-5.051822185516357,8.389156341552734
1701897694651763700,7.686763671875,-0.5723348259925842,-5.053295135498047,8.388848304748535
1701897694668757000,7.703757080078125,-0.5634967684745789,-5.054224014282227,8.388887405395508
1701897694685743600,7.72074365234375,-0.5516924262046814,-5.055063724517822,8.389164924621582
1701897694702742800,7.73774267578125,-0.5365720987319946,-5.056646347045898,8.389190673828125
1701897694719735300,7.7547353515625,-0.5198987722396851,-5.06058406829834,8.38786792755127
1701897694736728300,7.771728271484375,-0.503859281539917,-5.065835475921631,8.385676383972168
1701897694753721000,7.78872119140625,-0.4896768629550934,-5.0712361335754395,8.38325023651123
1701897694770714000,7.805714111328125,-0.47558271884918213,-5.07720947265625,8.38044548034668
1701897694787703000,7.822703125,-0.46033960580825806,-5.0835418701171875,8.377458572387695
1701897694804704300,7.839704345703125,-0.4436645209789276,-5.090234756469727,8.374293327331543
1701897694821692400,7.8566923828125,-0.42613163590431213,-5.096597194671631,8.371333122253418
1701897694838685400,7.873685546875,-0.409833699464798,-5.102602958679199,8.368488311767578
1701897694855668000,7.89066796875,-0.39433038234710693,-5.109180927276611,8.365218162536621
1701897694872671700,7.907671630859375,-0.37844058871269226,-5.11655855178833,8.361442565917969
1701897694889664300,7.924664306640625,-0.363951176404953,-5.125674247741699,8.356502532958984
1701897694906657300,7.9416572265625,-0.3497219979763031,-5.135588645935059,8.351020812988281
1701897694923647200,7.958647216796875,-0.33532029390335083,-5.14478063583374,8.345952033996582
1701897694940643000,7.97564306640625,-0.3210548460483551,-5.153871536254883,8.340902328491211
1701897694957635600,7.992635498046875,-0.3075670599937439,-5.163215160369873,8.335630416870117
1701897694974628600,8.009628662109375,-0.2982126772403717,-5.170830249786377,8.331247329711914
1701897694991612700,8.02661279296875,-0.29349982738494873,-5.175625324249268,8.328439712524414
1701897695008615000,8.043614990234374,-0.29221343994140625,-5.1780290603637695,8.326990127563477
1701897695025607200,8.060607177734376,-0.29226255416870117,-5.1803998947143555,8.325512886047363
1701897695042600700,8.0776005859375,-0.2928010821342468,-5.184500694274902,8.322940826416016
1701897695059593500,8.094593505859375,-0.2939050495624542,-5.190329551696777,8.319266319274902
1701897695076586500,8.11158642578125,-0.29583463072776794,-5.19508171081543,8.31623363494873
1701897695093579000,8.1285791015625,-0.30031710863113403,-5.195569038391113,8.315767288208008
1701897695110569000,8.14556884765625,-0.30763956904411316,-5.192715167999268,8.317282676696777
1701897695127565000,8.16256494140625,-0.3170044720172882,-5.188987731933594,8.319255828857422
1701897695144558000,8.17955810546875,-0.32475027441978455,-5.186333179473877,8.320612907409668
1701897695161550600,8.196550537109376,-0.33031097054481506,-5.184874057769775,8.321304321289062
1701897695178543900,8.2135439453125,-0.3352173864841461,-5.182806491851807,8.322394371032715
1701897695195536600,8.23053662109375,-0.3417826294898987,-5.178900718688965,8.324559211730957
1701897695212529700,8.24752978515625,-0.350166380405426,-5.171726226806641,8.328670501708984
1701897695229520100,8.26452001953125,-0.3599657118320465,-5.162229061126709,8.334142684936523
1701897695246504000,8.28150390625,-0.36969316005706787,-5.152735233306885,8.339591026306152
1701897695263508500,8.298508544921875,-0.37745124101638794,-5.1453752517700195,8.343786239624023
1701897695280496000,8.31549609375,-0.38172203302383423,-5.141905307769775,8.34572982788086
1701897695297494800,8.332494873046874,-0.3830464482307434,-5.141287326812744,8.346050262451172
1701897695314487800,8.34948779296875,-0.38533562421798706,-5.141558647155762,8.345776557922363
1701897695331479800,8.366479736328126,-0.3889521360397339,-5.142453670501709,8.345057487487793
1701897695348472600,8.38347265625,-0.3920873999595642,-5.144854545593262,8.343433380126953
1701897695365461000,8.4004609375,-0.3930375874042511,-5.149649620056152,8.340429306030273
1701897695382458600,8.417458740234375,-0.3943678140640259,-5.156177520751953,8.336332321166992
1701897695399451400,8.434451416015625,-0.3964260220527649,-5.163265228271484,8.331846237182617
1701897695416443000,8.45144287109375,-0.3971996307373047,-5.171106815338135,8.326944351196289
1701897695433433900,8.468433837890625,-0.39659383893013,-5.179588317871094,8.321700096130371
1701897695450430200,8.48543017578125,-0.396277517080307,-5.189460754394531,8.31556224822998
1701897695467422700,8.502422607421876,-0.396921306848526,-5.200695514678955,8.30850887298584
1701897695484416300,8.519416259765626,-0.3983696401119232,-5.212671756744385,8.300930976867676
1701897695501408500,8.536408447265625,-0.3998846709728241,-5.224390506744385,8.293488502502441
1701897695518403300,8.5534033203125,-0.40305328369140625,-5.235969543457031,8.286029815673828
1701897695535392800,8.570392822265624,-0.40654170513153076,-5.245695114135742,8.279706001281738
1701897695552387600,8.5873876953125,-0.4114270806312561,-5.251077175140381,8.276054382324219
1701897695569380000,8.604380126953124,-0.4190524220466614,-5.252126693725586,8.275003433227539
1701897695586373400,8.621373291015624,-0.4299609959125519,-5.250280857086182,8.275615692138672
1701897695603366100,8.6383662109375,-0.4399363398551941,-5.247522354125977,8.276840209960938
1701897695620355300,8.655355224609375,-0.44406038522720337,-5.246061325073242,8.277545928955078
1701897695637348600,8.6723486328125,-0.4453795254230499,-5.24448823928833,8.278471946716309
1701897695654357800,8.689357666015624,-0.4484206438064575,-5.24226188659668,8.279718399047852
1701897695671338000,8.706337890625,-0.45429301261901855,-5.239258289337158,8.281298637390137
1701897695688330000,8.723330078125,-0.45909181237220764,-5.2358269691467285,8.283205032348633
1701897695705324300,8.74032421875,-0.4613611102104187,-5.232491493225098,8.285185813903809
1701897695722316500,8.757316650390624,-0.4637128710746765,-5.226985454559326,8.288529396057129
1701897695739307300,8.774307373046875,-0.47006353735923767,-5.219040870666504,8.293176651000977
1701897695756304600,8.7913046875,-0.48053357005119324,-5.2104105949401855,8.298001289367676
1701897695773295000,8.808295166015625,-0.4934307634830475,-5.201935291290283,8.30256175994873
1701897695790288100,8.8252880859375,-0.5069156289100647,-5.192973613739014,8.307356834411621
1701897695807280400,8.8422802734375,-0.5192690491676331,-5.18411111831665,8.312127113342285
1701897695824275000,8.85927490234375,-0.5301606059074402,-5.177368640899658,8.315640449523926
1701897695841263600,8.876263671875,-0.5386390686035156,-5.172181606292725,8.31832504272461
1701897695858260200,8.89326025390625,-0.5453668832778931,-5.165998458862305,8.321728706359863
1701897695875254500,8.910254638671875,-0.5504352450370789,-5.158633232116699,8.32596206665039
1701897695892245500,8.92724560546875,-0.5525127649307251,-5.155203819274902,8.327948570251465
1701897695909238300,8.94423828125,-0.5502926111221313,-5.158495903015137,8.326057434082031
1701897695926231600,8.9612314453125,-0.5473742485046387,-5.166011810302734,8.321589469909668
1701897695943221000,8.978220947265624,-0.5455499291419983,-5.175140857696533,8.316033363342285
1701897695960217600,8.995217529296875,-0.5451651811599731,-5.185111045837402,8.309846878051758
1701897695977209900,9.0122099609375,-0.5431227684020996,-5.195257663726807,8.303638458251953
1701897695994203000,9.029202880859375,-0.5385414361953735,-5.207369804382324,8.296347618103027
1701897696011192800,9.04619287109375,-0.5348506569862366,-5.222904205322266,8.286816596984863
1701897696028184300,9.063184326171875,-0.5331053137779236,-5.2398247718811035,8.276238441467285
1701897696045181200,9.08018115234375,-0.53423672914505,-5.2552409172058105,8.266386985778809
1701897696062171400,9.09717138671875,-0.5353143811225891,-5.266624927520752,8.259069442749023
1701897696079167200,9.114167236328125,-0.5355049967765808,-5.273265838623047,8.254817962646484
1701897696096160000,9.131159912109375,-0.533776581287384,-5.276656150817871,8.252763748168945
1701897696113154000,9.148154052734375,-0.5308482646942139,-5.279486179351807,8.251143455505371
1701897696130142000,9.165141845703126,-0.52822345495224,-5.282375335693359,8.24946117401123
1701897696147140000,9.18214013671875,-0.5262125730514526,-5.2837443351745605,8.248712539672852
1701897696164133000,9.199133056640624,-0.5252671241760254,-5.281803131103516,8.250017166137695
1701897696181124600,9.21612451171875,-0.5261880159378052,-5.276033401489258,8.25364875793457
1701897696198117000,9.2331171875,-0.5278089046478271,-5.268248081207275,8.258516311645508
1701897696215111400,9.250111328125,-0.5276182889938354,-5.262395858764648,8.262259483337402
1701897696232104000,9.26710400390625,-0.5236047506332397,-5.261276721954346,8.263227462768555
1701897696249096200,9.28409619140625,-0.5203711986541748,-5.263550758361816,8.261981964111328
1701897696266089000,9.3010888671875,-0.5212436318397522,-5.26619815826416,8.26024055480957
1701897696283082200,9.318082275390625,-0.5249273777008057,-5.267791748046875,8.258991241455078
1701897696300081700,9.33508154296875,-0.5266587138175964,-5.266318321228027,8.259819984436035
1701897696317068000,9.352068115234376,-0.5261319279670715,-5.2603840827941895,8.263635635375977
1701897696334058000,9.36905810546875,-0.5266832709312439,-5.249994277954102,8.2702054977417
1701897696351053800,9.3860537109375,-0.5299027562141418,-5.2361249923706055,8.278785705566406
1701897696368047400,9.40304736328125,-0.5335531830787659,-5.221524238586426,8.28776741027832
1701897696385039400,9.420039306640625,-0.536944568157196,-5.207662105560303,8.296268463134766
1701897696402032400,9.437032470703125,-0.5405242443084717,-5.195133686065674,8.303885459899902
1701897696419025700,9.454025634765625,-0.5436185598373413,-5.183953285217285,8.310669898986816
1701897696436018400,9.471018310546874,-0.5449119806289673,-5.174651145935059,8.316380500793457
1701897696453008000,9.4880078125,-0.542561411857605,-5.169761657714844,8.319573402404785
1701897696470001200,9.505001220703125,-0.5343092083930969,-5.171441078186035,8.319064140319824
1701897696486997000,9.5219970703125,-0.5248303413391113,-5.176248550415039,8.316676139831543
1701897696503981300,9.538981201171875,-0.5183674097061157,-5.180759429931641,8.3142728805542
1701897696520979500,9.5559794921875,-0.5147503018379211,-5.182695388793945,8.313292503356934
1701897696537975600,9.5729755859375,-0.5121448040008545,-5.184382438659668,8.312400817871094
1701897696554960000,9.5899599609375,-0.5085323452949524,-5.188445568084717,8.310086250305176
1701897696571951600,9.60695166015625,-0.5060765147209167,-5.19397497177124,8.306780815124512
1701897696588966400,9.62396630859375,-0.5051521062850952,-5.199178218841553,8.303582191467285
1701897696605949400,9.640949462890624,-0.5050614476203918,-5.203930377960205,8.300610542297363
1701897696622941200,9.657941162109376,-0.5043755769729614,-5.2076568603515625,8.29831600189209
1701897696639933700,9.67493359375,-0.5043843388557434,-5.209597587585449,8.297096252441406
1701897696656916200,9.691916259765625,-0.5049591064453125,-5.2100138664245605,8.296801567077637
1701897696673919000,9.7089189453125,-0.5047164559364319,-5.2116522789001465,8.295785903930664
1701897696690905900,9.72590576171875,-0.5011683702468872,-5.214329242706299,8.294319152832031
1701897696707902000,9.74290185546875,-0.4964163601398468,-5.219282627105713,8.291487693786621
1701897696724900900,9.75990087890625,-0.4933249354362488,-5.227705478668213,8.286365509033203
1701897696741880600,9.776880615234376,-0.49344363808631897,-5.239947319030762,8.278621673583984
1701897696758883800,9.7938837890625,-0.49681219458580017,-5.253809928894043,8.269631385803223
1701897696775877000,9.810877197265626,-0.5020413994789124,-5.266031265258789,8.261536598205566
1701897696792869400,9.827869384765625,-0.5085130929946899,-5.277146339416504,8.254045486450195
1701897696809862700,9.844862548828125,-0.5135977864265442,-5.288093566894531,8.246721267700195
1701897696826855400,9.86185546875,-0.5190380811691284,-5.299941539764404,8.23876953125
1701897696843845400,9.878845458984374,-0.5289461612701416,-5.3142852783203125,8.228894233703613
1701897696860841000,9.895841064453125,-0.5450236797332764,-5.331284523010254,8.216841697692871
1701897696877831400,9.91283154296875,-0.5654404163360596,-5.346687316894531,8.205445289611816
1701897696894829600,9.92982958984375,-0.5869394540786743,-5.359147071838379,8.195801734924316
1701897696911820300,9.9468203125,-0.6053686738014221,-5.3671488761901855,8.189221382141113
1701897696928812500,9.9638125,-0.6203229427337646,-5.368657112121582,8.187114715576172
1701897696945804800,9.9808046875,-0.6359859108924866,-5.362089157104492,8.190217018127441
1701897696962788600,9.99778857421875,-0.6522651314735413,-5.346801280975342,8.198925018310547
1701897696979791400,10.014791259765625,-0.6712750196456909,-5.3235273361206055,8.212525367736816
1701897696996783900,10.031783935546875,-0.6918501853942871,-5.295900821685791,8.22866439819336
1701897697013777400,10.04877734375,-0.7104840874671936,-5.268011093139648,8.24496078491211
1701897697030766800,10.065766845703125,-0.7262242436408997,-5.2425408363342285,8.259812355041504
1701897697047763500,10.082763427734376,-0.7393640875816345,-5.220766067504883,8.27242660522461
1701897697064755700,10.099755615234375,-0.7519209980964661,-5.202902317047119,8.282543182373047
1701897697081749000,10.1167490234375,-0.7626155614852905,-5.187577247619629,8.291177749633789
1701897697098741500,10.133741455078125,-0.7705180644989014,-5.173616409301758,8.299161911010742
1701897697115725000,10.15072509765625,-0.7743514776229858,-5.160935401916504,8.306697845458984
1701897697132726800,10.167726806640625,-0.7748391628265381,-5.150578498840332,8.313078880310059
1701897697149716200,10.18471630859375,-0.7699338793754578,-5.142574787139893,8.318488121032715
1701897697166715600,10.201715576171875,-0.7628657817840576,-5.136267185211182,8.32303524017334
1701897697183702800,10.218702880859375,-0.7553427815437317,-5.131263256072998,8.326807022094727
1701897697200699000,10.235698974609376,-0.7482512593269348,-5.129116535186768,8.328770637512207
1701897697217691400,10.25269140625,-0.7433191537857056,-5.130382537841797,8.328432083129883
1701897697234685700,10.269685791015625,-0.7401096224784851,-5.1327619552612305,8.327252388000488
1701897697251679200,10.28667919921875,-0.7389308214187622,-5.132935047149658,8.327248573303223
1701897697268670700,10.303670654296875,-0.7416041493415833,-5.128377437591553,8.329819679260254
1701897697285664000,10.3206640625,-0.7477308511734009,-5.118074893951416,8.33560562133789
1701897697302657000,10.337656982421874,-0.7546136379241943,-5.103139400482178,8.344138145446777
1701897697319638800,10.354638671875,-0.7626196146011353,-5.084798812866211,8.354601860046387
1701897697336635400,10.371635498046874,-0.7725932002067566,-5.064036846160889,8.366284370422363
1701897697353629700,10.388629638671874,-0.7808401584625244,-5.040939807891846,8.379459381103516
1701897697370630700,10.405630615234376,-0.7860897779464722,-5.01246452331543,8.39603328704834
1701897697387617300,10.4226171875,-0.7920585870742798,-4.977003574371338,8.416544914245605
1701897697404618200,10.4396181640625,-0.7993237972259521,-4.9388346672058105,8.438312530517578
1701897697421607000,10.45660693359375,-0.8033642172813416,-4.9020304679870605,8.459364891052246
1701897697438599700,10.473599609375,-0.8018018007278442,-4.868104934692383,8.479080200195312
1701897697455593000,10.490593017578124,-0.7974690198898315,-4.839887619018555,8.495623588562012
1701897697472585500,10.50758544921875,-0.7921498417854309,-4.818240165710449,8.508416175842285
1701897697489578800,10.524578857421876,-0.7892870306968689,-4.8019866943359375,8.517867088317871
1701897697506571800,10.54157177734375,-0.787783682346344,-4.789885520935059,8.52481746673584
1701897697523562200,10.558562255859375,-0.7856875061988831,-4.781607627868652,8.529656410217285
1701897697540558800,10.575558837890625,-0.7811254858970642,-4.778172969818115,8.532001495361328
1701897697557550000,10.592550048828125,-0.7754946351051331,-4.779207229614258,8.53193473815918
1701897697574544400,10.60954443359375,-0.7708835005760193,-4.783708572387695,8.529828071594238
1701897697591536400,10.626536376953124,-0.768049955368042,-4.79011344909668,8.5264892578125
1701897697608528000,10.64352783203125,-0.7654953002929688,-4.798166751861572,8.52219009399414
1701897697625522700,10.660522705078124,-0.7623050212860107,-4.807093620300293,8.517443656921387
1701897697642515000,10.677514892578126,-0.7572723627090454,-4.818034648895264,8.511710166931152
1701897697659508200,10.69450830078125,-0.7502130270004272,-4.832260608673096,8.504266738891602
1701897697676500700,10.711500732421875,-0.7430086731910706,-4.851070404052734,8.494185447692871
1701897697693493800,10.72849365234375,-0.7396260499954224,-4.872427940368652,8.482246398925781
1701897697710486500,10.745486572265625,-0.737606406211853,-4.895606994628906,8.469066619873047
1701897697727479000,10.76247900390625,-0.7355675101280212,-4.918921947479248,8.455724716186523
1701897697744473000,10.77947314453125,-0.7351616621017456,-4.941812515258789,8.442401885986328
1701897697761465300,10.79646533203125,-0.7362931370735168,-4.962565898895264,8.430119514465332
1701897697778458000,10.8134580078125,-0.7374473810195923,-4.978984832763672,8.420331954956055
1701897697795451100,10.830451171875,-0.735876202583313,-4.990197658538818,8.41383171081543
1701897697812443600,10.847443603515625,-0.7316609621047974,-4.995756149291992,8.410898208618164
1701897697829427200,10.86442724609375,-0.728870689868927,-4.9966607093811035,8.410602569580078
1701897697846427400,10.881427490234374,-0.7271422147750854,-4.994090557098389,8.412280082702637
1701897697863424300,10.89842431640625,-0.7256704568862915,-4.989880561828613,8.414904594421387
1701897697880415500,10.91541552734375,-0.7238046526908875,-4.984315872192383,8.418362617492676
1701897697897418800,10.932418701171875,-0.7222265005111694,-4.976195335388184,8.423298835754395
1701897697914401300,10.9494013671875,-0.7204846143722534,-4.965034008026123,8.430031776428223
1701897697931391500,10.9663916015625,-0.7175925374031067,-4.952596664428711,8.437592506408691
1701897697948387000,10.983386962890625,-0.7128323316574097,-4.940587043762207,8.445033073425293
1701897697965379800,11.0003798828125,-0.7072973847389221,-4.930343151092529,8.451482772827148
1701897697982373000,11.017373046875,-0.7028517127037048,-4.923068046569824,8.456093788146973
1701897697999366100,11.0343662109375,-0.6996299028396606,-4.920990467071533,8.45757007598877
1701897698016358700,11.051358642578125,-0.6953672766685486,-4.924972057342529,8.455605506896973
1701897698033351700,11.0683515625,-0.6900814175605774,-4.932794570922852,8.451476097106934
1701897698050340600,11.085340576171875,-0.6850592494010925,-4.941197395324707,8.446974754333496
1701897698067338200,11.102338134765626,-0.6805580258369446,-4.947185516357422,8.443832397460938
1701897698084330200,11.119330322265625,-0.6778461337089539,-4.949131965637207,8.44290828704834
1701897698101323300,11.1363232421875,-0.6766965389251709,-4.946764945983887,8.444389343261719
1701897698118315300,11.153315185546875,-0.6757873296737671,-4.942256450653076,8.447100639343262
1701897698135310000,11.17031005859375,-0.673577070236206,-4.937618255615234,8.449990272521973
1701897698152291300,11.187291259765624,-0.6696518063545227,-4.93527364730835,8.451671600341797
1701897698169298000,11.2042978515625,-0.6655435562133789,-4.933383941650391,8.453100204467773
1701897698186285300,11.221285400390625,-0.6629105806350708,-4.931305885314941,8.45451831817627
1701897698203281000,11.238281005859376,-0.6605108380317688,-4.929720401763916,8.455631256103516
1701897698220273200,11.255273193359375,-0.6565294861793518,-4.928278923034668,8.456781387329102
1701897698237256000,11.272255859375,-0.6517084836959839,-4.926229476928711,8.458348274230957
1701897698254256400,11.28925634765625,-0.6476592421531677,-4.924297332763672,8.459784507751465
1701897698271252700,11.306252685546875,-0.6457518935203552,-4.9246826171875,8.459705352783203
1701897698288245200,11.323245361328125,-0.6441205143928528,-4.9276838302612305,8.45808219909668
1701897698305238500,11.340238525390625,-0.640782356262207,-4.933544635772705,8.454920768737793
1701897698322231300,11.357231201171874,-0.6365752816200256,-4.940096855163574,8.451410293579102
1701897698339224000,11.37422412109375,-0.6347994804382324,-4.944334506988525,8.449065208435059
1701897698356216600,11.391216552734376,-0.6347638368606567,-4.946644306182861,8.447715759277344
1701897698373206300,11.408206298828125,-0.6348228454589844,-4.948404312133789,8.446680068969727
1701897698390202600,11.42520263671875,-0.6343872547149658,-4.949638843536377,8.445989608764648
1701897698407195600,11.442195556640625,-0.6341697573661804,-4.95108699798584,8.445158004760742
1701897698424188400,11.4591884765625,-0.634266197681427,-4.953571319580078,8.443694114685059
1701897698441178400,11.476178466796876,-0.6338574886322021,-4.9557647705078125,8.442436218261719
1701897698458174500,11.493174560546874,-0.6325886249542236,-4.956447124481201,8.442131042480469
1701897698475167500,11.51016748046875,-0.633188009262085,-4.955732345581055,8.442505836486816
1701897698492159700,11.52715966796875,-0.6347761154174805,-4.954554080963135,8.443077087402344
1701897698509153300,11.5441533203125,-0.6343989372253418,-4.9541473388671875,8.443345069885254
1701897698526146300,11.561146240234375,-0.6330230832099915,-4.955265045166016,8.442791938781738
1701897698543139300,11.578139404296875,-0.6325003504753113,-4.956873416900635,8.441886901855469
1701897698560134100,11.595134033203125,-0.6322085857391357,-4.9584245681762695,8.440999984741211
1701897698577122300,11.612122314453124,-0.6302269697189331,-4.959990978240967,8.440226554870605
1701897698594117600,11.62911767578125,-0.627424955368042,-4.960877418518066,8.439913749694824
1701897698611119900,11.646119873046874,-0.6259689927101135,-4.9595723152160645,8.440789222717285
1701897698628094200,11.66309423828125,-0.6273501515388489,-4.956677436828613,8.442387580871582
1701897698645097500,11.680097412109374,-0.6293545365333557,-4.95357608795166,8.444059371948242
1701897698662089200,11.697089111328125,-0.6292259097099304,-4.950917720794678,8.445625305175781
1701897698679082500,11.71408251953125,-0.6271864175796509,-4.9484124183654785,8.447245597839355
1701897698696075300,11.7310751953125,-0.6235710978507996,-4.946084976196289,8.448878288269043
1701897698713073400,11.748073486328124,-0.6211105585098267,-4.945635795593262,8.449320793151855
1701897698730058500,11.76505859375,-0.6201434135437012,-4.947619438171387,8.44823169708252
1701897698747054300,11.782054443359375,-0.6185693740844727,-4.950697898864746,8.446542739868164
1701897698764043500,11.79904345703125,-0.6160825490951538,-4.9545183181762695,8.444483757019043
1701897698781039900,11.816039794921876,-0.6133700013160706,-4.957663059234619,8.442834854125977
1701897698798033000,11.833032958984376,-0.6127724647521973,-4.959949493408203,8.441535949707031
1701897698815021600,11.850021484375,-0.6122128367424011,-4.96229362487793,8.440199851989746
1701897698832018400,11.867018310546875,-0.6107048392295837,-4.964177131652832,8.439202308654785
1701897698849011200,11.88401123046875,-0.6086378693580627,-4.96527099609375,8.438706398010254
1701897698866004200,11.901004150390625,-0.6065422296524048,-4.965929985046387,8.438470840454102
1701897698882996200,11.917996337890624,-0.6046208143234253,-4.965806007385254,8.438680648803711
1701897698899989000,11.934989013671874,-0.6035841107368469,-4.964664459228516,8.43942642211914
1701897698916983300,11.9519833984375,-0.6036244630813599,-4.962852478027344,8.440489768981934
1701897698933976000,11.96897607421875,-0.604802668094635,-4.962221145629883,8.440776824951172
1701897698950963500,11.98596337890625,-0.6062931418418884,-4.963681697845459,8.439809799194336
1701897698967964200,12.002964111328126,-0.607840895652771,-4.965986728668213,8.438342094421387
1701897698984954600,12.01995458984375,-0.6083560585975647,-4.967392444610596,8.437479019165039
1701897699001947400,12.036947509765625,-0.607335090637207,-4.968474864959717,8.43691349029541
1701897699018940700,12.053940673828125,-0.6045167446136475,-4.969888687133789,8.436284065246582
1701897699035933200,12.07093310546875,-0.6024573445320129,-4.970834732055664,8.435874938964844
1701897699052926200,12.08792626953125,-0.5995284914970398,-4.971791744232178,8.435517311096191
1701897699069919200,12.104919189453126,-0.5950471758842468,-4.973659992218018,8.434733390808105
1701897699086912800,12.121912841796876,-0.5910629034042358,-4.975822448730469,8.43373966217041
1701897699103905000,12.138905029296875,-0.5885836482048035,-4.977841854095459,8.432722091674805
1701897699120897800,12.155897705078125,-0.5851045846939087,-4.980940341949463,8.431134223937988
1701897699137890000,12.17289013671875,-0.5793924331665039,-4.98491096496582,8.429181098937988
1701897699154885000,12.189885009765625,-0.573778510093689,-4.988411903381348,8.42749309539795
1701897699171876400,12.20687646484375,-0.5702444911003113,-4.990480422973633,8.426508903503418
1701897699188869400,12.223869384765624,-0.5681809782981873,-4.991130352020264,8.426262855529785
1701897699205862000,12.24086181640625,-0.566908061504364,-4.991701126098633,8.426010131835938
1701897699222856400,12.2578564453125,-0.5650463104248047,-4.9924798011779785,8.425673484802246
1701897699239859200,12.274859130859374,-0.5624536275863647,-4.9947075843811035,8.424528121948242
1701897699256840200,12.291840087890625,-0.5590482354164124,-4.998064994812012,8.422762870788574
1701897699273830700,12.30883056640625,-0.5552247166633606,-5.001639366149902,8.420893669128418
1701897699290827800,12.325827880859375,-0.5522297620773315,-5.003732204437256,8.41984748840332
1701897699307819800,12.34281982421875,-0.5508726239204407,-5.003940582275391,8.419811248779297
1701897699324813000,12.35981298828125,-0.550997793674469,-5.003300189971924,8.420184135437012
1701897699341801200,12.37680126953125,-0.5516140460968018,-5.002897262573242,8.42038345336914
1701897699358804000,12.393803955078125,-0.5516789555549622,-5.003819465637207,8.419831275939941
1701897699375790800,12.410790771484375,-0.5506042838096619,-5.005318641662598,8.419011116027832
1701897699392785200,12.42778515625,-0.5484161972999573,-5.00705099105835,8.418122291564941
1701897699409777400,12.44477734375,-0.5452592968940735,-5.007613182067871,8.417993545532227
1701897699426770400,12.4617705078125,-0.5426216125488281,-5.006695747375488,8.418709754943848
1701897699443763000,12.478762939453125,-0.5405142903327942,-5.0060811042785645,8.419210433959961
1701897699460753200,12.495753173828126,-0.5388641953468323,-5.0068745613098145,8.418845176696777
1701897699477749200,12.512749267578124,-0.5367498397827148,-5.009719371795654,8.417287826538086
1701897699494742800,12.52974267578125,-0.5344595313072205,-5.015222549438477,8.414155960083008
1701897699511734500,12.546734619140626,-0.5310114026069641,-5.022296905517578,8.41015338897705
1701897699528727000,12.56372705078125,-0.5269516706466675,-5.028594493865967,8.406644821166992
1701897699545719000,12.580718994140625,-0.5227925777435303,-5.031845569610596,8.40495777130127
1701897699562716700,12.597716552734376,-0.519315779209137,-5.030927658081055,8.40572452545166
1701897699579706600,12.61470654296875,-0.5177820920944214,-5.025911808013916,8.408820152282715
1701897699596700000,12.631699951171875,-0.5179820656776428,-5.018956661224365,8.412958145141602
1701897699613692400,12.6486923828125,-0.516593337059021,-5.013137340545654,8.41651439666748
1701897699630685700,12.665685791015624,-0.5133750438690186,-5.010918617248535,8.418031692504883
1701897699647677400,12.682677490234376,-0.5097953677177429,-5.0118727684021,8.417681694030762
1701897699664653000,12.699653076171876,-0.5075547099113464,-5.014678955078125,8.416145324707031
1701897699681664300,12.716664306640626,-0.5056286454200745,-5.017452716827393,8.4146089553833
1701897699698657300,12.7336572265625,-0.5037452578544617,-5.018913745880127,8.413847923278809
1701897699715650000,12.750650146484375,-0.5029763579368591,-5.017615795135498,8.414669036865234
1701897699732643000,12.76764306640625,-0.5046200156211853,-5.013672351837158,8.416922569274902
1701897699749644800,12.784644775390625,-0.5076044201850891,-5.008677959442139,8.419715881347656
1701897699766617300,12.801617431640626,-0.51069176197052,-5.005565166473389,8.421380043029785
1701897699783614000,12.818614013671874,-0.5114811062812805,-5.005045413970947,8.42164134979248
1701897699800602000,12.83560205078125,-0.5092048048973083,-5.005837917327881,8.421307563781738
1701897699817608200,12.852608154296876,-0.5069664716720581,-5.006272792816162,8.421183586120605
1701897699834602500,12.8696025390625,-0.5059005618095398,-5.005416393280029,8.421756744384766
1701897699851590000,12.88658984375,-0.5061467289924622,-5.004295825958252,8.422407150268555
1701897699868586500,12.90358642578125,-0.5068378448486328,-5.003551959991455,8.422808647155762
1701897699885579300,12.920579345703125,-0.5060706734657288,-5.003276824951172,8.423016548156738
1701897699902572000,12.937572021484375,-0.5045106410980225,-5.002301216125488,8.423690795898438
1701897699919556400,12.954556396484374,-0.504198431968689,-5.000878810882568,8.424554824829102
1701897699936558000,12.97155810546875,-0.5060022473335266,-5.000914573669434,8.42442512512207
1701897699953551000,12.988551025390626,-0.5069571137428284,-5.003150463104248,8.423040390014648
1701897699970540000,13.0055400390625,-0.5067419409751892,-5.006869792938232,8.420842170715332
1701897699987537200,13.022537109375,-0.5077599287033081,-5.010914325714111,8.418375015258789
1701897700004529700,13.03952978515625,-0.5106326937675476,-5.014509201049805,8.416059494018555
1701897700021522700,13.056522705078125,-0.5136480927467346,-5.017270088195801,8.414230346679688
1701897700038514700,13.0735146484375,-0.5168353915214539,-5.019217491149902,8.412875175476074
1701897700055508000,13.090508056640624,-0.5193140506744385,-5.020349502563477,8.412046432495117
1701897700072496600,13.10749658203125,-0.5220370888710022,-5.020775318145752,8.411624908447266
1701897700089490400,13.124490478515625,-0.5239812731742859,-5.019472122192383,8.412281036376953
1701897700106487000,13.141487060546876,-0.5266739130020142,-5.016018867492676,8.414170265197754
1701897700123479800,13.158479736328125,-0.5296220779418945,-5.012160778045654,8.416284561157227
1701897700140472800,13.175472900390625,-0.5312821269035339,-5.00792121887207,8.418705940246582
1701897700157465900,13.1924658203125,-0.5309318900108337,-5.0050554275512695,8.420432090759277
1701897700174455800,13.209455810546874,-0.5295695066452026,-5.0063252449035645,8.419760704040527
1701897700191440600,13.226440673828124,-0.5259711146354675,-5.011751651763916,8.416757583618164
1701897700208444400,13.2434443359375,-0.5229925513267517,-5.017693519592285,8.413403511047363
1701897700225437400,13.2604375,-0.5213366150856018,-5.021788597106934,8.411063194274902
1701897700242430500,13.277430419921876,-0.5204226970672607,-5.022665977478027,8.41059398651123
1701897700259423200,13.29442333984375,-0.5185878276824951,-5.019495010375977,8.412601470947266
1701897700276411600,13.31141162109375,-0.5173861980438232,-5.013057708740234,8.416511535644531
1701897700293409000,13.328408935546875,-0.5198122262954712,-5.005825519561768,8.42066764831543
1701897700310401000,13.345401123046875,-0.523290753364563,-5.000262260437012,8.423755645751953
1701897700327395800,13.362395751953125,-0.5255530476570129,-4.998287200927734,8.424786567687988
1701897700344388000,13.37938818359375,-0.5243104696273804,-4.999502182006836,8.42414379119873
1701897700361377800,13.396377685546875,-0.520747184753418,-5.002923488616943,8.422333717346191
1701897700378374000,13.413373779296874,-0.5178428888320923,-5.00604772567749,8.420656204223633
1701897700395366700,13.43036669921875,-0.5168289542198181,-5.0069427490234375,8.420186996459961
1701897700412349000,13.447348876953125,-0.5182726383209229,-5.005889892578125,8.420723915100098
1701897700429348900,13.464348876953125,-0.5226931571960449,-5.003894805908203,8.421636581420898
1701897700446347000,13.481346923828125,-0.5267458558082581,-5.002815246582031,8.422025680541992
1701897700463340300,13.49834033203125,-0.5283485651016235,-5.004325866699219,8.421026229858398
1701897700480320500,13.515320556640624,-0.5275726318359375,-5.008177757263184,8.418784141540527
1701897700497324300,13.53232421875,-0.5274487137794495,-5.0134382247924805,8.415660858154297
1701897700514317300,13.5493173828125,-0.5275515913963318,-5.018432140350342,8.412676811218262
1701897700531312000,13.56631201171875,-0.5276919603347778,-5.022039890289307,8.410516738891602
1701897700548302300,13.58330224609375,-0.5274556875228882,-5.025144577026367,8.408676147460938
1701897700565296600,13.600296630859376,-0.5264154672622681,-5.029778480529785,8.405969619750977
1701897700582277600,13.617277587890625,-0.5232959985733032,-5.0357842445373535,8.402567863464355
1701897700599281400,13.634281494140625,-0.5196034908294678,-5.04195499420166,8.39909553527832
1701897700616274400,13.6512744140625,-0.5155326724052429,-5.046474933624268,8.396632194519043
1701897700633267700,13.668267822265625,-0.5122745633125305,-5.0492119789123535,8.395185470581055
1701897700650260700,13.6852607421875,-0.5095193982124329,-5.050447463989258,8.394612312316895
1701897700667253000,13.7022529296875,-0.5073465704917908,-5.050461292266846,8.394734382629395
1701897700684240600,13.71924072265625,-0.5055707693099976,-5.050207138061523,8.394994735717773
1701897700701241900,13.736241943359374,-0.5045913457870483,-5.0503034591674805,8.394996643066406
1701897700718232000,13.753232177734375,-0.5020098090171814,-5.050102233886719,8.395271301269531
1701897700735224800,13.770224853515625,-0.49645668268203735,-5.049899101257324,8.395722389221191
1701897700752217900,13.7872177734375,-0.4905311167240143,-5.050241470336914,8.395866394042969
1701897700769210600,13.804210693359375,-0.4856364130973816,-5.05144739151001,8.395424842834473
1701897700786204200,13.8212041015625,-0.4822351038455963,-5.052254676818848,8.395135879516602
1701897700803196400,13.838196533203124,-0.4797196388244629,-5.050904750823975,8.396092414855957
1701897700820189400,13.855189453125,-0.4787115752696991,-5.047307968139648,8.398311614990234
1701897700837182700,13.8721826171875,-0.47846949100494385,-5.0423455238342285,8.401305198669434
1701897700854175700,13.88917578125,-0.4779800772666931,-5.037407875061035,8.404294967651367
1701897700871165000,13.9061650390625,-0.4767153263092041,-5.033974647521973,8.406423568725586
1701897700888161000,13.9231611328125,-0.475502610206604,-5.033980369567871,8.406489372253418
1701897700905155600,13.940155517578125,-0.4745442569255829,-5.03566837310791,8.40553092956543
1701897700922147300,13.957147216796875,-0.47368529438972473,-5.037226676940918,8.404647827148438
1701897700939126500,13.97412646484375,-0.4738525152206421,-5.0380401611328125,8.404150009155273
1701897700956135400,13.991135498046875,-0.47527340054512024,-5.038008689880371,8.404088973999023
1701897700973126000,14.0081259765625,-0.4762703478336334,-5.037910461425781,8.404091835021973
1701897700990119200,14.025119140625,-0.47518685460090637,-5.039245128631592,8.403351783752441
1701897701007111200,14.042111083984375,-0.47249889373779297,-5.041333198547363,8.402251243591309
1701897701024104400,14.0591044921875,-0.471131831407547,-5.043010711669922,8.401322364807129
1701897701041097200,14.07609716796875,-0.4700278639793396,-5.043972969055176,8.40080451965332
1701897701058085600,14.093085693359376,-0.4679070711135864,-5.044288635253906,8.400735855102539
1701897701075084500,14.11008447265625,-0.4653366506099701,-5.043294429779053,8.401474952697754
1701897701092076300,14.127076171875,-0.4633842706680298,-5.040780067443848,8.403091430664062
1701897701109066800,14.144066650390625,-0.46284162998199463,-5.038384914398193,8.404557228088379
1701897701126064000,14.161064208984374,-0.46233701705932617,-5.036613941192627,8.405647277832031
1701897701143055600,14.1780556640625,-0.4603448808193207,-5.035483360290527,8.40643310546875
1701897701160038100,14.1950380859375,-0.4577183127403259,-5.035780906677246,8.40639877319336
1701897701177041000,14.212041015625,-0.4561138451099396,-5.037781715393066,8.405285835266113
1701897701194030800,14.22903076171875,-0.45391470193862915,-5.040866851806641,8.403555870056152
1701897701211026200,14.246026123046875,-0.45201376080513,-5.043697834014893,8.401959419250488
1701897701228019500,14.26301953125,-0.44998711347579956,-5.044971942901611,8.401301383972168
1701897701245012500,14.280012451171874,-0.448574423789978,-5.045106410980225,8.401297569274902
1701897701262005800,14.297005859375,-0.44902175664901733,-5.044766902923584,8.401477813720703
1701897701278998000,14.313998046875,-0.4505273997783661,-5.043341636657715,8.402252197265625
1701897701295988700,14.33098876953125,-0.45063674449920654,-5.04247522354126,8.402766227722168
1701897701312987000,14.34798681640625,-0.4488077461719513,-5.043588161468506,8.402195930480957
1701897701329975300,14.364975341796875,-0.4459472894668579,-5.0453643798828125,8.40128231048584
1701897701346972400,14.381972412109375,-0.444607675075531,-5.0466108322143555,8.400604248046875
1701897701363948300,14.3989482421875,-0.4443410336971283,-5.047674179077148,8.399980545043945
1701897701380952800,14.415952880859376,-0.44397443532943726,-5.047844886779785,8.399898529052734
1701897701397949200,14.43294921875,-0.44348034262657166,-5.0463128089904785,8.400842666625977
1701897701414941400,14.44994140625,-0.4435955286026001,-5.044312953948975,8.402037620544434
1701897701431934700,14.466934814453126,-0.44461995363235474,-5.043004512786865,8.402770042419434
1701897701448916000,14.483916015625,-0.4460706412792206,-5.042242050170898,8.403149604797363
1701897701465921500,14.500921630859375,-0.4445059299468994,-5.040614604949951,8.404210090637207
1701897701482913300,14.517913330078125,-0.44218868017196655,-5.03781270980835,8.406011581420898
1701897701499906000,14.534906005859375,-0.44238048791885376,-5.034868240356445,8.40776538848877
1701897701516899000,14.551899169921874,-0.44496026635169983,-5.032565593719482,8.40900707244873
1701897701533889800,14.568889892578126,-0.44790083169937134,-5.030410289764404,8.410140991210938
1701897701550871800,14.585871826171875,-0.4505174458026886,-5.027060031890869,8.412004470825195
1701897701567880000,14.6028798828125,-0.45143312215805054,-5.02297306060791,8.414396286010742
1701897701584871400,14.619871337890626,-0.4500286281108856,-5.019698619842529,8.416424751281738
1701897701601864000,14.636864013671875,-0.44764062762260437,-5.018332481384277,8.417366981506348
1701897701618856400,14.6538564453125,-0.4469734728336334,-5.018160820007324,8.417505264282227
1701897701635849000,14.670848876953125,-0.44786807894706726,-5.018294334411621,8.417378425598145
1701897701652843300,14.68784326171875,-0.4496140778064728,-5.0176005363464355,8.417699813842773
1701897701669835500,14.70483544921875,-0.45115479826927185,-5.016263008117676,8.418415069580078
1701897701686828300,14.721828369140624,-0.4515056312084198,-5.01478385925293,8.419276237487793
1701897701703818200,14.738818359375,-0.4519360065460205,-5.014284133911133,8.419548988342285
1701897701720811800,14.755811767578125,-0.45361006259918213,-5.015492916107178,8.418741226196289
1701897701737809700,14.7728095703125,-0.45548585057258606,-5.017789363861084,8.41727066040039
1701897701754797000,14.789797119140625,-0.4562956690788269,-5.021214962005615,8.415184020996094
1701897701771792600,14.806792724609375,-0.45617231726646423,-5.0253143310546875,8.412742614746094
1701897701788786000,14.823785888671875,-0.4564506411552429,-5.0294108390808105,8.410280227661133
1701897701805778200,14.840778076171874,-0.4573177695274353,-5.033630847930908,8.407707214355469
1701897701822772500,14.8577724609375,-0.45759668946266174,-5.037594795227051,8.405318260192871
1701897701839764700,14.8747646484375,-0.45686227083206177,-5.040684223175049,8.403504371643066
1701897701856757500,14.891757568359376,-0.45687103271484375,-5.04348087310791,8.401826858520508
1701897701873750800,14.908750732421876,-0.45776334404945374,-5.044933795928955,8.40090560913086
1701897701890740200,14.925740234375,-0.46009403467178345,-5.044405937194824,8.40109634399414
1701897701907736300,14.942736328125,-0.4652770161628723,-5.042038917541504,8.402231216430664
1701897701924726800,14.959726806640624,-0.47138500213623047,-5.039665699005127,8.403313636779785
1701897701941724200,14.97672412109375,-0.47530966997146606,-5.038201332092285,8.403971672058105
1701897701958715400,14.99371533203125,-0.47755149006843567,-5.0382232666015625,8.403831481933594
1701897701975708700,15.010708740234374,-0.480215460062027,-5.040345191955566,8.402406692504883
1701897701992701200,15.027701171875,-0.4833677113056183,-5.044992446899414,8.399435997009277
1701897702009694000,15.04469384765625,-0.48542651534080505,-5.050601005554199,8.395946502685547
1701897702026687000,15.06168701171875,-0.48694735765457153,-5.053877353668213,8.39388656616211
1701897702043679700,15.0786796875,-0.48942074179649353,-5.053497314453125,8.393970489501953
1701897702060672500,15.095672607421875,-0.49445462226867676,-5.051300048828125,8.394999504089355
1701897702077666000,15.112666015625,-0.4983506202697754,-5.048721790313721,8.396320343017578
1701897702094653000,15.12965283203125,-0.49943527579307556,-5.047423362731934,8.397035598754883
1701897702111654000,15.14665380859375,-0.4980214238166809,-5.049255847930908,8.396018028259277
1701897702128644400,15.163644287109374,-0.4954749345779419,-5.05413818359375,8.393229484558105
1701897702145635000,15.180635009765625,-0.49256595969200134,-5.060551166534424,8.389537811279297
1701897702162632700,15.1976328125,-0.4922238886356354,-5.066916465759277,8.385713577270508
1701897702179623200,15.214623046875,-0.49397748708724976,-5.072780609130859,8.382064819335938
1701897702196616200,15.2316162109375,-0.4967350363731384,-5.077820301055908,8.378849029541016
1701897702213614300,15.2486142578125,-0.4979003667831421,-5.0818772315979,8.376320838928223
1701897702230601500,15.2656015625,-0.4978226125240326,-5.085291385650635,8.374253273010254
1701897702247595000,15.282594970703125,-0.49669820070266724,-5.087937831878662,8.372712135314941
1701897702264587500,15.29958740234375,-0.49589303135871887,-5.090078830718994,8.371458053588867
1701897702281578000,15.316577880859375,-0.496775358915329,-5.090383052825928,8.371219635009766
1701897702298570200,15.3335703125,-0.49998724460601807,-5.088422775268555,8.372221946716309
1701897702315564500,15.350564453125,-0.5034780502319336,-5.08424186706543,8.374551773071289
1701897702332562000,15.36756201171875,-0.5065186023712158,-5.079030990600586,8.377531051635742
1701897702349550600,15.384550537109375,-0.5074412822723389,-5.074607849121094,8.380154609680176
1701897702366544600,15.401544677734375,-0.506199300289154,-5.071624279022217,8.382035255432129
1701897702383529200,15.418529296875,-0.5044358372688293,-5.07046365737915,8.382844924926758
1701897702400532500,15.435532470703125,-0.5039849877357483,-5.070977687835693,8.382560729980469
1701897702417524200,15.452524169921874,-0.5044112205505371,-5.0731048583984375,8.381246566772461
1701897702434516700,15.469516845703126,-0.5037920475006104,-5.074795722961426,8.38025951385498
1701897702451510000,15.486510009765626,-0.503060519695282,-5.075412273406982,8.379931449890137
1701897702468502300,15.503502197265625,-0.5002486109733582,-5.074141979217529,8.380868911743164
1701897702485495800,15.520495849609375,-0.49633973836898804,-5.071639060974121,8.38261604309082
1701897702502484700,15.537484619140624,-0.49338340759277344,-5.068799018859863,8.384507179260254
1701897702519474000,15.554473876953125,-0.49089130759239197,-5.065897464752197,8.386407852172852
1701897702536475000,15.571474853515625,-0.4884834289550781,-5.063207149505615,8.38817310333252
1701897702553465000,15.588465087890626,-0.4863620698451996,-5.061038017272949,8.389605522155762
1701897702570462500,15.60546240234375,-0.48401615023612976,-5.059665679931641,8.390568733215332
1701897702587453200,15.622453125,-0.48118552565574646,-5.060462951660156,8.390250205993652
1701897702604443100,15.639443115234375,-0.4797763526439667,-5.062906742095947,8.388856887817383
1701897702621439700,15.656439697265625,-0.4793091416358948,-5.067173480987549,8.386305809020996
1701897702638443300,15.673443359375,-0.47939160466194153,-5.072483539581299,8.383090019226074
1701897702655424800,15.6904248046875,-0.47892090678215027,-5.076723575592041,8.380550384521484
1701897702672418000,15.70741796875,-0.4793933629989624,-5.0778069496154785,8.379867553710938
1701897702689411300,15.724411376953125,-0.4836530387401581,-5.075555324554443,8.380988121032715
1701897702706403600,15.741403564453124,-0.48990723490715027,-5.071871757507324,8.382854461669922
1701897702723396900,15.75839697265625,-0.4958673119544983,-5.068471431732178,8.384557723999023
1701897702740389600,15.7753896484375,-0.49955105781555176,-5.066132068634033,8.385753631591797
1701897702757380000,15.792380126953125,-0.5029008984565735,-5.065967082977295,8.38565444946289
1701897702774377700,15.809377685546876,-0.5059601664543152,-5.067868709564209,8.384320259094238
1701897702791357700,15.826357666015625,-0.5075880289077759,-5.0699968338012695,8.382935523986816
1701897702808361500,15.843361572265625,-0.5088762044906616,-5.071495532989502,8.381951332092285
1701897702825354500,15.8603544921875,-0.5103976130485535,-5.071898460388184,8.381614685058594
1701897702842347000,15.877346923828124,-0.5109302997589111,-5.071652889251709,8.381731033325195
1701897702859340300,15.89434033203125,-0.5102011561393738,-5.070744037628174,8.38232421875
1701897702876332800,15.911332763671876,-0.5091515779495239,-5.068716049194336,8.383614540100098
1701897702893326000,15.928326171875,-0.5081891417503357,-5.0666022300720215,8.384950637817383
1701897702910318300,15.945318359375,-0.5063378810882568,-5.065496444702148,8.385730743408203
1701897702927312100,15.96231201171875,-0.5031886100769043,-5.064437389373779,8.386561393737793
1701897702944304600,15.9793046875,-0.49908092617988586,-5.063274383544922,8.387506484985352
1701897702961288700,15.996288818359375,-0.4944148361682892,-5.062963485717773,8.387970924377441
1701897702978289700,16.01328955078125,-0.48959264159202576,-5.063502311706543,8.387930870056152
1701897702995284200,16.0302841796875,-0.48558729887008667,-5.063838005065918,8.387959480285645
1701897703012276200,16.047276123046874,-0.48277947306632996,-5.063146114349365,8.388538360595703
1701897703029259000,16.064259033203125,-0.47973600029945374,-5.061837196350098,8.389504432678223
1701897703046261500,16.081261474609374,-0.47489333152770996,-5.061064720153809,8.390244483947754
1701897703063247600,16.09824755859375,-0.4651571214199066,-5.060994625091553,8.390832901000977
1701897703080248300,16.115248291015625,-0.4556191563606262,-5.061609268188477,8.390985488891602
1701897703097241300,16.132241455078123,-0.44885918498039246,-5.062891006469727,8.39057731628418
1701897703114231000,16.14923095703125,-0.44473105669021606,-5.0652995109558105,8.389342308044434
1701897703131226600,16.1662265625,-0.4386955499649048,-5.068090915679932,8.387974739074707
1701897703148218600,16.183218505859376,-0.43117427825927734,-5.070879936218262,8.386679649353027
1701897703165213000,16.200212890625,-0.42278996109962463,-5.073821067810059,8.385326385498047
1701897703182189300,16.217189208984376,-0.4157686233520508,-5.077788829803467,8.383275985717773
1701897703199197700,16.23419775390625,-0.4104710519313812,-5.081352710723877,8.381375312805176
1701897703216191500,16.25119140625,-0.40785616636276245,-5.083956718444824,8.379924774169922
1701897703233185000,16.26818505859375,-0.4059523344039917,-5.086060047149658,8.378742218017578
1701897703250177300,16.28517724609375,-0.40250831842422485,-5.088560581207275,8.377388954162598
1701897703267170300,16.30217041015625,-0.39907658100128174,-5.092385768890381,8.375228881835938
1701897703284163000,16.3191630859375,-0.3970341384410858,-5.098388671875,8.371672630310059
1701897703301153000,16.336153076171875,-0.3954290747642517,-5.105241775512695,8.367572784423828
1701897703318146300,16.353146240234373,-0.3956916332244873,-5.111638069152832,8.363653182983398
1701897703335134000,16.370134033203126,-0.39864271879196167,-5.116900444030762,8.360295295715332
1701897703352135000,16.387135009765625,-0.403692364692688,-5.120443820953369,8.357884407043457
1701897703369127400,16.40412744140625,-0.4085625112056732,-5.123409748077393,8.355829238891602
1701897703386121500,16.42112158203125,-0.4119492173194885,-5.126084804534912,8.354021072387695
1701897703403115800,16.43811572265625,-0.41444188356399536,-5.126986026763916,8.353343963623047
1701897703420106500,16.4551064453125,-0.41728830337524414,-5.126295566558838,8.35362720489502
1701897703437100000,16.47210009765625,-0.4209293723106384,-5.125353813171387,8.354022979736328
1701897703454092500,16.489092529296876,-0.4238009452819824,-5.124106407165527,8.354642868041992
1701897703471085300,16.506085205078126,-0.42685553431510925,-5.122498989105225,8.35547161102295
1701897703488068900,16.52306884765625,-0.4295177757740021,-5.12156343460083,8.355910301208496
1701897703505069800,16.54006982421875,-0.43092578649520874,-5.121829032897949,8.355674743652344
1701897703522065200,16.557065185546875,-0.43053576350212097,-5.122229099273682,8.355447769165039
1701897703539058700,16.57405859375,-0.4296078085899353,-5.12147331237793,8.35595989227295
1701897703556038700,16.59103857421875,-0.4268818497657776,-5.120153903961182,8.356907844543457
1701897703573044000,16.6080439453125,-0.4234395921230316,-5.118797779083252,8.357913970947266
1701897703590033000,16.625032958984374,-0.4194985628128052,-5.118393898010254,8.358360290527344
1701897703607029000,16.642029052734376,-0.4148447513580322,-5.1176862716674805,8.359026908874512
1701897703624018400,16.659018310546877,-0.41201820969581604,-5.116061687469482,8.360159873962402
1701897703641004300,16.67600439453125,-0.4115995466709137,-5.114373683929443,8.361213684082031
1701897703658007600,16.693007568359373,-0.41028979420661926,-5.113661766052246,8.361712455749512
1701897703675000300,16.710000244140623,-0.40800702571868896,-5.113576412200928,8.361876487731934
1701897703691982800,16.72698291015625,-0.40460512042045593,-5.112910270690918,8.362447738647461
1701897703708987000,16.74398681640625,-0.40271997451782227,-5.1111979484558105,8.363587379455566
1701897703725979100,16.760979248046876,-0.4033321738243103,-5.10900354385376,8.364898681640625
1701897703742972400,16.777972412109374,-0.4037385582923889,-5.106598854064941,8.36634635925293
1701897703759967000,16.794967041015624,-0.4057716429233551,-5.104258060455322,8.367676734924316
1701897703776967200,16.81196728515625,-0.40993428230285645,-5.102505207061768,8.36854362487793
1701897703793950700,16.82895068359375,-0.41534939408302307,-5.101546764373779,8.368860244750977
1701897703810941200,16.845941162109376,-0.41837647557258606,-5.1010918617248535,8.368987083435059
1701897703827936800,16.862936767578127,-0.42046743631362915,-5.100947856903076,8.368968963623047
1701897703844927700,16.879927734375,-0.4226268231868744,-5.101011753082275,8.368823051452637
1701897703861924900,16.8969248046875,-0.42596733570098877,-5.10152530670166,8.368340492248535
1701897703878914800,16.913914794921876,-0.4287365674972534,-5.101554870605469,8.368179321289062
1701897703895909600,16.93090966796875,-0.4305252432823181,-5.102064609527588,8.367777824401855
1701897703912892200,16.94789208984375,-0.4297733008861542,-5.10292387008667,8.367293357849121
1701897703929894100,16.96489404296875,-0.42772266268730164,-5.104123592376709,8.366666793823242
1701897703946887200,16.98188720703125,-0.4268917739391327,-5.106061935424805,8.365525245666504
1701897703963880400,16.99888037109375,-0.4279507100582123,-5.1095781326293945,8.363324165344238
1701897703980862700,17.01586279296875,-0.42758116126060486,-5.114499092102051,8.360334396362305
1701897703997866200,17.0328662109375,-0.42507272958755493,-5.118958473205566,8.357731819152832
1701897704014859500,17.049859619140626,-0.421115905046463,-5.121374130249023,8.356452941894531
1701897704031852000,17.06685205078125,-0.4173976480960846,-5.122198581695557,8.356135368347168
1701897704048845600,17.083845458984374,-0.4156610369682312,-5.121823310852051,8.356451988220215
1701897704065836500,17.10083642578125,-0.4164276123046875,-5.120187759399414,8.357416152954102
1701897704082832000,17.117831787109374,-0.41806483268737793,-5.117925643920898,8.358717918395996
1701897704099823600,17.13482373046875,-0.41896703839302063,-5.115754127502441,8.360002517700195
1701897704116817000,17.15181689453125,-0.4192623496055603,-5.113432884216309,8.361407279968262
1701897704133806300,17.168806396484374,-0.4196242690086365,-5.110805988311768,8.362995147705078
1701897704150792200,17.185792236328126,-0.4208621382713318,-5.108548641204834,8.364314079284668
1701897704167795200,17.202795166015626,-0.42302852869033813,-5.107588768005371,8.364791870117188
1701897704184788700,17.219788818359376,-0.4247119426727295,-5.1085524559021,8.364115715026855
1701897704201778000,17.23677783203125,-0.424482136964798,-5.110424041748047,8.362985610961914
1701897704218774000,17.25377392578125,-0.4227484464645386,-5.112049102783203,8.362078666687012
1701897704235766500,17.2707666015625,-0.42164623737335205,-5.112817764282227,8.361662864685059
1701897704252761000,17.287760986328124,-0.4210328757762909,-5.112215042114258,8.36206340789795
1701897704269752800,17.3047529296875,-0.420644611120224,-5.11012077331543,8.363364219665527
1701897704286745900,17.321745849609375,-0.42043060064315796,-5.107746601104736,8.364824295043945
1701897704303739000,17.33873876953125,-0.4201405942440033,-5.104950428009033,8.366544723510742
1701897704320732000,17.35573193359375,-0.4198821485042572,-5.10253381729126,8.368032455444336
1701897704337717500,17.372717529296875,-0.418188214302063,-5.101381778717041,8.368820190429688
1701897704354725000,17.38972509765625,-0.4156891107559204,-5.101815700531006,8.368680000305176
1701897704371710700,17.406710693359376,-0.4130841791629791,-5.10272741317749,8.36825180053711
1701897704388703000,17.423702880859373,-0.4103599488735199,-5.104149341583252,8.367518424987793
1701897704405696800,17.44069677734375,-0.4085221588611603,-5.1052327156066895,8.366948127746582
1701897704422684400,17.457684326171876,-0.4067498743534088,-5.105438232421875,8.366910934448242
1701897704439682600,17.4746826171875,-0.4037572741508484,-5.1049299240112305,8.367365837097168
1701897704456675600,17.491675537109376,-0.39984607696533203,-5.103742599487305,8.368276596069336
1701897704473668000,17.508668212890626,-0.39758846163749695,-5.102447032928467,8.369175910949707
1701897704490661400,17.525661376953124,-0.39763349294662476,-5.101223945617676,8.369917869567871
1701897704507654100,17.542654052734374,-0.4000694453716278,-5.099724292755127,8.370715141296387
1701897704524647700,17.559647705078124,-0.4027006924152374,-5.098504543304443,8.371333122253418
1701897704541640000,17.576639892578125,-0.403827428817749,-5.098347187042236,8.37137508392334
1701897704558633000,17.593633056640623,-0.4046507179737091,-5.098101615905762,8.37148380279541
1701897704575626200,17.610626220703125,-0.4060593247413635,-5.097124099731445,8.3720121383667
1701897704592618200,17.6276181640625,-0.4081771969795227,-5.095879077911377,8.372665405273438
1701897704609611500,17.644611572265624,-0.4094518721103668,-5.095424175262451,8.372879981994629
1701897704626607000,17.661607177734375,-0.409909725189209,-5.096313953399658,8.372315406799316
1701897704643597600,17.67859765625,-0.409658282995224,-5.098817348480225,8.370803833007812
1701897704660590800,17.6955908203125,-0.40867185592651367,-5.101898193359375,8.368974685668945
1701897704677572600,17.712572509765625,-0.4065873324871063,-5.105016708374023,8.367173194885254
1701897704694576400,17.729576416015625,-0.4039607644081116,-5.107285976409912,8.365917205810547
1701897704711566300,17.74656640625,-0.40236857533454895,-5.107416152954102,8.365914344787598
1701897704728562400,17.7635625,-0.40236562490463257,-5.104975700378418,8.367403984069824
1701897704745542000,17.7805419921875,-0.40437591075897217,-5.101500034332275,8.369425773620605
1701897704762543000,17.797543212890623,-0.4060189723968506,-5.099313735961914,8.37067985534668
1701897704779530200,17.8145302734375,-0.40521207451820374,-5.099878787994385,8.370373725891113
1701897704796534000,17.831533935546876,-0.4015634059906006,-5.102156162261963,8.369162559509277
1701897704813526800,17.84852685546875,-0.3972528278827667,-5.103729724884033,8.368409156799316
1701897704830519600,17.86551953125,-0.39441752433776855,-5.104913234710693,8.367819786071777
1701897704847512600,17.8825126953125,-0.39383456110954285,-5.105853080749512,8.367274284362793
1701897704864505900,17.899505859375,-0.39467480778694153,-5.1066789627075195,8.366730690002441
1701897704881495600,17.91649560546875,-0.3952513337135315,-5.107156753540039,8.366411209106445
1701897704898493400,17.933493408203127,-0.3945695459842682,-5.106432914733887,8.366886138916016
1701897704915485400,17.9504853515625,-0.393719345331192,-5.104536533355713,8.368083953857422
1701897704932477700,17.967477783203126,-0.3951636254787445,-5.1017680168151855,8.369702339172363
1701897704949470200,17.98447021484375,-0.39760249853134155,-5.098737716674805,8.371434211730957
1701897704966462500,18.00146240234375,-0.4005033075809479,-5.096246719360352,8.372814178466797
1701897704983454200,18.0184541015625,-0.40334972739219666,-5.093379497528076,8.374421119689941
1701897705000447500,18.035447509765625,-0.407664954662323,-5.090890407562256,8.375724792480469
1701897705017441800,18.05244189453125,-0.41247838735580444,-5.08935546875,8.376422882080078
1701897705034431700,18.069431640625,-0.41647088527679443,-5.088187217712402,8.376933097839355
1701897705051427300,18.08642724609375,-0.4182063341140747,-5.085624694824219,8.378402709960938
1701897705068422100,18.103422119140625,-0.4199528992176056,-5.081683158874512,8.380707740783691
1701897705085413600,18.12041357421875,-0.4231349527835846,-5.0770158767700195,8.383377075195312
1701897705102407000,18.137406982421876,-0.42824307084083557,-5.072120666503906,8.386079788208008
1701897705119399700,18.154399658203126,-0.433056503534317,-5.068075656890869,8.388277053833008
1701897705136399600,18.171399658203125,-0.4367770850658417,-5.065571308135986,8.38959789276123
1701897705153385200,18.18838525390625,-0.4393767714500427,-5.063714504241943,8.390582084655762
1701897705170378500,18.20537841796875,-0.44247227907180786,-5.061843395233154,8.391547203063965
1701897705187359000,18.22235888671875,-0.44595545530319214,-5.060074329376221,8.392431259155273
1701897705204360700,18.239360595703126,-0.4499000012874603,-5.058673858642578,8.393065452575684
1701897705221354000,18.25635400390625,-0.45421934127807617,-5.057004928588867,8.393837928771973
1701897705238349800,18.273349853515626,-0.4585392475128174,-5.05415153503418,8.395319938659668
1701897705255342800,18.2903427734375,-0.4619528651237488,-5.050342082977295,8.397425651550293
1701897705272336400,18.30733642578125,-0.46362924575805664,-5.046126365661621,8.399866104125977
1701897705289327900,18.324327880859375,-0.46210312843322754,-5.041599273681641,8.402670860290527
1701897705306322400,18.341322509765625,-0.4606097638607025,-5.036890029907227,8.405576705932617
1701897705323315000,18.35831494140625,-0.46244579553604126,-5.032809257507324,8.407918930053711
1701897705340308000,18.375307861328125,-0.46815791726112366,-5.028938293457031,8.409919738769531
1701897705357301500,18.392301513671875,-0.474887490272522,-5.023600101470947,8.412731170654297
1701897705374293500,18.40929345703125,-0.48143109679222107,-5.015742301940918,8.417047500610352
1701897705391286500,18.42628662109375,-0.4878841042518616,-5.006017684936523,8.42246150970459
1701897705408279000,18.443279052734376,-0.4926530718803406,-4.994263648986816,8.429160118103027
1701897705425272800,18.46027294921875,-0.49215665459632874,-4.981563568115234,8.436701774597168
1701897705442248400,18.47724853515625,-0.4822678565979004,-4.967317581176758,8.44566822052002
1701897705459258000,18.494258056640625,-0.46182480454444885,-4.943654537200928,8.460680961608887
1701897705476251000,18.5112509765625,-0.43768924474716187,-4.9054059982299805,8.484193801879883
1701897705493244700,18.52824462890625,-0.41203635931015015,-4.8542280197143555,8.51485824584961
1701897705510237200,18.5452373046875,-0.3840995132923126,-4.787901878356934,8.553631782531738
1701897705527229700,18.562229736328124,-0.3486233055591583,-4.708471298217773,8.599120140075684
1701897705544220200,18.57922021484375,-0.298885703086853,-4.61461877822876,8.651708602905273
1701897705561215700,18.5962158203125,-0.2290576696395874,-4.5003180503845215,8.713828086853027
1701897705578209000,18.613208984375,-0.13886728882789612,-4.360785961151123,8.78637409210205
1701897705595201500,18.630201416015623,-0.039023734629154205,-4.196361064910889,8.867082595825195
1701897705612190500,18.6471904296875,0.06211439147591591,-4.017466068267822,8.949426651000977
1701897705629187000,18.66418701171875,0.17396987974643707,-3.8301801681518555,9.029705047607422
1701897705646180600,18.6811806640625,0.3200783431529999,-3.6273484230041504,9.109116554260254
1701897705663173000,18.698173095703126,0.5072483420372009,-3.383542537689209,9.194045066833496
1701897705680167000,18.7151669921875,0.7365492582321167,-3.0937864780426025,9.280200004577637
1701897705697159200,18.7321591796875,1.0035769939422607,-2.7685608863830566,9.357564926147461
1701897705714153200,18.7491533203125,1.3064996004104614,-2.419494152069092,9.416751861572266
1701897705731141000,18.76614111328125,1.6496212482452393,-2.061269521713257,9.448070526123047
1701897705748138500,18.783138427734375,2.039402961730957,-1.6965407133102417,9.44450569152832
1701897705765130800,18.800130859375,2.4780547618865967,-1.3225215673446655,9.399271965026855
1701897705782124300,18.817124267578127,2.966273307800293,-0.940746009349823,9.303350448608398
1701897705799116300,18.8341162109375,3.502284049987793,-0.5585810542106628,9.146479606628418
1701897705816111000,18.851111083984375,4.091221332550049,-0.1857137233018875,8.91423225402832
1701897705833102800,18.868102783203124,4.717875957489014,0.16689591109752655,8.59941291809082
1701897705850095900,18.885095947265626,5.36760139465332,0.4899007976055145,8.196642875671387
1701897705867088600,18.902088623046875,6.026163101196289,0.7774519920349121,7.701756477355957
1701897705884081700,18.91908154296875,6.672574996948242,1.0328139066696167,7.116611003875732
1701897705901074200,18.93607421875,7.268158912658691,1.2513867616653442,6.46869421005249
1701897705918067700,18.953067626953125,7.788188934326172,1.4323134422302246,5.790398120880127
1701897705935060700,18.970060791015626,8.202561378479004,1.5823777914047241,5.142972946166992
1701897705952051000,18.987051025390624,8.510541915893555,1.726068139076233,4.563713073730469
1701897705969048800,19.004048828125,8.733983039855957,1.872305154800415,4.055628776550293
1701897705986038500,19.02103857421875,8.894003868103027,2.01961088180542,3.6130282878875732
1701897706003033000,19.038033203125,9.003096580505371,2.1565792560577393,3.244924783706665
1701897706020022300,19.055022216796875,9.073058128356934,2.2732770442962646,2.957693099975586
1701897706037009700,19.072009765625,9.113608360290527,2.3688347339630127,2.7507922649383545
1701897706054007800,19.0890078125,9.135581970214844,2.4508724212646484,2.6020138263702393
1701897706071011600,19.106011474609375,9.164407730102539,2.5226128101348877,2.4261395931243896
1701897706087998000,19.122998046875,9.169868469238281,2.6313271522521973,2.2859864234924316
1701897706104982300,19.139982177734375,9.157692909240723,2.7511515617370605,2.1917901039123535
1701897706121977600,19.1569775390625,9.138957977294922,2.8502001762390137,2.1428751945495605
1701897706138963200,19.173963134765625,9.124950408935547,2.905085325241089,2.1288180351257324
1701897706155961000,19.190961181640624,9.11713695526123,2.923825979232788,2.1366236209869385
1701897706172951600,19.20795166015625,9.109945297241211,2.9342987537384033,2.1528849601745605
1701897706189954600,19.22495458984375,9.105995178222656,2.9418320655822754,2.159299373626709
1701897706206947600,19.241947509765627,9.11459732055664,2.930453062057495,2.138381242752075
1701897706223940600,19.258940673828125,9.133517265319824,2.9011270999908447,2.097243547439575
1701897706240922400,19.27592236328125,9.151850700378418,2.8718044757843018,2.057297468185425
1701897706257926400,19.292926513671876,9.16123104095459,2.853428602218628,2.0410542488098145
1701897706274919200,19.309919189453126,9.162373542785645,2.840778350830078,2.053530693054199
1701897706291912200,19.326912109375,9.160473823547363,2.825110673904419,2.0834081172943115
1701897706308900400,19.343900390625,9.160649299621582,2.7976536750793457,2.1193768978118896
1701897706325898800,19.360898681640624,9.163898468017578,2.7605817317962646,2.1536600589752197
1701897706342891000,19.37789111328125,9.171695709228516,2.718294620513916,2.174163341522217
1701897706359884000,19.394884033203127,9.182785034179688,2.6735260486602783,2.182847023010254
1701897706376876300,19.411876220703125,9.194437026977539,2.6346774101257324,2.181034803390503
1701897706393869800,19.428869873046875,9.201578140258789,2.610753297805786,2.1796860694885254
1701897706410862800,19.44586279296875,9.201410293579102,2.605473756790161,2.1866989135742188
1701897706427856000,19.46285595703125,9.195782661437988,2.6111128330230713,2.203580617904663
1701897706444848600,19.4798486328125,9.189825057983398,2.614010810852051,2.2248997688293457
1701897706461831400,19.49683154296875,9.189393043518066,2.6008095741271973,2.242086172103882
1701897706478834200,19.513834228515623,9.179567337036133,2.614459753036499,2.2663302421569824
1701897706495824400,19.530824462890624,9.161381721496582,2.637995719909668,2.3121795654296875
1701897706512823000,19.547822998046875,9.161507606506348,2.628061532974243,2.3229663372039795
1701897706529813200,19.564813232421876,9.192702293395996,2.571798801422119,2.261899471282959
1701897706546806000,19.581805908203126,9.23646068572998,2.5001871585845947,2.161703109741211
