time,seconds_elapsed,z,y,x
1700938948373590000,0.107590087890625,8.200267791748047,5.099862575531006,1.727171778678894
1700938948390588000,0.124587890625,8.196483612060547,5.106688022613525,1.724966287612915
1700938948407580700,0.14158056640625,8.190616607666016,5.116398334503174,1.7240616083145142
1700938948424567800,0.15856787109375,8.184393882751465,5.127158164978027,1.7216415405273438
1700938948441562600,0.175562744140625,8.17888069152832,5.137463092803955,1.7171155214309692
1700938948458554000,0.19255419921875,8.174535751342773,5.146703243255615,1.710125207901001
1700938948475550000,0.209550048828125,8.172755241394043,5.152851581573486,1.700089454650879
1700938948492531200,0.22653125,8.172381401062012,5.157588005065918,1.6874737739562988
1700938948509537800,0.243537841796875,8.16971206665039,5.165407180786133,1.6764512062072754
1700938948526529800,0.26052978515625,8.16456127166748,5.175629615783691,1.6700013875961304
1700938948543518500,0.2775185546875,8.162050247192383,5.182425498962402,1.6611809730529785
1700938948560512800,0.2945126953125,8.165616035461426,5.183531761169434,1.6400700807571411
1700938948577502000,0.311501953125,8.17534351348877,5.179986953735352,1.6023701429367065
1700938948594492400,0.328492431640625,8.187178611755371,5.17618989944458,1.5534720420837402
1700938948611494100,0.345494140625,8.197575569152832,5.174597263336182,1.503132700920105
1700938948628483600,0.362483642578125,8.205924987792969,5.175558567047119,1.4534430503845215
1700938948645474000,0.37947412109375,8.215033531188965,5.177116870880127,1.3952770233154297
1700938948662469000,0.39646923828125,8.226308822631836,5.1797566413879395,1.3168423175811768
1700938948679461400,0.41346142578125,8.233748435974121,5.193393707275391,1.2125040292739868
1700938948696450600,0.430450439453125,8.231668472290039,5.22109842300415,1.1026675701141357
1700938948713444400,0.4474443359375,8.217607498168945,5.261691570281982,1.0107697248458862
1700938948730436600,0.4644365234375,8.190570831298828,5.316108226776123,0.9432095885276794
1700938948747433700,0.481433837890625,8.152970314025879,5.380218505859375,0.9046717286109924
1700938948764421600,0.498421630859375,8.1088285446167,5.44824743270874,0.8942015767097473
1700938948781423600,0.515423583984375,8.057485580444336,5.523709774017334,0.8953641653060913
1700938948798408000,0.532407958984375,7.999013423919678,5.606135368347168,0.9072703719139099
1700938948815400400,0.549400390625,7.936094760894775,5.690403938293457,0.9347764253616333
1700938948832398600,0.566398681640625,7.870573997497559,5.775822639465332,0.9643878936767578
1700938948849388000,0.583387939453125,7.806789398193359,5.857375621795654,0.9906075596809387
1700938948866382000,0.600382080078125,7.74166202545166,5.9376139640808105,1.0234826803207397
1700938948883371500,0.61737158203125,7.6615986824035645,6.029140472412109,1.0887974500656128
1700938948900365800,0.63436572265625,7.57688570022583,6.123785495758057,1.1515933275222778
1700938948917359400,0.651359375,7.500152111053467,6.203037738800049,1.2272536754608154
1700938948934351400,0.668351318359375,7.436165809631348,6.260992527008057,1.3189082145690918
1700938948951351800,0.685351806640625,7.383145809173584,6.300286293029785,1.4253647327423096
1700938948968328400,0.702328369140625,7.348336696624756,6.311701774597168,1.5493472814559937
1700938948985318000,0.71931787109375,7.341596603393555,6.2871809005737305,1.675834059715271
1700938949002326000,0.736325927734375,7.356398582458496,6.234908580780029,1.8015060424804688
1700938949019315000,0.75331494140625,7.3676276206970215,6.180591583251953,1.9376461505889893
1700938949036307200,0.77030712890625,7.348869323730469,6.149912357330322,2.099719285964966
1700938949053299000,0.787298828125,7.310556411743164,6.140357971191406,2.2556350231170654
1700938949070293200,0.804293212890625,7.284113883972168,6.122064113616943,2.3870747089385986
1700938949087286500,0.82128662109375,7.28929328918457,6.065636157989502,2.5120458602905273
1700938949104283100,0.838283203125,7.310333251953125,5.979039192199707,2.654475688934326
1700938949121270500,0.8552705078125,7.316098690032959,5.890149116516113,2.831423759460449
1700938949138264800,0.872264892578125,7.286847114562988,5.819108486175537,3.045644998550415
1700938949155244300,0.889244384765625,7.208406448364258,5.784076690673828,3.2892940044403076
1700938949172252200,0.906252197265625,7.07181453704834,5.792038440704346,3.5605945587158203
1700938949189238500,0.923238525390625,6.906564235687256,5.816075325012207,3.8351991176605225
1700938949206220500,0.940220458984375,6.769320011138916,5.811639308929443,4.078880786895752
1700938949223229000,0.95722900390625,6.691308975219727,5.756840229034424,4.280338764190674
1700938949240233200,0.974233154296875,6.642138957977295,5.674571990966797,4.462884426116943
1700938949257214200,0.991214111328125,6.560039520263672,5.598405838012695,4.675452709197998
1700938949274202400,1.008202392578125,6.409885883331299,5.5430684089660645,4.942049503326416
1700938949291197700,1.02519775390625,6.22511625289917,5.494108200073242,5.224826335906982
1700938949308191500,1.04219140625,6.0684003829956055,5.423679828643799,5.47670841217041
1700938949325180700,1.0591806640625,5.962435245513916,5.319270610809326,5.691295146942139
1700938949342176000,1.076176025390625,5.872440814971924,5.191098213195801,5.899411678314209
1700938949359168500,1.09316845703125,5.728927135467529,5.069861888885498,6.1410112380981445
1700938949376162300,1.110162353515625,5.486325263977051,4.989442825317383,6.42197847366333
1700938949393136000,1.12713623046875,5.228506565093994,4.899555206298828,6.7002387046813965
1700938949410144000,1.14414404296875,5.0388054847717285,4.757120132446289,6.943800926208496
1700938949427142400,1.161142333984375,4.923797130584717,4.579622268676758,7.142786502838135
1700938949444128800,1.178128662109375,4.805965423583984,4.40372896194458,7.331164836883545
1700938949461124600,1.19512451171875,4.6219611167907715,4.258386611938477,7.532578468322754
1700938949478108200,1.212108154296875,4.369326591491699,4.125199317932129,7.754213333129883
1700938949495107600,1.229107666015625,4.096620082855225,3.954746723175049,7.988352298736572
1700938949512102700,1.2461025390625,3.8655436038970947,3.7193901538848877,8.213393211364746
1700938949529095400,1.263095458984375,3.691288948059082,3.4496123790740967,8.408963203430176
1700938949546089000,1.2800888671875,3.540273427963257,3.19387149810791,8.57331657409668
1700938949563078100,1.297078125,3.3614182472229004,2.9872426986694336,8.7185640335083
1700938949580063700,1.314063720703125,3.1227688789367676,2.8187479972839355,8.862229347229004
1700938949597065700,1.331065673828125,2.8661279678344727,2.6340508460998535,9.004621505737305
1700938949614057500,1.348057373046875,2.6408517360687256,2.3993663787841797,9.138111114501953
1700938949631051300,1.36505126953125,2.4850592613220215,2.1169426441192627,9.250900268554688
1700938949648045000,1.382045166015625,2.367690324783325,1.8151905536651611,9.345332145690918
1700938949665034200,1.3990341796875,2.227079391479492,1.5328367948532104,9.430091857910156
1700938949682029600,1.416029541015625,2.0297820568084717,1.2715798616409302,9.513105392456055
1700938949699022000,1.43302197265625,1.7758901119232178,0.9951701164245605,9.596455574035645
1700938949716015900,1.450015869140625,1.4956061840057373,0.6829434037208557,9.671238899230957
1700938949733002800,1.467002685546875,1.2203449010849,0.3396829068660736,9.727871894836426
1700938949750002000,1.484001953125,0.9658963084220886,-0.013802645727992058,9.762323379516602
1700938949766994400,1.500994384765625,0.743016242980957,-0.3581641912460327,9.775262832641602
1700938949783981300,1.517981201171875,0.5505504608154297,-0.6989805698394775,9.769566535949707
1700938949800979000,1.53497900390625,0.3750205338001251,-1.0540943145751953,9.745991706848145
1700938949817961700,1.551961669921875,0.2059909850358963,-1.4386680126190186,9.701748847961426
1700938949834962200,1.568962158203125,0.04557846486568451,-1.842180848121643,9.63537311553955
1700938949851955200,1.585955078125,-0.08054481446743011,-2.2467103004455566,9.548922538757324
1700938949868949000,1.602948974609375,-0.16726721823215485,-2.623642921447754,9.451170921325684
1700938949885942800,1.61994287109375,-0.23020781576633453,-2.9504318237304688,9.352972030639648
1700938949902931700,1.636931640625,-0.27298077940940857,-3.24664568901062,9.253157615661621
1700938949919926500,1.653926513671875,-0.30201104283332825,-3.5343809127807617,9.146204948425293
1700938949936921600,1.670921630859375,-0.3229791522026062,-3.812506914138794,9.03308391571045
1700938949953909200,1.6879091796875,-0.3364429473876953,-4.076759338378906,8.91644287109375
1700938949970894300,1.704894287109375,-0.33659496903419495,-4.326840400695801,8.79780101776123
1700938949987896600,1.721896484375,-0.3159022629261017,-4.55733060836792,8.68142032623291
1700938950004890000,1.73889013671875,-0.2795167863368988,-4.75542688369751,8.575775146484375
1700938950021885200,1.75588525390625,-0.23636317253112793,-4.923551082611084,8.481679916381836
1700938950038869500,1.772869384765625,-0.19241726398468018,-5.06318473815918,8.400193214416504
1700938950055864000,1.789864013671875,-0.153119295835495,-5.174036979675293,8.333187103271484
1700938950072862500,1.806862548828125,-0.11205019801855087,-5.2650957107543945,8.27661418914795
1700938950089846800,1.8238466796875,-0.0673534944653511,-5.341462135314941,8.22802448272705
1700938950106854100,1.840854248046875,-0.020251832902431488,-5.409071922302246,8.183987617492676
1700938950123837700,1.857837646484375,0.026466837152838707,-5.476481914520264,8.139015197753906
1700938950140837000,1.874837158203125,0.07054607570171356,-5.549784183502197,8.088946342468262
1700938950157837600,1.891837646484375,0.11525856703519821,-5.614565849304199,8.043598175048828
1700938950174815200,1.908815185546875,0.1554640233516693,-5.666213512420654,8.006620407104492
1700938950191810000,1.92581005859375,0.19310079514980316,-5.707284927368164,7.976574420928955
1700938950208802600,1.942802490234375,0.22594226896762848,-5.747049808502197,7.947106838226318
1700938950225794300,1.959794189453125,0.25053155422210693,-5.8018951416015625,7.906413555145264
1700938950242780400,1.976780517578125,0.27483201026916504,-5.861218452453613,7.86172342300415
1700938950259780000,1.993780029296875,0.3000580668449402,-5.903245449066162,7.829289436340332
1700938950276764400,2.010764404296875,0.3315552771091461,-5.924971103668213,7.811589241027832
1700938950293758200,2.02775830078125,0.37318161129951477,-5.925038814544678,7.809659004211426
1700938950310756900,2.0447568359375,0.4220438599586487,-5.912891864776611,7.816374778747559
1700938950327752200,2.061752197265625,0.47021496295928955,-5.896941184997559,7.825671195983887
1700938950344741400,2.078741455078125,0.5081663131713867,-5.8819899559021,7.834545612335205
1700938950361737200,2.0957373046875,0.5351038575172424,-5.867440223693848,7.843654632568359
1700938950378717200,2.11271728515625,0.5540909767150879,-5.846660614013672,7.857840538024902
1700938950395722500,2.129722412109375,0.5585389137268066,-5.817789077758789,7.878925800323486
1700938950412712700,2.146712646484375,0.5457598567008972,-5.778862953186035,7.908413410186768
1700938950429709000,2.163708984375,0.5173295140266418,-5.731466770172119,7.9447340965271
1700938950446702000,2.1807021484375,0.48175036907196045,-5.680360317230225,7.983578681945801
1700938950463689700,2.197689697265625,0.4506373405456543,-5.631505012512207,8.01992416381836
1700938950480688400,2.2146884765625,0.42544984817504883,-5.583503723144531,8.054787635803223
1700938950497682200,2.23168212890625,0.4059242606163025,-5.531129360198975,8.091845512390137
1700938950514665700,2.248665771484375,0.391582190990448,-5.471653938293457,8.132883071899414
1700938950531664000,2.265663818359375,0.38092389702796936,-5.407199382781982,8.176382064819336
1700938950548656000,2.28265625,0.3737376630306244,-5.343778610229492,8.218300819396973
1700938950565632300,2.29963232421875,0.3681401312351227,-5.285463809967041,8.25617790222168
1700938950582640000,2.31664013671875,0.358795702457428,-5.234200954437256,8.289180755615234
1700938950599634000,2.333634033203125,0.3415680527687073,-5.188610553741455,8.318519592285156
1700938950616619500,2.35061962890625,0.319505900144577,-5.145022392272949,8.34642219543457
1700938950633613300,2.36761328125,0.29808053374290466,-5.103161811828613,8.372873306274414
1700938950650616800,2.384616943359375,0.27875256538391113,-5.062639236450195,8.398100852966309
1700938950667599600,2.401599609375,0.26134422421455383,-5.024528503417969,8.421515464782715
1700938950684597000,2.418596923828125,0.24384352564811707,-4.9891815185546875,8.44302749633789
1700938950701592000,2.435592041015625,0.22081835567951202,-4.9578752517700195,8.462081909179688
1700938950718571800,2.45257177734375,0.1926400363445282,-4.930609703063965,8.47868537902832
1700938950735574800,2.46957470703125,0.16312971711158752,-4.906699180603027,8.493163108825684
1700938950752565000,2.48656494140625,0.1382112205028534,-4.8839802742004395,8.506689071655273
1700938950769560600,2.503560546875,0.11851663142442703,-4.8604607582092285,8.520445823669434
1700938950786553900,2.520553955078125,0.09561660140752792,-4.831120014190674,8.537403106689453
1700938950803536400,2.537536376953125,0.062251798808574677,-4.799796104431152,8.555360794067383
1700938950820537000,2.554537109375,0.0200483500957489,-4.775026321411133,8.569413185119629
1700938950837535700,2.57153564453125,-0.020951159298419952,-4.769809246063232,8.572315216064453
1700938950854523100,2.588523193359375,-0.050978366285562515,-4.788572788238525,8.561723709106445
1700938950871516000,2.605515869140625,-0.0723470151424408,-4.8228607177734375,8.5423002243042
1700938950888512800,2.6225126953125,-0.09293097257614136,-4.862236976623535,8.51974868774414
1700938950905500400,2.63950048828125,-0.11826812475919724,-4.901949882507324,8.496646881103516
1700938950922494500,2.656494384765625,-0.14454610645771027,-4.9466071128845215,8.470319747924805
1700938950939489500,2.673489501953125,-0.1645757406949997,-5.000941753387451,8.43798828125
1700938950956472000,2.69047216796875,-0.1801924854516983,-5.066215991973877,8.398635864257812
1700938950973473000,2.70747314453125,-0.19276925921440125,-5.133902549743652,8.357152938842773
1700938950990450000,2.724449951171875,-0.20599214732646942,-5.194295406341553,8.319433212280273
1700938951007460400,2.74146044921875,-0.22064293920993805,-5.242145538330078,8.288989067077637
1700938951024449300,2.75844921875,-0.24174495041370392,-5.277194976806641,8.266128540039062
1700938951041444900,2.77544482421875,-0.27046999335289,-5.3034563064575195,8.248414039611816
1700938951058437400,2.792437255859375,-0.30355527997016907,-5.32553243637085,8.23302173614502
1700938951075427600,2.809427490234375,-0.3334561884403229,-5.346709251403809,8.218128204345703
1700938951092410400,2.826410400390625,-0.35832732915878296,-5.370042324066162,8.201851844787598
1700938951109416200,2.843416259765625,-0.3777342438697815,-5.393113136291504,8.185826301574707
1700938951126410200,2.86041015625,-0.39209792017936707,-5.4104814529418945,8.173683166503906
1700938951143397600,2.877397705078125,-0.4043811857700348,-5.417998790740967,8.16810131072998
1700938951160393200,2.894393310546875,-0.4162551164627075,-5.41499662399292,8.16949462890625
1700938951177377000,2.911376953125,-0.42330509424209595,-5.4029622077941895,8.177098274230957
1700938951194376000,2.9283759765625,-0.42465755343437195,-5.383801460266113,8.189655303955078
1700938951211371800,2.945371826171875,-0.4207504391670227,-5.358348369598389,8.206533432006836
1700938951228374300,2.962374267578125,-0.41227373480796814,-5.327611923217773,8.226950645446777
1700938951245353000,2.97935302734375,-0.3979860842227936,-5.290477275848389,8.251580238342285
1700938951262350300,2.996350341796875,-0.37994974851608276,-5.245484352111816,8.281102180480957
1700938951279341600,3.013341552734375,-0.36241570115089417,-5.192174911499023,8.315413475036621
1700938951296336400,3.03033642578125,-0.34816136956214905,-5.1327924728393555,8.352805137634277
1700938951313324500,3.047324462890625,-0.3364458680152893,-5.0707221031188965,8.391109466552734
1700938951330320100,3.064320068359375,-0.3190702795982361,-5.0103325843811035,8.42798137664795
1700938951347313400,3.0813134765625,-0.2926110625267029,-4.958817958831787,8.4593505859375
1700938951364298800,3.098298828125,-0.2557355761528015,-4.918901443481445,8.483817100524902
1700938951381296600,3.115296630859375,-0.2136794924736023,-4.889651298522949,8.50186824798584
1700938951398301200,3.13230126953125,-0.1726934313774109,-4.868767261505127,8.514776229858398
1700938951415281700,3.14928173828125,-0.14042030274868011,-4.854233264923096,8.523663520812988
1700938951432277000,3.166277099609375,-0.11908206343650818,-4.846249580383301,8.528529167175293
1700938951449266000,3.183265869140625,-0.10684909671545029,-4.845807075500488,8.52894115447998
1700938951466262500,3.200262451171875,-0.09820691496133804,-4.854415416717529,8.524149894714355
1700938951483255000,3.217255126953125,-0.09047046303749084,-4.871420860290527,8.514528274536133
1700938951500248000,3.234248046875,-0.08374908566474915,-4.8928141593933105,8.502324104309082
1700938951517227500,3.2512275390625,-0.08095178008079529,-4.912949085235596,8.490730285644531
1700938951534222800,3.268222900390625,-0.08366898447275162,-4.9301934242248535,8.480703353881836
1700938951551228200,3.285228271484375,-0.0908283144235611,-4.949901580810547,8.469141006469727
1700938951568219000,3.302218994140625,-0.09799349308013916,-4.9739861488342285,8.454938888549805
1700938951585208300,3.319208251953125,-0.10393484681844711,-5.003126621246338,8.437655448913574
1700938951602206700,3.336206787109375,-0.1112450361251831,-5.030063152313232,8.42153263092041
1700938951619185700,3.353185546875,-0.12054736912250519,-5.046888828277588,8.411333084106445
1700938951636179500,3.370179443359375,-0.12978596985340118,-5.053897857666016,8.40698528289795
1700938951653181700,3.387181640625,-0.13230670988559723,-5.054214000701904,8.406755447387695
1700938951670175200,3.40417529296875,-0.12425976991653442,-5.052087306976318,8.408156394958496
1700938951687167200,3.421167236328125,-0.1051744595170021,-5.050271987915039,8.409507751464844
1700938951704160500,3.438160400390625,-0.07993260771036148,-5.051115036010742,8.409278869628906
1700938951721152800,3.45515283203125,-0.05386572331190109,-5.05448055267334,8.407463073730469
1700938951738145800,3.472145751953125,-0.029358286410570145,-5.060966491699219,8.403682708740234
1700938951755133700,3.4891337890625,-0.005889900494366884,-5.071709632873535,8.39725399017334
1700938951772133400,3.50613330078125,0.0170843955129385,-5.0856146812438965,8.388823509216309
1700938951789121300,3.523121337890625,0.03746018931269646,-5.101908206939697,8.378857612609863
1700938951806116600,3.54011669921875,0.05702906474471092,-5.119100093841553,8.368253707885742
1700938951823097300,3.557097412109375,0.07410644739866257,-5.135519027709961,8.358053207397461
1700938951840092400,3.574092529296875,0.0895308181643486,-5.14909029006958,8.34954833984375
1700938951857083100,3.591083251953125,0.10200760513544083,-5.158290386199951,8.343725204467773
1700938951874077700,3.60807763671875,0.11154675483703613,-5.165943145751953,8.338868141174316
1700938951891072000,3.625072021484375,0.12050234526395798,-5.17586088180542,8.332590103149414
1700938951908066800,3.64206689453125,0.12902583181858063,-5.187724590301514,8.325082778930664
1700938951925055000,3.659054931640625,0.13747505843639374,-5.197697639465332,8.318723678588867
1700938951942051800,3.6760517578125,0.14481741189956665,-5.20207405090332,8.315863609313965
1700938951959052300,3.69305224609375,0.15169373154640198,-5.2008376121521,8.316513061523438
1700938951976043500,3.71004345703125,0.16024938225746155,-5.195831775665283,8.31948184967041
1700938951993035800,3.727035888671875,0.17154796421527863,-5.188002586364746,8.324140548706055
1700938952010019600,3.74401953125,0.1850333958864212,-5.179801940917969,8.328956604003906
1700938952027010800,3.7610107421875,0.19954676926136017,-5.172849655151367,8.3329439163208
1700938952044014600,3.7780146484375,0.2119966596364975,-5.167461395263672,8.335977554321289
1700938952061006600,3.795006591796875,0.22316133975982666,-5.162549018859863,8.338727951049805
1700938952077989400,3.8119892578125,0.23218593001365662,-5.157898902893066,8.341361045837402
1700938952094992400,3.828992431640625,0.23829685151576996,-5.155551433563232,8.34263801574707
1700938952111985200,3.845985107421875,0.24204140901565552,-5.158522129058838,8.340694427490234
1700938952128977400,3.862977294921875,0.2455865740776062,-5.164395809173584,8.336956024169922
1700938952145970700,3.879970703125,0.25008660554885864,-5.171237468719482,8.3325777053833
1700938952162962700,3.896962646484375,0.25752657651901245,-5.17825174331665,8.327995300292969
1700938952179958000,3.9139580078125,0.26578810811042786,-5.184322834014893,8.323958396911621
1700938952196946400,3.930946533203125,0.2733246088027954,-5.188692092895508,8.320991516113281
1700938952213941200,3.947941162109375,0.2800810635089874,-5.192623615264893,8.31831169128418
1700938952230932500,3.964932373046875,0.28700241446495056,-5.198594093322754,8.314347267150879
1700938952247928000,3.981927978515625,0.29476574063301086,-5.207307815551758,8.308621406555176
1700938952264919300,3.998919189453125,0.3008807599544525,-5.215439319610596,8.303298950195312
1700938952281912600,4.01591259765625,0.3072928190231323,-5.223006725311279,8.298306465148926
1700938952298904300,4.032904296875,0.3168746531009674,-5.2295684814453125,8.29381275177002
1700938952315897600,4.049897705078125,0.33135294914245605,-5.234725475311279,8.289992332458496
1700938952332890400,4.066890380859375,0.3480023145675659,-5.236255168914795,8.28834342956543
1700938952349883100,4.083883056640625,0.36473530530929565,-5.232424259185791,8.290042877197266
1700938952366875400,4.10087548828125,0.37854933738708496,-5.224729537963867,8.294275283813477
1700938952383868400,4.117868408203125,0.39002975821495056,-5.213582992553711,8.300756454467773
1700938952400865500,4.134865478515625,0.399377703666687,-5.201254844665527,8.308042526245117
1700938952417841400,4.15184130859375,0.4049319922924042,-5.192586898803711,8.313193321228027
1700938952434836200,4.168836181640625,0.4113902449607849,-5.180914402008057,8.32015609741211
1700938952451842000,4.185842041015625,0.4160785377025604,-5.175196170806885,8.323480606079102
1700938952468831700,4.202831787109375,0.41884544491767883,-5.173250198364258,8.324551582336426
1700938952485825000,4.219824951171875,0.41592007875442505,-5.1748785972595215,8.323686599731445
1700938952502810000,4.23681005859375,0.4087969958782196,-5.180405616760254,8.320599555969238
1700938952519800800,4.25380078125,0.40306556224823,-5.188387870788574,8.315906524658203
1700938952536790800,4.270790771484375,0.4002571403980255,-5.194301128387451,8.312350273132324
1700938952553789200,4.2877890625,0.3986351191997528,-5.193933963775635,8.312657356262207
1700938952570785000,4.304784912109375,0.3967973291873932,-5.18912935256958,8.315743446350098
1700938952587777000,4.321777099609375,0.3966967761516571,-5.182600975036621,8.319818496704102
1700938952604765000,4.338764892578125,0.3990274667739868,-5.177478790283203,8.322896003723145
1700938952621754400,4.35575439453125,0.4040969908237457,-5.174783706665039,8.324328422546387
1700938952638750500,4.37275048828125,0.4098319411277771,-5.176112174987793,8.323222160339355
1700938952655740200,4.389740234375,0.41312041878700256,-5.179972171783447,8.320658683776855
1700938952672738300,4.40673828125,0.41479331254959106,-5.182916164398193,8.318739891052246
1700938952689728800,4.423728759765625,0.41750290989875793,-5.184830188751221,8.317411422729492
1700938952706723600,4.4407236328125,0.4230671226978302,-5.187111854553223,8.315709114074707
1700938952723717400,4.45771728515625,0.4297037124633789,-5.190999984741211,8.312943458557129
1700938952740710400,4.47471044921875,0.43527376651763916,-5.196079254150391,8.309476852416992
1700938952757690400,4.4916904296875,0.4406362473964691,-5.200631141662598,8.306347846984863
1700938952774695700,4.50869580078125,0.4464629888534546,-5.202958583831787,8.304577827453613
1700938952791694600,4.525694580078125,0.45197924971580505,-5.203766822814941,8.303773880004883
1700938952808684000,4.54268408203125,0.45753294229507446,-5.204643726348877,8.30291748046875
1700938952825676300,4.55967626953125,0.46431103348731995,-5.206170558929443,8.301584243774414
1700938952842673700,4.576673583984375,0.4714604318141937,-5.207665920257568,8.300244331359863
1700938952859664400,4.593664306640625,0.4785647988319397,-5.209451675415039,8.298715591430664
1700938952876645000,4.61064501953125,0.4868432879447937,-5.211686134338379,8.296832084655762
1700938952893650400,4.627650390625,0.49671515822410583,-5.214309215545654,8.294597625732422
1700938952910641200,4.64464111328125,0.5066027641296387,-5.218168258666992,8.291572570800781
1700938952927635200,4.66163525390625,0.5164214372634888,-5.223708629608154,8.28747844696045
1700938952944627500,4.67862744140625,0.5253992676734924,-5.231470108032227,8.28201675415039
1700938952961620500,4.695620361328125,0.5350021123886108,-5.24255895614624,8.274385452270508
1700938952978610200,4.712610107421875,0.5447342395782471,-5.255582809448242,8.265484809875488
1700938952995598600,4.7295986328125,0.5548937916755676,-5.26832389831543,8.256691932678223
1700938953012595500,4.746595458984375,0.5646901726722717,-5.278213977813721,8.249709129333496
1700938953029594000,4.763593994140625,0.5721822381019592,-5.284972667694092,8.244863510131836
1700938953046580500,4.78058056640625,0.5753286480903625,-5.288964748382568,8.242084503173828
1700938953063580000,4.797579833984375,0.5752900242805481,-5.292174816131592,8.240026473999023
1700938953080569000,4.814569091796875,0.5733025670051575,-5.296759128570557,8.237220764160156
1700938953097552600,4.831552734375,0.5698843002319336,-5.302571773529053,8.23371696472168
1700938953114554600,4.8485546875,0.564838707447052,-5.309230327606201,8.229772567749023
1700938953131547600,4.865547607421875,0.5584003329277039,-5.3159050941467285,8.22590160369873
1700938953148529700,4.88252978515625,0.552610456943512,-5.32241678237915,8.222081184387207
1700938953165533000,4.899532958984375,0.5465217232704163,-5.328798294067383,8.218354225158691
1700938953182525400,4.916525390625,0.5384034514427185,-5.332169532775879,8.216703414916992
1700938953199518500,4.9335185546875,0.5319545865058899,-5.330739498138428,8.21805191040039
1700938953216510700,4.9505107421875,0.5286619663238525,-5.325457572937012,8.221687316894531
1700938953233501200,4.967501220703125,0.526780366897583,-5.319090843200684,8.225929260253906
1700938953250498800,4.984498779296875,0.5236947536468506,-5.31300687789917,8.230055809020996
1700938953267477500,5.0014775390625,0.5198631286621094,-5.306109428405762,8.234747886657715
1700938953284475000,5.018474853515625,0.5162231922149658,-5.297962188720703,8.240219116210938
1700938953301474600,5.035474609375,0.5142556428909302,-5.2897539138793945,8.245615005493164
1700938953318466800,5.052466796875,0.5137615203857422,-5.281735897064209,8.250783920288086
1700938953335460400,5.06946044921875,0.5151572823524475,-5.272574424743652,8.256555557250977
1700938953352449000,5.086448974609375,0.5156010389328003,-5.262819290161133,8.262747764587402
1700938953369430800,5.1034306640625,0.5145661234855652,-5.253541469573975,8.268715858459473
1700938953386439400,5.120439453125,0.5120593905448914,-5.245295524597168,8.274103164672852
1700938953403431000,5.137430908203125,0.5098146796226501,-5.237986087799072,8.278871536254883
1700938953420423200,5.154423095703125,0.5082640051841736,-5.229735374450684,8.284180641174316
1700938953437407500,5.171407470703125,0.5035715699195862,-5.2208356857299805,8.290079116821289
1700938953454407400,5.188407470703125,0.4962427020072937,-5.212779521942139,8.295589447021484
1700938953471401700,5.205401611328125,0.48972010612487793,-5.205756664276123,8.300386428833008
1700938953488394000,5.22239404296875,0.4856182932853699,-5.2006940841674805,8.30379867553711
1700938953505387500,5.239387451171875,0.483309805393219,-5.198667049407959,8.305203437805176
1700938953522375700,5.256375732421875,0.4826473295688629,-5.2004547119140625,8.304121971130371
1700938953539376600,5.273376708984375,0.4834326207637787,-5.2057600021362305,8.300750732421875
1700938953556357600,5.290357666015625,0.48725083470344543,-5.2113356590271,8.297028541564941
1700938953573358300,5.3073583984375,0.49449026584625244,-5.2140278816223145,8.294909477233887
1700938953590350600,5.3243505859375,0.502551257610321,-5.214707851409912,8.29399585723877
1700938953607343600,5.341343505859375,0.508121907711029,-5.21449089050293,8.293791770935059
1700938953624336000,5.3583359375,0.5109654068946838,-5.2126688957214355,8.294764518737793
1700938953641329200,5.3753291015625,0.512114942073822,-5.209296703338623,8.296812057495117
1700938953658321400,5.3923212890625,0.5104414820671082,-5.204808235168457,8.299732208251953
1700938953675314400,5.409314453125,0.505736231803894,-5.199235439300537,8.303510665893555
1700938953692306700,5.426306640625,0.500320553779602,-5.193783760070801,8.307250022888184
1700938953709300000,5.443300048828125,0.49582111835479736,-5.189777374267578,8.310023307800293
1700938953726292200,5.460292236328125,0.4921666085720062,-5.187868118286133,8.311432838439941
1700938953743285200,5.47728515625,0.4886430501937866,-5.186760425567627,8.312333106994629
1700938953760275000,5.49427490234375,0.4831823408603668,-5.185291767120361,8.313567161560059
1700938953777273300,5.5112734375,0.47564294934272766,-5.183403015136719,8.315177917480469
1700938953794263000,5.528262939453125,0.4695478081703186,-5.182002544403076,8.316399574279785
1700938953811256000,5.545256103515625,0.46749719977378845,-5.181166648864746,8.317035675048828
1700938953828240400,5.562240478515625,0.46793749928474426,-5.18126106262207,8.3169527053833
1700938953845239000,5.579239013671875,0.4699910283088684,-5.181506633758545,8.316681861877441
1700938953862236700,5.596236572265625,0.47293978929519653,-5.181859493255615,8.316296577453613
1700938953879227100,5.61322705078125,0.47634169459342957,-5.1825785636901855,8.315653800964355
1700938953896219400,5.630219482421875,0.47947755455970764,-5.180743217468262,8.316617012023926
1700938953913212700,5.647212646484375,0.48372966051101685,-5.176822662353516,8.318811416625977
1700938953930204700,5.66420458984375,0.487932026386261,-5.172985553741455,8.320953369140625
1700938953947194400,5.6811943359375,0.49250924587249756,-5.1707000732421875,8.322103500366211
1700938953964179700,5.6981796875,0.49698588252067566,-5.170720100402832,8.321825981140137
1700938953981183500,5.71518359375,0.5010701417922974,-5.17372989654541,8.319710731506348
1700938953998175500,5.732175537109375,0.505587100982666,-5.178412437438965,8.316523551940918
1700938954015168800,5.749168701171875,0.5112103819847107,-5.184478282928467,8.312399864196777
1700938954032160500,5.766160400390625,0.5155653953552246,-5.192169666290283,8.307328224182129
1700938954049155000,5.783155029296875,0.5165652632713318,-5.201199531555176,8.301614761352539
1700938954066146300,5.800146240234375,0.5152116417884827,-5.20970344543457,8.296363830566406
1700938954083139800,5.817139892578125,0.5114565491676331,-5.2188239097595215,8.290863037109375
1700938954100131800,5.8341318359375,0.5076897740364075,-5.227516174316406,8.28561782836914
1700938954117125000,5.851125,0.5060081481933594,-5.234189510345459,8.281506538391113
1700938954134117600,5.86811767578125,0.5067244172096252,-5.2377424240112305,8.279215812683105
1700938954151111000,5.88511083984375,0.5073903799057007,-5.239492893218994,8.278067588806152
1700938954168102400,5.902102294921875,0.5070179104804993,-5.240061283111572,8.277730941772461
1700938954185096000,5.919095947265625,0.5050000548362732,-5.240825653076172,8.27737045288086
1700938954202088400,5.93608837890625,0.5022056698799133,-5.242727756500244,8.276335716247559
1700938954219081000,5.9530810546875,0.5017917156219482,-5.245519638061523,8.274591445922852
1700938954236073500,5.970073486328125,0.5057187080383301,-5.247879981994629,8.272854804992676
1700938954253066800,5.987066650390625,0.5106490850448608,-5.249094009399414,8.271780967712402
1700938954270059000,6.00405908203125,0.5119319558143616,-5.249496936798096,8.271446228027344
1700938954287052300,6.02105224609375,0.5105227828025818,-5.248855113983154,8.271940231323242
1700938954304044500,6.03804443359375,0.5073255300521851,-5.248751640319824,8.272204399108887
1700938954321037600,6.05503759765625,0.5051831007003784,-5.2498393058776855,8.271644592285156
1700938954338029800,6.07202978515625,0.5044153332710266,-5.251988410949707,8.270326614379883
1700938954355023000,6.089023193359375,0.5044989585876465,-5.254767417907715,8.2685546875
1700938954372000500,6.10600048828125,0.5039013624191284,-5.258212566375732,8.266401290893555
1700938954389009000,6.1230087890625,0.5020360946655273,-5.261024475097656,8.264726638793945
1700938954406001000,6.1400009765625,0.5004637837409973,-5.261847496032715,8.264297485351562
1700938954422994200,6.156994140625,0.5001381039619446,-5.260615825653076,8.265101432800293
1700938954439986200,6.173986083984375,0.5018729567527771,-5.258438587188721,8.26638126373291
1700938954456965400,6.19096533203125,0.5050205588340759,-5.256866931915283,8.267189979553223
1700938954473971500,6.207971435546875,0.5091896057128906,-5.25623083114624,8.267338752746582
1700938954490965000,6.224965087890625,0.5133609771728516,-5.255424976348877,8.26759147644043
1700938954507957000,6.24195703125,0.5150952935218811,-5.252501010894775,8.269343376159668
1700938954524950500,6.258950439453125,0.513704240322113,-5.247714519500732,8.272467613220215
1700938954541940000,6.27593994140625,0.5131692290306091,-5.2427849769592285,8.275627136230469
1700938954558938400,6.2929384765625,0.5147906541824341,-5.239271640777588,8.277749061584473
1700938954575927800,6.309927734375,0.5165635347366333,-5.238215923309326,8.278307914733887
1700938954592918800,6.326918701171875,0.5155653953552246,-5.239572048187256,8.277510643005371
1700938954609913300,6.343913330078125,0.51246577501297,-5.2423176765441895,8.275964736938477
1700938954626907000,6.360906982421875,0.5087972283363342,-5.243792533874512,8.27525806427002
1700938954643899000,6.37789892578125,0.5041065812110901,-5.241166114807129,8.27720832824707
1700938954660892200,6.39489208984375,0.49785301089286804,-5.23225736618042,8.283220291137695
1700938954677873700,6.411873779296875,0.49271389842033386,-5.220511436462402,8.290935516357422
1700938954694877700,6.428877685546875,0.48853546380996704,-5.209313869476318,8.298223495483398
1700938954711880000,6.4458798828125,0.48506104946136475,-5.199991703033447,8.30427074432373
1700938954728865500,6.462865478515625,0.4811767637729645,-5.192231178283691,8.309351921081543
1700938954745855200,6.479855224609375,0.47704100608825684,-5.185789585113525,8.313612937927246
1700938954762848500,6.4968486328125,0.4729941487312317,-5.180874347686768,8.316906929016113
1700938954779840800,6.5138408203125,0.4698892831802368,-5.176723480224609,8.319665908813477
1700938954796823600,6.530823486328125,0.4683128893375397,-5.173172473907471,8.3219633102417
1700938954813826000,6.547825927734375,0.46840760111808777,-5.169137477874756,8.32446575164795
1700938954830819300,6.5648193359375,0.4684906303882599,-5.165151119232178,8.326935768127441
1700938954847811300,6.581811279296875,0.46822458505630493,-5.162121772766113,8.328829765319824
1700938954864804600,6.5988046875,0.46939754486083984,-5.161148548126221,8.329364776611328
1700938954881797000,6.615797119140625,0.4716305732727051,-5.1625566482543945,8.32836627960205
1700938954898790100,6.6327900390625,0.4751231372356415,-5.1650800704956055,8.326602935791016
1700938954915782400,6.649782470703125,0.4774830639362335,-5.1671953201293945,8.325156211853027
1700938954932777000,6.66677685546875,0.4760534167289734,-5.168143272399902,8.324649810791016
1700938954949767200,6.68376708984375,0.47262871265411377,-5.168754577636719,8.324464797973633
1700938954966761000,6.700760986328125,0.47105756402015686,-5.170385837554932,8.323541641235352
1700938954983753200,6.717753173828125,0.473198801279068,-5.174262046813965,8.321009635925293
1700938955000746500,6.73474658203125,0.4791354835033417,-5.17935037612915,8.3175048828125
1700938955017732400,6.751732421875,0.4855399429798126,-5.184733867645264,8.313777923583984
1700938955034732000,6.76873193359375,0.48788291215896606,-5.188460350036621,8.311315536499023
1700938955051721700,6.7857216796875,0.4863380789756775,-5.189563274383545,8.31071662902832
1700938955068720000,6.80272021484375,0.48379573225975037,-5.188649654388428,8.31143569946289
1700938955085707500,6.81970751953125,0.4856796860694885,-5.1866350173950195,8.31258487701416
1700938955102696000,6.836696044921875,0.4898136854171753,-5.1868157386779785,8.312228202819824
1700938955119695400,6.8536953125,0.49304017424583435,-5.190186500549316,8.309932708740234
1700938955136689400,6.870689453125,0.4944809079170227,-5.194856643676758,8.306929588317871
1700938955153678000,6.887677978515625,0.49511417746543884,-5.198699951171875,8.304488182067871
1700938955170676500,6.904676513671875,0.4956035912036896,-5.199258804321289,8.304107666015625
1700938955187666200,6.921666259765625,0.49541181325912476,-5.195856094360352,8.306248664855957
1700938955204648700,6.938648681640625,0.49402132630348206,-5.19041633605957,8.309731483459473
1700938955221651200,6.955651123046875,0.4925045669078827,-5.184695720672607,8.31339168548584
1700938955238644700,6.972644775390625,0.49163392186164856,-5.179749965667725,8.31652545928955
1700938955255636700,6.98963671875,0.4893353581428528,-5.176440715789795,8.31872272491455
1700938955272632000,7.006632080078125,0.4849031865596771,-5.175421237945557,8.319615364074707
1700938955289622500,7.02362255859375,0.48039498925209045,-5.1758270263671875,8.319624900817871
1700938955306612000,7.040612060546875,0.4779052436351776,-5.1774187088012695,8.318778038024902
1700938955323598800,7.057598876953125,0.47741055488586426,-5.179941654205322,8.317234992980957
1700938955340594400,7.074594482421875,0.47913607954978943,-5.1832122802734375,8.31509780883789
1700938955357584000,7.091583984375,0.4809112846851349,-5.186027526855469,8.313241004943848
1700938955374574600,7.10857470703125,0.48366299271583557,-5.1863908767700195,8.312853813171387
1700938955391572200,7.125572265625,0.48832905292510986,-5.18538236618042,8.313210487365723
1700938955408572000,7.142572021484375,0.4943949580192566,-5.1855340003967285,8.31275749206543
1700938955425564400,7.159564453125,0.4999726414680481,-5.187504291534424,8.311193466186523
1700938955442557700,7.1765576171875,0.5052134990692139,-5.190579891204834,8.30895709991455
1700938955459547100,7.193547119140625,0.5106022953987122,-5.192241668701172,8.307588577270508
1700938955476545500,7.210545654296875,0.5168442130088806,-5.1910881996154785,8.307924270629883
1700938955493533000,7.227532958984375,0.5215535163879395,-5.188155174255371,8.309462547302246
1700938955510511900,7.244511962890625,0.5230451822280884,-5.184896469116211,8.311399459838867
1700938955527521800,7.261521728515625,0.5222639441490173,-5.182185649871826,8.313140869140625
1700938955544514000,7.27851416015625,0.5211600065231323,-5.181180953979492,8.313837051391602
1700938955561506300,7.29550634765625,0.5217283368110657,-5.182174205780029,8.313180923461914
1700938955578499000,7.3124990234375,0.5230469107627869,-5.184188365936279,8.31184196472168
1700938955595491800,7.329491943359375,0.5234270095825195,-5.18593692779541,8.3107271194458
1700938955612482000,7.34648193359375,0.5247542858123779,-5.18768835067749,8.309552192687988
1700938955629479400,7.3634794921875,0.5255997776985168,-5.191994667053223,8.306809425354004
1700938955646470400,7.380470458984375,0.5259827971458435,-5.197999000549316,8.303027153015137
1700938955663462100,7.397462158203125,0.5266470313072205,-5.205366611480713,8.298367500305176
1700938955680455700,7.41445556640625,0.5284023880958557,-5.211974143981934,8.294109344482422
1700938955697448000,7.431447998046875,0.5307108759880066,-5.215946197509766,8.291463851928711
1700938955714437600,7.448437744140625,0.5316247940063477,-5.218805313110352,8.289607048034668
1700938955731433500,7.46543359375,0.5324252843856812,-5.2213568687438965,8.287947654724121
1700938955748426500,7.482426513671875,0.5353424549102783,-5.224633693695068,8.285696029663086
1700938955765418800,7.499418701171875,0.5395682454109192,-5.2285943031311035,8.28292179107666
1700938955782401500,7.516401611328125,0.5425859689712524,-5.233152866363525,8.279845237731934
1700938955799404300,7.533404296875,0.5444015264511108,-5.237122058868408,8.277215957641602
1700938955816397600,7.5503974609375,0.5461036562919617,-5.238974571228027,8.275931358337402
1700938955833389800,7.567389892578125,0.5487284660339355,-5.237659931182861,8.276591300964355
1700938955850383400,7.58438330078125,0.5522613525390625,-5.234870910644531,8.278120040893555
1700938955867374800,7.601374755859375,0.5567777156829834,-5.230609893798828,8.280509948730469
1700938955884366800,7.618366943359375,0.5614864826202393,-5.2237372398376465,8.284528732299805
1700938955901362000,7.63536181640625,0.5654163956642151,-5.2154717445373535,8.289468765258789
1700938955918340900,7.6523408203125,0.5701994299888611,-5.208701133728027,8.293396949768066
1700938955935342000,7.669342041015625,0.5791772603988647,-5.204703330993652,8.295284271240234
1700938955952330800,7.686330810546875,0.5890584588050842,-5.202578544616699,8.29592227935791
1700938955969332500,7.70333251953125,0.5970335006713867,-5.201355934143066,8.296116828918457
1700938955986325000,7.720324951171875,0.6034385561943054,-5.202084541320801,8.295197486877441
1700938956003309800,7.737309814453125,0.6105791330337524,-5.205602169036865,8.292469024658203
1700938956020305400,7.754305419921875,0.6185120940208435,-5.210201263427734,8.28899097442627
1700938956037291500,7.77129150390625,0.6267841458320618,-5.214492321014404,8.28567123413086
1700938956054292700,7.788292724609375,0.6351059079170227,-5.217917442321777,8.282879829406738
1700938956071280000,7.805280029296875,0.642386257648468,-5.218847274780273,8.281731605529785
1700938956088269600,7.82226953125,0.6460249423980713,-5.218925476074219,8.281399726867676
1700938956105268000,7.83926806640625,0.6466389298439026,-5.2213873863220215,8.279801368713379
1700938956122256400,7.85625634765625,0.647994875907898,-5.228774547576904,8.275032043457031
1700938956139248400,7.873248291015625,0.6516441702842712,-5.240371227264404,8.267402648925781
1700938956156251000,7.8902509765625,0.6537514925003052,-5.253562927246094,8.258862495422363
1700938956173230000,7.90722998046875,0.6516985297203064,-5.265103340148926,8.251672744750977
1700938956190236400,7.924236328125,0.6474277377128601,-5.275314807891846,8.2454833984375
1700938956207224600,7.941224609375,0.6438837051391602,-5.28487491607666,8.239636421203613
1700938956224216800,7.958216796875,0.6429025530815125,-5.294255256652832,8.23369026184082
1700938956241211400,7.97521142578125,0.6434200406074524,-5.304078102111816,8.227325439453125
1700938956258202000,7.9922021484375,0.6432738304138184,-5.314098358154297,8.220868110656738
1700938956275195100,8.009195068359375,0.6405221819877625,-5.323126792907715,8.215240478515625
1700938956292196900,8.02619677734375,0.6363998651504517,-5.3299970626831055,8.211105346679688
1700938956309183000,8.043182861328125,0.6341469287872314,-5.33405065536499,8.208646774291992
1700938956326180900,8.060180908203124,0.6344708800315857,-5.33627462387085,8.20717716217041
1700938956343171600,8.077171630859375,0.6363478302955627,-5.339035987854004,8.20523452758789
1700938956360162300,8.094162353515625,0.6381680965423584,-5.343264102935791,8.202340126037598
1700938956377160000,8.111159912109375,0.6395129561424255,-5.347449779510498,8.199507713317871
1700938956394150400,8.128150390625,0.6406893730163574,-5.349610805511475,8.198005676269531
1700938956411142400,8.145142333984374,0.6419869065284729,-5.348776817321777,8.198447227478027
1700938956428135700,8.1621357421875,0.6453315019607544,-5.34587287902832,8.200079917907715
1700938956445128200,8.179128173828126,0.6490392088890076,-5.340803146362305,8.203089714050293
1700938956462121200,8.196121337890625,0.6508302092552185,-5.33355712890625,8.207662582397461
1700938956479113700,8.21311376953125,0.6522791385650635,-5.326106548309326,8.212382316589355
1700938956496106800,8.230106689453125,0.6544262766838074,-5.318923473358154,8.216866493225098
1700938956513098800,8.2470986328125,0.6566978693008423,-5.311382293701172,8.221562385559082
1700938956530092000,8.264092041015624,0.6591788530349731,-5.3036580085754395,8.226348876953125
1700938956547084300,8.281084228515626,0.6619428396224976,-5.29685115814209,8.230511665344238
1700938956564077800,8.298077880859376,0.6643051505088806,-5.291414737701416,8.233817100524902
1700938956581070000,8.315070068359375,0.6668363809585571,-5.286252498626709,8.236927032470703
1700938956598063000,8.33206298828125,0.6683683395385742,-5.279558181762695,8.241097450256348
1700938956615055600,8.3490556640625,0.6676421165466309,-5.27005672454834,8.247234344482422
1700938956632048600,8.366048583984375,0.6654143333435059,-5.260228633880615,8.253686904907227
1700938956649041000,8.383041015625,0.6631848216056824,-5.252440452575684,8.25882339477539
1700938956666034000,8.400033935546874,0.6593993306159973,-5.24746561050415,8.262290000915527
1700938956683026200,8.417026123046876,0.6543572545051575,-5.245443820953369,8.2639741897583
1700938956700019700,8.434019775390626,0.64927077293396,-5.244991302490234,8.264662742614746
1700938956717011700,8.45101171875,0.6452659964561462,-5.242550849914551,8.266523361206055
1700938956734005200,8.468005126953125,0.6409952044487,-5.236782550811768,8.270511627197266
1700938956750994700,8.48499462890625,0.636168897151947,-5.229638576507568,8.275403022766113
1700938956767993300,8.501993408203125,0.6309613585472107,-5.223623275756836,8.2795991897583
1700938956784983300,8.5189833984375,0.6273928284645081,-5.219728469848633,8.282326698303223
1700938956801964500,8.535964599609375,0.6251282095909119,-5.2180609703063965,8.283548355102539
1700938956818968300,8.55296826171875,0.6231682300567627,-5.219643592834473,8.282697677612305
1700938956835961600,8.569961669921875,0.6208333969116211,-5.224066257476807,8.280086517333984
1700938956852953600,8.58695361328125,0.6191195845603943,-5.227662563323975,8.277944564819336
1700938956869946600,8.603946533203125,0.6192944049835205,-5.227924823760986,8.277764320373535
1700938956886939100,8.620939208984375,0.6209667325019836,-5.226557731628418,8.27850341796875
1700938956903923000,8.6379228515625,0.6230050921440125,-5.226562023162842,8.27834701538086
1700938956920914200,8.6549140625,0.626033365726471,-5.228484630584717,8.276905059814453
1700938956937907700,8.67190771484375,0.6296960115432739,-5.23280668258667,8.273894309997559
1700938956954910000,8.688909912109375,0.6336715817451477,-5.2379841804504395,8.270315170288086
1700938956971901000,8.70590087890625,0.6372734308242798,-5.24128532409668,8.267945289611816
1700938956988897800,8.722897705078125,0.6395936012268066,-5.241502285003662,8.267631530761719
1700938957005888800,8.739888671875,0.6403976082801819,-5.239838123321533,8.268621444702148
1700938957022885400,8.756885498046875,0.6389393210411072,-5.237992763519287,8.269904136657715
1700938957039874300,8.773874267578124,0.6349222660064697,-5.237157344818115,8.270742416381836
1700938957056867800,8.790867919921874,0.6285529136657715,-5.2377028465271,8.270883560180664
1700938957073859800,8.80785986328125,0.622509241104126,-5.2376708984375,8.271361351013184
1700938957090852000,8.82485205078125,0.6179981231689453,-5.234965801239014,8.27341079711914
1700938957107844900,8.841844970703125,0.6135337352752686,-5.2294769287109375,8.277213096618652
1700938957124837400,8.85883740234375,0.6086700558662415,-5.225644588470459,8.279993057250977
1700938957141815000,8.87581494140625,0.6039589047431946,-5.2269206047058105,8.279533386230469
1700938957158825500,8.892825439453125,0.5964248180389404,-5.234673023223877,8.275179862976074
1700938957175816400,8.90981640625,0.5865587592124939,-5.2461371421813965,8.268622398376465
1700938957192808400,8.926808349609376,0.5778750777244568,-5.257147789001465,8.262236595153809
1700938957209801500,8.943801513671875,0.5721676349639893,-5.263687610626221,8.258471488952637
1700938957226794000,8.9607939453125,0.568969190120697,-5.263803005218506,8.258617401123047
1700938957243787000,8.977787109375,0.5653310418128967,-5.258152008056641,8.262466430664062
1700938957260779300,8.994779296875,0.5611514449119568,-5.2513203620910645,8.267094612121582
1700938957277782500,9.011782470703125,0.5566929578781128,-5.246974468231201,8.270155906677246
1700938957294764800,9.028764892578126,0.5511486530303955,-5.246182918548584,8.271028518676758
1700938957311757800,9.0457578125,0.5458019375801086,-5.248311996459961,8.270031929016113
1700938957328750000,9.06275,0.5432706475257874,-5.2534637451171875,8.266926765441895
1700938957345743600,9.07974365234375,0.5423719882965088,-5.25882625579834,8.26357650756836
1700938957362735900,9.09673583984375,0.5404505729675293,-5.26240873336792,8.261421203613281
1700938957379729000,9.11372900390625,0.5376555919647217,-5.264780521392822,8.260092735290527
1700938957396710700,9.130710693359376,0.5352512001991272,-5.2673869132995605,8.258588790893555
1700938957413712100,9.147712158203126,0.5329918265342712,-5.271602153778076,8.256041526794434
1700938957430707700,9.164707763671874,0.5323358178138733,-5.2767534255981445,8.25279426574707
1700938957447701500,9.181701416015626,0.5321264863014221,-5.281074047088623,8.250042915344238
1700938957464692200,9.198692138671875,0.5299746990203857,-5.283053874969482,8.248915672302246
1700938957481685800,9.215685791015625,0.5254530310630798,-5.282899379730225,8.24930191040039
1700938957498677800,9.232677734375,0.5204454660415649,-5.282343864440918,8.24997615814209
1700938957515670800,9.2496708984375,0.5166833996772766,-5.282439708709717,8.250150680541992
1700938957532663300,9.266663330078124,0.5139849185943604,-5.283780574798584,8.249460220336914
1700938957549655300,9.2836552734375,0.5116816759109497,-5.284323215484619,8.249256134033203
1700938957566649900,9.30064990234375,0.5096123218536377,-5.283287525177002,8.25004768371582
1700938957583641600,9.3176416015625,0.509427011013031,-5.281389236450195,8.251275062561035
1700938957600635600,9.3346357421875,0.5113507509231567,-5.280183792114258,8.25192642211914
1700938957617626000,9.351626220703125,0.5128610730171204,-5.279818534851074,8.252065658569336
1700938957634619600,9.36861962890625,0.5105823874473572,-5.281160831451416,8.251350402832031
1700938957651612700,9.38561279296875,0.5052199363708496,-5.284799098968506,8.249349594116211
1700938957668605200,9.402605224609376,0.5007461905479431,-5.288544654846191,8.247220039367676
1700938957685598500,9.419598388671876,0.4974875748157501,-5.290582656860352,8.246111869812012
1700938957702590500,9.436590576171875,0.4944861829280853,-5.288686752319336,8.247509002685547
1700938957719583700,9.453583740234375,0.4900773763656616,-5.282721042633057,8.251593589782715
1700938957736576000,9.470575927734375,0.4854557514190674,-5.2757062911987305,8.256354331970215
1700938957753566700,9.487566650390624,0.4824064075946808,-5.270140171051025,8.260086059570312
1700938957770564000,9.504564208984375,0.4827093183994293,-5.2678446769714355,8.261534690856934
1700938957787554600,9.521554443359374,0.4865199327468872,-5.269451141357422,8.260286331176758
1700938957804546800,9.538546875,0.4920332729816437,-5.274266719818115,8.25688362121582
1700938957821540000,9.5555400390625,0.49649059772491455,-5.2808003425598145,8.252440452575684
1700938957838521900,9.57252197265625,0.4987517297267914,-5.287559509277344,8.247974395751953
1700938957855526000,9.58952587890625,0.5006749033927917,-5.29351282119751,8.244039535522461
1700938957872515300,9.606515380859374,0.5040890574455261,-5.297454833984375,8.241297721862793
1700938957889501000,9.6235009765625,0.5095094442367554,-5.298576354980469,8.240242958068848
1700938957906495000,9.640494873046874,0.5175288915634155,-5.297088623046875,8.240697860717773
1700938957923499000,9.6574990234375,0.5262611508369446,-5.293474197387695,8.24246883392334
1700938957940489000,9.674489013671876,0.5328626036643982,-5.287952899932861,8.245588302612305
1700938957957482200,9.691482177734375,0.5380842089653015,-5.283205032348633,8.248292922973633
1700938957974481000,9.70848095703125,0.5430420637130737,-5.2808918952941895,8.249448776245117
1700938957991457300,9.725457275390625,0.5479618906974792,-5.279764652252197,8.249846458435059
1700938958008459800,9.742459716796875,0.554332435131073,-5.278597354888916,8.250165939331055
1700938958025453000,9.759453125,0.5629565119743347,-5.276087760925293,8.251188278198242
1700938958042434800,9.776434814453125,0.5717419385910034,-5.271316051483154,8.253631591796875
1700938958059437600,9.7934375,0.5775213241577148,-5.264772891998291,8.257407188415527
1700938958076417800,9.810417724609374,0.5803385376930237,-5.2573699951171875,8.261923789978027
1700938958093424400,9.82742431640625,0.5834217667579651,-5.2506866455078125,8.265954971313477
1700938958110410800,9.84441064453125,0.5868663787841797,-5.243655204772949,8.270176887512207
1700938958127409700,9.86140966796875,0.588426947593689,-5.237102031707764,8.274213790893555
1700938958144402000,9.87840185546875,0.5886281132698059,-5.233503341674805,8.276477813720703
1700938958161395200,9.895395263671874,0.5909132361412048,-5.232636451721191,8.276862144470215
1700938958178387200,9.91238720703125,0.5953389406204224,-5.23248291015625,8.276641845703125
1700938958195380500,9.92938037109375,0.5988572239875793,-5.2320427894592285,8.276666641235352
1700938958212371700,9.946371826171875,0.6002851128578186,-5.232278347015381,8.276413917541504
1700938958229367300,9.9633671875,0.5990133285522461,-5.2332892417907715,8.275867462158203
1700938958246358300,9.980358154296875,0.5965879559516907,-5.234416484832764,8.27532958984375
1700938958263351600,9.9973515625,0.5961897373199463,-5.235313415527344,8.274791717529297
1700938958280343800,10.01434375,0.5981175899505615,-5.235199928283691,8.274723052978516
1700938958297337000,10.031337158203126,0.6033356189727783,-5.231179714202881,8.276885986328125
1700938958314329000,10.0483291015625,0.6099733710289001,-5.220815181732178,8.282941818237305
1700938958331322600,10.065322509765625,0.6183869242668152,-5.20758581161499,8.290642738342285
1700938958348315000,10.08231494140625,0.6274092197418213,-5.196455478668213,8.29694652557373
1700938958365308200,10.09930810546875,0.6367828845977783,-5.189002513885498,8.300895690917969
1700938958382282500,10.116282470703124,0.6457998752593994,-5.185672283172607,8.30228328704834
1700938958399293400,10.13329345703125,0.655010998249054,-5.184792995452881,8.302108764648438
1700938958416286000,10.150285888671876,0.6665013432502747,-5.184532642364502,8.30135726928711
1700938958433279000,10.167279052734376,0.6801335215568542,-5.18468713760376,8.300153732299805
1700938958450271200,10.184271240234375,0.6943382024765015,-5.185715675354004,8.298336029052734
1700938958467262700,10.2012626953125,0.7121768593788147,-5.191592693328857,8.293148040771484
1700938958484255700,10.218255859375,0.7336747646331787,-5.202940940856934,8.284156799316406
1700938958501250000,10.23525,0.7529623508453369,-5.215684413909912,8.274407386779785
1700938958518244600,10.25224462890625,0.766480565071106,-5.227722644805908,8.26556396484375
1700938958535235600,10.269235595703124,0.7733510136604309,-5.236196517944336,8.25955867767334
1700938958552225300,10.286225341796875,0.775227963924408,-5.239063262939453,8.257563591003418
1700938958569223400,10.303223388671874,0.7761401534080505,-5.239192485809326,8.257396697998047
1700938958586213000,10.320213134765625,0.780292809009552,-5.240528106689453,8.256155967712402
1700938958603206700,10.33720654296875,0.7869738936424255,-5.246079921722412,8.251996040344238
1700938958620198700,10.35419873046875,0.7925316691398621,-5.257940292358398,8.243911743164062
1700938958637192000,10.37119189453125,0.7950061559677124,-5.275264263153076,8.232599258422852
1700938958654184200,10.38818408203125,0.7957177758216858,-5.294312477111816,8.220293045043945
1700938958671177500,10.405177490234376,0.7962270975112915,-5.311612129211426,8.209074974060059
1700938958688159000,10.422158935546875,0.7951260805130005,-5.326991081237793,8.199210166931152
1700938958705159700,10.43915966796875,0.793014645576477,-5.341482639312744,8.189983367919922
1700938958722148400,10.4561484375,0.7898717522621155,-5.355193614959717,8.181327819824219
1700938958739148300,10.473148193359375,0.7871288061141968,-5.368716716766357,8.172724723815918
1700938958756140800,10.490140869140625,0.7848589420318604,-5.382564067840576,8.163829803466797
1700938958773133800,10.5071337890625,0.7832205295562744,-5.397055149078369,8.15441608428955
1700938958790121200,10.524121337890625,0.7818429470062256,-5.411447048187256,8.145004272460938
1700938958807115500,10.541115478515625,0.7808237671852112,-5.425447940826416,8.135781288146973
1700938958824106500,10.5581064453125,0.7794069647789001,-5.43935489654541,8.126626968383789
1700938958841100300,10.575100341796874,0.7766050100326538,-5.453768253326416,8.117230415344238
1700938958858084600,10.592084716796874,0.7744736671447754,-5.469249725341797,8.107009887695312
1700938958875088600,10.609088623046874,0.7745531797409058,-5.484452247619629,8.096725463867188
1700938958892087000,10.626087158203125,0.7767757177352905,-5.497518539428711,8.087646484375
1700938958909073200,10.6430732421875,0.7788064479827881,-5.506338596343994,8.081448554992676
1700938958926070800,10.66007080078125,0.7797408699989319,-5.510634899139404,8.07843017578125
1700938958943061500,10.6770615234375,0.7813236713409424,-5.511136054992676,8.077934265136719
1700938958960053500,10.694053466796875,0.7862476110458374,-5.51101016998291,8.077543258666992
1700938958977046800,10.711046875,0.795245349407196,-5.510769844055176,8.076826095581055
1700938958994036700,10.72803662109375,0.8054049015045166,-5.508350372314453,8.077468872070312
1700938959011035000,10.745034912109375,0.8166338801383972,-5.50217342376709,8.080551147460938
1700938959028024600,10.762024658203124,0.8282616138458252,-5.493277549743652,8.085420608520508
1700938959045017900,10.779017822265626,0.8413453698158264,-5.483107566833496,8.090970039367676
1700938959062010000,10.796010009765626,0.8565399646759033,-5.474265098571777,8.095362663269043
1700938959079003400,10.81300341796875,0.8709539175033569,-5.469049453735352,8.097349166870117
1700938959095997700,10.829997802734376,0.88426274061203,-5.469503879547119,8.095599174499512
1700938959112985300,10.8469853515625,0.8986229300498962,-5.474709510803223,8.090497970581055
1700938959129982700,10.863982666015625,0.9156553149223328,-5.4803900718688965,8.084739685058594
1700938959146974200,10.88097412109375,0.9328034520149231,-5.483261585235596,8.080832481384277
1700938959163966500,10.897966552734376,0.9464701414108276,-5.483168125152588,8.079305648803711
1700938959180960000,10.9149599609375,0.9555712938308716,-5.4798431396484375,8.080491065979004
1700938959197944000,10.931944091796876,0.9600421190261841,-5.473444938659668,8.084297180175781
1700938959214945300,10.9489453125,0.9618956446647644,-5.464437961578369,8.090165138244629
1700938959231937800,10.965937744140625,0.9632452130317688,-5.452673435211182,8.097940444946289
1700938959248930800,10.982930908203125,0.9576342105865479,-5.438384532928467,8.108207702636719
1700938959265920800,10.999920654296876,0.9422595500946045,-5.421894073486328,8.12104320526123
1700938959282918700,11.016918701171875,0.923183023929596,-5.403580188751221,8.13542652130127
1700938959299908600,11.03390869140625,0.9089812636375427,-5.383779048919678,8.150140762329102
1700938959316902000,11.05090185546875,0.899733304977417,-5.361865520477295,8.165597915649414
1700938959333892900,11.067892822265625,0.891578197479248,-5.339982986450195,8.180817604064941
1700938959350891300,11.084891357421874,0.883305013179779,-5.320105075836182,8.194655418395996
1700938959367877000,11.101877197265624,0.876803457736969,-5.3035712242126465,8.206063270568848
1700938959384873000,11.118873046875,0.8731057047843933,-5.291560649871826,8.214207649230957
1700938959401865000,11.135864990234374,0.8721701502799988,-5.284566402435303,8.218807220458984
1700938959418845400,11.152845458984375,0.8718801140785217,-5.282193183898926,8.220364570617676
1700938959435840800,11.1698408203125,0.8712608814239502,-5.281537055969238,8.220850944519043
1700938959452846300,11.186846435546874,0.8711831569671631,-5.281798839569092,8.22069263458252
1700938959469836300,11.203836181640625,0.871888279914856,-5.285566329956055,8.218194007873535
1700938959486826800,11.22082666015625,0.8721069693565369,-5.294875144958496,8.212176322937012
1700938959503813600,11.237813720703125,0.8706773519515991,-5.308493137359619,8.203531265258789
1700938959520804600,11.2548046875,0.8695768713951111,-5.325465202331543,8.192641258239746
1700938959537797000,11.271797119140626,0.8706908226013184,-5.343436241149902,8.180811882019043
1700938959554790700,11.288790771484376,0.8740207552909851,-5.362905979156494,8.167706489562988
1700938959571785000,11.305784912109376,0.8788043856620789,-5.3843560218811035,8.153069496154785
1700938959588779300,11.322779296875,0.8820209503173828,-5.407695770263672,8.137260437011719
1700938959605768700,11.339768798828125,0.883480966091156,-5.430764198303223,8.121722221374512
1700938959622764800,11.356764892578125,0.8817496299743652,-5.451482772827148,8.108019828796387
1700938959639759400,11.37375927734375,0.8786582350730896,-5.469175815582275,8.096429824829102
1700938959656747000,11.3907470703125,0.8723484873771667,-5.481644630432129,8.088677406311035
1700938959673739800,11.40773974609375,0.858964204788208,-5.488365173339844,8.085551261901855
1700938959690739700,11.42473974609375,0.8367745876312256,-5.49072265625,8.08627700805664
1700938959707721500,11.441721435546874,0.8061942458152771,-5.491743087768555,8.088691711425781
1700938959724724200,11.45872412109375,0.771577000617981,-5.491879940032959,8.091974258422852
1700938959741715500,11.475715576171876,0.7372052669525146,-5.487786769866943,8.097953796386719
1700938959758707200,11.492707275390625,0.703046441078186,-5.475471019744873,8.109319686889648
1700938959775705600,11.50970556640625,0.6686770915985107,-5.4525017738342285,8.12768268585205
1700938959792698600,11.52669873046875,0.6372313499450684,-5.420866012573242,8.151335716247559
1700938959809691100,11.543691162109376,0.6149978637695312,-5.385504722595215,8.176443099975586
1700938959826684200,11.56068408203125,0.5990209579467773,-5.349699020385742,8.201098442077637
1700938959843680300,11.57768017578125,0.5754350423812866,-5.311392784118652,8.227643013000488
1700938959860666400,11.594666259765624,0.538246750831604,-5.266236305236816,8.259126663208008
1700938959877655600,11.611655517578125,0.49517497420310974,-5.212765693664551,8.295661926269531
1700938959894655500,11.628655517578125,0.45771247148513794,-5.154304027557373,8.33425235748291
1700938959911638000,11.645637939453126,0.4283933639526367,-5.099565029144287,8.369410514831543
1700938959928641000,11.66264111328125,0.40684929490089417,-5.053037166595459,8.398653984069824
1700938959945623300,11.679623291015625,0.390701025724411,-5.013442516326904,8.423112869262695
1700938959962626300,11.696626220703125,0.37055209279060364,-4.976315021514893,8.446011543273926
1700938959979618600,11.71361865234375,0.3447524309158325,-4.939481258392334,8.468694686889648
1700938959996601600,11.7306015625,0.32177871465682983,-4.904713153839111,8.489779472351074
1700938960013604400,11.747604248046875,0.30963289737701416,-4.8753790855407715,8.507109642028809
1700938960030597400,11.764597412109374,0.30460837483406067,-4.85427188873291,8.519352912902832
1700938960047587000,11.781587158203125,0.2987827956676483,-4.841977119445801,8.5265531539917
1700938960064585200,11.798585205078124,0.28397297859191895,-4.833866119384766,8.531660079956055
1700938960081575200,11.8155751953125,0.2596772015094757,-4.824075698852539,8.537972450256348
1700938960098568400,11.832568359375,0.23351383209228516,-4.812718391418457,8.545135498046875
1700938960115561000,11.84956103515625,0.21580378711223602,-4.803214073181152,8.550945281982422
1700938960132540700,11.866540771484376,0.20949989557266235,-4.799469470977783,8.553205490112305
1700938960149550600,11.883550537109375,0.20404152572155,-4.8041181564331055,8.550727844238281
1700938960166539300,11.900539306640624,0.1893264204263687,-4.814986705780029,8.544949531555176
1700938960183531500,11.917531494140626,0.1660170704126358,-4.828857898712158,8.537606239318848
1700938960200525000,11.934525146484376,0.14246974885463715,-4.844547748565674,8.52913761138916
1700938960217507000,11.951507080078125,0.126112163066864,-4.864316940307617,8.518134117126465
1700938960234510600,11.968510498046875,0.11792197078466415,-4.890268325805664,8.503379821777344
1700938960251502600,11.985502685546875,0.10969611257314682,-4.920172691345215,8.486223220825195
1700938960268496000,12.002495849609375,0.09196969121694565,-4.949304580688477,8.469478607177734
1700938960285488000,12.019488037109374,0.06889832764863968,-4.974350452423096,8.455009460449219
1700938960302481400,12.0364814453125,0.048451200127601624,-4.995850563049316,8.442466735839844
1700938960319474000,12.053473876953126,0.03564813733100891,-5.015522480010986,8.430859565734863
1700938960336454400,12.070454345703125,0.026761537417769432,-5.034509658813477,8.419568061828613
1700938960353462300,12.087462158203126,0.016872726380825043,-5.0543293952941895,8.407710075378418
1700938960370449200,12.10444921875,0.009811043739318848,-5.072784423828125,8.396597862243652
1700938960387442200,12.121442138671876,0.0009782392298802733,-5.08627462387085,8.38844108581543
1700938960404440300,12.1384404296875,-0.013983616605401039,-5.092904090881348,8.384403228759766
1700938960421420800,12.1554208984375,-0.030955161899328232,-5.095412254333496,8.382835388183594
1700938960438423600,12.172423583984376,-0.04456689581274986,-5.097437381744385,8.381542205810547
1700938960455413200,12.189413330078125,-0.052665289491415024,-5.100783348083496,8.379459381103516
1700938960472407800,12.20640771484375,-0.05502405762672424,-5.10422945022583,8.377346992492676
1700938960489404700,12.22340478515625,-0.05313306674361229,-5.107483863830566,8.375373840332031
1700938960506394600,12.24039453125,-0.0544147752225399,-5.108399868011475,8.374809265136719
1700938960523387000,12.257386962890624,-0.06447841972112656,-5.106631278991699,8.375815391540527
1700938960540380200,12.274380126953124,-0.07828369736671448,-5.10159158706665,8.378767013549805
1700938960557372400,12.291372314453126,-0.0855892077088356,-5.09268045425415,8.384116172790527
1700938960574365700,12.30836572265625,-0.08354794234037399,-5.080648422241211,8.391433715820312
1700938960591357700,12.325357666015625,-0.07667980343103409,-5.0641655921936035,8.401455879211426
1700938960608349400,12.342349365234375,-0.07318200170993805,-5.0427937507629395,8.414332389831543
1700938960625345000,12.359344970703125,-0.07556649297475815,-5.0192131996154785,8.428399085998535
1700938960642340000,12.376340087890625,-0.08208145946264267,-4.998556137084961,8.440604209899902
1700938960659325400,12.393325439453125,-0.0872580036520958,-4.9835405349731445,8.44942855834961
1700938960676322300,12.410322265625,-0.08707965910434723,-4.972640037536621,8.455848693847656
1700938960693314300,12.427314208984376,-0.08233991265296936,-4.9618072509765625,8.462259292602539
1700938960710307800,12.444307861328125,-0.07970573753118515,-4.947448253631592,8.470685005187988
1700938960727297500,12.461297607421875,-0.08346784114837646,-4.9315338134765625,8.479925155639648
1700938960744295700,12.478295654296875,-0.09160365164279938,-4.9185991287231445,8.487349510192871
1700938960761285400,12.495285400390625,-0.10123167932033539,-4.911026477813721,8.491623878479004
1700938960778292000,12.5122919921875,-0.11036737263202667,-4.908483982086182,8.492981910705566
1700938960795271000,12.52927099609375,-0.11882361024618149,-4.908837795257568,8.49266242980957
1700938960812263200,12.54626318359375,-0.12673255801200867,-4.909311771392822,8.49227523803711
1700938960829257200,12.56325732421875,-0.13839249312877655,-4.905911922454834,8.494057655334473
1700938960846249500,12.58024951171875,-0.15567685663700104,-4.897841930389404,8.498414039611816
1700938960863242000,12.597241943359375,-0.17497384548187256,-4.8856000900268555,8.505082130432129
1700938960880235300,12.6142353515625,-0.19044265151023865,-4.870851039886475,8.513204574584961
1700938960897227500,12.6312275390625,-0.19884686172008514,-4.855203151702881,8.521947860717773
1700938960914221000,12.648220947265624,-0.20213474333286285,-4.839827060699463,8.530611038208008
1700938960931212800,12.665212890625,-0.20440873503684998,-4.825206756591797,8.538836479187012
1700938960948206300,12.682206298828126,-0.20794746279716492,-4.810323715209961,8.54714298248291
1700938960965198300,12.6991982421875,-0.2137204259634018,-4.79496955871582,8.55562686920166
1700938960982191600,12.716191650390625,-0.2195454090833664,-4.7824835777282715,8.56246280670166
1700938960999184100,12.73318408203125,-0.22256024181842804,-4.775693893432617,8.566174507141113
1700938961016177200,12.75017724609375,-0.22137092053890228,-4.773723602294922,8.567301750183105
1700938961033166800,12.767166748046876,-0.21790702641010284,-4.773861408233643,8.567314147949219
1700938961050165500,12.78416552734375,-0.21466416120529175,-4.774117469787598,8.567255020141602
1700938961067155000,12.801155029296876,-0.2133689969778061,-4.776022434234619,8.566225051879883
1700938961084155100,12.818155029296875,-0.2119685858488083,-4.780965805053711,8.563502311706543
1700938961101139000,12.835138916015625,-0.20913678407669067,-4.789153575897217,8.558993339538574
1700938961118133800,12.8521337890625,-0.20269256830215454,-4.8000311851501465,8.553054809570312
1700938961135126000,12.8691259765625,-0.19406500458717346,-4.810645580291748,8.54728889465332
1700938961152119000,12.886119140625,-0.19003042578697205,-4.819224834442139,8.542545318603516
1700938961169111600,12.903111572265624,-0.19030115008354187,-4.825375556945801,8.539067268371582
1700938961186104800,12.920104736328126,-0.19113729894161224,-4.830366134643555,8.536226272583008
1700938961203100400,12.937100341796874,-0.188351109623909,-4.836924076080322,8.532573699951172
1700938961220076500,12.95407666015625,-0.18431827425956726,-4.846221446990967,8.527384757995605
1700938961237082600,12.97108251953125,-0.18044567108154297,-4.857163429260254,8.521239280700684
1700938961254076200,12.988076171875,-0.17668181657791138,-4.866954326629639,8.515728950500488
1700938961271063000,13.00506298828125,-0.17658475041389465,-4.875767230987549,8.510689735412598
1700938961288061400,13.0220615234375,-0.1797042340040207,-4.884243488311768,8.50576114654541
1700938961305051100,13.039051025390625,-0.18473459780216217,-4.891584396362305,8.501435279846191
1700938961322049300,13.05604931640625,-0.18963105976581573,-4.897861957550049,8.497712135314941
1700938961339028700,13.07302880859375,-0.19332240521907806,-4.904124736785889,8.494014739990234
1700938961356032300,13.0900322265625,-0.19283533096313477,-4.911538124084473,8.489741325378418
1700938961373024500,13.1070244140625,-0.19030115008354187,-4.919502258300781,8.485186576843262
1700938961390018000,13.12401806640625,-0.18853996694087982,-4.925902366638184,8.481512069702148
1700938961407010600,13.141010498046874,-0.18855400383472443,-4.92873477935791,8.479866981506348
1700938961424003300,13.15800341796875,-0.19098469614982605,-4.929737567901611,8.479229927062988
1700938961440995800,13.174995849609376,-0.19626297056674957,-4.933063507080078,8.477173805236816
1700938961457976000,13.19197607421875,-0.20159973204135895,-4.940041542053223,8.472984313964844
1700938961474979300,13.208979248046875,-0.20347902178764343,-4.948750019073486,8.467856407165527
1700938961491978800,13.225978759765624,-0.20182660222053528,-4.955861568450928,8.46373462677002
1700938961508967000,13.242966796875,-0.2006670981645584,-4.958324909210205,8.462320327758789
1700938961525960000,13.2599599609375,-0.2027861326932907,-4.954604625701904,8.464447975158691
1700938961542952400,13.276952392578124,-0.20933441817760468,-4.94777250289917,8.46828556060791
1700938961559945700,13.29394580078125,-0.21573244035243988,-4.9423956871032715,8.47126293182373
1700938961576932900,13.310932861328125,-0.21855781972408295,-4.9404473304748535,8.472329139709473
1700938961593931300,13.32793115234375,-0.2172287553548813,-4.94066047668457,8.472236633300781
1700938961610923300,13.34492333984375,-0.21722757816314697,-4.939308166503906,8.47302532196045
1700938961627916500,13.36191650390625,-0.2240530401468277,-4.933627128601074,8.476155281066895
1700938961644909000,13.378908935546875,-0.23754899203777313,-4.924831390380859,8.480904579162598
1700938961661902000,13.395902099609375,-0.25260382890701294,-4.915836811065674,8.485687255859375
1700938961678894600,13.41289453125,-0.264498233795166,-4.913187503814697,8.486857414245605
1700938961695887000,13.42988720703125,-0.2726884186267853,-4.920334339141846,8.482457160949707
1700938961712880600,13.446880615234376,-0.27891045808792114,-4.933800220489502,8.474428176879883
1700938961729873200,13.463873046875,-0.28723978996276855,-4.947328090667725,8.466259956359863
1700938961746865400,13.480865478515625,-0.29791975021362305,-4.958935737609863,8.459096908569336
1700938961763858700,13.497858642578125,-0.30678820610046387,-4.9694600105285645,8.452600479125977
1700938961780851200,13.514851318359375,-0.31236588954925537,-4.979533672332764,8.446467399597168
1700938961797833700,13.531833740234376,-0.31503981351852417,-4.989419937133789,8.440530776977539
1700938961814836500,13.54883642578125,-0.31516844034194946,-5.000097751617432,8.434205055236816
1700938961831829800,13.565829833984376,-0.3140621483325958,-5.011474609375,8.427491188049316
1700938961848822000,13.582822021484375,-0.3101491928100586,-5.022756576538086,8.420916557312012
1700938961865807000,13.59980712890625,-0.30489489436149597,-5.032938480377197,8.41502857208252
1700938961882808800,13.616808837890625,-0.29798874258995056,-5.040361404418945,8.4108304977417
1700938961899799600,13.633799560546874,-0.28831860423088074,-5.044254779815674,8.408833503723145
1700938961916780000,13.650780029296875,-0.27643123269081116,-5.045895099639893,8.408248901367188
1700938961933789200,13.6677890625,-0.2672370672225952,-5.049060344696045,8.406644821166992
1700938961950778400,13.6847783203125,-0.26192954182624817,-5.057149410247803,8.401948928833008
1700938961967772000,13.70177197265625,-0.25711026787757874,-5.070326328277588,8.394153594970703
1700938961984764200,13.71876416015625,-0.2502076327800751,-5.084379196166992,8.385857582092285
1700938962001757700,13.7357578125,-0.24407215416431427,-5.093929767608643,8.380240440368652
1700938962018739000,13.752739013671874,-0.24307753145694733,-5.095904350280762,8.379068374633789
1700938962035743000,13.769742919921875,-0.24672619998455048,-5.092128276824951,8.381258010864258
1700938962052735200,13.7867353515625,-0.2513718008995056,-5.086065292358398,8.384800910949707
1700938962069728500,13.803728515625,-0.2546386420726776,-5.081925868988037,8.387210845947266
1700938962086720800,13.820720703125,-0.2558080852031708,-5.080085754394531,8.388290405273438
1700938962103714000,13.837714111328125,-0.2576330006122589,-5.077940940856934,8.389532089233398
1700938962120706300,13.854706298828125,-0.2621634304523468,-5.0720014572143555,8.392984390258789
1700938962137702100,13.8717021484375,-0.26772940158843994,-5.062553405761719,8.39851188659668
1700938962154681300,13.888681396484374,-0.2730240523815155,-5.0530266761779785,8.40407657623291
1700938962171685000,13.90568505859375,-0.2751278877258301,-5.046710014343262,8.40780258178711
1700938962188677400,13.922677490234374,-0.2723282277584076,-5.0447211265563965,8.409086227416992
1700938962205670700,13.939670654296876,-0.26558345556259155,-5.045286655426025,8.408965110778809
1700938962222663000,13.956662841796875,-0.25734707713127136,-5.045804023742676,8.40890884399414
1700938962239656200,13.97365625,-0.25232842564582825,-5.04293155670166,8.410784721374512
1700938962256658400,13.990658447265625,-0.24927031993865967,-5.036876201629639,8.414502143859863
1700938962273631200,14.00763134765625,-0.24392713606357574,-5.032685279846191,8.417167663574219
1700938962290625500,14.02462548828125,-0.23218943178653717,-5.03474235534668,8.416268348693848
1700938962307616000,14.041615966796876,-0.21622245013713837,-5.043015480041504,8.411739349365234
1700938962324617200,14.0586171875,-0.19863753020763397,-5.055027961730957,8.404960632324219
1700938962341606400,14.0756064453125,-0.18241266906261444,-5.0671515464782715,8.398025512695312
1700938962358598000,14.092597900390626,-0.16861090064048767,-5.075564861297607,8.393231391906738
1700938962375595800,14.109595703125,-0.15819993615150452,-5.081607341766357,8.389778137207031
1700938962392590600,14.126590576171875,-0.1469259113073349,-5.088874816894531,8.385576248168945
1700938962409586200,14.143586181640625,-0.1318921446800232,-5.098667144775391,8.379875183105469
1700938962426576400,14.160576416015624,-0.11667943745851517,-5.1099853515625,8.373204231262207
1700938962443569400,14.1775693359375,-0.10552587360143661,-5.1194844245910645,8.367547988891602
1700938962460561700,14.194561767578126,-0.09952136874198914,-5.122897148132324,8.365532875061035
1700938962477554000,14.211553955078125,-0.09688544273376465,-5.11728048324585,8.369000434875488
1700938962494548000,14.2285478515625,-0.09675563871860504,-5.106192588806152,8.375772476196289
1700938962511540200,14.245540283203125,-0.09902435541152954,-5.095246315002441,8.382408142089844
1700938962528532700,14.26253271484375,-0.10195088386535645,-5.086877346038818,8.387454986572266
1700938962545526500,14.279526611328125,-0.10467159748077393,-5.081352233886719,8.390769004821777
1700938962562518500,14.2965185546875,-0.1075589507818222,-5.079990386962891,8.391558647155762
1700938962579511600,14.313511474609374,-0.11201219260692596,-5.082342624664307,8.39007568359375
1700938962596510200,14.33051025390625,-0.11732263118028641,-5.086294174194336,8.38760757446289
1700938962613494500,14.34749462890625,-0.12188228964805603,-5.08976936340332,8.385436058044434
1700938962630492000,14.364491943359376,-0.12535378336906433,-5.092700481414795,8.383602142333984
1700938962647482400,14.381482421875,-0.12843409180641174,-5.096179008483887,8.381443977355957
1700938962664474600,14.398474609375,-0.1317564845085144,-5.10077428817749,8.378595352172852
1700938962681468400,14.415468505859375,-0.1347648799419403,-5.106163024902344,8.375265121459961
1700938962698460200,14.432460205078126,-0.13574662804603577,-5.111905574798584,8.371744155883789
1700938962715453700,14.44945361328125,-0.13427722454071045,-5.116993427276611,8.368660926818848
1700938962732445700,14.46644580078125,-0.13132086396217346,-5.120908260345459,8.366312026977539
1700938962749439200,14.483439208984375,-0.12805987894535065,-5.123100280761719,8.365020751953125
1700938962766431200,14.50043115234375,-0.12498599290847778,-5.1248860359191895,8.363973617553711
1700938962783424500,14.517424560546875,-0.12145836651325226,-5.128326892852783,8.36191463470459
1700938962800417000,14.5344169921875,-0.11662213504314423,-5.133052349090576,8.359084129333496
1700938962817410300,14.551410400390624,-0.11086145788431168,-5.138552665710449,8.355782508850098
1700938962834402600,14.568402587890626,-0.10499845445156097,-5.144170761108398,8.352399826049805
1700938962851395800,14.585395751953126,-0.09875714033842087,-5.148822784423828,8.349611282348633
1700938962868385500,14.602385498046875,-0.093373604118824,-5.151788234710693,8.3478422164917
1700938962885384200,14.61938427734375,-0.08929400146007538,-5.153891563415527,8.346588134765625
1700938962902371000,14.63637109375,-0.08684343844652176,-5.154937267303467,8.345969200134277
1700938962919369500,14.653369384765625,-0.0878438949584961,-5.154196739196777,8.346415519714355
1700938962936347600,14.67034765625,-0.08884260058403015,-5.153298377990723,8.34696102142334
1700938962953340700,14.687340576171875,-0.0870475023984909,-5.152429103851318,8.347515106201172
1700938962970347300,14.70434716796875,-0.08494718372821808,-5.152646541595459,8.347402572631836
1700938962987338000,14.721337890625,-0.08572719991207123,-5.1518778800964355,8.347868919372559
1700938963004323800,14.73832373046875,-0.08886013925075531,-5.148613929748535,8.349848747253418
1700938963021322200,14.755322265625,-0.09206324815750122,-5.142332077026367,8.353684425354004
1700938963038305000,14.772304931640624,-0.09445007890462875,-5.132996082305908,8.359399795532227
1700938963055298600,14.789298583984374,-0.09607969969511032,-5.122010231018066,8.366116523742676
1700938963072295400,14.80629541015625,-0.09803266823291779,-5.111023426055908,8.372811317443848
1700938963089291500,14.82329150390625,-0.10049609839916229,-5.100980281829834,8.37890338897705
1700938963106282800,14.84028271484375,-0.10303086787462234,-5.09262228012085,8.383955955505371
1700938963123271700,14.857271728515625,-0.10476339608430862,-5.085412502288818,8.38830852508545
1700938963140267800,14.874267822265624,-0.10775366425514221,-5.078719615936279,8.392324447631836
1700938963157254000,14.89125390625,-0.11235132813453674,-5.073562145233154,8.395383834838867
1700938963174251300,14.908251220703125,-0.11842834204435349,-5.070381164550781,8.397222518920898
1700938963191241500,14.925241455078124,-0.12528187036514282,-5.069520473480225,8.397643089294434
1700938963208236000,14.942236083984374,-0.13194943964481354,-5.071761608123779,8.396185874938965
1700938963225229600,14.9592294921875,-0.1383281648159027,-5.07495641708374,8.394153594970703
1700938963242221300,14.97622119140625,-0.14419527351856232,-5.077493190765381,8.392518043518066
1700938963259215000,14.993215087890626,-0.1483502984046936,-5.079026699066162,8.391518592834473
1700938963276205000,15.010205078125,-0.15008340775966644,-5.0797224044799805,8.391066551208496
1700938963293207800,15.027207763671875,-0.1515563279390335,-5.079292297363281,8.391302108764648
1700938963310199800,15.04419970703125,-0.15502314269542694,-5.078378200531006,8.391790390014648
1700938963327193300,15.061193359375,-0.1612299680709839,-5.077173233032227,8.392404556274414
1700938963344185900,15.078185791015626,-0.16759173572063446,-5.075948715209961,8.393019676208496
1700938963361179000,15.095178955078126,-0.17268817126750946,-5.07546854019165,8.393206596374512
1700938963378183200,15.11218310546875,-0.1756228804588318,-5.076412677764893,8.39257526397705
1700938963395164400,15.129164306640625,-0.17749866843223572,-5.0780768394470215,8.39152717590332
1700938963412156700,15.14615673828125,-0.18023048341274261,-5.0802741050720215,8.390140533447266
1700938963429150000,15.16314990234375,-0.18430015444755554,-5.0851287841796875,8.38711166381836
1700938963446142200,15.18014208984375,-0.18878555297851562,-5.093140125274658,8.382146835327148
1700938963463125000,15.197125,-0.1932159811258316,-5.102595806121826,8.37629508972168
1700938963480127700,15.214127685546876,-0.1967494636774063,-5.111395835876465,8.370845794677734
1700938963497121300,15.231121337890626,-0.200802743434906,-5.118288993835449,8.366535186767578
1700938963514110000,15.24810986328125,-0.2039707750082016,-5.121518135070801,8.364481925964355
1700938963531110400,15.2651103515625,-0.2049490064382553,-5.1208176612854,8.364887237548828
1700938963548098800,15.282098876953125,-0.2038181573152542,-5.116331577301025,8.367660522460938
1700938963565092000,15.299092041015625,-0.20321647822856903,-5.109189033508301,8.372036933898926
1700938963582080800,15.316080810546875,-0.2057114839553833,-5.102752685546875,8.375899314880371
1700938963599078000,15.333077880859374,-0.21133066713809967,-5.1004319190979,8.377175331115723
1700938963616063000,15.35006298828125,-0.21762168407440186,-5.102883338928223,8.375520706176758
1700938963633059800,15.367059814453125,-0.2205844670534134,-5.1073198318481445,8.372737884521484
1700938963650059000,15.38405908203125,-0.21795789897441864,-5.1089701652526855,8.371798515319824
1700938963667046400,15.40104638671875,-0.21440337598323822,-5.10528039932251,8.374141693115234
1700938963684043800,15.418043701171875,-0.21354033052921295,-5.097835540771484,8.37869930267334
1700938963701034500,15.435034423828125,-0.2163545936346054,-5.090953350067139,8.382810592651367
1700938963718016500,15.4520166015625,-0.21976761519908905,-5.08797550201416,8.384530067443848
1700938963735020000,15.46902001953125,-0.221781387925148,-5.0898590087890625,8.383332252502441
1700938963752012300,15.48601220703125,-0.22185973823070526,-5.095282554626465,8.380035400390625
1700938963769005600,15.503005615234375,-0.22235149145126343,-5.100902557373047,8.376603126525879
1700938963785998000,15.519998046875,-0.22317244112491608,-5.104170322418213,8.374588966369629
1700938963802991000,15.5369912109375,-0.22374722361564636,-5.10627555847168,8.373292922973633
1700938963819983400,15.5539833984375,-0.22389398515224457,-5.108761787414551,8.371771812438965
1700938963836976600,15.5709765625,-0.22298650443553925,-5.11344051361084,8.368938446044922
1700938963853969200,15.58796923828125,-0.21942028403282166,-5.1194963455200195,8.365327835083008
1700938963870965000,15.604965087890625,-0.21121780574321747,-5.125153541564941,8.362074851989746
1700938963887951600,15.62195166015625,-0.20163656771183014,-5.129861831665039,8.359424591064453
1700938963904948000,15.638947998046875,-0.19164016842842102,-5.134119033813477,8.35704517364502
1700938963921940200,15.655940185546875,-0.18223141133785248,-5.136626720428467,8.35571575164795
1700938963938933200,15.672933349609375,-0.17226774990558624,-5.135895729064941,8.356376647949219
1700938963955925800,15.68992578125,-0.1625426560640335,-5.133622646331787,8.3579683303833
1700938963972919000,15.7069189453125,-0.1502576619386673,-5.132388591766357,8.358954429626465
1700938963989911000,15.7239111328125,-0.13675527274608612,-5.131552219390869,8.359699249267578
1700938964006904800,15.74090478515625,-0.12518714368343353,-5.131141662597656,8.360132217407227
1700938964023896000,15.75789599609375,-0.11572575569152832,-5.131916522979736,8.359794616699219
1700938964040889900,15.774889892578125,-0.10680349171161652,-5.133049964904785,8.359217643737793
1700938964057871600,15.79187158203125,-0.09718482196331024,-5.13385534286499,8.35883903503418
1700938964074875400,15.80887548828125,-0.08690483123064041,-5.134847164154053,8.358344078063965
1700938964091867600,15.82586767578125,-0.07805155962705612,-5.136593818664551,8.3573579788208
1700938964108850400,15.842850341796876,-0.07210026681423187,-5.137505531311035,8.356850624084473
1700938964125853700,15.859853759765626,-0.06798791885375977,-5.137689113616943,8.356771469116211
1700938964142846500,15.876846435546875,-0.0652175098657608,-5.137340545654297,8.357009887695312
1700938964159839000,15.8938388671875,-0.06313998997211456,-5.1355061531066895,8.358150482177734
1700938964176821800,15.91082177734375,-0.06098412349820137,-5.131704330444336,8.360503196716309
1700938964193824500,15.927824462890625,-0.058603137731552124,-5.126593112945557,8.363654136657715
1700938964210817500,15.944817626953125,-0.05736235901713371,-5.121880531311035,8.36655044555664
1700938964227809800,15.961809814453124,-0.05845286324620247,-5.119800567626953,8.367815971374512
1700938964244803000,15.978802978515626,-0.061609189957380295,-5.119973182678223,8.36768913269043
1700938964261784800,15.995784912109375,-0.06460939347743988,-5.11945104598999,8.367984771728516
1700938964278778600,16.012778564453125,-0.06592969596385956,-5.116251468658447,8.369932174682617
1700938964295781000,16.029781005859373,-0.06674421578645706,-5.10988712310791,8.373811721801758
1700938964312774700,16.046774658203127,-0.0696461871266365,-5.101373195648193,8.378976821899414
1700938964329766700,16.0637666015625,-0.0730048269033432,-5.094106674194336,8.383366584777832
1700938964346759700,16.080759765625,-0.07365269958972931,-5.08984899520874,8.385948181152344
1700938964363752000,16.097751953125,-0.07137754559516907,-5.087828159332275,8.38719367980957
1700938964380745700,16.114745849609374,-0.06959005445241928,-5.085450172424316,8.388651847839355
1700938964397731600,16.131731689453126,-0.06882055848836899,-5.081754684448242,8.390896797180176
1700938964414731000,16.14873095703125,-0.07072441279888153,-5.076982021331787,8.393769264221191
1700938964431720700,16.165720703125,-0.07478530704975128,-5.0722880363464355,8.396573066711426
1700938964448719400,16.18271923828125,-0.07857196033000946,-5.069438934326172,8.3982572555542
1700938964465709000,16.199708984375,-0.07966656237840652,-5.068637847900391,8.398730278015137
1700938964482702000,16.2167021484375,-0.07939057052135468,-5.06932258605957,8.398320198059082
1700938964499687200,16.233687255859376,-0.0779954269528389,-5.070580959320068,8.397573471069336
1700938964516688100,16.250688232421876,-0.07683475315570831,-5.071505546569824,8.397027015686035
1700938964533677600,16.267677490234377,-0.07665407657623291,-5.070840835571289,8.397429466247559
1700938964550676000,16.284676025390624,-0.07740719616413116,-5.0698933601379395,8.397994041442871
1700938964567665700,16.301665771484377,-0.07749022543430328,-5.069737911224365,8.398088455200195
1700938964584659000,16.318658935546875,-0.07658332586288452,-5.07025146484375,8.397785186767578
1700938964601651200,16.335651123046876,-0.07496189326047897,-5.071709632873535,8.396919250488281
1700938964618644500,16.35264453125,-0.07272474467754364,-5.074002742767334,8.395552635192871
1700938964635636700,16.36963671875,-0.06992217898368835,-5.076203346252441,8.394247055053711
1700938964652629800,16.386629638671874,-0.06662435084581375,-5.076927185058594,8.39383602142334
1700938964669622000,16.4036220703125,-0.062272265553474426,-5.076847553253174,8.39391803741455
1700938964686615800,16.42061572265625,-0.057102154940366745,-5.076520919799805,8.39415168762207
1700938964703597800,16.437597900390625,-0.05275767669081688,-5.0765485763549805,8.394163131713867
1700938964720604000,16.45460400390625,-0.04928676784038544,-5.077755451202393,8.393455505371094
1700938964737596000,16.471595947265627,-0.04673328995704651,-5.080137252807617,8.392027854919434
1700938964754584000,16.488583984375,-0.044219572097063065,-5.07979154586792,8.392252922058105
1700938964771578600,16.50557861328125,-0.04101354256272316,-5.073531627655029,8.396053314208984
1700938964788572200,16.522572265625,-0.03660883381962776,-5.0635175704956055,8.402117729187012
1700938964805564700,16.539564697265625,-0.032140977680683136,-5.050297737121582,8.410087585449219
1700938964822557700,16.5565576171875,-0.029407987371087074,-5.037286281585693,8.417898178100586
1700938964839550200,16.57355029296875,-0.026603078469634056,-5.027604103088379,8.423694610595703
1700938964856543000,16.59054296875,-0.02424314245581627,-5.023495674133301,8.426151275634766
1700938964873535200,16.60753515625,-0.02512197755277157,-5.026312828063965,8.424468040466309
1700938964890529300,16.624529296875,-0.027981851249933243,-5.034982681274414,8.419280052185059
1700938964907519000,16.64151904296875,-0.029844189062714577,-5.044021129608154,8.413861274719238
1700938964924516600,16.6585166015625,-0.031374406069517136,-5.047555446624756,8.411738395690918
1700938964941504300,16.675504150390626,-0.03395478427410126,-5.0449371337890625,8.413298606872559
1700938964958502700,16.692502685546874,-0.03868108615279198,-5.040046691894531,8.416207313537598
1700938964975492400,16.709492431640626,-0.04439206421375275,-5.036342144012451,8.41839599609375
1700938964992482800,16.72648291015625,-0.04914234206080437,-5.036164283752441,8.418477058410645
1700938965009480700,16.743480712890626,-0.05306348577141762,-5.0400824546813965,8.416107177734375
1700938965026471200,16.76047119140625,-0.05853647738695145,-5.045398712158203,8.412885665893555
1700938965043463200,16.777463134765625,-0.06621094793081284,-5.0484724044799805,8.410984992980957
1700938965060456700,16.794456787109375,-0.07423800975084305,-5.048749923706055,8.410750389099121
1700938965077448000,16.811447998046877,-0.080179363489151,-5.047577381134033,8.41140079498291
1700938965094443500,16.828443603515623,-0.08345789462327957,-5.046712398529053,8.411887168884277
1700938965111434500,16.8454345703125,-0.08403267711400986,-5.046494007110596,8.41201114654541
1700938965128427800,16.862427734375,-0.08260361850261688,-5.0452094078063965,8.412796974182129
1700938965145420000,16.879419921875,-0.08035945892333984,-5.040683746337891,8.41553020477295
1700938965162413300,16.896413330078126,-0.0769943818449974,-5.0318732261657715,8.420835494995117
1700938965179405600,16.913405517578123,-0.07347143441438675,-5.022365093231201,8.42654037475586
1700938965196398800,16.93039892578125,-0.07078581303358078,-5.015817642211914,8.430461883544922
1700938965213391000,16.94739111328125,-0.06968069076538086,-5.012975692749023,8.432162284851074
1700938965230384600,16.964384521484376,-0.06993679702281952,-5.012023448944092,8.432723999023438
1700938965247374000,16.9813740234375,-0.07073727995157242,-5.011397838592529,8.433090209960938
1700938965264372700,16.998372802734377,-0.07052677869796753,-5.01118803024292,8.433218002319336
1700938965281363700,17.01536376953125,-0.07070979475975037,-5.010836124420166,8.43342399597168
1700938965298356200,17.032356201171876,-0.07114190608263016,-5.010727405548096,8.43348503112793
1700938965315346200,17.04934619140625,-0.0696701630949974,-5.012002468109131,8.4327392578125
1700938965332339200,17.066339111328126,-0.06620451807975769,-5.01363468170166,8.43179702758789
1700938965349335000,17.0833349609375,-0.06381884962320328,-5.015051364898682,8.4309720993042
1700938965366322000,17.100322021484374,-0.06305404007434845,-5.016217231750488,8.43028450012207
1700938965383319300,17.1173193359375,-0.06391357630491257,-5.0188374519348145,8.428718566894531
1700938965400312300,17.134312255859374,-0.06377558410167694,-5.023082256317139,8.426192283630371
1700938965417304600,17.1513046875,-0.060915712267160416,-5.028910160064697,8.422734260559082
1700938965434298000,17.168298095703125,-0.05684780329465866,-5.035759925842285,8.418670654296875
1700938965451290000,17.1852900390625,-0.053473375737667084,-5.042130470275879,8.414877891540527
1700938965468280800,17.20228076171875,-0.05143094062805176,-5.046355247497559,8.412357330322266
1700938965485278500,17.219278564453123,-0.049320682883262634,-5.049391269683838,8.410548210144043
1700938965502269200,17.236269287109376,-0.04808223992586136,-5.0526347160339355,8.408607482910156
1700938965519261200,17.25326123046875,-0.049262210726737976,-5.055993556976318,8.40658187866211
1700938965536237300,17.2702373046875,-0.05656713619828224,-5.05997896194458,8.40413761138916
1700938965553257500,17.287257568359376,-0.06381241977214813,-5.065161228179932,8.40096378326416
1700938965570240300,17.304240234375,-0.06531047821044922,-5.069243907928467,8.398488998413086
1700938965587232300,17.321232177734377,-0.06291370093822479,-5.06886100769043,8.398737907409668
1700938965604215800,17.3382158203125,-0.05962464585900307,-5.0655035972595215,8.400788307189941
1700938965621218000,17.355218017578125,-0.055567845702171326,-5.059929370880127,8.4041748046875
1700938965638208800,17.372208740234374,-0.05411949008703232,-5.051833629608154,8.409050941467285
1700938965655206100,17.3892060546875,-0.055501773953437805,-5.0418701171875,8.415022850036621
1700938965672197000,17.406197021484374,-0.056388210505247116,-5.033563613891602,8.4199857711792
1700938965689188900,17.42318896484375,-0.054776716977357864,-5.0287089347839355,8.422898292541504
1700938965706180000,17.44018017578125,-0.0532120019197464,-5.025935649871826,8.424562454223633
1700938965723177500,17.457177490234375,-0.05068717524409294,-5.0241899490356445,8.425621032714844
1700938965740165600,17.47416552734375,-0.04526212811470032,-5.024718284606934,8.425334930419922
1700938965757149000,17.49114892578125,-0.0391254760324955,-5.02632474899292,8.424408912658691
1700938965774148600,17.508148681640623,-0.036553286015987396,-5.027065753936768,8.423977851867676
1700938965791136500,17.525136474609376,-0.03639599680900574,-5.0265679359436035,8.424274444580078
1700938965808134700,17.542134765625,-0.035662755370140076,-5.025112628936768,8.425146102905273
1700938965825126000,17.5591259765625,-0.03520433232188225,-5.022762775421143,8.426548957824707
1700938965842113300,17.57611328125,-0.03532244637608528,-5.020582675933838,8.427848815917969
1700938965859119400,17.593119384765625,-0.03562942519783974,-5.0206427574157715,8.427810668945312
1700938965876110300,17.6101103515625,-0.03633635491132736,-5.02353048324585,8.426085472106934
1700938965893102600,17.6271025390625,-0.03691347315907478,-5.028550624847412,8.423090934753418
1700938965910096000,17.644095947265626,-0.035791393369436264,-5.033576488494873,8.420092582702637
1700938965927088400,17.66108837890625,-0.03353261202573776,-5.035231113433838,8.419111251831055
1700938965944081700,17.67808154296875,-0.031724654138088226,-5.033366680145264,8.420233726501465
1700938965961074000,17.695073974609375,-0.03065110556781292,-5.030546188354492,8.42192268371582
1700938965978067000,17.71206689453125,-0.02796606346964836,-5.028454780578613,8.423179626464844
1700938965995059500,17.7290595703125,-0.02307603694498539,-5.026232719421387,8.42452335357666
1700938966012050200,17.74605029296875,-0.017864998430013657,-5.024386405944824,8.425637245178223
1700938966029047600,17.763047607421875,-0.013637461699545383,-5.0236287117004395,8.42609691619873
1700938966046038000,17.7800380859375,-0.011251797899603844,-5.023649215698242,8.426087379455566
1700938966063030500,17.797030517578126,-0.009285379201173782,-5.024537086486816,8.425559997558594
1700938966080023800,17.81402392578125,-0.00758734717965126,-5.026752471923828,8.424239158630371
1700938966097016000,17.83101611328125,-0.004735075403004885,-5.030468463897705,8.42202377319336
1700938966114009300,17.84800927734375,-0.0017997730756178498,-5.0349440574646,8.419351577758789
1700938966131002400,17.86500244140625,0.0013512915465980768,-5.039531707763672,8.416604995727539
1700938966147994600,17.88199462890625,0.0037468960508704185,-5.044686317443848,8.4135160446167
1700938966164987400,17.8989873046875,0.0037299389950931072,-5.0504655838012695,8.41004753112793
1700938966181978000,17.91597802734375,-0.0005291730631142855,-5.056642055511475,8.406336784362793
1700938966198971400,17.932971435546875,-0.006057131104171276,-5.061951160430908,8.403139114379883
1700938966215970600,17.949970458984374,-0.008180839940905571,-5.065212726593018,8.40117073059082
1700938966232958500,17.96695849609375,-0.0066798594780266285,-5.065263748168945,8.401141166687012
1700938966249951700,17.98395166015625,-0.004949083551764488,-5.063314914703369,8.402318000793457
1700938966266944300,18.0009443359375,-0.006093968637287617,-5.061445236206055,8.4034423828125
1700938966283937300,18.017937255859376,-0.008402449078857899,-5.060179710388184,8.404202461242676
1700938966300929800,18.0349296875,-0.010198714211583138,-5.05990743637085,8.404365539550781
1700938966317912300,18.051912353515625,-0.01131553202867508,-5.0608134269714355,8.403818130493164
1700938966334915300,18.068915283203125,-0.013059756718575954,-5.063180446624756,8.402387619018555
1700938966351908600,18.08590869140625,-0.01517469435930252,-5.067388534545898,8.399849891662598
1700938966368900900,18.10290087890625,-0.01764514297246933,-5.0738701820373535,8.3959321975708
1700938966385893400,18.119893310546875,-0.01966126263141632,-5.082794666290283,8.39052677154541
1700938966402886400,18.136886474609376,-0.02131544053554535,-5.092502117156982,8.384634971618652
1700938966419879700,18.153879638671874,-0.023052649572491646,-5.10057258605957,8.37972354888916
1700938966436865300,18.170865234375,-0.025114376097917557,-5.106173038482666,8.376303672790527
1700938966453855000,18.18785498046875,-0.02808242291212082,-5.110783576965332,8.373483657836914
1700938966470860000,18.204860107421876,-0.03039558231830597,-5.115034580230713,8.370878219604492
1700938966487850800,18.221850830078125,-0.03186031058430672,-5.119818687438965,8.367947578430176
1700938966504843300,18.23884326171875,-0.03240351751446724,-5.125746250152588,8.364317893981934
1700938966521825000,18.255824951171874,-0.033865321427583694,-5.131967544555664,8.360496520996094
1700938966538819600,18.272819580078124,-0.035646967589855194,-5.137192726135254,8.357278823852539
1700938966555814000,18.28981396484375,-0.03603756055235863,-5.141851425170898,8.354411125183105
1700938966572803600,18.306803466796875,-0.033230897039175034,-5.148754119873047,8.35016918182373
1700938966589798000,18.3237978515625,-0.025903167203068733,-5.157851219177246,8.344579696655273
1700938966606788900,18.340788818359375,-0.015967577695846558,-5.166045188903809,8.339534759521484
1700938966623779000,18.357779052734376,-0.005860079545527697,-5.171384334564209,8.336237907409668
1700938966640776400,18.3747763671875,0.001031448831781745,-5.1735382080078125,8.334904670715332
1700938966657769200,18.391769287109376,0.004419325850903988,-5.173315525054932,8.335041046142578
1700938966674763500,18.408763427734375,0.002640602644532919,-5.172557830810547,8.335511207580566
1700938966691756300,18.42575634765625,-0.0010834891581907868,-5.172415733337402,8.335600852966309
1700938966708745500,18.442745361328125,-0.005124500021338463,-5.173511981964111,8.334918022155762
1700938966725741000,18.459740966796875,-0.010654211975634098,-5.17426872253418,8.334444046020508
1700938966742733300,18.4767333984375,-0.02060091122984886,-5.174038887023926,8.33456802368164
1700938966759726800,18.493726806640623,-0.03446933627128601,-5.174889087677002,8.333992958068848
1700938966776716800,18.510716796875,-0.04986798018217087,-5.177203178405762,8.332479476928711
1700938966793720800,18.527720947265625,-0.06595835089683533,-5.179445266723633,8.330973625183105
1700938966810716000,18.5447158203125,-0.08326727896928787,-5.179913520812988,8.330526351928711
1700938966827704300,18.561704345703124,-0.10119367390871048,-5.177523612976074,8.331814765930176
1700938966844701200,18.578701171875,-0.1174962967634201,-5.170081615447998,8.33621883392334
1700938966861704200,18.5957041015625,-0.13220730423927307,-5.15845251083374,8.343199729919434
1700938966878684400,18.612684326171873,-0.14499692618846893,-5.147257328033447,8.349899291992188
1700938966895678000,18.629677978515623,-0.15528976917266846,-5.141055107116699,8.353535652160645
1700938966912670000,18.646669921875,-0.16405007243156433,-5.14047384262085,8.353726387023926
1700938966929646300,18.663646240234375,-0.16997095942497253,-5.144819259643555,8.350932121276855
1700938966946655500,18.680655517578124,-0.1730746626853943,-5.151838302612305,8.346539497375488
1700938966963649000,18.69764892578125,-0.174016073346138,-5.158705234527588,8.342277526855469
1700938966980638700,18.714638671875,-0.17609241604804993,-5.163769721984863,8.33910083770752
1700938966997637000,18.73163720703125,-0.1805398017168045,-5.16750431060791,8.336691856384277
1700938967014626800,18.748626708984375,-0.18748220801353455,-5.169035911560059,8.335589408874512
1700938967031617500,18.765617431640624,-0.19636061787605286,-5.167942047119141,8.336063385009766
1700938967048615000,18.782614990234375,-0.20575885474681854,-5.165902614593506,8.337099075317383
1700938967065602800,18.799602783203124,-0.21251413226127625,-5.164279937744141,8.337935447692871
1700938967082600700,18.8166005859375,-0.21452674269676208,-5.162677764892578,8.338874816894531
1700938967099591200,18.833591064453124,-0.2099355161190033,-5.16057014465332,8.340296745300293
1700938967116583400,18.85058349609375,-0.20076590776443481,-5.1571044921875,8.342667579650879
1700938967133572400,18.867572265625,-0.18772953748703003,-5.1496782302856445,8.347557067871094
1700938967150573800,18.88457373046875,-0.17063754796981812,-5.136879920959473,8.355805397033691
1700938967167562200,18.901562255859375,-0.14891046285629272,-5.120415687561035,8.36631965637207
1700938967184555000,18.918554931640625,-0.12484098225831985,-5.103817462921143,8.376847267150879
1700938967201547800,18.9355478515625,-0.09877467900514603,-5.08929967880249,8.38602352142334
1700938967218540300,18.952540283203124,-0.07036072015762329,-5.078466415405273,8.392874717712402
1700938967235533600,18.969533447265626,-0.03958740457892418,-5.072717189788818,8.396552085876465
1700938967252523300,18.986523193359375,-0.010475872084498405,-5.073028087615967,8.396450996398926
1700938967269522000,19.00352197265625,0.014211658388376236,-5.078874588012695,8.392909049987793
1700938967286511600,19.02051171875,0.03567678853869438,-5.090372562408447,8.385878562927246
1700938967303505000,19.0375048828125,0.05688639357686043,-5.108032703399658,8.375016212463379
1700938967320497200,19.0544970703125,0.07727622240781784,-5.130502700805664,8.361105918884277
1700938967337490400,19.071490478515624,0.0965995118021965,-5.155344009399414,8.345611572265625
1700938967354482700,19.088482666015626,0.11609998345375061,-5.180980682373047,8.329471588134766
1700938967371476000,19.10547607421875,0.132815420627594,-5.2065043449401855,8.313288688659668
1700938967388478000,19.12247802734375,0.14255745708942413,-5.229763984680176,8.298517227172852
1700938967405458400,19.13945849609375,0.14554305374622345,-5.249416828155518,8.28604507446289
1700938967422455600,19.15645556640625,0.14582839608192444,-5.265056610107422,8.276111602783203
1700938967439448600,19.173448486328127,0.1464669108390808,-5.2762675285339355,8.268957138061523
1700938967456449500,19.190449462890626,0.1475229114294052,-5.282111644744873,8.265207290649414
1700938967473432600,19.2074326171875,0.14811758697032928,-5.28336238861084,8.264398574829102
1700938967490424800,19.2244248046875,0.14851519465446472,-5.282405853271484,8.265000343322754
1700938967507414300,19.241414306640625,0.1507008820772171,-5.281426429748535,8.265588760375977
1700938967524414500,19.25841455078125,0.1554710417985916,-5.281400203704834,8.26551628112793
1700938967541393700,19.2753935546875,0.15972431004047394,-5.281465530395508,8.26539421081543
1700938967558396200,19.292396240234375,0.16207721829414368,-5.280667304992676,8.265856742858887
1700938967575389700,19.3093896484375,0.16443072259426117,-5.279162883758545,8.266773223876953
1700938967592384800,19.326384765625,0.16806185245513916,-5.27678918838501,8.268214225769043
1700938967609372000,19.343371826171875,0.17181342840194702,-5.274014472961426,8.26990795135498
1700938967626367200,19.3603671875,0.17646780610084534,-5.2721686363220215,8.270986557006836
1700938967643360500,19.377360595703124,0.1823384165763855,-5.272090911865234,8.270910263061523
1700938967660353000,19.39435302734375,0.1891176700592041,-5.272988319396973,8.270185470581055
1700938967677346300,19.41134619140625,0.19677869975566864,-5.272207736968994,8.270503997802734
1700938967694336000,19.4283359375,0.20562085509300232,-5.269822120666504,8.271808624267578
1700938967711334400,19.44533447265625,0.21511907875537872,-5.267117500305176,8.273289680480957
1700938967728313000,19.46231298828125,0.22291283309459686,-5.264362335205078,8.274837493896484
1700938967745317400,19.4793173828125,0.22835716605186462,-5.261384010314941,8.276581764221191
1700938967762310000,19.496309814453124,0.23362785577774048,-5.25822114944458,8.27844524383545
1700938967779306500,19.513306396484374,0.23902425169944763,-5.255315780639648,8.280136108398438
1700938967796291800,19.530291748046874,0.24220804870128632,-5.253622531890869,8.28111743927002
1700938967813288400,19.547288330078125,0.24391193687915802,-5.254276752471924,8.280652046203613
1700938967830281200,19.56428125,0.24660515785217285,-5.257272720336914,8.278670310974121
1700938967847274000,19.58127392578125,0.25034385919570923,-5.260491847991943,8.276514053344727
1700938967864266800,19.598266845703126,0.25274065136909485,-5.263260841369629,8.274678230285645
1700938967881265000,19.615264892578125,0.2530546486377716,-5.266015529632568,8.272917747497559
1700938967898252000,19.632251953125,0.2520343065261841,-5.269087791442871,8.270992279052734
1700938967915237000,19.649237060546874,0.250988245010376,-5.273684024810791,8.268095016479492
1700938967932223200,19.66622314453125,0.24906332790851593,-5.281019687652588,8.263468742370605
1700938967949233700,19.683233642578124,0.24575848877429962,-5.29113245010376,8.257095336914062
1700938967966223400,19.700223388671876,0.24296292662620544,-5.3012261390686035,8.250703811645508
1700938967983216600,19.717216552734374,0.24269454181194305,-5.309211254119873,8.245575904846191
1700938968000209200,19.734209228515624,0.24270974099636078,-5.313092231750488,8.243074417114258
1700938968017202200,19.7512021484375,0.24125319719314575,-5.310733318328857,8.244636535644531
1700938968034194700,19.768194580078124,0.23796121776103973,-5.301896572113037,8.250417709350586
1700938968051187700,19.785187744140625,0.23525863885879517,-5.289638996124268,8.258359909057617
1700938968068180200,19.80218017578125,0.23488441109657288,-5.276989936828613,8.266456604003906
1700938968085173500,19.819173583984377,0.23588545620441437,-5.266208648681641,8.27330207824707
1700938968102165800,19.836165771484374,0.2364099621772766,-5.257935047149658,8.278545379638672
1700938968119148800,19.853148681640626,0.23616261780261993,-5.2501420974731445,8.283498764038086
1700938968136151300,19.8701513671875,0.2356860637664795,-5.2413835525512695,8.289058685302734
1700938968153144600,19.88714453125,0.23456399142742157,-5.231795787811279,8.29514217376709
1700938968170133800,19.9041337890625,0.2331957370042801,-5.223730087280273,8.300264358520508
1700938968187133200,19.92113330078125,0.2322496622800827,-5.2184929847717285,8.303584098815918
1700938968204122600,19.93812255859375,0.23289519548416138,-5.216640949249268,8.304729461669922
1700938968221116000,19.955115966796875,0.23480547964572906,-5.218089580535889,8.303765296936035
1700938968238098400,19.972098388671874,0.23680171370506287,-5.220119476318359,8.302433013916016
1700938968255099100,19.98909912109375,0.23844127357006073,-5.218360900878906,8.303492546081543
1700938968272094000,20.006093994140624,0.23836877942085266,-5.211421012878418,8.307849884033203
1700938968289087200,20.023087158203126,0.235328808426857,-5.2019476890563965,8.313872337341309
1700938968306079200,20.040079345703123,0.2319011688232422,-5.192899703979492,8.319622993469238
1700938968323072800,20.05707275390625,0.23135386407375336,-5.185940742492676,8.32397747039795
1700938968340064800,20.074064697265626,0.23319105803966522,-5.181457042694092,8.3267183303833
1700938968357058600,20.09105859375,0.23565976321697235,-5.17847204208374,8.328506469726562
1700938968374050300,20.10805029296875,0.23752501606941223,-5.174905776977539,8.330668449401855
1700938968391043800,20.1250439453125,0.23748116195201874,-5.1696553230285645,8.333930969238281
1700938968408036400,20.142036376953126,0.2363947480916977,-5.162704944610596,8.338269233703613
1700938968425029400,20.159029296875,0.2360643893480301,-5.156123638153076,8.3423490524292
1700938968442021600,20.176021728515625,0.23523758351802826,-5.1510515213012695,8.345504760742188
1700938968459015000,20.193014892578127,0.233888640999794,-5.148565292358398,8.347078323364258
1700938968476007200,20.210007080078125,0.232259601354599,-5.148552417755127,8.34713077545166
1700938968493000700,20.227000732421875,0.22876004874706268,-5.147395610809326,8.347939491271973
1700938968509992700,20.24399267578125,0.2225847989320755,-5.143479347229004,8.3505220413208
1700938968526986000,20.260986083984374,0.21537458896636963,-5.137571334838867,8.354345321655273
1700938968543978200,20.277978271484375,0.20833513140678406,-5.132381439208984,8.35771369934082
1700938968560972300,20.29497216796875,0.20225168764591217,-5.128687858581543,8.360130310058594
1700938968577953500,20.31195361328125,0.19663777947425842,-5.125152587890625,8.362432479858398
1700938968594957600,20.32895751953125,0.18966029584407806,-5.119231700897217,8.366219520568848
1700938968611949800,20.34594970703125,0.18176421523094177,-5.111003875732422,8.371423721313477
1700938968628942800,20.36294287109375,0.17517440021038055,-5.102489948272705,8.37675666809082
1700938968645935400,20.379935302734374,0.1697090119123459,-5.096597671508789,8.380455017089844
1700938968662910500,20.396910400390624,0.16483360528945923,-5.094974517822266,8.381537437438965
1700938968679919600,20.413919677734373,0.161318838596344,-5.096948623657227,8.380406379699707
1700938968696915500,20.43091552734375,0.16166383028030396,-5.100916862487793,8.377984046936035
1700938968713906700,20.44790673828125,0.165147602558136,-5.104294776916504,8.375859260559082
1700938968730900000,20.46489990234375,0.16937629878520966,-5.1060404777526855,8.374711036682129
1700938968747892000,20.48189208984375,0.17201924324035645,-5.105167388916016,8.375189781188965
1700938968764885200,20.49888525390625,0.17267471551895142,-5.102502822875977,8.376799583435059
1700938968781859600,20.515859619140624,0.17223207652568817,-5.099660873413086,8.378538131713867
1700938968798875000,20.532875,0.1733793020248413,-5.098784923553467,8.379049301147461
1700938968815861000,20.549861083984375,0.17743435502052307,-5.1005964279174805,8.377860069274902
1700938968832859400,20.566859375,0.18230976164340973,-5.102992057800293,8.376296043395996
1700938968849849000,20.58384912109375,0.18709921836853027,-5.103622913360596,8.37580680847168
1700938968866842400,20.60084228515625,0.1920243203639984,-5.101377964019775,8.377063751220703
1700938968883834600,20.617834716796875,0.19620975852012634,-5.097888946533203,8.37908935546875
1700938968900828000,20.634827880859376,0.19839662313461304,-5.096339225769043,8.379980087280273
1700938968917832200,20.651832275390625,0.19931522011756897,-5.097432613372803,8.379293441772461
1700938968934813400,20.6688134765625,0.1997467428445816,-5.100339889526367,8.37751579284668
1700938968951805700,20.6858056640625,0.19914038479328156,-5.104019641876221,8.375287055969238
1700938968968799000,20.702799072265623,0.1976066678762436,-5.1072564125061035,8.373350143432617
1700938968985791500,20.71979150390625,0.1956186145544052,-5.109320640563965,8.372137069702148
1700938969002784800,20.73678466796875,0.1943099945783615,-5.110467433929443,8.371468544006348
1700938969019777000,20.753777099609376,0.1942959725856781,-5.111849784851074,8.370625495910645
1700938969036760300,20.77076025390625,0.19375450909137726,-5.1135029792785645,8.36962604522705
1700938969053764400,20.787764404296876,0.18962930142879486,-5.116096496582031,8.368136405944824
1700938969070754000,20.804754150390625,0.183257594704628,-5.119810581207275,8.366006851196289
1700938969087748400,20.821748291015624,0.17863829433918,-5.124650955200195,8.363142013549805
1700938969104737000,20.838737060546876,0.1762210577726364,-5.128669261932373,8.360732078552246
1700938969121738200,20.85573828125,0.174499049782753,-5.130680561065674,8.35953140258789
1700938969138727200,20.87272705078125,0.17354653775691986,-5.131483554840088,8.359060287475586
1700938969155710500,20.88971044921875,0.17379680275917053,-5.131184101104736,8.359237670898438
1700938969172710100,20.906710205078124,0.17496858537197113,-5.129522323608398,8.360233306884766
1700938969189707500,20.92370751953125,0.17577725648880005,-5.127632141113281,8.36137580871582
1700938969206698500,20.940698486328124,0.17478439211845398,-5.127391338348389,8.361543655395508
1700938969223690800,20.957690673828125,0.17279751598834991,-5.129325866699219,8.360400199890137
1700938969240672500,20.974672607421876,0.17159590125083923,-5.132536888122559,8.358451843261719
1700938969257670100,20.991670166015624,0.17239931225776672,-5.137124538421631,8.355618476867676
1700938969274665200,21.008665283203126,0.17568252980709076,-5.14106559753418,8.35312557220459
1700938969291657000,21.025656982421875,0.17860496044158936,-5.14260721206665,8.352115631103516
1700938969308644000,21.04264404296875,0.17920547723770142,-5.141511917114258,8.352774620056152
1700938969325636600,21.05963671875,0.17785125970840454,-5.138920783996582,8.354399681091309
1700938969342642700,21.076642578125,0.17649060487747192,-5.136082649230957,8.356171607971191
1700938969359633200,21.093633056640623,0.17388567328453064,-5.1341094970703125,8.357440948486328
1700938969376617500,21.110617431640627,0.1702270656824112,-5.133622646331787,8.357813835144043
1700938969393614800,21.12761474609375,0.16722862422466278,-5.134218215942383,8.35750961303711
1700938969410614500,21.144614501953125,0.1642453670501709,-5.135387897491455,8.356850624084473
1700938969427594500,21.161594482421876,0.16038620471954346,-5.137236595153809,8.355788230895996
1700938969444601900,21.178601806640625,0.15738950669765472,-5.139477252960205,8.354467391967773
1700938969461579300,21.195579345703123,0.15512137115001678,-5.140588760375977,8.353825569152832
1700938969478583000,21.2125830078125,0.1526193469762802,-5.1396403312683105,8.35445499420166
1700938969495575600,21.229575439453125,0.14899758994579315,-5.1366801261901855,8.356341361999512
1700938969512566300,21.246566162109374,0.1436631679534912,-5.132293701171875,8.359129905700684
1700938969529561000,21.26356103515625,0.13660909235477448,-5.128386497497559,8.361644744873047
1700938969546557000,21.280556884765623,0.1305706650018692,-5.125694751739502,8.36339282989502
1700938969563547000,21.297546875,0.12902700901031494,-5.1258978843688965,8.36329174041748
1700938969580540200,21.3145400390625,0.12899835407733917,-5.129918575286865,8.36082649230957
1700938969597532400,21.331532470703124,0.1273927092552185,-5.137045383453369,8.356472969055176
1700938969614526000,21.34852587890625,0.12507487833499908,-5.145016670227051,8.351602554321289
1700938969631515400,21.365515380859375,0.12402120232582092,-5.1508259773254395,8.348037719726562
1700938969648514000,21.38251416015625,0.12436677515506744,-5.15264368057251,8.346909523010254
1700938969665503500,21.39950341796875,0.12499886006116867,-5.151345252990723,8.347702026367188
1700938969682498300,21.416498291015625,0.12538711726665497,-5.149527072906494,8.348817825317383
1700938969699487700,21.43348779296875,0.12488659471273422,-5.149648666381836,8.348750114440918
1700938969716472000,21.45047216796875,0.1244252473115921,-5.15303373336792,8.346668243408203
1700938969733476600,21.4674765625,0.12541401386260986,-5.159032344818115,8.342947006225586
1700938969750466300,21.48446630859375,0.12798620760440826,-5.165055274963379,8.339181900024414
1700938969767460600,21.501460693359373,0.13087882101535797,-5.169071674346924,8.336647033691406
1700938969784453600,21.51845361328125,0.1327546089887619,-5.170454025268555,8.335760116577148
1700938969801446000,21.53544580078125,0.13386674225330353,-5.171329975128174,8.335198402404785
1700938969818439400,21.552439453125,0.13422459363937378,-5.1730122566223145,8.334148406982422
1700938969835431700,21.569431640625,0.13386324048042297,-5.175838947296143,8.33240032196045
1700938969852428000,21.586427978515626,0.1325061023235321,-5.180304527282715,8.329645156860352
1700938969869414100,21.6034140625,0.13098640739917755,-5.184364318847656,8.327144622802734
1700938969886410500,21.620410400390625,0.1265431046485901,-5.185977458953857,8.326208114624023
1700938969903403000,21.637403076171875,0.11994510889053345,-5.1847662925720215,8.32706069946289
1700938969920396300,21.654396240234377,0.11366695165634155,-5.182320594787598,8.328670501708984
1700938969937388500,21.671388427734374,0.10850386321544647,-5.180470943450928,8.329890251159668
1700938969954370000,21.6883701171875,0.1040664091706276,-5.181448936462402,8.329339027404785
1700938969971365400,21.705365478515624,0.10118841379880905,-5.185118198394775,8.327089309692383
1700938969988367400,21.722367431640624,0.10046862065792084,-5.189612865447998,8.324297904968262
1700938970005359900,21.73935986328125,0.09884776920080185,-5.191378593444824,8.323216438293457
