time,seconds_elapsed,z,y,x
1701538549949864400,0.106864501953125,8.66807746887207,4.498413562774658,0.9299540519714355
1701538549966860000,0.123860107421875,8.64706802368164,4.5160298347473145,1.0343097448349
1701538549983854300,0.140854248046875,8.631922721862793,4.527519702911377,1.1079667806625366
1701538550000856600,0.157856689453125,8.628625869750977,4.527398109436035,1.133841633796692
1701538550017825800,0.17482568359375,8.638421058654785,4.512479782104492,1.1186246871948242
1701538550034833000,0.1918330078125,8.654196739196777,4.482978820800781,1.115298867225647
1701538550051822300,0.208822265625,8.664214134216309,4.450129508972168,1.1678459644317627
1701538550068813000,0.22581298828125,8.658501625061035,4.428469657897949,1.286515712738037
1701538550085798000,0.2427978515625,8.638175964355469,4.41976261138916,1.4435073137283325
1701538550102780400,0.259780517578125,8.605022430419922,4.4244465827941895,1.6167795658111572
1701538550119782400,0.276782470703125,8.570860862731934,4.423072814941406,1.792452335357666
1701538550136768500,0.2937685546875,8.537396430969238,4.412292957305908,1.9699362516403198
1701538550153760500,0.310760498046875,8.440451622009277,4.465446949005127,2.2482595443725586
1701538550170754300,0.32775439453125,8.303790092468262,4.520210266113281,2.6174182891845703
1701538550187735600,0.344735595703125,8.175097465515137,4.508261203765869,3.013216733932495
1701538550204737000,0.361737060546875,8.0592622756958,4.423527240753174,3.4229817390441895
1701538550221727000,0.37872705078125,7.920114040374756,4.3159050941467285,3.8575732707977295
1701538550238707200,0.395707275390625,7.7049102783203125,4.239379405975342,4.347197532653809
1701538550255709000,0.412708984375,7.429830551147461,4.1744256019592285,4.858797073364258
1701538550272689000,0.42968896484375,7.116695404052734,4.058182239532471,5.396286964416504
1701538550289683500,0.446683349609375,6.773452281951904,3.909264087677002,5.9223408699035645
1701538550306685400,0.463685546875,6.369217395782471,3.7910947799682617,6.426257610321045
1701538550323673900,0.480673828125,5.885471820831299,3.7137515544891357,6.9141435623168945
1701538550340666400,0.497666259765625,5.372072219848633,3.6292636394500732,7.362432479858398
1701538550357663500,0.51466357421875,4.917999744415283,3.4650208950042725,7.74874210357666
1701538550374642400,0.531642333984375,4.615882396697998,3.2049672603607178,8.041015625
1701538550391640600,0.548640625,4.459341049194336,2.904167413711548,8.241127967834473
1701538550408629800,0.565629638671875,4.348644256591797,2.6214709281921387,8.393645286560059
1701538550425623300,0.582623291015625,4.1940717697143555,2.38386869430542,8.541840553283691
1701538550442595600,0.599595703125,3.953310966491699,2.173383951187134,8.711134910583496
1701538550459608300,0.6166083984375,3.688551187515259,1.9523097276687622,8.87801742553711
1701538550476606000,0.63360595703125,3.5089008808135986,1.7272374629974365,8.996686935424805
1701538550493585400,0.65058544921875,3.4415957927703857,1.498047113418579,9.063519477844238
1701538550510580500,0.66758056640625,3.432790994644165,1.2664545774459839,9.102096557617188
1701538550527572000,0.684572021484375,3.4069089889526367,1.0459800958633423,9.139747619628906
1701538550544557000,0.70155712890625,3.324105978012085,0.8539475798606873,9.19006061553955
1701538550561549800,0.7185498046875,3.2112863063812256,0.68345707654953,9.24427604675293
1701538550578540800,0.735540771484375,3.102917432785034,0.5185995101928711,9.291881561279297
1701538550595546400,0.75254638671875,3.0265347957611084,0.34686708450317383,9.325013160705566
1701538550612520400,0.7695205078125,2.9787402153015137,0.16041690111160278,9.345452308654785
1701538550629516500,0.7865166015625,2.9307548999786377,-0.029563523828983307,9.361939430236816
1701538550646507300,0.80350732421875,2.8644814491271973,-0.20846611261367798,9.380160331726074
1701538550663500500,0.82050048828125,2.7912633419036865,-0.37215861678123474,9.3971529006958
1701538550680489500,0.837489501953125,2.7486908435821533,-0.5341753363609314,9.401886940002441
1701538550697482200,0.854482177734375,2.725762128829956,-0.715222954750061,9.396531105041504
1701538550714470000,0.871469970703125,2.699162483215332,-0.8899143934249878,9.389286994934082
1701538550731463400,0.88846337890625,2.6717946529388428,-1.034260869026184,9.382319450378418
1701538550748451800,0.905451904296875,2.6504323482513428,-1.1755181550979614,9.37173843383789
1701538550765447400,0.922447509765625,2.660729169845581,-1.326248288154602,9.348673820495605
1701538550782436600,0.9394365234375,2.6927733421325684,-1.4662425518035889,9.318541526794434
1701538550799426300,0.95642626953125,2.702580451965332,-1.5855836868286133,9.296133995056152
1701538550816418300,0.973418212890625,2.6725308895111084,-1.6801791191101074,9.288201332092285
1701538550833411600,0.99041162109375,2.6343324184417725,-1.7394315004348755,9.288206100463867
1701538550850400300,1.007400146484375,2.6054162979125977,-1.7883373498916626,9.287075996398926
1701538550867383300,1.02438330078125,2.59096097946167,-1.8406881093978882,9.280889511108398
1701538550884380400,1.04138037109375,2.591202735900879,-1.897327184677124,9.2694091796875
1701538550901375500,1.05837548828125,2.600656270980835,-1.9647531509399414,9.25269889831543
1701538550918362400,1.0753623046875,2.611952781677246,-2.045724391937256,9.231945991516113
1701538550935359000,1.09235888671875,2.6081268787384033,-2.1356465816497803,9.21264362335205
1701538550952348400,1.109348388671875,2.5928866863250732,-2.216883659362793,9.19774341583252
1701538550969341400,1.126341552734375,2.580862522125244,-2.289384603500366,9.18335247039795
1701538550986326300,1.143326171875,2.552764415740967,-2.3752071857452393,9.16939926147461
1701538551003304700,1.1603046875,2.478442430496216,-2.491135358810425,9.159021377563477
1701538551020312600,1.1773125,2.3460605144500732,-2.6298325061798096,9.155113220214844
1701538551037305600,1.1943056640625,2.1823372840881348,-2.7681407928466797,9.154829025268555
1701538551054291200,1.211291259765625,2.0097200870513916,-2.887478828430176,9.157488822937012
1701538551071287300,1.228287353515625,1.8207645416259766,-2.9903082847595215,9.1640043258667
1701538551088277200,1.24527734375,1.6097511053085327,-3.08758807182312,9.171238899230957
1701538551105266700,1.2622666015625,1.3773274421691895,-3.1802737712860107,9.177413940429688
1701538551122260000,1.279260009765625,1.1711511611938477,-3.2573821544647217,9.178996086120605
1701538551139249700,1.296249755859375,1.0019876956939697,-3.3128693103790283,9.179162979125977
1701538551156234200,1.313234130859375,0.8607066869735718,-3.3503541946411133,9.179892539978027
1701538551173231900,1.33023193359375,0.7290285229682922,-3.375659227371216,9.182024955749512
1701538551190224100,1.34722412109375,0.6113544702529907,-3.3999900817871094,9.181636810302734
1701538551207219000,1.364218994140625,0.5378146171569824,-3.4260945320129395,9.176533699035645
1701538551224203500,1.38120361328125,0.5120278596878052,-3.4389758110046387,9.173189163208008
1701538551241192700,1.398192626953125,0.5136352181434631,-3.4341189861297607,9.174919128417969
1701538551258188800,1.415188720703125,0.5070717334747314,-3.4184138774871826,9.181147575378418
1701538551275178800,1.4321787109375,0.4625761806964874,-3.401215076446533,9.189879417419434
1701538551292170800,1.449170654296875,0.38146302103996277,-3.3881335258483887,9.198432922363281
1701538551309164500,1.46616455078125,0.29360392689704895,-3.379678249359131,9.204764366149902
1701538551326150000,1.48314990234375,0.225722998380661,-3.3732712268829346,9.209029197692871
1701538551343146000,1.50014599609375,0.1881254017353058,-3.366434097290039,9.212376594543457
1701538551360135200,1.51713525390625,0.1719818264245987,-3.3545563220977783,9.217022895812988
1701538551377128700,1.534128662109375,0.16002719104290009,-3.340912103652954,9.22219181060791
1701538551394114800,1.55111474609375,0.14122429490089417,-3.333287000656128,9.22525691986084
1701538551411109600,1.568109619140625,0.1044926717877388,-3.3379244804382324,9.22407054901123
1701538551428101000,1.58510107421875,0.04477797821164131,-3.355910539627075,9.218025207519531
1701538551445082400,1.602082275390625,-0.0308200903236866,-3.3851821422576904,9.207372665405273
1701538551462071600,1.619071533203125,-0.1083623617887497,-3.4186742305755615,9.194403648376465
1701538551479075800,1.636075927734375,-0.17850321531295776,-3.45448899269104,9.179911613464355
1701538551496062000,1.65306201171875,-0.23680347204208374,-3.4971282482147217,9.162429809570312
1701538551513057800,1.670057861328125,-0.28203344345092773,-3.545586347579956,9.142504692077637
1701538551530046200,1.687046142578125,-0.31748512387275696,-3.6008973121643066,9.119695663452148
1701538551547040500,1.70404052734375,-0.34892675280570984,-3.6610851287841797,9.094549179077148
1701538551564026400,1.7210263671875,-0.3780388832092285,-3.723235845565796,9.068116188049316
1701538551581021700,1.738021728515625,-0.4019177258014679,-3.781543016433716,9.042926788330078
1701538551598012700,1.7550126953125,-0.42133983969688416,-3.8320400714874268,9.020757675170898
1701538551615001000,1.7720009765625,-0.43456098437309265,-3.8783767223358154,9.00030517578125
1701538551631985400,1.7889853515625,-0.44076138734817505,-3.926264524459839,8.979215621948242
1701538551648987600,1.805987548828125,-0.4386429488658905,-3.979233980178833,8.95596981048584
1701538551665973000,1.822972900390625,-0.42998671531677246,-4.032101631164551,8.93271541595459
1701538551682969000,1.839968994140625,-0.4167158603668213,-4.08128547668457,8.910981178283691
1701538551699958000,1.8569580078125,-0.40129148960113525,-4.12700891494751,8.890605926513672
1701538551716952300,1.873952392578125,-0.3870868682861328,-4.170022487640381,8.871143341064453
1701538551733938000,1.89093798828125,-0.37655192613601685,-4.2103776931762695,8.852516174316406
1701538551750932700,1.9079326171875,-0.3703831136226654,-4.244196891784668,8.8366117477417
1701538551767924500,1.924924560546875,-0.36341968178749084,-4.272864818572998,8.823077201843262
1701538551784913000,1.941912841796875,-0.3554084002971649,-4.298174858093262,8.811100006103516
1701538551801894400,1.958894287109375,-0.3447173535823822,-4.319419860839844,8.801130294799805
1701538551818899000,1.97589892578125,-0.3328457474708557,-4.3362836837768555,8.793291091918945
1701538551835885000,1.992885009765625,-0.31941643357276917,-4.349486351013184,8.787266731262207
1701538551852870100,2.0098701171875,-0.3041107654571533,-4.360415458679199,8.782391548156738
1701538551869859000,2.026859130859375,-0.2914983332157135,-4.367421627044678,8.779336929321289
1701538551886863600,2.043863525390625,-0.28409457206726074,-4.370198726654053,8.778199195861816
1701538551903845600,2.060845703125,-0.2794109582901001,-4.3682379722595215,8.779324531555176
1701538551920829200,2.0778291015625,-0.2712704837322235,-4.3624587059021,8.782453536987305
1701538551937824800,2.09482470703125,-0.2595672607421875,-4.353623390197754,8.787189483642578
1701538551954826800,2.11182666015625,-0.24716590344905853,-4.343649387359619,8.792481422424316
1701538551971824000,2.12882421875,-0.23283438384532928,-4.332932949066162,8.798158645629883
1701538551988813800,2.145813720703125,-0.21879346668720245,-4.321741580963135,8.804022789001465
1701538552005796400,2.16279638671875,-0.2052144706249237,-4.309160232543945,8.81051254272461
1701538552022785500,2.17978564453125,-0.19537244737148285,-4.293374538421631,8.818441390991211
1701538552039781400,2.196781494140625,-0.18687409162521362,-4.274744987487793,8.827670097351074
1701538552056775700,2.213775634765625,-0.18162095546722412,-4.25541877746582,8.83711051940918
1701538552073761300,2.23076123046875,-0.17693908512592316,-4.238203525543213,8.845475196838379
1701538552090753000,2.2477529296875,-0.17259752750396729,-4.223728656768799,8.852482795715332
1701538552107748000,2.264748046875,-0.16795484721660614,-4.20973539352417,8.859232902526855
1701538552124738300,2.28173828125,-0.1596541404724121,-4.19405460357666,8.866823196411133
1701538552141726000,2.298725830078125,-0.1548202484846115,-4.176773548126221,8.875061988830566
1701538552158712600,2.315712646484375,-0.1517428606748581,-4.157668113708496,8.88408088684082
1701538552175708200,2.332708251953125,-0.15102072060108185,-4.135149955749512,8.894597053527832
1701538552192689200,2.349689208984375,-0.1530134528875351,-4.112706184387207,8.904962539672852
1701538552209692700,2.366692626953125,-0.15524591505527496,-4.0926833152771,8.914143562316895
1701538552226687000,2.38368701171875,-0.1555926650762558,-4.076399326324463,8.92159652709961
1701538552243673000,2.400673095703125,-0.15465125441551208,-4.063236236572266,8.927614212036133
1701538552260667600,2.417667724609375,-0.1554669439792633,-4.053510665893555,8.93202018737793
1701538552277662500,2.434662353515625,-0.15765205025672913,-4.0467705726623535,8.935037612915039
1701538552294644000,2.45164404296875,-0.1584993153810501,-4.042944431304932,8.936756134033203
1701538552311638800,2.468638671875,-0.1579742282629013,-4.043396949768066,8.936559677124023
1701538552328636200,2.48563623046875,-0.15617913007736206,-4.05100679397583,8.933144569396973
1701538552345622000,2.5026220703125,-0.15307016670703888,-4.065378665924072,8.926667213439941
1701538552362598700,2.5195986328125,-0.14906132221221924,-4.084710121154785,8.917906761169434
1701538552379604700,2.536604736328125,-0.1479988843202591,-4.106350898742676,8.907981872558594
1701538552396601600,2.5536015625,-0.15097510814666748,-4.128312587738037,8.897773742675781
1701538552413572600,2.570572509765625,-0.1569082885980606,-4.148637771606445,8.888212203979492
1701538552430582000,2.58758203125,-0.1665591150522232,-4.1704020500183105,8.877842903137207
1701538552447571700,2.60457177734375,-0.17334070801734924,-4.197628498077393,8.864874839782715
1701538552464559000,2.62155908203125,-0.17639821767807007,-4.234539985656738,8.847240447998047
1701538552481551000,2.638551025390625,-0.17473351955413818,-4.280160427093506,8.825295448303223
1701538552498541000,2.655541015625,-0.16909973323345184,-4.328680038452148,8.80170726776123
1701538552515535600,2.67253564453125,-0.16222691535949707,-4.373615741729736,8.779594421386719
1701538552532522000,2.68952197265625,-0.15583883225917816,-4.413741111755371,8.759607315063477
1701538552549516300,2.706516357421875,-0.1491127759218216,-4.44586706161499,8.743462562561035
1701538552566500900,2.7235009765625,-0.14287087321281433,-4.467562198638916,8.732502937316895
1701538552583497500,2.74049755859375,-0.13528411090373993,-4.479612827301025,8.726447105407715
1701538552600494300,2.757494384765625,-0.1284615844488144,-4.48421049118042,8.724187850952148
1701538552617481200,2.774481201171875,-0.12407909333705902,-4.483579158782959,8.724575996398926
1701538552634469000,2.79146923828125,-0.12359669804573059,-4.4801483154296875,8.726346015930176
1701538552651465700,2.8084658203125,-0.12399079650640488,-4.4796953201293945,8.72657299041748
1701538552668453400,2.825453369140625,-0.12460651248693466,-4.4835944175720215,8.72456169128418
1701538552685447000,2.842447021484375,-0.12633436918258667,-4.489579200744629,8.72145938873291
1701538552702438700,2.859438720703125,-0.13245639204978943,-4.495520114898682,8.718305587768555
1701538552719427800,2.876427734375,-0.14283345639705658,-4.49876594543457,8.71646785736084
1701538552736418800,2.893418701171875,-0.1553780734539032,-4.498249530792236,8.716521263122559
1701538552753412000,2.910412109375,-0.1672467440366745,-4.494654178619385,8.718154907226562
1701538552770401300,2.9274013671875,-0.17926862835884094,-4.487112998962402,8.7218017578125
1701538552787395600,2.9443955078125,-0.1921330839395523,-4.473988056182861,8.728266716003418
1701538552804372200,2.961372314453125,-0.20460928976535797,-4.458205699920654,8.736055374145508
1701538552821377300,2.978377197265625,-0.21687382459640503,-4.4421281814575195,8.743945121765137
1701538552838373000,2.995373046875,-0.2288220226764679,-4.427135467529297,8.751240730285645
1701538552855359000,3.01235888671875,-0.23755016922950745,-4.414119243621826,8.757582664489746
1701538552872352800,3.029352783203125,-0.24169641733169556,-4.403622150421143,8.762752532958984
1701538552889338600,3.046338623046875,-0.2425641566514969,-4.393464088439941,8.76782512664795
1701538552906328600,3.06332861328125,-0.2432798445224762,-4.37961483001709,8.77473258972168
1701538552923323000,3.080322998046875,-0.24412301182746887,-4.3629069328308105,8.783026695251465
1701538552940315400,3.0973154296875,-0.24293194711208344,-4.34842586517334,8.790236473083496
1701538552957305300,3.114305419921875,-0.23879504203796387,-4.338029384613037,8.795486450195312
1701538552974297300,3.13129736328125,-0.2298061102628708,-4.332879543304443,8.798264503479004
1701538552991287600,3.14828759765625,-0.21726499497890472,-4.332580089569092,8.79872989654541
1701538553008277000,3.165277099609375,-0.20592257380485535,-4.333839416503906,8.798382759094238
1701538553025267200,3.18226708984375,-0.1973412036895752,-4.3349289894104,8.798044204711914
1701538553042264600,3.1992646484375,-0.18930010497570038,-4.335041522979736,8.798165321350098
1701538553059261700,3.21626171875,-0.17994514107704163,-4.335033416748047,8.798364639282227
1701538553076244700,3.23324462890625,-0.1690634787082672,-4.334405422210693,8.79888916015625
1701538553093221000,3.25022119140625,-0.1584344059228897,-4.335142135620117,8.798725128173828
1701538553110219000,3.267218994140625,-0.14778663218021393,-4.340657711029053,8.79619026184082
1701538553127207000,3.28420703125,-0.13864099979400635,-4.352619171142578,8.790426254272461
1701538553144209200,3.301209228515625,-0.13150154054164886,-4.369397163391113,8.782209396362305
1701538553161199000,3.31819921875,-0.12676529586315155,-4.3876118659973145,8.773194313049316
1701538553178180600,3.3351806640625,-0.11916684359312057,-4.405518054962158,8.764321327209473
1701538553195181000,3.35218115234375,-0.10826178640127182,-4.423494338989258,8.755402565002441
1701538553212174600,3.369174560546875,-0.09894132614135742,-4.4404449462890625,8.746930122375488
1701538553229146400,3.386146484375,-0.09261522442102432,-4.45904016494751,8.73753547668457
1701538553246153700,3.40315380859375,-0.08962144702672958,-4.480611801147461,8.726523399353027
1701538553263148800,3.420148681640625,-0.09171241521835327,-4.506585121154785,8.713115692138672
1701538553280137500,3.437137451171875,-0.0929882749915123,-4.53428840637207,8.698718070983887
1701538553297128400,3.45412841796875,-0.09306955337524414,-4.558751106262207,8.685921669006348
1701538553314120700,3.47112060546875,-0.09371566772460938,-4.582152843475342,8.67359447479248
1701538553331110700,3.488110595703125,-0.09346365183591843,-4.604363441467285,8.661825180053711
1701538553348103400,3.505103515625,-0.09233572334051132,-4.622182369232178,8.652341842651367
1701538553365093000,3.522093017578125,-0.09333734959363937,-4.6326727867126465,8.646718978881836
1701538553382072800,3.53907275390625,-0.09760172665119171,-4.63835334777832,8.64362621307373
1701538553399077600,3.55607763671875,-0.10088552534580231,-4.643308639526367,8.640928268432617
1701538553416071400,3.573071533203125,-0.10323552042245865,-4.650466442108154,8.63705062866211
1701538553433054500,3.590054443359375,-0.10599774867296219,-4.661282539367676,8.631183624267578
1701538553450042400,3.60704248046875,-0.10817816853523254,-4.673728942871094,8.62442398071289
1701538553467037700,3.62403759765625,-0.10767940431833267,-4.683014869689941,8.619389533996582
1701538553484035300,3.641035400390625,-0.10851263254880905,-4.688395977020264,8.616454124450684
1701538553501013200,3.65801318359375,-0.11318046599626541,-4.690721035003662,8.615128517150879
1701538553518015000,3.675014892578125,-0.12034447491168976,-4.689660549163818,8.615609169006348
1701538553535005200,3.692005126953125,-0.12623730301856995,-4.686323642730713,8.617341041564941
1701538553551983400,3.7089833984375,-0.12947899103164673,-4.684048175811768,8.618529319763184
1701538553568990200,3.725990234375,-0.12993215024471283,-4.683741569519043,8.618690490722656
1701538553585979600,3.742979736328125,-0.13126473128795624,-4.68420934677124,8.618414878845215
1701538553602969600,3.759969482421875,-0.13438715040683746,-4.683100700378418,8.618968963623047
1701538553619962000,3.776962158203125,-0.13880296051502228,-4.680332183837891,8.620402336120605
1701538553636951800,3.793951904296875,-0.14439290761947632,-4.677056312561035,8.622088432312012
1701538553653944000,3.810944091796875,-0.1502266675233841,-4.673614025115967,8.623856544494629
1701538553670934500,3.8279345703125,-0.15373265743255615,-4.672447204589844,8.624424934387207
1701538553687927000,3.844927001953125,-0.15314969420433044,-4.673106670379639,8.624078750610352
1701538553704927000,3.861927001953125,-0.14994600415229797,-4.673142433166504,8.624115943908691
1701538553721922000,3.878922119140625,-0.14712180197238922,-4.670032501220703,8.625848770141602
1701538553738899200,3.895899169921875,-0.14570677280426025,-4.664236068725586,8.629009246826172
1701538553755891200,3.91289111328125,-0.14459463953971863,-4.657189846038818,8.632831573486328
1701538553772871000,3.929870849609375,-0.14208091795444489,-4.648884296417236,8.637349128723145
1701538553789873700,3.946873779296875,-0.13756802678108215,-4.641222953796387,8.641541481018066
1701538553806863600,3.963863525390625,-0.1308910995721817,-4.636434555053711,8.64421558380127
1701538553823856400,3.9808564453125,-0.12362242490053177,-4.634676456451416,8.645264625549316
1701538553840832500,3.99783251953125,-0.1208110824227333,-4.633044242858887,8.646180152893066
1701538553857838300,4.01483837890625,-0.12162793427705765,-4.631801128387451,8.646833419799805
1701538553874830800,4.031830810546875,-0.12241555750370026,-4.634516716003418,8.645369529724121
1701538553891818200,4.048818359375,-0.1195872575044632,-4.640254497528076,8.642329216003418
1701538553908813000,4.06581298828125,-0.11638064682483673,-4.648070335388184,8.638172149658203
1701538553925803000,4.082802978515625,-0.1131933256983757,-4.656277179718018,8.633792877197266
1701538553942780200,4.0997802734375,-0.11002238094806671,-4.6632795333862305,8.63005542755127
1701538553959788500,4.11678857421875,-0.10693330317735672,-4.666991710662842,8.62808609008789
1701538553976775200,4.133775146484375,-0.10409213602542877,-4.666497707366943,8.628386497497559
1701538553993767700,4.150767578125,-0.1013895571231842,-4.663466453552246,8.630059242248535
1701538554010758000,4.1677578125,-0.09553122520446777,-4.659668445587158,8.632177352905273
1701538554027746800,4.184746826171875,-0.08594939857721329,-4.6579742431640625,8.633193016052246
1701538554044743700,4.20174365234375,-0.07420233637094498,-4.6598896980285645,8.632267951965332
1701538554061726500,4.2187265625,-0.06674889475107193,-4.6645307540893555,8.629820823669434
1701538554078722800,4.235722900390625,-0.06623199582099915,-4.672262191772461,8.625640869140625
1701538554095711000,4.2527109375,-0.06893458217382431,-4.681230068206787,8.620756149291992
1701538554112692700,4.269692626953125,-0.07232538610696793,-4.689682960510254,8.616131782531738
1701538554129697000,4.286697021484375,-0.07276216894388199,-4.696686267852783,8.612316131591797
1701538554146687500,4.3036875,-0.07095947116613388,-4.702712059020996,8.609041213989258
1701538554163677200,4.32067724609375,-0.06848493218421936,-4.705391883850098,8.607595443725586
1701538554180672300,4.33767236328125,-0.06773999333381653,-4.704230785369873,8.608238220214844
1701538554197664800,4.354664794921875,-0.06846271455287933,-4.702390670776367,8.609235763549805
1701538554214642700,4.371642578125,-0.07013735175132751,-4.702620506286621,8.609098434448242
1701538554231644700,4.388644775390625,-0.0731416568160057,-4.704226493835449,8.608195304870605
1701538554248620800,4.405620849609375,-0.07701016962528229,-4.703522682189941,8.608545303344727
1701538554265629200,4.422629150390625,-0.07918591797351837,-4.69878625869751,8.611113548278809
1701538554282622500,4.43962255859375,-0.07917890697717667,-4.692832946777344,8.614357948303223
1701538554299609300,4.456609375,-0.07793110609054565,-4.687088966369629,8.6174955368042
1701538554316595500,4.473595458984375,-0.07741304486989975,-4.680582523345947,8.621036529541016
1701538554333595000,4.490594970703125,-0.07665466517210007,-4.674104690551758,8.624558448791504
1701538554350581800,4.507581787109375,-0.07759372144937515,-4.667978763580322,8.627866744995117
1701538554367574000,4.524573974609375,-0.08355379104614258,-4.659709453582764,8.632278442382812
1701538554384563500,4.5415634765625,-0.0934654101729393,-4.650806427001953,8.636977195739746
1701538554401556000,4.558555908203125,-0.10163689404726028,-4.646136283874512,8.639397621154785
1701538554418543900,4.5755439453125,-0.10657135397195816,-4.647776126861572,8.638457298278809
1701538554435541200,4.592541259765625,-0.10940608382225037,-4.653744220733643,8.635207176208496
1701538554452528400,4.6095283203125,-0.11233671009540558,-4.659742832183838,8.631935119628906
1701538554469521000,4.62652099609375,-0.11462472379207611,-4.66364860534668,8.62979507446289
1701538554486509600,4.643509521484375,-0.11429143697023392,-4.6651129722595215,8.629008293151855
1701538554503504400,4.66050439453125,-0.11264778673648834,-4.662948131561279,8.630199432373047
1701538554520492800,4.677492919921875,-0.10896462202072144,-4.654940128326416,8.634568214416504
1701538554537483800,4.69448388671875,-0.10419271141290665,-4.641623020172119,8.641792297363281
1701538554554466800,4.711466796875,-0.10038208216428757,-4.625023365020752,8.650735855102539
1701538554571468000,4.728468017578125,-0.10122641921043396,-4.606339454650879,8.660688400268555
1701538554588443600,4.745443603515625,-0.10738470405340195,-4.58944845199585,8.669574737548828
1701538554605454600,4.76245458984375,-0.11495918780565262,-4.577632904052734,8.675724983215332
1701538554622430000,4.779429931640625,-0.12024682760238647,-4.574102878570557,8.677515029907227
1701538554639432700,4.7964326171875,-0.12385455518960953,-4.577917098999023,8.67545223236084
1701538554656422400,4.81342236328125,-0.1262618601322174,-4.583888053894043,8.672264099121094
1701538554673415000,4.830414794921875,-0.1282060593366623,-4.588863849639893,8.669602394104004
1701538554690405000,4.847405029296875,-0.12806805968284607,-4.591218948364258,8.668356895446777
1701538554707397600,4.864397705078125,-0.12296929210424423,-4.59285831451416,8.667563438415527
1701538554724387300,4.88138720703125,-0.11458203941583633,-4.59531831741333,8.666373252868652
1701538554741369000,4.898369140625,-0.10842258483171463,-4.600159645080566,8.663884162902832
1701538554758365000,4.915364990234375,-0.10163747519254684,-4.606400012969971,8.660651206970215
1701538554775357000,4.93235693359375,-0.09588556736707687,-4.610638618469238,8.65846061706543
1701538554792352000,4.94935205078125,-0.09041725099086761,-4.615743160247803,8.65579891204834
1701538554809344300,4.96634423828125,-0.08652476221323013,-4.622206211090088,8.652390480041504
1701538554826334500,4.98333447265625,-0.08444198220968246,-4.6309428215026855,8.647737503051758
1701538554843327000,5.000326904296875,-0.0827755257487297,-4.64285945892334,8.641361236572266
1701538554860317000,5.01731689453125,-0.08378826826810837,-4.6555867195129395,8.634501457214355
1701538554877309200,5.03430908203125,-0.08830582350492477,-4.66839075088501,8.627541542053223
1701538554894299400,5.05129931640625,-0.09591539204120636,-4.682130813598633,8.620009422302246
1701538554911292000,5.0682919921875,-0.10138019919395447,-4.696139812469482,8.612321853637695
1701538554928281600,5.085281494140625,-0.10267184674739838,-4.7093329429626465,8.605101585388184
1701538554945271300,5.102271240234375,-0.10045692324638367,-4.720463275909424,8.599026679992676
1701538554962266600,5.1192666015625,-0.09505994617938995,-4.730077266693115,8.593804359436035
1701538554979256600,5.136256591796875,-0.09043128788471222,-4.736965179443359,8.590059280395508
1701538554996246000,5.15324609375,-0.08690892159938812,-4.740194320678711,8.5883150100708
1701538555013238800,5.17023876953125,-0.08450162410736084,-4.738673686981201,8.589176177978516
1701538555030226400,5.187226318359375,-0.08277084678411484,-4.7330322265625,8.592303276062012
1701538555047224000,5.20422412109375,-0.08092605322599411,-4.728686332702637,8.594714164733887
1701538555064201200,5.221201171875,-0.07952973991632462,-4.729856967926025,8.59408187866211
1701538555081203500,5.238203369140625,-0.07931689918041229,-4.734494209289551,8.591530799865723
1701538555098193700,5.255193603515625,-0.08192943781614304,-4.738582611083984,8.589251518249512
1701538555115186200,5.272186279296875,-0.08777782320976257,-4.741894245147705,8.58736515045166
1701538555132176000,5.28917578125,-0.09297189861536026,-4.7456889152526855,8.585213661193848
1701538555149168000,5.306168212890625,-0.0945863202214241,-4.7488627433776855,8.583443641662598
1701538555166147800,5.32314794921875,-0.0916907787322998,-4.7502217292785645,8.582721710205078
1701538555183150800,5.34015087890625,-0.08688436448574066,-4.748265743255615,8.583854675292969
1701538555200143600,5.3571435546875,-0.08494192361831665,-4.742672443389893,8.586965560913086
1701538555217129700,5.374129638671875,-0.08671362698078156,-4.733811378479004,8.591835975646973
1701538555234123500,5.39112353515625,-0.08727086335420609,-4.724189281463623,8.597124099731445
1701538555251115300,5.408115234375,-0.08679958432912827,-4.71660041809082,8.60129451751709
1701538555268105000,5.42510498046875,-0.08674578368663788,-4.708803176879883,8.605566024780273
1701538555285097700,5.44209765625,-0.08904140442609787,-4.701954364776611,8.60928726196289
1701538555302088000,5.459087890625,-0.09442084282636642,-4.697651386260986,8.611577033996582
1701538555319080400,5.47608056640625,-0.10240872204303741,-4.696018695831299,8.612378120422363
1701538555336070000,5.49306982421875,-0.10832025855779648,-4.695538520812988,8.612566947937012
1701538555353063400,5.5100634765625,-0.11021768301725388,-4.694692611694336,8.613003730773926
1701538555370052600,5.527052490234375,-0.10959495604038239,-4.69326114654541,8.613791465759277
1701538555387037400,5.544037353515625,-0.10903128236532211,-4.689594745635986,8.615793228149414
1701538555404024600,5.561024658203125,-0.10903771221637726,-4.6832685470581055,8.619236946105957
1701538555421027000,5.578027099609375,-0.10951016843318939,-4.67681884765625,8.62273120880127
1701538555438017500,5.595017578125,-0.11024808883666992,-4.672062397003174,8.625300407409668
1701538555455009800,5.612009765625,-0.11335646361112595,-4.670201778411865,8.626266479492188
1701538555471999200,5.628999267578125,-0.11640286445617676,-4.671562194824219,8.625490188598633
1701538555488991700,5.64599169921875,-0.12053918838500977,-4.674464702606201,8.623861312866211
1701538555505982200,5.662982177734375,-0.1264355182647705,-4.678272247314453,8.621711730957031
1701538555522974500,5.679974365234375,-0.1341409832239151,-4.68229341506958,8.619412422180176
1701538555539964200,5.696964111328125,-0.14293812215328217,-4.687107086181641,8.616654396057129
1701538555556957000,5.71395703125,-0.1501389592885971,-4.6924004554748535,8.61365032196045
1701538555573946600,5.730946533203125,-0.15489450097084045,-4.69675874710083,8.611189842224121
1701538555590936300,5.747936279296875,-0.15765321254730225,-4.699812412261963,8.609474182128906
1701538555607932200,5.76493212890625,-0.15871566534042358,-4.701117038726807,8.60874080657959
1701538555624921300,5.78192138671875,-0.15710358321666718,-4.701680660247803,8.608463287353516
1701538555641911300,5.798911376953125,-0.15311051905155182,-4.701784610748291,8.608478546142578
1701538555658904300,5.815904296875,-0.14917942881584167,-4.702836036682129,8.6079740524292
1701538555675893800,5.832893798828125,-0.1485409140586853,-4.7070631980896,8.605673789978027
1701538555692886300,5.84988623046875,-0.15039624273777008,-4.714690208435059,8.601463317871094
1701538555709876700,5.866876708984375,-0.15126512944698334,-4.726943492889404,8.594721794128418
1701538555726869000,5.883868896484375,-0.15152417123317719,-4.741366386413574,8.586770057678223
1701538555743858700,5.900858642578125,-0.15120725333690643,-4.7559075355529785,8.578728675842285
1701538555760850700,5.9178505859375,-0.1517358422279358,-4.768500804901123,8.571727752685547
1701538555777841000,5.9348408203125,-0.15539443492889404,-4.77921199798584,8.565693855285645
1701538555794833700,5.951833740234375,-0.15934014320373535,-4.7881951332092285,8.560603141784668
1701538555811823400,5.9688232421875,-0.15885014832019806,-4.793388366699219,8.557705879211426
1701538555828816000,5.98581591796875,-0.15738248825073242,-4.796849250793457,8.555791854858398
1701538555845803300,6.00280322265625,-0.15596279501914978,-4.798429012298584,8.554933547973633
1701538555862798600,6.019798583984375,-0.1569322645664215,-4.797557830810547,8.555404663085938
1701538555879790600,6.03679052734375,-0.15976348519325256,-4.795931339263916,8.55626392364502
1701538555896780500,6.053780517578125,-0.16340863704681396,-4.7982378005981445,8.554901123046875
1701538555913770500,6.0707705078125,-0.16483008861541748,-4.805484294891357,8.550806045532227
1701538555930752800,6.087752685546875,-0.16470378637313843,-4.813508987426758,8.546292304992676
1701538555947752700,6.104752685546875,-0.16463187336921692,-4.820626735687256,8.542281150817871
1701538555964745500,6.121745361328125,-0.16512946784496307,-4.826107025146484,8.539177894592285
1701538555981735400,6.1387353515625,-0.16847991943359375,-4.829286575317383,8.537314414978027
1701538555998728000,6.15572802734375,-0.1733202487230301,-4.8293633460998535,8.537175178527832
1701538556015717400,6.17271728515625,-0.1765642911195755,-4.827365398406982,8.538236618041992
1701538556032710000,6.1897099609375,-0.17747762799263,-4.823331356048584,8.540498733520508
1701538556049696800,6.20669677734375,-0.17671281099319458,-4.816183090209961,8.544546127319336
1701538556066689500,6.223689453125,-0.1763865351676941,-4.8083906173706055,8.54893970489502
1701538556083685000,6.24068505859375,-0.17609357833862305,-4.80258321762085,8.55220890045166
1701538556100674600,6.257674560546875,-0.1767917424440384,-4.797874927520752,8.554838180541992
1701538556117664800,6.274664794921875,-0.18097718060016632,-4.794336318969727,8.556735038757324
1701538556134657500,6.291657470703125,-0.18894167244434357,-4.792717456817627,8.557469367980957
1701538556151647200,6.308647216796875,-0.19723068177700043,-4.793615818023682,8.556778907775879
1701538556168639500,6.325639404296875,-0.20275279879570007,-4.796079158782959,8.555269241333008
1701538556185629700,6.342629638671875,-0.20857661962509155,-4.798696517944336,8.553662300109863
1701538556202622200,6.359622314453125,-0.21856249868869781,-4.799563884735107,8.552927017211914
1701538556219612000,6.37661181640625,-0.2313643991947174,-4.7978034019470215,8.553577423095703
1701538556236604400,6.3936044921875,-0.24149703979492188,-4.79410982131958,8.555367469787598
1701538556253594400,6.410594482421875,-0.24654200673103333,-4.790291786193848,8.557361602783203
1701538556270576000,6.427576171875,-0.24648471176624298,-4.785539150238037,8.560022354125977
1701538556287572000,6.444572021484375,-0.24419260025024414,-4.7790141105651855,8.563732147216797
1701538556304568800,6.46156884765625,-0.24461886286735535,-4.772838592529297,8.567163467407227
1701538556321557500,6.4785576171875,-0.246622696518898,-4.767478942871094,8.570090293884277
1701538556338551800,6.4955517578125,-0.2473232001066208,-4.763628959655762,8.572211265563965
1701538556355541500,6.51254150390625,-0.24594910442829132,-4.7627434730529785,8.572742462158203
1701538556372532500,6.529532470703125,-0.24316933751106262,-4.765660762786865,8.57120132446289
1701538556389525800,6.54652587890625,-0.24254485964775085,-4.768648624420166,8.569555282592773
1701538556406516500,6.5635166015625,-0.24520008265972137,-4.769670486450195,8.568910598754883
1701538556423506200,6.580506103515625,-0.2495410442352295,-4.768359184265137,8.569517135620117
1701538556440498700,6.597498779296875,-0.2524318993091583,-4.76817512512207,8.569534301757812
1701538556457489000,6.614489013671875,-0.25366801023483276,-4.770968437194824,8.567941665649414
1701538556474481400,6.6314814453125,-0.2526242733001709,-4.776556015014648,8.564859390258789
1701538556491470800,6.648470947265625,-0.24880078434944153,-4.7833967208862305,8.561152458190918
1701538556508463600,6.665463623046875,-0.2431073635816574,-4.788188457489014,8.558635711669922
1701538556525453600,6.68245361328125,-0.23824715614318848,-4.790156364440918,8.557672500610352
1701538556542446300,6.6994462890625,-0.2349265217781067,-4.790825366973877,8.557389259338379
1701538556559433000,6.716432861328125,-0.2327805906534195,-4.7897748947143555,8.558036804199219
1701538556576431000,6.73343115234375,-0.22963069379329681,-4.79062032699585,8.557648658752441
1701538556593418500,6.75041845703125,-0.22510026395320892,-4.795187950134277,8.555211067199707
1701538556610411000,6.767410888671875,-0.22371622920036316,-4.802289962768555,8.551261901855469
1701538556627400700,6.784400634765625,-0.22558675706386566,-4.810207366943359,8.546760559082031
1701538556644393000,6.80139306640625,-0.2292202115058899,-4.8178839683532715,8.542338371276855
1701538556661383200,6.818383056640625,-0.2317356914281845,-4.8241143226623535,8.538753509521484
1701538556678372000,6.8353720703125,-0.23208360373973846,-4.827385425567627,8.536896705627441
1701538556695369000,6.852368896484375,-0.23013004660606384,-4.8288140296936035,8.536142349243164
1701538556712358000,6.86935791015625,-0.22644805908203125,-4.830037593841553,8.535548210144043
1701538556729348000,6.88634814453125,-0.2209487408399582,-4.832155227661133,8.534492492675781
1701538556746337800,6.903337890625,-0.2132444530725479,-4.835958480834961,8.532533645629883
1701538556763332900,6.920332763671875,-0.20834916830062866,-4.841540813446045,8.529488563537598
1701538556780335400,6.93733544921875,-0.2077047973871231,-4.847590446472168,8.526067733764648
1701538556797309400,6.954309326171875,-0.2094355821609497,-4.853367328643799,8.522738456726074
1701538556814308600,6.97130859375,-0.20979401469230652,-4.855780601501465,8.521356582641602
1701538556831284200,6.9882841796875,-0.2095472663640976,-4.85292911529541,8.52298641204834
1701538556848287500,7.00528759765625,-0.21037989854812622,-4.846901893615723,8.526394844055176
1701538556865277700,7.022277587890625,-0.21120144426822662,-4.840620517730713,8.52994155883789
1701538556882270000,7.03927001953125,-0.21056117117404938,-4.834317684173584,8.533531188964844
1701538556899259400,7.05625927734375,-0.20767498016357422,-4.828871250152588,8.536684036254883
1701538556916252200,7.073252197265625,-0.2040497064590454,-4.825189590454102,8.53885269165039
1701538556933242000,7.0902421875,-0.20358368754386902,-4.82363224029541,8.539746284484863
1701538556950232300,7.107232421875,-0.20456017553806305,-4.822765350341797,8.54021167755127
1701538556967227100,7.12422705078125,-0.20611494779586792,-4.821907043457031,8.540658950805664
1701538556984214300,7.14121435546875,-0.20743291079998016,-4.821993350982666,8.54057788848877
1701538557001207300,7.158207275390625,-0.20844623446464539,-4.821442127227783,8.540864944458008
1701538557018199800,7.17519970703125,-0.2084643542766571,-4.820420742034912,8.541440963745117
1701538557035189000,7.19218896484375,-0.20621435344219208,-4.818041801452637,8.542837142944336
1701538557052181800,7.209181640625,-0.20428243279457092,-4.813100337982178,8.545669555664062
1701538557069161500,7.226161376953125,-0.20160791277885437,-4.807536602020264,8.548864364624023
1701538557086164500,7.24316455078125,-0.19898134469985962,-4.801179885864258,8.552495956420898
1701538557103154000,7.26015380859375,-0.197790265083313,-4.794821739196777,8.556090354919434
1701538557120146700,7.277146728515625,-0.19749322533607483,-4.7904767990112305,8.558531761169434
1701538557137136600,7.29413671875,-0.19920529425144196,-4.787864685058594,8.559953689575195
1701538557154129200,7.311129150390625,-0.2025306075811386,-4.785999298095703,8.560917854309082
1701538557171108600,7.328108642578125,-0.20513495802879333,-4.785493850708008,8.561139106750488
1701538557188111000,7.345111083984375,-0.20604009926319122,-4.787988185882568,8.559720993041992
1701538557205101300,7.362101318359375,-0.20449058711528778,-4.793040752410889,8.556930541992188
1701538557222093800,7.37909375,-0.20107640326023102,-4.79872465133667,8.553824424743652
1701538557239083500,7.39608349609375,-0.1988135278224945,-4.8043718338012695,8.550707817077637
1701538557256076300,7.413076171875,-0.1966097056865692,-4.808274745941162,8.548564910888672
1701538557273066500,7.43006640625,-0.1930633783340454,-4.809025764465332,8.548222541809082
1701538557290058800,7.447058837890625,-0.18946734070777893,-4.807164669036865,8.54935073852539
1701538557307048700,7.464048583984375,-0.18597011268138885,-4.8056230545043945,8.550293922424316
1701538557324041000,7.481041015625,-0.18236063420772552,-4.8054046630859375,8.550493240356445
1701538557341031200,7.49803125,-0.1800667643547058,-4.805150985717773,8.55068588256836
1701538557358023700,7.515023681640625,-0.1807163953781128,-4.804401397705078,8.551092147827148
1701538557375013400,7.532013427734375,-0.1804099977016449,-4.804287910461426,8.551162719726562
1701538557392004900,7.5490048828125,-0.1777120977640152,-4.807642459869385,8.549331665039062
1701538557408999400,7.56599951171875,-0.17383772134780884,-4.814950942993164,8.545299530029297
1701538557425986300,7.582986328125,-0.17086909711360931,-4.823629856109619,8.5404634475708
1701538557442978000,7.59997802734375,-0.16785778105258942,-4.8316497802734375,8.535988807678223
1701538557459970300,7.61697021484375,-0.16534991562366486,-4.8371782302856445,8.532906532287598
1701538557476961000,7.6339609375,-0.16148841381072998,-4.838555335998535,8.53219985961914
1701538557493953300,7.650953369140625,-0.15675275027751923,-4.835968017578125,8.533753395080566
1701538557510943000,7.66794287109375,-0.15417295694351196,-4.831145763397217,8.536531448364258
1701538557527935500,7.684935546875,-0.1567264348268509,-4.826545238494873,8.539088249206543
1701538557544925700,7.70192578125,-0.16344429552555084,-4.824443817138672,8.540148735046387
1701538557561915600,7.71891552734375,-0.17018964886665344,-4.824764251708984,8.539836883544922
1701538557578907600,7.73590771484375,-0.17415639758110046,-4.827043056488037,8.538468360900879
1701538557595903000,7.752903076171875,-0.17470896244049072,-4.831118106842041,8.536150932312012
1701538557612880000,7.7698798828125,-0.17216426134109497,-4.835933685302734,8.533476829528809
1701538557629879600,7.786879638671875,-0.16922719776630402,-4.839064598083496,8.531759262084961
1701538557646876200,7.803876220703125,-0.16672751307487488,-4.839334964752197,8.531656265258789
1701538557663863000,7.820863037109375,-0.16555280983448029,-4.835629463195801,8.533780097961426
1701538557680857600,7.837857666015625,-0.1643400937318802,-4.829095840454102,8.537503242492676
1701538557697847600,7.85484765625,-0.16263563930988312,-4.8237714767456055,8.540544509887695
1701538557714837500,7.87183740234375,-0.1631612926721573,-4.820780277252197,8.542223930358887
1701538557731829800,7.888829833984375,-0.16756483912467957,-4.822414875030518,8.541214942932129
1701538557748809500,7.9058095703125,-0.17305946350097656,-4.827998161315918,8.537952423095703
1701538557765812500,7.9228125,-0.18062224984169006,-4.836745738983154,8.532840728759766
1701538557782802400,7.939802490234375,-0.188576802611351,-4.848209857940674,8.526162147521973
1701538557799790800,7.956790771484375,-0.19182844460010529,-4.859147548675537,8.51986026763916
1701538557816788700,7.973788818359375,-0.1920640915632248,-4.868185043334961,8.514694213867188
1701538557833777400,7.99077734375,-0.19118233025074005,-4.875331401824951,8.510623931884766
1701538557850760000,8.007760009765626,-0.18886858224868774,-4.878441333770752,8.508892059326172
1701538557867761400,8.024761474609376,-0.1855344921350479,-4.877826690673828,8.509320259094238
1701538557884749800,8.041749755859374,-0.18218229711055756,-4.873876094818115,8.511653900146484
1701538557901742000,8.0587421875,-0.17860203981399536,-4.866694450378418,8.515838623046875
1701538557918731800,8.075731689453125,-0.17724139988422394,-4.858339786529541,8.520634651184082
1701538557935724300,8.092724365234375,-0.17941246926784515,-4.850828170776367,8.524869918823242
1701538557952714500,8.109714599609376,-0.18365871906280518,-4.846023082733154,8.527512550354004
1701538557969706800,8.126706787109375,-0.1889679878950119,-4.846070289611816,8.527369499206543
1701538557986696700,8.14369677734375,-0.1955127716064453,-4.848907947540283,8.525609016418457
1701538558003689200,8.160689208984374,-0.20266275107860565,-4.852731227874756,8.52326488494873
1701538558020679200,8.17767919921875,-0.20732532441616058,-4.856178283691406,8.52118968963623
1701538558037671700,8.194671630859375,-0.20701658725738525,-4.85915994644165,8.519497871398926
1701538558054661600,8.21166162109375,-0.20213182270526886,-4.860564708709717,8.51881217956543
1701538558071654000,8.22865380859375,-0.19729383289813995,-4.859574794769287,8.519492149353027
1701538558088644400,8.245644287109375,-0.19347268342971802,-4.8559041023254395,8.521671295166016
1701538558105636600,8.26263671875,-0.1908303201198578,-4.850847244262695,8.524611473083496
1701538558122626300,8.279626220703125,-0.1869647353887558,-4.845440864562988,8.527770042419434
1701538558139618800,8.296618896484375,-0.1836838573217392,-4.840617656707764,8.530580520629883
1701538558156608800,8.31360888671875,-0.1828705072402954,-4.83774471282959,8.532227516174316
1701538558173601500,8.3306015625,-0.18386979401111603,-4.837643146514893,8.532262802124023
1701538558190591700,8.347591796875,-0.18560349941253662,-4.841447830200195,8.530067443847656
1701538558207583200,8.364583251953125,-0.18742899596691132,-4.846435546875,8.52719497680664
1701538558224573700,8.38157373046875,-0.18914340436458588,-4.8498101234436035,8.525238037109375
1701538558241566200,8.398566162109375,-0.18964041769504547,-4.850227355957031,8.52499008178711
1701538558258545200,8.415545166015624,-0.18858382105827332,-4.848270416259766,8.526126861572266
1701538558275551000,8.432551025390625,-0.18654607236385345,-4.84580135345459,8.527575492858887
1701538558292538600,8.44953857421875,-0.18474629521369934,-4.845524311065674,8.527771949768066
1701538558309531100,8.46653125,-0.18285764753818512,-4.8470458984375,8.526947021484375
1701538558326520800,8.483520751953124,-0.18144729733467102,-4.849148273468018,8.525781631469727
1701538558343513300,8.500513427734376,-0.1829243004322052,-4.8508405685424805,8.524786949157715
1701538558360503600,8.517503662109375,-0.18653729557991028,-4.850634574890137,8.524826049804688
1701538558377496000,8.53449609375,-0.1896994709968567,-4.849230766296387,8.525554656982422
1701538558394485800,8.55148583984375,-0.19157584011554718,-4.8490309715271,8.525626182556152
1701538558411478300,8.568478271484375,-0.19438250362873077,-4.850775718688965,8.524571418762207
1701538558428468500,8.585468505859374,-0.19698627293109894,-4.854335784912109,8.52248477935791
1701538558445460000,8.6024599609375,-0.1992924064397812,-4.858368873596191,8.520132064819336
1701538558462451200,8.619451171875,-0.1998765468597412,-4.860096454620361,8.519133567810059
1701538558479443000,8.63644287109375,-0.19874393939971924,-4.858788013458252,8.519905090332031
1701538558496433000,8.653432861328126,-0.1971266120672226,-4.855069160461426,8.522064208984375
1701538558513425700,8.67042578125,-0.19692546129226685,-4.84901237487793,8.52551555633545
1701538558530415400,8.687415283203125,-0.1997777372598648,-4.843325614929199,8.528681755065918
1701538558547408000,8.704407958984374,-0.20347434282302856,-4.841297626495361,8.529744148254395
1701538558564398000,8.721398193359375,-0.2075439989566803,-4.843933582305908,8.52815055847168
1701538558581392600,8.738392578125,-0.2119399458169937,-4.84985876083374,8.524674415588379
1701538558598378200,8.755378173828126,-0.21771933138370514,-4.8582539558410645,8.519745826721191
1701538558615372800,8.772372802734376,-0.2221117615699768,-4.867404460906982,8.514410018920898
1701538558632362800,8.78936279296875,-0.2245751917362213,-4.874691486358643,8.510173797607422
1701538558649355300,8.806355224609375,-0.22319407761096954,-4.877806663513184,8.50842571258545
1701538558666345000,8.823344970703126,-0.22197844088077545,-4.8752055168151855,8.509947776794434
1701538558683337200,8.840337158203125,-0.22235850989818573,-4.86879301071167,8.513608932495117
1701538558700327700,8.85732763671875,-0.2219720035791397,-4.861400604248047,8.517840385437012
1701538558717320200,8.8743203125,-0.22116567194461823,-4.8567938804626465,8.520489692687988
1701538558734310000,8.891309814453125,-0.22290171682834625,-4.857913970947266,8.519807815551758
1701538558751302100,8.90830224609375,-0.2281741499900818,-4.863587856292725,8.516429901123047
1701538558768292400,8.925292236328126,-0.23430436849594116,-4.871699333190918,8.511625289916992
1701538558785284900,8.942284912109375,-0.23902015388011932,-4.882382392883301,8.505369186401367
1701538558802274600,8.959274658203125,-0.2433786690235138,-4.894092082977295,8.498514175415039
1701538558819266800,8.976266845703124,-0.24815818667411804,-4.9039812088012695,8.492673873901367
1701538558836247000,8.9932470703125,-0.25333648920059204,-4.911984920501709,8.487894058227539
1701538558853249800,9.010249755859375,-0.2563875615596771,-4.917926788330078,8.484360694885254
1701538558870239700,9.02723974609375,-0.25813645124435425,-4.920953273773193,8.482552528381348
1701538558887232000,9.04423193359375,-0.2603016793727875,-4.919731616973877,8.483196258544922
1701538558904222000,9.061221923828125,-0.2614968419075012,-4.915285587310791,8.485734939575195
1701538558921214500,9.07821435546875,-0.26046013832092285,-4.90888786315918,8.489469528198242
1701538558938210300,9.095210205078125,-0.25969940423965454,-4.90228796005249,8.493307113647461
1701538558955197000,9.112197021484375,-0.2607390582561493,-4.896440029144287,8.496646881103516
1701538558972187100,9.129187255859375,-0.26513907313346863,-4.8917083740234375,8.499237060546875
1701538558989179600,9.1461796875,-0.27234694361686707,-4.889577388763428,8.500234603881836
1701538559006168800,9.1631689453125,-0.27850407361984253,-4.8899078369140625,8.499845504760742
1701538559023161900,9.180161865234375,-0.2840372920036316,-4.892028331756592,8.498441696166992
1701538559040141300,9.197141357421875,-0.29004472494125366,-4.895741939544678,8.496100425720215
1701538559057144600,9.21414453125,-0.2957001328468323,-4.900577068328857,8.49311637878418
1701538559074134000,9.231134033203125,-0.2974063456058502,-4.904181480407715,8.490976333618164
1701538559091126300,9.248126220703124,-0.2966427206993103,-4.905091285705566,8.490476608276367
1701538559108109000,9.265109130859376,-0.2942909598350525,-4.904045581817627,8.491162300109863
1701538559125109200,9.282109130859375,-0.2923309803009033,-4.900661468505859,8.493185043334961
1701538559142097000,9.299096923828126,-0.2915860414505005,-4.895984649658203,8.4959077835083
1701538559159093000,9.316093017578124,-0.2907165586948395,-4.893466949462891,8.49738597869873
1701538559176081400,9.333081298828125,-0.2878333032131195,-4.893497467041016,8.497466087341309
1701538559193074200,9.35007421875,-0.28539323806762695,-4.894803524017334,8.496797561645508
1701538559210063600,9.367063720703126,-0.28590136766433716,-4.895638942718506,8.496299743652344
1701538559227056400,9.384056396484375,-0.28804439306259155,-4.896452903747559,8.495759010314941
1701538559244036000,9.4010361328125,-0.28954944014549255,-4.897596836090088,8.495048522949219
1701538559261038800,9.418038818359374,-0.29137611389160156,-4.898570537567139,8.494422912597656
1701538559278028500,9.435028564453125,-0.29345011711120605,-4.900710582733154,8.493118286132812
1701538559295019000,9.45201904296875,-0.2959568202495575,-4.904053211212158,8.491101264953613
1701538559312013600,9.469013671875,-0.2996160089969635,-4.906056880950928,8.489816665649414
1701538559329003800,9.486003662109376,-0.30564743280410767,-4.90629243850708,8.48946475982666
1701538559345993500,9.502993408203125,-0.31164607405662537,-4.906954765319824,8.488862991333008
1701538559362982000,9.51998193359375,-0.3138352930545807,-4.909391403198242,8.487373352050781
1701538559379980300,9.536980224609374,-0.3144474923610687,-4.912186622619629,8.485733032226562
1701538559396968700,9.55396875,-0.3165302574634552,-4.9146318435668945,8.484240531921387
1701538559413958100,9.570958251953124,-0.32009121775627136,-4.917809009552002,8.482264518737793
1701538559430960400,9.58796044921875,-0.32291775941848755,-4.91995906829834,8.48090934753418
1701538559447940900,9.60494091796875,-0.323890745639801,-4.918905258178711,8.481485366821289
1701538559464936700,9.621936767578125,-0.3238813877105713,-4.916900634765625,8.482648849487305
1701538559481922600,9.638922607421875,-0.3240562081336975,-4.914545059204102,8.484006881713867
1701538559498915600,9.65591552734375,-0.325251966714859,-4.911707401275635,8.485604286193848
1701538559515906000,9.672906005859375,-0.32770779728889465,-4.910182952880859,8.486391067504883
1701538559532898600,9.689898681640624,-0.32811886072158813,-4.91146993637085,8.48563003540039
1701538559549887200,9.70688720703125,-0.3267938792705536,-4.913136959075928,8.484716415405273
1701538559566870000,9.7238701171875,-0.32433396577835083,-4.912677764892578,8.485074996948242
1701538559583871000,9.74087109375,-0.32082271575927734,-4.911427021026611,8.485933303833008
1701538559600863200,9.75786328125,-0.31580987572669983,-4.909547805786133,8.487208366394043
1701538559617850400,9.774850341796874,-0.31020182371139526,-4.905885696411133,8.489534378051758
1701538559634848000,9.791847900390625,-0.3053065240383148,-4.902062892913818,8.49191951751709
1701538559651835600,9.808835693359375,-0.30121463537216187,-4.899815082550049,8.493361473083496
1701538559668828200,9.825828125,-0.29700759053230286,-4.899419784545898,8.493739128112793
1701538559685817600,9.842817626953124,-0.29155272245407104,-4.89996862411499,8.493610382080078
1701538559702810000,9.85981005859375,-0.28610309958457947,-4.900836944580078,8.493294715881348
1701538559719800300,9.87680029296875,-0.2824462652206421,-4.902627468109131,8.492384910583496
1701538559736790000,9.8937900390625,-0.2798670530319214,-4.903712749481201,8.491842269897461
1701538559753774800,9.91077490234375,-0.27738550305366516,-4.903563022613525,8.492011070251465
1701538559770775300,9.927775390625,-0.2758254408836365,-4.90324592590332,8.4922456741333
1701538559787765200,9.94476513671875,-0.2752670347690582,-4.904075622558594,8.491783142089844
1701538559804757500,9.961757568359374,-0.2761511504650116,-4.906269073486328,8.490487098693848
1701538559821747200,9.978747314453125,-0.27884671092033386,-4.9084272384643555,8.489151954650879
1701538559838740000,9.995739990234375,-0.2830134332180023,-4.908965110778809,8.488702774047852
1701538559855730000,10.01272998046875,-0.28541138768196106,-4.908413410186768,8.488941192626953
1701538559872722700,10.02972265625,-0.2864246964454651,-4.907462120056152,8.489459037780762
1701538559889712400,10.04671240234375,-0.2873222529888153,-4.906432151794434,8.490023612976074
1701538559906705000,10.063704833984374,-0.28810927271842957,-4.904919624328613,8.490869522094727
1701538559923694800,10.08069482421875,-0.28877702355384827,-4.90393590927124,8.491415023803711
1701538559940687400,10.097687255859375,-0.29000669717788696,-4.903141021728516,8.49183177947998
1701538559957683200,10.11468310546875,-0.2927508056163788,-4.901094913482666,8.492918968200684
1701538559974669600,10.131669677734376,-0.2959030270576477,-4.899316787719727,8.49383544921875
1701538559991657200,10.1486572265625,-0.296892374753952,-4.8997697830200195,8.493539810180664
1701538560008654800,10.16565478515625,-0.29671522974967957,-4.902123928070068,8.492188453674316
1701538560025640700,10.182640625,-0.2978472411632538,-4.90644645690918,8.48965072631836
1701538560042635800,10.1996357421875,-0.3029758334159851,-4.912246227264404,8.486116409301758
1701538560059624700,10.216624755859375,-0.3068934679031372,-4.918596267700195,8.48229694366455
1701538560076626000,10.2336259765625,-0.30691394209861755,-4.92342472076416,8.479494094848633
1701538560093607000,10.25060693359375,-0.3034377694129944,-4.9258246421813965,8.478224754333496
1701538560110599400,10.267599365234375,-0.3001323342323303,-4.9261088371276855,8.47817611694336
1701538560127589600,10.284589599609374,-0.2985652685165405,-4.9233574867248535,8.479829788208008
1701538560144582100,10.30158203125,-0.2969783544540405,-4.918612480163574,8.482640266418457
1701538560161568300,10.318568359375,-0.2937220335006714,-4.913802146911621,8.485541343688965
1701538560178567700,10.335567626953125,-0.2909861207008362,-4.908604621887207,8.488640785217285
1701538560195554600,10.352554443359375,-0.29140186309814453,-4.903031349182129,8.49184799194336
1701538560212547000,10.369547119140625,-0.29382845759391785,-4.897386074066162,8.495022773742676
1701538560229536800,10.386536865234374,-0.29602932929992676,-4.892763614654541,8.497608184814453
1701538560246529000,10.403529052734376,-0.29688769578933716,-4.889462947845459,8.499479293823242
1701538560263519200,10.420519287109375,-0.2965012192726135,-4.888246059417725,8.500191688537598
1701538560280511700,10.43751171875,-0.2960878014564514,-4.888706207275391,8.4999418258667
1701538560297501700,10.454501708984376,-0.2968461811542511,-4.889418601989746,8.499505043029785
1701538560314494000,10.471493896484375,-0.29615914821624756,-4.889816761016846,8.499300956726074
1701538560331484000,10.48848388671875,-0.29597145318984985,-4.88960075378418,8.499431610107422
1701538560348477000,10.505476806640624,-0.29539141058921814,-4.888948440551758,8.499825477600098
1701538560365466400,10.52246630859375,-0.2933858036994934,-4.8872971534729,8.500845909118652
1701538560382459000,10.539458984375,-0.29164743423461914,-4.885377407073975,8.502007484436035
1701538560399446300,10.5564462890625,-0.28794556856155396,-4.8854875564575195,8.502071380615234
1701538560416444200,10.573444091796874,-0.2815270721912384,-4.885919094085693,8.502039909362793
1701538560433431300,10.590431396484375,-0.2765452563762665,-4.885614395141602,8.502378463745117
1701538560450423600,10.607423583984374,-0.27352282404899597,-4.8855133056640625,8.502532958984375
1701538560467413800,10.624413818359375,-0.27333864569664,-4.886265754699707,8.502106666564941
1701538560484406500,10.641406494140625,-0.2753348648548126,-4.8866801261901855,8.50180435180664
1701538560501396500,10.658396484375,-0.27654698491096497,-4.886204242706299,8.50203800201416
1701538560518388700,10.675388671875,-0.27517056465148926,-4.887112617492676,8.501559257507324
1701538560535366700,10.69236669921875,-0.2744262218475342,-4.888552188873291,8.50075626373291
1701538560552371500,10.709371337890625,-0.2752886712551117,-4.888775825500488,8.50059986114502
1701538560569361000,10.72636083984375,-0.2758605480194092,-4.888132095336914,8.50095272064209
1701538560586353400,10.743353515625,-0.27532434463500977,-4.8861308097839355,8.502119064331055
1701538560603344000,10.76034375,-0.2762978971004486,-4.882711887359619,8.504051208496094
1701538560620336000,10.777336181640624,-0.2790788412094116,-4.878748416900635,8.506235122680664
1701538560637325800,10.794325927734375,-0.2814282476902008,-4.8755903244018555,8.507967948913574
1701538560654307800,10.811307861328125,-0.2818147540092468,-4.874730110168457,8.50844955444336
1701538560671308500,10.82830859375,-0.2806459069252014,-4.87672758102417,8.507343292236328
1701538560688301000,10.845301025390626,-0.2795957326889038,-4.880582809448242,8.505167007446289
1701538560705290800,10.862290771484375,-0.2797653079032898,-4.885664463043213,8.502242088317871
1701538560722283000,10.879282958984374,-0.2802424430847168,-4.889981746673584,8.49974536895752
1701538560739273500,10.8962734375,-0.28106924891471863,-4.893698215484619,8.497579574584961
1701538560756266000,10.913265869140625,-0.28052544593811035,-4.896225452423096,8.496138572692871
1701538560773252900,10.9302529296875,-0.28080904483795166,-4.896150588989258,8.496174812316895
1701538560790249500,10.94724951171875,-0.283467173576355,-4.893355846405029,8.497694969177246
1701538560807230200,10.964230224609375,-0.28610485792160034,-4.890858173370361,8.499045372009277
1701538560824230700,10.981230712890625,-0.2879876494407654,-4.890059471130371,8.499441146850586
1701538560841217500,10.998217529296875,-0.28845837712287903,-4.890354633331299,8.499256134033203
1701538560858217500,11.015217529296875,-0.28816717863082886,-4.891512870788574,8.4985990524292
1701538560875203300,11.032203369140625,-0.2860352694988251,-4.8920979499816895,8.498333930969238
1701538560892195800,11.04919580078125,-0.2825959324836731,-4.891950607299805,8.498534202575684
1701538560909185300,11.066185302734375,-0.2791963815689087,-4.890984058380127,8.499201774597168
1701538560926178000,11.083177978515625,-0.27568569779396057,-4.89005184173584,8.499853134155273
1701538560943168300,11.100168212890624,-0.27179789543151855,-4.890119552612305,8.499940872192383
1701538560960160800,11.117160888671876,-0.26876378059387207,-4.889499187469482,8.50039291381836
1701538560977150200,11.134150146484375,-0.2674715220928192,-4.888578414916992,8.500964164733887
1701538560994132200,11.15113232421875,-0.26731833815574646,-4.887266635894775,8.501721382141113
1701538561011125500,11.16812548828125,-0.268248051404953,-4.8863983154296875,8.50219440460205
1701538561028127700,11.185127685546876,-0.2688778042793274,-4.886847972869873,8.501913070678711
1701538561045113300,11.20211328125,-0.2711658179759979,-4.887117385864258,8.501686096191406
1701538561062108000,11.21910791015625,-0.2757576107978821,-4.886845111846924,8.501694679260254
1701538561079097900,11.236097900390625,-0.2816995680332184,-4.886790752410889,8.501531600952148
1701538561096090000,11.253090087890625,-0.28452494740486145,-4.886392593383789,8.501666069030762
1701538561113080000,11.270080078125,-0.28378820419311523,-4.884567737579346,8.502738952636719
1701538561130072600,11.287072509765625,-0.282024085521698,-4.882538318634033,8.503963470458984
1701538561147063000,11.30406298828125,-0.2816855311393738,-4.881843090057373,8.504373550415039
1701538561164055300,11.32105517578125,-0.28266027569770813,-4.8812336921691895,8.504692077636719
1701538561181045000,11.338044921875,-0.2854125499725342,-4.8807148933410645,8.50489616394043
1701538561198037500,11.35503759765625,-0.28817886114120483,-4.8814167976379395,8.504401206970215
1701538561215027700,11.37202783203125,-0.28954067826271057,-4.883753776550293,8.50301456451416
1701538561232021200,11.389021240234374,-0.29024818539619446,-4.885534763336182,8.501965522766113
1701538561249017300,11.406017333984375,-0.2919444739818573,-4.885560512542725,8.501893043518066
1701538561265999000,11.4229990234375,-0.2921772003173828,-4.885491371154785,8.501924514770508
1701538561282992600,11.43999267578125,-0.28902962803840637,-4.885969161987305,8.501758575439453
1701538561299985200,11.456985107421875,-0.28423023223876953,-4.885584354400635,8.502140045166016
1701538561316974800,11.473974853515625,-0.2796822786331177,-4.883117198944092,8.503708839416504
1701538561333967400,11.49096728515625,-0.2774609327316284,-4.878545761108398,8.506403923034668
1701538561350957300,11.507957275390625,-0.2775328457355499,-4.873475551605225,8.509309768676758
1701538561367950000,11.5249501953125,-0.28047341108322144,-4.869142532348633,8.511693000793457
1701538561384939800,11.541939697265626,-0.28287309408187866,-4.867652416229248,8.512463569641113
1701538561401932300,11.558932373046876,-0.28352272510528564,-4.871547222137451,8.510215759277344
1701538561418922500,11.575922607421875,-0.2852453291416168,-4.879749774932861,8.505456924438477
1701538561435915000,11.5929150390625,-0.2899529039859772,-4.890646934509277,8.499034881591797
1701538561452904700,11.60990478515625,-0.29322385787963867,-4.902101039886475,8.49232292175293
1701538561469897000,11.62689697265625,-0.2920783758163452,-4.909274578094482,8.488216400146484
1701538561486887400,11.643887451171874,-0.29040372371673584,-4.911189556121826,8.487166404724121
1701538561503880000,11.6608798828125,-0.28996050357818604,-4.910439491271973,8.487614631652832
1701538561520859000,11.67785888671875,-0.2932717800140381,-4.905759811401367,8.490206718444824
1701538561537862100,11.694862060546875,-0.29686665534973145,-4.899043083190918,8.493961334228516
1701538561554852000,11.71185205078125,-0.2984413206577301,-4.893345832824707,8.497188568115234
1701538561571844600,11.7288447265625,-0.2998464107513428,-4.890921592712402,8.498536109924316
1701538561588834300,11.745834228515625,-0.30300506949424744,-4.890727519989014,8.49853515625
1701538561605827000,11.7628271484375,-0.3074395954608917,-4.8918304443359375,8.497739791870117
1701538561622817300,11.7798173828125,-0.3118951618671417,-4.89388370513916,8.4963960647583
1701538561639809500,11.7968095703125,-0.3180306553840637,-4.896057605743408,8.494915008544922
1701538561656799000,11.813799072265626,-0.32536831498146057,-4.898492813110352,8.493232727050781
1701538561673791700,11.830791748046876,-0.33141377568244934,-4.901219844818115,8.491426467895508
1701538561690779400,11.847779296875,-0.33564597368240356,-4.903336048126221,8.490039825439453
1701538561707777000,11.864777099609375,-0.33872395753860474,-4.905096530914307,8.488899230957031
1701538561724764000,11.881763916015625,-0.3408084809780121,-4.907062530517578,8.487680435180664
1701538561741738800,11.89873876953125,-0.34200483560562134,-4.907984256744385,8.48709774017334
1701538561758746600,11.91574658203125,-0.3391279876232147,-4.9073052406311035,8.487607955932617
1701538561775739400,11.932739501953124,-0.33599796891212463,-4.906085968017578,8.48843765258789
1701538561792729000,11.94972900390625,-0.3333176076412201,-4.903750896453857,8.489891052246094
1701538561809721900,11.966721923828125,-0.3307173550128937,-4.901027679443359,8.49156379699707
1701538561826709000,11.983708984375,-0.3294110894203186,-4.898672580718994,8.492975234985352
1701538561843707000,12.000706787109374,-0.33117052912712097,-4.897551536560059,8.493550300598145
1701538561860693800,12.01769384765625,-0.334270715713501,-4.897862911224365,8.493250846862793
1701538561877686300,12.034686279296874,-0.33568456768989563,-4.898904323577881,8.492593765258789
1701538561894675700,12.05167578125,-0.33596232533454895,-4.899791240692139,8.492073059082031
1701538561911670000,12.068669921875,-0.33805620670318604,-4.900672912597656,8.491480827331543
1701538561928659000,12.085658935546874,-0.34151598811149597,-4.901906967163086,8.490630149841309
1701538561945651500,12.1026513671875,-0.3435841500759125,-4.903148174285889,8.489829063415527
1701538561962639000,12.11963916015625,-0.3418668210506439,-4.903477191925049,8.489707946777344
1701538561979636500,12.136636474609375,-0.33868712186813354,-4.902101516723633,8.490630149841309
1701538561996623600,12.15362353515625,-0.3366791903972626,-4.899684429168701,8.492104530334473
1701538562013616400,12.170616455078125,-0.3358477056026459,-4.894505500793457,8.495123863220215
1701538562030606600,12.187606689453125,-0.3358500599861145,-4.885551929473877,8.500277519226074
1701538562047599000,12.20459912109375,-0.33365267515182495,-4.869853973388672,8.509366035461426
1701538562064588800,12.2215888671875,-0.3299010992050171,-4.845211029052734,8.523569107055664
1701538562081581300,12.238581298828125,-0.324464350938797,-4.813902854919434,8.541497230529785
1701538562098571500,12.255571533203126,-0.3188451826572418,-4.7778730392456055,8.561915397644043
1701538562115564000,12.27256396484375,-0.3102521002292633,-4.739340782165527,8.583619117736816
1701538562132553700,12.2895537109375,-0.2933290898799896,-4.697223663330078,8.607333183288574
1701538562149536500,12.30653662109375,-0.2719639539718628,-4.65009069442749,8.633585929870605
1701538562166536200,12.3235361328125,-0.2533417344093323,-4.602153778076172,8.659797668457031
1701538562183528700,12.34052880859375,-0.24082694947719574,-4.554744243621826,8.68518352508545
1701538562200518400,12.357518310546874,-0.23381905257701874,-4.508800506591797,8.70931625366211
1701538562217511200,12.37451123046875,-0.23244905471801758,-4.464529514312744,8.732128143310547
1701538562234501400,12.39150146484375,-0.23603807389736176,-4.423418998718262,8.752927780151367
1701538562251493600,12.40849365234375,-0.24275359511375427,-4.387447357177734,8.770833015441895
1701538562268483300,12.4254833984375,-0.25054559111595154,-4.357852935791016,8.785354614257812
1701538562285474300,12.442474365234375,-0.25860831141471863,-4.333857536315918,8.796982765197754
1701538562302455600,12.45945556640625,-0.2675066292285919,-4.312956809997559,8.806982040405273
1701538562319458800,12.476458740234374,-0.27545708417892456,-4.29655647277832,8.814750671386719
1701538562336448300,12.4934482421875,-0.2794577479362488,-4.285559177398682,8.819977760314941
1701538562353441000,12.51044091796875,-0.2803225517272949,-4.280782222747803,8.822269439697266
1701538562370431200,12.52743115234375,-0.2810008227825165,-4.280396461486816,8.822434425354004
1701538562387426000,12.544426025390624,-0.2859843969345093,-4.282472133636475,8.821267127990723
1701538562404410600,12.56141064453125,-0.2935641407966614,-4.2875752449035645,8.8185396194458
1701538562421408800,12.57840869140625,-0.2993827164173126,-4.29572868347168,8.814375877380371
1701538562438396000,12.59539599609375,-0.2984424829483032,-4.306026458740234,8.809380531311035
1701538562455388700,12.612388671875,-0.2904493510723114,-4.317204475402832,8.804174423217773
1701538562472378000,12.629378173828124,-0.2789110243320465,-4.329456806182861,8.798530578613281
1701538562489367600,12.646367431640625,-0.27023082971572876,-4.343286991119385,8.79198169708252
1701538562506364000,12.663364013671876,-0.2678030729293823,-4.360389232635498,8.783587455749512
1701538562523353600,12.680353515625,-0.26947537064552307,-4.381566047668457,8.772991180419922
1701538562540343000,12.697343017578126,-0.2738075852394104,-4.4078755378723145,8.759668350219727
1701538562557335600,12.71433544921875,-0.2776451110839844,-4.438217639923096,8.74421215057373
1701538562574325800,12.73132568359375,-0.2820527255535126,-4.472185134887695,8.7267484664917
1701538562591318300,12.748318359375,-0.28863611817359924,-4.5099687576293945,8.70706558227539
1701538562608305400,12.765305419921875,-0.2972736358642578,-4.549525260925293,8.68617057800293
1701538562625303300,12.78230322265625,-0.3071437180042267,-4.589446067810059,8.664800643920898
1701538562642279400,12.799279541015625,-0.31980061531066895,-4.629309177398682,8.643109321594238
1701538562659273700,12.816273681640626,-0.332186758518219,-4.668315410614014,8.621636390686035
1701538562676273000,12.83327294921875,-0.342769056558609,-4.704399585723877,8.601585388183594
1701538562693265400,12.850265380859375,-0.3503336012363434,-4.737312316894531,8.583195686340332
1701538562710255600,12.867255615234376,-0.35735318064689636,-4.766204357147217,8.566895484924316
1701538562727248100,12.884248046875,-0.3655410408973694,-4.791201591491699,8.552596092224121
1701538562744238000,12.901238037109374,-0.3752287030220032,-4.8123908042907715,8.540270805358887
1701538562761230300,12.918230224609376,-0.38502222299575806,-4.830347537994385,8.52968978881836
1701538562778220300,12.93522021484375,-0.3951951861381531,-4.845287799835205,8.520746231079102
1701538562795202300,12.952202392578124,-0.4051688015460968,-4.858251094818115,8.512894630432129
1701538562812203000,12.969203125,-0.41389283537864685,-4.868780612945557,8.50645637512207
1701538562829195500,12.986195556640626,-0.4212597608566284,-4.8759870529174805,8.501965522766113
1701538562846185500,13.003185546875,-0.4270987808704376,-4.879833221435547,8.499467849731445
1701538562863178200,13.02017822265625,-0.4305638372898102,-4.881838321685791,8.498140335083008
1701538562880168000,13.03716796875,-0.4331921637058258,-4.8820343017578125,8.497895240783691
1701538562897160200,13.05416015625,-0.4342662990093231,-4.879642009735107,8.499214172363281
1701538562914150100,13.071150146484374,-0.4343481659889221,-4.87408447265625,8.502396583557129
1701538562931143200,13.08814306640625,-0.4335125982761383,-4.866595268249512,8.506728172302246
1701538562948132600,13.105132568359375,-0.431882381439209,-4.857365608215332,8.512085914611816
1701538562965125000,13.122125,-0.42939671874046326,-4.846543312072754,8.518376350402832
1701538562982115300,13.139115234375,-0.42527151107788086,-4.833499431610107,8.525992393493652
1701538562999108000,13.156108154296875,-0.42173629999160767,-4.818704128265381,8.534538269042969
1701538563016097800,13.173097900390625,-0.4167819619178772,-4.802996635437012,8.543630599975586
1701538563033089800,13.19008984375,-0.4088665843009949,-4.786684513092041,8.553162574768066
1701538563050080000,13.207080078125,-0.3971066474914551,-4.769730091094971,8.56318187713623
1701538563067062500,13.2240625,-0.38584432005882263,-4.75220251083374,8.573437690734863
1701538563084062500,13.2410625,-0.3774500787258148,-4.735076427459717,8.583279609680176
1701538563101055000,13.258054931640626,-0.37042462825775146,-4.719427585601807,8.592199325561523
1701538563118045400,13.27504541015625,-0.3634278476238251,-4.707242488861084,8.599180221557617
1701538563135038000,13.292037841796875,-0.3568316102027893,-4.69883394241333,8.60405445098877
1701538563152027400,13.30902734375,-0.3514907658100128,-4.694511413574219,8.606633186340332
1701538563169020000,13.32602001953125,-0.34656742215156555,-4.692159175872803,8.608114242553711
1701538563186010000,13.343010009765624,-0.3435327112674713,-4.690133571624756,8.609341621398926
1701538563203002600,13.360002685546876,-0.3440244495868683,-4.6887946128845215,8.610052108764648
1701538563219989800,13.37698974609375,-0.3466714918613434,-4.689263343811035,8.609689712524414
1701538563236987600,13.393987548828125,-0.34823092818260193,-4.691752910614014,8.608270645141602
1701538563253975000,13.41097509765625,-0.3483625054359436,-4.694643020629883,8.606687545776367
1701538563270967800,13.4279677734375,-0.3497091233730316,-4.697645664215088,8.604994773864746
1701538563287957500,13.44495751953125,-0.3542962670326233,-4.7014875411987305,8.602707862854004
1701538563304949800,13.46194970703125,-0.3589184880256653,-4.706020832061768,8.600038528442383
1701538563321940200,13.478940185546875,-0.3622712790966034,-4.710458755493164,8.597467422485352
1701538563338932700,13.4959326171875,-0.36619535088539124,-4.71342658996582,8.595674514770508
1701538563355920000,13.512919921875,-0.3722027838230133,-4.716476917266846,8.593745231628418
1701538563372917200,13.529917236328124,-0.37659403681755066,-4.721213340759277,8.590950965881348
1701538563389905000,13.54690478515625,-0.37887853384017944,-4.726062297821045,8.588183403015137
1701538563406909200,13.5639091796875,-0.3826570212841034,-4.731173515319824,8.585201263427734
1701538563423887000,13.58088720703125,-0.38884395360946655,-4.736848831176758,8.581794738769531
1701538563440879600,13.597879638671875,-0.39545246958732605,-4.743502616882324,8.577816009521484
1701538563457862000,13.61486181640625,-0.40009984374046326,-4.750330448150635,8.573822021484375
1701538563474862300,13.6318623046875,-0.4024258553981781,-4.7583184242248535,8.569281578063965
1701538563491852300,13.648852294921875,-0.40238961577415466,-4.765404224395752,8.56534481048584
1701538563508831500,13.66583154296875,-0.40224459767341614,-4.769908905029297,8.562843322753906
1701538563525834800,13.682834716796876,-0.4010096788406372,-4.770190715789795,8.562743186950684
1701538563542827500,13.69982763671875,-0.39914265275001526,-4.766116142272949,8.565099716186523
1701538563559818500,13.716818603515625,-0.39712128043174744,-4.75857400894165,8.56938648223877
1701538563576805400,13.733805419921875,-0.39678505063056946,-4.750272274017334,8.574007987976074
1701538563593802200,13.75080224609375,-0.397720605134964,-4.7436604499816895,8.57762336730957
1701538563610792400,13.76779248046875,-0.3988508880138397,-4.7394256591796875,8.579911231994629
1701538563627772200,13.784772216796876,-0.39834392070770264,-4.738387107849121,8.5805082321167
1701538563644774700,13.801774658203126,-0.39583781361579895,-4.740646839141846,8.579376220703125
1701538563661761300,13.81876123046875,-0.3944222033023834,-4.74420690536499,8.577473640441895
1701538563678760700,13.8357607421875,-0.3944748342037201,-4.747329235076904,8.575743675231934
1701538563695747000,13.8527470703125,-0.3917897641658783,-4.749273777008057,8.574790000915527
1701538563712739300,13.8697392578125,-0.38518068194389343,-4.749866485595703,8.574760437011719
1701538563729729500,13.8867294921875,-0.3777482807636261,-4.74885892868042,8.57564926147461
1701538563746722000,13.90372216796875,-0.3721519112586975,-4.746330261230469,8.57729434967041
1701538563763712000,13.9207119140625,-0.36881664395332336,-4.742548942565918,8.57952880859375
1701538563780704500,13.93770458984375,-0.3658176064491272,-4.73901891708374,8.581607818603516
1701538563797694700,13.95469482421875,-0.3636488914489746,-4.736515045166016,8.58308219909668
1701538563814687000,13.97168701171875,-0.36066094040870667,-4.735776424407959,8.58361530303955
1701538563831677000,13.988677001953125,-0.35824957489967346,-4.735594272613525,8.583819389343262
1701538563848669400,14.00566943359375,-0.3559621274471283,-4.735690593719482,8.583861351013184
1701538563865659600,14.02265966796875,-0.35498565435409546,-4.73742151260376,8.5829439163208
1701538563882652200,14.039652099609375,-0.3543711006641388,-4.740251541137695,8.58140754699707
1701538563899638300,14.05663818359375,-0.35555925965309143,-4.7423224449157715,8.58021354675293
1701538563916634400,14.07363427734375,-0.3578776717185974,-4.744291305541992,8.579029083251953
1701538563933611000,14.090611083984374,-0.3595312833786011,-4.748482704162598,8.576640129089355
1701538563950619600,14.10761962890625,-0.36120298504829407,-4.753116607666016,8.574004173278809
1701538563967615500,14.124615478515626,-0.36230167746543884,-4.756924629211426,8.571844100952148
1701538563984599300,14.141599365234375,-0.3632974624633789,-4.760958671569824,8.569562911987305
1701538564001589200,14.15858935546875,-0.3642575740814209,-4.765387535095215,8.567060470581055
1701538564018582000,14.17558203125,-0.3658883571624756,-4.768098831176758,8.565482139587402
1701538564035569400,14.1925693359375,-0.3673688769340515,-4.769317150115967,8.564740180969238
1701538564052566000,14.20956591796875,-0.36795711517333984,-4.769906997680664,8.564386367797852
1701538564069543700,14.226543701171876,-0.3670285642147064,-4.7694783210754395,8.564664840698242
1701538564086547000,14.243546875,-0.36489084362983704,-4.768479347229004,8.565312385559082
1701538564103533800,14.260533935546874,-0.36373192071914673,-4.765869140625,8.566815376281738
1701538564120531700,14.27753173828125,-0.3646247684955597,-4.761449337005615,8.569233894348145
1701538564137519400,14.294519287109376,-0.36793431639671326,-4.757120609283447,8.571495056152344
1701538564154512000,14.311511962890625,-0.37148532271385193,-4.753075122833252,8.573588371276855
1701538564171501600,14.32850146484375,-0.37443289160728455,-4.751060962677002,8.574576377868652
1701538564188494000,14.345494140625,-0.3762350082397461,-4.750781536102295,8.574650764465332
1701538564205484300,14.362484375,-0.3770787715911865,-4.75201940536499,8.57392692565918
1701538564222476000,14.37947607421875,-0.3773629367351532,-4.752737998962402,8.573517799377441
1701538564239465000,14.39646484375,-0.3780435621738434,-4.75236177444458,8.573697090148926
1701538564256461300,14.41346142578125,-0.3795778751373291,-4.749604225158691,8.575155258178711
1701538564273449200,14.43044921875,-0.37969598174095154,-4.745899677276611,8.577202796936035
1701538564290441700,14.447441650390624,-0.3801298439502716,-4.742188930511475,8.579236030578613
1701538564307429400,14.464429443359375,-0.3805011510848999,-4.73846960067749,8.58127212524414
1701538564324426200,14.48142626953125,-0.3817366659641266,-4.734772682189941,8.583257675170898
1701538564341414000,14.498413818359374,-0.38338908553123474,-4.731074333190918,8.585224151611328
1701538564358407000,14.515406982421876,-0.3838100731372833,-4.728507041931152,8.58661937713623
1701538564375396400,14.532396240234375,-0.38331833481788635,-4.72751522064209,8.587186813354492
1701538564392388900,14.549388916015625,-0.38171735405921936,-4.727029800415039,8.587526321411133
1701538564409379300,14.56637939453125,-0.37961938977241516,-4.728267669677734,8.586936950683594
1701538564426367000,14.583366943359374,-0.3780377209186554,-4.732837200164795,8.584489822387695
1701538564443350500,14.6003505859375,-0.38024795055389404,-4.7398858070373535,8.5805025100708
1701538564460353500,14.617353515625,-0.3823792636394501,-4.747985363006592,8.575925827026367
1701538564477333200,14.634333251953125,-0.38265466690063477,-4.75506067276001,8.57199478149414
1701538564494326000,14.651325927734375,-0.3824593722820282,-4.760059833526611,8.569228172302246
1701538564511315700,14.668315673828126,-0.38523972034454346,-4.761744499206543,8.568167686462402
1701538564528319000,14.685319091796876,-0.3906010389328003,-4.7604594230651855,8.568639755249023
1701538564545309200,14.70230908203125,-0.3948420286178589,-4.75972318649292,8.568854331970215
1701538564562301400,14.719301513671875,-0.39679908752441406,-4.762021064758301,8.567486763000488
1701538564579291100,14.736291015625,-0.39667338132858276,-4.766780376434326,8.56484603881836
1701538564596284000,14.753283935546875,-0.39775627851486206,-4.771857738494873,8.561966896057129
1701538564613273900,14.77027392578125,-0.40080034732818604,-4.776424884796143,8.55927848815918
1701538564630266600,14.7872666015625,-0.4030515253543854,-4.780350208282471,8.556982040405273
1701538564647256000,14.804256103515625,-0.4051916003227234,-4.784176826477051,8.554741859436035
1701538564664248800,14.821248779296875,-0.40727612376213074,-4.787552833557129,8.552753448486328
1701538564681238800,14.83823876953125,-0.40933728218078613,-4.791508197784424,8.55043888092041
1701538564698231600,14.8552314453125,-0.4095156192779541,-4.796117782592773,8.547844886779785
1701538564715210500,14.87221044921875,-0.4096542000770569,-4.800703525543213,8.54526424407959
1701538564732213500,14.889213623046874,-0.41092362999916077,-4.804643154144287,8.542989730834961
1701538564749201700,14.90620166015625,-0.411397248506546,-4.807806015014648,8.541186332702637
1701538564766188300,14.923188232421875,-0.4091530740261078,-4.8098039627075195,8.540167808532715
1701538564783183400,14.940183349609375,-0.40464603900909424,-4.809642791748047,8.540474891662598
1701538564800181200,14.95718115234375,-0.399558961391449,-4.8087639808654785,8.54120922088623
1701538564817166300,14.974166259765624,-0.3941923975944519,-4.80809211730957,8.541837692260742
1701538564834164000,14.9911640625,-0.3878914415836334,-4.807814598083496,8.542281150817871
1701538564851151000,15.008151123046876,-0.38140103220939636,-4.807494163513184,8.542754173278809
1701538564868143600,15.0251435546875,-0.37696415185928345,-4.805727481842041,8.5439453125
1701538564885133800,15.0421337890625,-0.375095397233963,-4.803237438201904,8.545429229736328
1701538564902128600,15.059128662109375,-0.37423235177993774,-4.801416397094727,8.546488761901855
1701538564919114000,15.076114013671875,-0.37442705035209656,-4.800488471984863,8.546998977661133
1701538564936108500,15.093108642578125,-0.374846875667572,-4.800189971923828,8.547150611877441
1701538564953098800,15.1100986328125,-0.37440717220306396,-4.799931526184082,8.547316551208496
1701538564970091500,15.127091552734376,-0.3726974427700043,-4.800004482269287,8.547348976135254
1701538564987080700,15.144080810546875,-0.3702802062034607,-4.799257755279541,8.547872543334961
1701538565004062700,15.161062744140626,-0.3694007992744446,-4.796824932098389,8.549275398254395
1701538565021064000,15.17806396484375,-0.3709467947483063,-4.79334020614624,8.551163673400879
1701538565038056200,15.19505615234375,-0.37598299980163574,-4.7898359298706055,8.552908897399902
1701538565055045600,15.212045654296874,-0.3795696794986725,-4.786395072937012,8.55467700958252
1701538565072038400,15.229038330078126,-0.3810770809650421,-4.783167839050293,8.556412696838379
1701538565089028600,15.246028564453125,-0.3830961287021637,-4.780932903289795,8.557572364807129
1701538565106021400,15.263021484375,-0.38750261068344116,-4.779868125915527,8.557967185974121
1701538565123010800,15.2800107421875,-0.3912430703639984,-4.7795090675354,8.557999610900879
1701538565139993000,15.2969931640625,-0.3920242488384247,-4.781141757965088,8.557049751281738
1701538565156993800,15.313993896484375,-0.39340654015541077,-4.785058498382568,8.554798126220703
1701538565173986000,15.330986083984374,-0.39930811524391174,-4.78887939453125,8.552387237548828
1701538565190960400,15.34796044921875,-0.4065738916397095,-4.791744232177734,8.550439834594727
1701538565207975400,15.364975341796875,-0.4125029444694519,-4.794250965118408,8.548749923706055
1701538565224958700,15.381958740234374,-0.4163486659526825,-4.796349048614502,8.54738712310791
1701538565241951200,15.398951171875,-0.4212772846221924,-4.797546863555908,8.546472549438477
1701538565258941000,15.41594091796875,-0.4276174306869507,-4.798784255981445,8.545462608337402
1701538565275924200,15.43292431640625,-0.43227532505989075,-4.8008713722229,8.54405689239502
1701538565292923400,15.44992333984375,-0.43375641107559204,-4.804147243499756,8.542139053344727
1701538565309916000,15.466916015625,-0.43267351388931274,-4.807333469390869,8.54040241241455
1701538565326905900,15.48390576171875,-0.42977210879325867,-4.809030055999756,8.539591789245605
1701538565343898000,15.500898193359374,-0.42663800716400146,-4.808584213256836,8.540000915527344
1701538565360888300,15.517888427734375,-0.42317119240760803,-4.805185317993164,8.54208755493164
1701538565377881000,15.534881103515625,-0.41986167430877686,-4.800994873046875,8.544605255126953
1701538565394870800,15.551870849609376,-0.4155879318714142,-4.798582553863525,8.54616928100586
1701538565411863300,15.56886328125,-0.41100722551345825,-4.798644542694092,8.546355247497559
1701538565428843300,15.58584326171875,-0.40679022669792175,-4.799494743347168,8.546080589294434
1701538565445846000,15.602845947265624,-0.40505126118659973,-4.799530029296875,8.546143531799316
1701538565462833200,15.619833251953125,-0.40508225560188293,-4.7992143630981445,8.546320915222168
1701538565479831000,15.6368310546875,-0.4056599736213684,-4.799214839935303,8.546290397644043
1701538565496818700,15.653818603515624,-0.40558862686157227,-4.798803329467773,8.546525001525879
1701538565513811000,15.67081103515625,-0.405513197183609,-4.7983551025390625,8.546782493591309
1701538565530800600,15.687800537109375,-0.40543892979621887,-4.798343181610107,8.546791076660156
1701538565547793400,15.70479345703125,-0.4033280909061432,-4.799768924713135,8.546091079711914
1701538565564781000,15.721781005859375,-0.3991818428039551,-4.800992488861084,8.545599937438965
1701538565581778400,15.7387783203125,-0.3954676687717438,-4.799932956695557,8.546365737915039
1701538565598755000,15.755755126953124,-0.39286157488822937,-4.796157360076904,8.548604965209961
1701538565615758300,15.77275830078125,-0.38933220505714417,-4.791903972625732,8.551153182983398
1701538565632748300,15.789748291015625,-0.38577356934547424,-4.786918640136719,8.554104804992676
1701538565649740800,15.80674072265625,-0.3834306001663208,-4.78078556060791,8.557638168334961
1701538565666730500,15.82373046875,-0.3823564648628235,-4.77621603012085,8.560237884521484
1701538565683723000,15.840722900390626,-0.38163432478904724,-4.775285720825195,8.560791015625
1701538565700713500,15.85771337890625,-0.3816530406475067,-4.777643203735352,8.559473991394043
1701538565717706000,15.8747060546875,-0.38279032707214355,-4.781783580780029,8.557110786437988
1701538565734695700,15.89169580078125,-0.38353174924850464,-4.785791397094727,8.554834365844727
1701538565751688400,15.9086884765625,-0.3822757601737976,-4.78805685043335,8.55362319946289
1701538565768678400,15.925678466796874,-0.38120925426483154,-4.787181377410889,8.55416202545166
1701538565785671200,15.942671142578124,-0.3816121220588684,-4.782651424407959,8.556676864624023
1701538565802657000,15.959656982421874,-0.3822839558124542,-4.777012348175049,8.559798240661621
1701538565819656700,15.97665673828125,-0.38023802638053894,-4.772350788116455,8.562488555908203
1701538565836641000,15.99364111328125,-0.3791814148426056,-4.7714667320251465,8.563029289245605
1701538565853638700,16.010638671875,-0.38093850016593933,-4.774235725402832,8.561405181884766
1701538565870625800,16.027625732421875,-0.3833206593990326,-4.77852201461792,8.55890941619873
1701538565887618000,16.0446181640625,-0.3833545744419098,-4.781696319580078,8.557132720947266
1701538565904608300,16.061608154296874,-0.3837451636791229,-4.782474040985107,8.556681632995605
1701538565921600800,16.078600830078123,-0.3854016959667206,-4.780208110809326,8.557872772216797
1701538565938590700,16.0955908203125,-0.3876020014286041,-4.775274753570557,8.560527801513672
1701538565955583200,16.112583251953126,-0.38878312706947327,-4.769562244415283,8.5636568069458
1701538565972573200,16.1295732421875,-0.38991573452949524,-4.764864444732666,8.56622314453125
1701538565989566000,16.14656591796875,-0.39003971219062805,-4.7632012367248535,8.56714153289795
1701538566006555600,16.1635556640625,-0.3895128667354584,-4.76245641708374,8.567578315734863
1701538566023560200,16.180560302734374,-0.3901180624961853,-4.760806560516357,8.568469047546387
1701538566040538000,16.1975380859375,-0.39138221740722656,-4.75945520401001,8.569161415100098
1701538566057530600,16.214530517578126,-0.3908507227897644,-4.757420539855957,8.570314407348633
1701538566074520600,16.2315205078125,-0.38834166526794434,-4.754077911376953,8.572283744812012
1701538566091513000,16.24851318359375,-0.38613903522491455,-4.750089168548584,8.574594497680664
1701538566108503000,16.2655029296875,-0.38418957591056824,-4.747134208679199,8.57631778717041
1701538566125495800,16.282495849609376,-0.38110867142677307,-4.744503021240234,8.577912330627441
1701538566142485800,16.29948583984375,-0.37705129384994507,-4.742132186889648,8.579401969909668
1701538566159467300,16.31646728515625,-0.3739165961742401,-4.74125862121582,8.580020904541016
1701538566176468200,16.33346826171875,-0.3735353648662567,-4.740620136260986,8.580389976501465
1701538566193460500,16.35046044921875,-0.37433934211730957,-4.73965311050415,8.580890655517578
1701538566210450400,16.367450439453126,-0.37434110045433044,-4.739957809448242,8.580721855163574
1701538566227448000,16.384447998046873,-0.3732196092605591,-4.741884231567383,8.579706192016602
1701538566244431400,16.401431396484377,-0.3728225827217102,-4.744621276855469,8.578208923339844
1701538566261428000,16.418427978515624,-0.373737096786499,-4.746940612792969,8.576886177062988
1701538566278415400,16.435415283203124,-0.37432822585105896,-4.7481584548950195,8.576187133789062
1701538566295399400,16.4523994140625,-0.3744422495365143,-4.748291969299316,8.576107025146484
1701538566312398300,16.4693984375,-0.3732704818248749,-4.747584819793701,8.57655143737793
1701538566329390800,16.486390869140624,-0.37198761105537415,-4.746967315673828,8.576949119567871
1701538566346380300,16.50338037109375,-0.3705567717552185,-4.746702671051025,8.577157020568848
1701538566363370800,16.520370849609375,-0.36902129650115967,-4.7469611167907715,8.577080726623535
1701538566380355000,16.53735498046875,-0.3690066933631897,-4.7481489181518555,8.576424598693848
1701538566397354000,16.55435400390625,-0.37111636996269226,-4.749846458435059,8.575393676757812
1701538566414345200,16.57134521484375,-0.3733856678009033,-4.751430511474609,8.57441520690918
1701538566431335200,16.588335205078124,-0.3739113211631775,-4.753114223480225,8.573460578918457
1701538566448330800,16.605330810546874,-0.37557369470596313,-4.753320693969727,8.573272705078125
1701538566465320700,16.62232080078125,-0.3780996799468994,-4.753054618835449,8.573309898376465
1701538566482310400,16.639310302734376,-0.3786493241786957,-4.754024982452393,8.572746276855469
1701538566499303200,16.65630322265625,-0.3763735890388489,-4.7571330070495605,8.571121215820312
1701538566516293400,16.67329345703125,-0.3756134510040283,-4.761959075927734,8.568475723266602
1701538566533286000,16.690285888671873,-0.37585026025772095,-4.767318248748779,8.565485000610352
1701538566550275300,16.707275390625,-0.37340202927589417,-4.772192001342773,8.56287670135498
1701538566567257600,16.724257568359373,-0.36898213624954224,-4.775744915008545,8.561088562011719
1701538566584258600,16.741258544921877,-0.36519721150398254,-4.776001453399658,8.561108589172363
1701538566601252900,16.7582529296875,-0.36282676458358765,-4.7724223136901855,8.563204765319824
1701538566618234600,16.775234619140626,-0.3607679605484009,-4.767490863800049,8.56603717803955
1701538566635236900,16.79223681640625,-0.35932251811027527,-4.762959003448486,8.568618774414062
1701538566652223200,16.80922314453125,-0.35804665088653564,-4.759165287017822,8.570779800415039
1701538566669215700,16.8262158203125,-0.358710914850235,-4.757747173309326,8.571539878845215
1701538566686205400,16.843205322265625,-0.35945233702659607,-4.758178234100342,8.571270942687988
1701538566703187500,16.8601875,-0.3610129654407501,-4.758942127227783,8.570779800415039
1701538566720188200,16.877188232421876,-0.36283084750175476,-4.759099960327148,8.5706148147583
1701538566737180700,16.8941806640625,-0.36520132422447205,-4.758250713348389,8.570985794067383
1701538566754170400,16.91117041015625,-0.3654422163963318,-4.757157325744629,8.571582794189453
1701538566771163100,16.9281630859375,-0.36346936225891113,-4.755272388458252,8.572712898254395
1701538566788153300,16.9451533203125,-0.36133748292922974,-4.7521562576293945,8.574529647827148
1701538566805145600,16.9621455078125,-0.3619917929172516,-4.748532772064209,8.57651138305664
1701538566822135600,16.979135498046876,-0.3644335865974426,-4.746336936950684,8.577621459960938
1701538566839128600,16.996128662109374,-0.3660632073879242,-4.74582576751709,8.577834129333496
1701538566856117500,17.013117431640627,-0.367604523897171,-4.7458882331848145,8.577733993530273
1701538566873110800,17.03011083984375,-0.3698399066925049,-4.746404647827148,8.577352523803711
1701538566890100500,17.0471005859375,-0.3728874921798706,-4.747471332550049,8.576629638671875
1701538566907093000,17.064093017578124,-0.3753725588321686,-4.748132705688477,8.576155662536621
1701538566924083200,17.081083251953125,-0.3783189654350281,-4.74769926071167,8.576266288757324
1701538566941075700,17.09807568359375,-0.38110867142677307,-4.745944023132324,8.577115058898926
1701538566958065400,17.1150654296875,-0.38327622413635254,-4.744167804718018,8.577999114990234
1701538566975058200,17.13205810546875,-0.3836229741573334,-4.743128776550293,8.578558921813965
1701538566992048000,17.149048095703126,-0.382589191198349,-4.741696834564209,8.57939624786377
1701538567009040600,17.16604052734375,-0.3801783621311188,-4.739921569824219,8.580484390258789
1701538567026024400,17.1830244140625,-0.37786754965782166,-4.737514972686768,8.581915855407715
1701538567043014700,17.2000146484375,-0.37816575169563293,-4.736023426055908,8.58272647857666
1701538567060013300,17.217013427734376,-0.37946033477783203,-4.735641956329346,8.582878112792969
1701538567077005600,17.234005615234373,-0.38169339299201965,-4.73676061630249,8.582161903381348
1701538567093995000,17.2509951171875,-0.38502103090286255,-4.7391791343688965,8.580678939819336
1701538567110988500,17.267988525390624,-0.3880229890346527,-4.741607189178467,8.579203605651855
1701538567127975700,17.2849755859375,-0.3887802064418793,-4.743485927581787,8.578128814697266
1701538567144973300,17.301973388671875,-0.38840949535369873,-4.74333381652832,8.578230857849121
1701538567161958000,17.3189580078125,-0.3877516984939575,-4.740672588348389,8.579730987548828
1701538567178950100,17.3359501953125,-0.3860805630683899,-4.738457679748535,8.581029891967773
1701538567195943000,17.35294287109375,-0.3832347095012665,-4.738164901733398,8.581318855285645
1701538567212931800,17.369931884765624,-0.38181909918785095,-4.740591526031494,8.580041885375977
1701538567229929500,17.386929443359374,-0.3825961947441101,-4.744694232940674,8.577739715576172
1701538567246915600,17.40391552734375,-0.3842123746871948,-4.749484539031982,8.575016975402832
1701538567263910700,17.42091064453125,-0.38670679926872253,-4.754056453704834,8.572368621826172
1701538567280890600,17.437890625,-0.38943392038345337,-4.757504940032959,8.570331573486328
1701538567297890300,17.454890380859375,-0.39224645495414734,-4.757809162139893,8.570034980773926
1701538567314882800,17.4718828125,-0.39442452788352966,-4.756263256072998,8.570793151855469
1701538567331873300,17.488873291015626,-0.39581793546676636,-4.75397253036499,8.572000503540039
1701538567348865500,17.505865478515624,-0.39698269963264465,-4.7525739669799805,8.572721481323242
1701538567365863700,17.52286376953125,-0.3987988233566284,-4.752360820770264,8.572754859924316
1701538567382848000,17.539847900390626,-0.40171894431114197,-4.753444671630859,8.57201862335205
1701538567399838200,17.556838134765623,-0.4043823480606079,-4.756704807281494,8.570085525512695
1701538567416830700,17.573830810546873,-0.40476885437965393,-4.760715961456299,8.567837715148926
1701538567433820700,17.590820556640626,-0.403610497713089,-4.76462984085083,8.565716743469238
1701538567450813000,17.60781298828125,-0.401075154542923,-4.768218994140625,8.563840866088867
1701538567467803100,17.62480322265625,-0.39867427945137024,-4.769766330718994,8.563091278076172
1701538567484785200,17.64178515625,-0.3986637592315674,-4.768233299255371,8.563943862915039
1701538567501784300,17.658784423828124,-0.40018463134765625,-4.764925479888916,8.565714836120605
1701538567518777900,17.67577783203125,-0.40240129828453064,-4.763091564178467,8.566631317138672
1701538567535765800,17.692765869140626,-0.40560615062713623,-4.763785362243652,8.566094398498535
1701538567552763100,17.70976318359375,-0.41069266200065613,-4.7668538093566895,8.564143180847168
1701538567569750300,17.726750244140625,-0.4182063341140747,-4.771721839904785,8.561067581176758
1701538567586743000,17.743742919921875,-0.424546480178833,-4.777405261993408,8.557586669921875
1701538567603733200,17.760733154296876,-0.42669883370399475,-4.781102180480957,8.555414199829102
1701538567620725500,17.7777255859375,-0.4248557984828949,-4.7807440757751465,8.555706977844238
1701538567637715200,17.794715087890626,-0.4221169352531433,-4.778199672698975,8.557263374328613
1701538567654708000,17.8117080078125,-0.41966697573661804,-4.774158954620361,8.559638023376465
1701538567671695600,17.828695556640625,-0.4176812469959259,-4.769227504730225,8.562484741210938
1701538567688693200,17.845693359375,-0.4162609577178955,-4.765158653259277,8.564818382263184
1701538567705675500,17.862675537109375,-0.41551485657691956,-4.762938499450684,8.566089630126953
1701538567722673000,17.8796728515625,-0.41609665751457214,-4.76195764541626,8.566605567932129
1701538567739663000,17.8966630859375,-0.4182104170322418,-4.762082099914551,8.56643295288086
1701538567756655000,17.913655029296876,-0.42196083068847656,-4.762754917144775,8.565876007080078
1701538567773646300,17.930646240234374,-0.426604688167572,-4.763858318328857,8.565032958984375
1701538567790637800,17.947637939453124,-0.43100589513778687,-4.765705585479736,8.5637845993042
1701538567807628300,17.964628173828125,-0.4349130094051361,-4.767019748687744,8.56285572052002
1701538567824603100,17.98160302734375,-0.4389505088329315,-4.767847537994385,8.562188148498535
1701538567841610200,17.9986103515625,-0.4425734281539917,-4.76824426651001,8.56178092956543
1701538567858603000,18.01560302734375,-0.44467198848724365,-4.767055988311768,8.562333106994629
1701538567875593200,18.03259326171875,-0.4435727298259735,-4.765131950378418,8.563461303710938
1701538567892586000,18.0495859375,-0.43993985652923584,-4.762884616851807,8.564898490905762
1701538567909575200,18.0665751953125,-0.4375191032886505,-4.7614216804504395,8.565836906433105
1701538567926568000,18.08356787109375,-0.43815118074417114,-4.761502742767334,8.565760612487793
1701538567943558400,18.100558349609376,-0.43868210911750793,-4.761751651763916,8.565594673156738
1701538567960551000,18.117551025390625,-0.4384452998638153,-4.761361598968506,8.56582260131836
1701538567977540600,18.13454052734375,-0.43976444005966187,-4.761508941650391,8.565672874450684
1701538567994533000,18.151533203125,-0.44303596019744873,-4.762988090515137,8.564682006835938
1701538568011523300,18.1685234375,-0.44701087474823,-4.7650861740112305,8.563307762145996
1701538568028515600,18.185515625,-0.45140039920806885,-4.766724586486816,8.56216812133789
1701538568045505500,18.202505615234376,-0.4552314877510071,-4.767703056335449,8.561418533325195
1701538568062497300,18.219497314453125,-0.45721954107284546,-4.768228054046631,8.561019897460938
1701538568079489300,18.2364892578125,-0.4586842656135559,-4.767731666564941,8.56121826171875
1701538568096480800,18.253480712890624,-0.4605419337749481,-4.764809608459473,8.562744140625
1701538568113470200,18.27047021484375,-0.46231305599212646,-4.76157283782959,8.564451217651367
1701538568130463000,18.287462890625,-0.46204233169555664,-4.7597975730896,8.565450668334961
1701538568147453400,18.304453369140624,-0.4617832899093628,-4.759366989135742,8.565705299377441
1701538568164446000,18.321446044921874,-0.46232298016548157,-4.759833335876465,8.565415382385254
1701538568181435600,18.338435546875,-0.46308663487434387,-4.760881423950195,8.56479263305664
1701538568198428000,18.355427978515625,-0.463810533285141,-4.7614874839782715,8.564416885375977
1701538568215418400,18.37241845703125,-0.4649296700954437,-4.760695457458496,8.564797401428223
1701538568232410600,18.38941064453125,-0.4654097259044647,-4.759926795959473,8.565197944641113
1701538568249400300,18.406400390625,-0.4661868214607239,-4.760416507720947,8.564882278442383
1701538568266393000,18.42339306640625,-0.46899116039276123,-4.7621564865112305,8.563762664794922
1701538568283383300,18.44038330078125,-0.47267723083496094,-4.764939308166504,8.56201171875
1701538568300376000,18.4573759765625,-0.47568854689598083,-4.76846981048584,8.559879302978516
1701538568317365500,18.474365478515626,-0.4767100512981415,-4.77099609375,8.558415412902832
1701538568334358000,18.49135791015625,-0.4763697683811188,-4.771881580352783,8.557940483093262
1701538568351348200,18.50834814453125,-0.47481438517570496,-4.771224498748779,8.558392524719238
1701538568368330200,18.525330322265624,-0.4723585546016693,-4.769242286682129,8.5596342086792
1701538568385330400,18.542330322265624,-0.4702734351158142,-4.7679009437561035,8.56049633026123
1701538568402323200,18.5593232421875,-0.46819594502449036,-4.768123149871826,8.560486793518066
1701538568419310600,18.576310546875,-0.4663528800010681,-4.769309997558594,8.559925079345703
1701538568436308500,18.59330859375,-0.46433910727500916,-4.768865585327148,8.560282707214355
1701538568453293300,18.610293212890625,-0.46267324686050415,-4.766522407531738,8.561676979064941
1701538568470290700,18.627290771484375,-0.46130383014678955,-4.762118816375732,8.564200401306152
1701538568487278000,18.644278076171876,-0.4602682888507843,-4.755753040313721,8.567793846130371
1701538568504270800,18.661270751953126,-0.4611307382583618,-4.748575687408447,8.571727752685547
1701538568521260800,18.6782607421875,-0.46383801102638245,-4.7410712242126465,8.575733184814453
1701538568538253300,18.69525341796875,-0.4680503308773041,-4.7332234382629395,8.579840660095215
1701538568555243500,18.712243408203125,-0.47417646646499634,-4.725950717926025,8.583510398864746
1701538568572234200,18.729234130859375,-0.4826461672782898,-4.720037460327148,8.586291313171387
1701538568589227300,18.746227294921876,-0.4901001751422882,-4.713324069976807,8.589558601379395
1701538568606207500,18.76320751953125,-0.49520304799079895,-4.707272529602051,8.592582702636719
1701538568623198500,18.780198486328125,-0.4994943141937256,-4.7024030685424805,8.595001220703125
1701538568640201000,18.797200927734377,-0.5047153234481812,-4.695834159851074,8.598287582397461
1701538568657191000,18.81419091796875,-0.5087083578109741,-4.68923282623291,8.601652145385742
1701538568674183200,18.83118310546875,-0.5105835795402527,-4.683464050292969,8.604683876037598
1701538568691173600,18.848173583984376,-0.5116302371025085,-4.677785396575928,8.607708930969238
1701538568708166100,18.865166259765626,-0.5154238939285278,-4.670368194580078,8.611510276794434
1701538568725155800,18.88215576171875,-0.5214295983314514,-4.660074710845947,8.616724967956543
1701538568742144800,18.899144775390624,-0.5267160534858704,-4.646049976348877,8.62397289276123
1701538568759142000,18.916141845703127,-0.5321896076202393,-4.624260902404785,8.635340690612793
1701538568776130800,18.933130859375,-0.5405768752098083,-4.592984199523926,8.651495933532715
1701538568793120800,18.950120849609377,-0.5507030487060547,-4.559408664703369,8.668600082397461
1701538568810110700,18.96711083984375,-0.5606030225753784,-4.527987957000732,8.68442153930664
1701538568827105800,18.984105712890624,-0.5696866512298584,-4.498435020446777,8.699175834655762
1701538568844085500,19.00108544921875,-0.5802063941955566,-4.471101760864258,8.712562561035156
1701538568861085700,19.018085693359374,-0.5968002080917358,-4.44249963760376,8.72606372833252
1701538568878078500,19.035078369140624,-0.6168859601020813,-4.415463924407959,8.738377571105957
1701538568895068400,19.052068359375,-0.6316782236099243,-4.394842147827148,8.747713088989258
1701538568912061000,19.06906103515625,-0.6401631236076355,-4.379542350769043,8.754766464233398
1701538568929051000,19.08605078125,-0.64334636926651,-4.371701240539551,8.758451461791992
1701538568946043400,19.10304345703125,-0.6431066393852234,-4.371105670928955,8.758766174316406
1701538568963033600,19.12003369140625,-0.6415173411369324,-4.375,8.756936073303223
1701538568980025900,19.13702587890625,-0.6430551409721375,-4.3761701583862305,8.756239891052246
1701538568997023000,19.15402294921875,-0.6478270888328552,-4.375498294830322,8.756223678588867
1701538569013996300,19.170996337890625,-0.6529393196105957,-4.375804424285889,8.755691528320312
1701538569030987500,19.187987548828126,-0.6578264236450195,-4.376880645751953,8.754786491394043
1701538569047993600,19.20499365234375,-0.6631426811218262,-4.379138469696045,8.753257751464844
1701538569064970800,19.221970703125,-0.6690495610237122,-4.3822736740112305,8.751236915588379
1701538569081973200,19.23897314453125,-0.6750066876411438,-4.385581016540527,8.749124526977539
1701538569098963700,19.255963623046874,-0.6783068776130676,-4.3906097412109375,8.746345520019531
1701538569115956000,19.2729560546875,-0.6784045100212097,-4.3984832763671875,8.74238109588623
1701538569132945700,19.289945556640625,-0.6758200526237488,-4.406165599822998,8.738712310791016
1701538569149938700,19.306938720703126,-0.6728952527046204,-4.410594940185547,8.736702919006348
1701538569166915800,19.323915771484376,-0.6691401600837708,-4.413785934448242,8.735380172729492
1701538569183921700,19.340921630859373,-0.6647699475288391,-4.416604042053223,8.734289169311523
1701538569200909300,19.357909423828126,-0.6599776148796082,-4.418736934661865,8.733573913574219
1701538569217905000,19.37490478515625,-0.6566224694252014,-4.421156406402588,8.7326021194458
1701538569234891800,19.391891845703125,-0.6534901261329651,-4.424834728240967,8.730974197387695
1701538569251888000,19.40888818359375,-0.6496660113334656,-4.4311628341674805,8.728050231933594
1701538569268876300,19.425876220703124,-0.6473657488822937,-4.438343524932861,8.724571228027344
1701538569285868300,19.442868408203125,-0.6475610136985779,-4.44625997543335,8.720525741577148
1701538569302858800,19.459858642578126,-0.6488438844680786,-4.45481538772583,8.716062545776367
1701538569319851500,19.4768515625,-0.652289092540741,-4.464313983917236,8.710945129394531
1701538569336841200,19.49384130859375,-0.6578737497329712,-4.474298000335693,8.705399513244629
1701538569353833500,19.51083349609375,-0.6641788482666016,-4.482781410217285,8.700553894042969
1701538569370824000,19.527823974609376,-0.6696032881736755,-4.487967491149902,8.697464942932129
1701538569387816400,19.54481640625,-0.6742021441459656,-4.488914489746094,8.696621894836426
1701538569404806100,19.56180615234375,-0.6778841018676758,-4.484408855438232,8.69865894317627
1701538569421798400,19.57879833984375,-0.6800259351730347,-4.47743558883667,8.702082633972168
1701538569438788900,19.595788818359374,-0.6795949935913086,-4.471161365509033,8.705342292785645
1701538569455781400,19.612781494140624,-0.6769456267356873,-4.466784477233887,8.707796096801758
1701538569472768300,19.629768310546876,-0.6727069616317749,-4.464110851287842,8.709493637084961
1701538569489766700,19.6467666015625,-0.6682713031768799,-4.462780952453613,8.710517883300781
1701538569506754000,19.663754150390623,-0.664551317691803,-4.463009357452393,8.710684776306152
1701538569523746300,19.680746337890625,-0.6616387963294983,-4.464222431182861,8.710286140441895
1701538569540736000,19.697736083984374,-0.6591326594352722,-4.465613842010498,8.709762573242188
1701538569557728800,19.714728759765624,-0.6560523509979248,-4.467517852783203,8.709017753601074
1701538569574718700,19.73171875,-0.6518166661262512,-4.470285415649414,8.707915306091309
1701538569591711500,19.74871142578125,-0.6494747996330261,-4.472107410430908,8.70715618133545
1701538569608700700,19.76570068359375,-0.6475727558135986,-4.473870754241943,8.706391334533691
1701538569625694000,19.78269384765625,-0.6417717337608337,-4.476027965545654,8.70571231842041
1701538569642684000,19.799683837890626,-0.6339001655578613,-4.47666072845459,8.705962181091309
1701538569659676400,19.816676513671876,-0.6265701055526733,-4.473540306091309,8.708097457885742
1701538569676666000,19.833666015625,-0.6206381320953369,-4.466609954833984,8.712078094482422
1701538569693648100,19.850648193359376,-0.6142944693565369,-4.457973957061768,8.716951370239258
1701538569710652400,19.86765234375,-0.6090354919433594,-4.448058605194092,8.722384452819824
1701538569727638300,19.88463818359375,-0.6054008603096008,-4.438715934753418,8.727394104003906
1701538569744631300,19.90163134765625,-0.6044114828109741,-4.432108402252197,8.730819702148438
1701538569761621800,19.918621826171876,-0.6055084466934204,-4.428905487060547,8.732370376586914
1701538569778616300,19.9356162109375,-0.6078251004219055,-4.428731441497803,8.73229694366455
1701538569795606800,19.952606689453123,-0.6108685731887817,-4.430334091186523,8.731270790100098
1701538569812596500,19.969596435546876,-0.6150931715965271,-4.431638717651367,8.730313301086426
1701538569829588700,19.986588623046874,-0.6186056137084961,-4.431002140045166,8.730388641357422
1701538569846579000,20.003578857421875,-0.6220753788948059,-4.42836856842041,8.731475830078125
1701538569863571700,20.02057177734375,-0.6247726678848267,-4.425474166870117,8.732751846313477
1701538569880558800,20.037558837890625,-0.6262584328651428,-4.4242987632751465,8.733241081237793
1701538569897554000,20.054553955078124,-0.6275781989097595,-4.425565242767334,8.732504844665527
1701538569914546700,20.071546630859373,-0.6307625770568848,-4.427028179168701,8.73153305053711
1701538569931536600,20.08853662109375,-0.6350035667419434,-4.428481578826904,8.730490684509277
1701538569948526000,20.105526123046875,-0.6374781131744385,-4.428492546081543,8.730302810668945
1701538569965518800,20.122518798828125,-0.6384814977645874,-4.4272074699401855,8.730883598327637
1701538569982509000,20.139509033203126,-0.6380277276039124,-4.426305770874023,8.731372833251953
1701538569999501800,20.156501708984376,-0.6358016729354858,-4.427606105804443,8.730874061584473
1701538570016491500,20.173491455078125,-0.6330119967460632,-4.432565689086914,8.728560447692871
1701538570033484000,20.190484130859375,-0.6314022541046143,-4.440260887145996,8.724766731262207
1701538570050470400,20.207470458984375,-0.633136510848999,-4.44720458984375,8.721101760864258
1701538570067470300,20.22447021484375,-0.6384803056716919,-4.45229434967041,8.71811580657959
1701538570084440600,20.241440673828127,-0.6451596021652222,-4.4553046226501465,8.716085433959961
1701538570101449200,20.25844921875,-0.649040937423706,-4.457350254058838,8.714752197265625
1701538570118439400,20.275439453125,-0.6492824554443359,-4.458864212036133,8.713960647583008
1701538570135431700,20.292431640625,-0.6461629867553711,-4.459132194519043,8.714054107666016
1701538570152421400,20.30942138671875,-0.6423172354698181,-4.460006237030029,8.713889122009277
1701538570169414100,20.3264140625,-0.6358028650283813,-4.460663795471191,8.714033126831055
1701538570186404400,20.343404296875,-0.6281242966651917,-4.459211349487305,8.715331077575684
1701538570203396600,20.360396728515624,-0.621865451335907,-4.455063819885254,8.717900276184082
1701538570220386600,20.377386474609374,-0.6173391342163086,-4.450011253356934,8.720804214477539
1701538570237379300,20.39437939453125,-0.6135998368263245,-4.445477485656738,8.72337818145752
1701538570254371600,20.41137158203125,-0.6100663542747498,-4.443253993988037,8.724759101867676
1701538570271360000,20.428360107421874,-0.6079742312431335,-4.443006992340088,8.725031852722168
1701538570288332800,20.445332763671875,-0.6096488833427429,-4.444534778594971,8.724136352539062
1701538570305344300,20.46234423828125,-0.6135272979736328,-4.447715759277344,8.72224235534668
1701538570322334200,20.479334228515626,-0.6169409155845642,-4.451227188110352,8.72021198272705
1701538570339327000,20.496326904296875,-0.6188815832138062,-4.454919338226318,8.71818733215332
1701538570356316400,20.51331640625,-0.6217502355575562,-4.45913028717041,8.715831756591797
1701538570373309400,20.530309326171874,-0.6243996024131775,-4.463222026824951,8.713547706604004
1701538570390299600,20.547299560546875,-0.6268332600593567,-4.46571683883667,8.7120943069458
1701538570407292000,20.5642919921875,-0.6290920376777649,-4.467803478240967,8.710860252380371
1701538570424281600,20.581281494140626,-0.631092369556427,-4.46928596496582,8.709955215454102
1701538570441274000,20.598274169921876,-0.6322776079177856,-4.469685077667236,8.709663391113281
1701538570458253800,20.61525390625,-0.6334750652313232,-4.468594074249268,8.710137367248535
1701538570475254500,20.632254638671874,-0.6337347030639648,-4.466505527496338,8.711191177368164
1701538570492249600,20.64924951171875,-0.6341849565505981,-4.464432239532471,8.7122220993042
1701538570509239600,20.666239501953125,-0.6335276961326599,-4.463014602661133,8.712992668151855
1701538570526229800,20.683229736328126,-0.6331698894500732,-4.461838245391846,8.713623046875
1701538570543219700,20.7002197265625,-0.6320893168449402,-4.461798191070557,8.713722229003906
1701538570560214500,20.717214599609374,-0.6324337124824524,-4.462668418884277,8.713251113891602
1701538570577204500,20.73420458984375,-0.6334049105644226,-4.464354991912842,8.712315559387207
1701538570594194400,20.7511943359375,-0.6355502605438232,-4.465645790100098,8.711498260498047
1701538570611187200,20.768187255859374,-0.6396152377128601,-4.465920925140381,8.7110595703125
1701538570628177200,20.78517724609375,-0.6426125168800354,-4.465226650238037,8.71119499206543
1701538570645169700,20.802169677734376,-0.6437533497810364,-4.464056015014648,8.711709976196289
1701538570662160000,20.819159912109374,-0.642875075340271,-4.462536811828613,8.712553977966309
1701538570679152000,20.836152099609375,-0.6419155597686768,-4.460763931274414,8.713532447814941
1701538570696141800,20.853141845703124,-0.6386867165565491,-4.460572719573975,8.713868141174316
1701538570713136600,20.87013671875,-0.6338516473770142,-4.462944507598877,8.713006019592285
1701538570730122800,20.887122802734375,-0.6301333904266357,-4.465749263763428,8.711838722229004
1701538570747100000,20.904099853515625,-0.6283032298088074,-4.468109607696533,8.710762023925781
1701538570764106800,20.921106689453126,-0.6248726844787598,-4.469283580780029,8.710404396057129
1701538570781100300,20.938100341796876,-0.6211602687835693,-4.468262672424316,8.711193084716797
1701538570798090000,20.955090087890625,-0.6179805397987366,-4.467214107513428,8.711958885192871
1701538570815071000,20.972071044921876,-0.6145845055580139,-4.465770244598389,8.71293830871582
1701538570832073000,20.989072998046876,-0.612008810043335,-4.464214324951172,8.71391773223877
1701538570849064700,21.006064697265625,-0.6111562848091125,-4.463521480560303,8.714332580566406
1701538570866059300,21.023059326171875,-0.6103785634040833,-4.465007305145264,8.71362590789795
1701538570883047400,21.04004736328125,-0.6093904376029968,-4.468435287475586,8.71193790435791
1701538570900037400,21.057037353515625,-0.6090459823608398,-4.4708781242370605,8.710707664489746
1701538570917027000,21.074027099609374,-0.6115725636482239,-4.4724440574646,8.70972728729248
1701538570934020900,21.091020751953124,-0.6137284636497498,-4.474305152893066,8.7086181640625
1701538570951014100,21.10801416015625,-0.614020824432373,-4.4768829345703125,8.707273483276367
1701538570968002300,21.125002197265626,-0.6124134063720703,-4.479995250701904,8.70578670501709
1701538570984994600,21.14199462890625,-0.6105616092681885,-4.482773780822754,8.704486846923828
1701538571001985000,21.158985107421874,-0.6096938848495483,-4.482892036437988,8.704486846923828
1701538571018977300,21.175977294921875,-0.6096587777137756,-4.481123924255371,8.70539665222168
1701538571035967200,21.19296728515625,-0.6091120839118958,-4.478204727172852,8.706936836242676
1701538571052960300,21.209960205078126,-0.6065661907196045,-4.474994659423828,8.708767890930176
1701538571069950000,21.226949951171875,-0.6035010814666748,-4.473745346069336,8.70962142944336
1701538571086942500,21.2439423828125,-0.601128876209259,-4.474791526794434,8.709249496459961
1701538571103932200,21.26093212890625,-0.599582314491272,-4.477900505065918,8.707756996154785
1701538571120914200,21.2779140625,-0.5978614687919617,-4.482051849365234,8.70573902130127
1701538571137915100,21.2949150390625,-0.5958412289619446,-4.485540390014648,8.704080581665039
1701538571154908000,21.311907958984374,-0.5933807492256165,-4.487397193908691,8.703292846679688
1701538571171897300,21.3288974609375,-0.5903810858726501,-4.486754894256592,8.703827857971191
1701538571188890400,21.345890380859377,-0.5865412354469299,-4.48434591293335,8.705327987670898
1701538571205878000,21.3628779296875,-0.5826528668403625,-4.481064796447754,8.707277297973633
1701538571222875600,21.379875732421876,-0.5787410736083984,-4.479258060455322,8.70846939086914
1701538571239861800,21.39686181640625,-0.5745509266853333,-4.479214191436768,8.708767890930176
1701538571256855000,21.41385498046875,-0.5697129368782043,-4.480587005615234,8.708380699157715
1701538571273845500,21.430845458984376,-0.5657830238342285,-4.482282638549805,8.707764625549316
1701538571290838000,21.447838134765625,-0.5619046092033386,-4.482324600219727,8.707993507385254
1701538571307827700,21.46482763671875,-0.5587348341941833,-4.4807047843933105,8.709031105041504
1701538571324817700,21.481817626953124,-0.5575454831123352,-4.477529525756836,8.71074104309082
1701538571341813000,21.49881298828125,-0.5585857033729553,-4.473730564117432,8.712624549865723
1701538571358802700,21.515802734375,-0.5589324235916138,-4.472014427185059,8.713484764099121
1701538571375793000,21.53279296875,-0.557502806186676,-4.4739813804626465,8.712567329406738
1701538571392785400,21.549785400390626,-0.5552498698234558,-4.479981422424316,8.709626197814941
1701538571409773800,21.56677392578125,-0.5555112361907959,-4.487162113189697,8.705910682678223
1701538571426769700,21.583769775390625,-0.5580477714538574,-4.493108749389648,8.702683448791504
1701538571443757800,21.6007578125,-0.5577870011329651,-4.497134208679199,8.7006196975708
1701538571460750600,21.61775048828125,-0.5554153323173523,-4.499584197998047,8.699503898620605
1701538571477740500,21.634740478515624,-0.5542786717414856,-4.499024868011475,8.69986629486084
