time,seconds_elapsed,z,y,x
1701909815741659400,0.151659423828125,9.426118850708008,2.588799238204956,-0.8261465430259705
1701909815758663000,0.168662841796875,9.424695014953613,2.594095230102539,-0.825772762298584
1701909815775655000,0.185655029296875,9.422168731689453,2.602773666381836,-0.8272961378097534
1701909815792649700,0.202649658203125,9.420536994934082,2.608783006668091,-0.8269508481025696
1701909815809640000,0.219639892578125,9.420812606811523,2.6085307598114014,-0.8245983123779297
1701909815826633700,0.2366337890625,9.422168731689453,2.603976011276245,-0.8235042095184326
1701909815843628000,0.2536279296875,9.423460006713867,2.5997233390808105,-0.8221545815467834
1701909815860619000,0.270618896484375,9.42409896850586,2.5984339714050293,-0.8189107775688171
1701909815877602000,0.28760205078125,9.424206733703613,2.5989065170288086,-0.8161705732345581
1701909815894607400,0.304607421875,9.423999786376953,2.5989792346954346,-0.8183208107948303
1701909815911596000,0.321595947265625,9.42408561706543,2.5976011753082275,-0.8216931819915771
1701909815928592400,0.33859228515625,9.424312591552734,2.5965495109558105,-0.8224165439605713
1701909815945584400,0.35558447265625,9.423416137695312,2.5992746353149414,-0.8240737318992615
1701909815962562600,0.3725625,9.421324729919434,2.6071057319641113,-0.8232513666152954
1701909815979568000,0.389568115234375,9.419800758361816,2.614199638366699,-0.8181809782981873
1701909815996553000,0.406552978515625,9.419759750366211,2.6159677505493164,-0.8129844665527344
1701909816013558000,0.42355810546875,9.420867919921875,2.61217999458313,-0.8123261332511902
1701909816030547000,0.440546875,9.422027587890625,2.6079843044281006,-0.812362790107727
1701909816047555800,0.457555908203125,9.42218017578125,2.6078579425811768,-0.8109851479530334
1701909816064536800,0.474536865234375,9.42159366607666,2.6112468242645264,-0.8068830370903015
1701909816081526800,0.49152685546875,9.420289039611816,2.617306709289551,-0.8024728894233704
1701909816098530000,0.508530029296875,9.418536186218262,2.624203681945801,-0.8005316853523254
1701909816115513300,0.525513427734375,9.416937828063965,2.629563093185425,-0.801744282245636
1701909816132519400,0.54251953125,9.41617488861084,2.6321043968200684,-0.802362859249115
1701909816149492000,0.559491943359375,9.415928840637207,2.6336426734924316,-0.8001987338066101
1701909816166490400,0.576490478515625,9.415900230407715,2.6346631050109863,-0.7971736192703247
1701909816183487500,0.593487548828125,9.416107177734375,2.634262800216675,-0.7960531115531921
1701909816200476400,0.610476318359375,9.41647720336914,2.6332361698150635,-0.7950719594955444
1701909816217468400,0.627468505859375,9.416399955749512,2.634200096130371,-0.7927913069725037
1701909816234463700,0.644463623046875,9.415407180786133,2.637899875640869,-0.7922718524932861
1701909816251456300,0.661456298828125,9.41419506072998,2.6425187587738037,-0.7912837862968445
1701909816268446000,0.678446044921875,9.413061141967773,2.6468727588653564,-0.7902266979217529
1701909816285443000,0.695443115234375,9.411478042602539,2.651655673980713,-0.7930421233177185
1701909816302422800,0.7124228515625,9.410330772399902,2.654209852218628,-0.798093318939209
1701909816319432400,0.729432373046875,9.410486221313477,2.652916431427002,-0.8005643486976624
1701909816336412400,0.746412353515625,9.412073135375977,2.647918462753296,-0.7984461188316345
1701909816353418800,0.763418701171875,9.414981842041016,2.639174699783325,-0.7930825352668762
1701909816370404400,0.780404296875,9.417753219604492,2.6301302909851074,-0.7902199625968933
1701909816387401200,0.797401123046875,9.419368743896484,2.624295473098755,-0.7903621792793274
1701909816404395800,0.814395751953125,9.419971466064453,2.622131109237671,-0.7903656363487244
1701909816421384700,0.831384765625,9.41892147064209,2.625096082687378,-0.7930299043655396
1701909816438380800,0.848380859375,9.416720390319824,2.632009267807007,-0.7962439656257629
1701909816455373000,0.865373046875,9.414901733398438,2.638657808303833,-0.7957538962364197
1701909816472364000,0.882364013671875,9.414793968200684,2.640726327896118,-0.7901389002799988
1701909816489349000,0.89934912109375,9.415474891662598,2.639280319213867,-0.7868525385856628
1701909816506351600,0.9163515625,9.415940284729004,2.6383957862854004,-0.784243643283844
1701909816523342800,0.9333427734375,9.41560173034668,2.6413652896881104,-0.7782977819442749
1701909816540332800,0.950332763671875,9.41525936126709,2.644770860671997,-0.7708306312561035
1701909816557333200,0.967333251953125,9.415854454040527,2.643221616744995,-0.7688717842102051
1701909816574325200,0.9843251953125,9.417463302612305,2.6358144283294678,-0.7745831608772278
1701909816591314000,1.00131396484375,9.419262886047363,2.6276345252990723,-0.7804709076881409
1701909816608311800,1.018311767578125,9.42002010345459,2.62459135055542,-0.7815694808959961
1701909816625302500,1.035302490234375,9.419686317443848,2.626476764678955,-0.7792598009109497
1701909816642293500,1.05229345703125,9.418951034545898,2.6293652057647705,-0.7783966660499573
1701909816659289300,1.069289306640625,9.418622970581055,2.6301536560058594,-0.7797098755836487
1701909816676278000,1.086278076171875,9.41895580291748,2.6285738945007324,-0.7810118198394775
1701909816693276000,1.10327587890625,9.419549942016602,2.6259212493896484,-0.7827739715576172
1701909816710264600,1.1202646484375,9.419981002807617,2.6239352226257324,-0.7842434048652649
1701909816727260700,1.1372607421875,9.419928550720215,2.6238574981689453,-0.7851333022117615
1701909816744254000,1.15425390625,9.420248031616211,2.6228692531585693,-0.7845919728279114
1701909816761243600,1.17124365234375,9.421224594116211,2.619441032409668,-0.7843265533447266
1701909816778239200,1.1882392578125,9.42255687713623,2.614701509475708,-0.7841351628303528
1701909816795231200,1.205231201171875,9.42307186126709,2.6126813888549805,-0.784686803817749
1701909816812224500,1.222224609375,9.422211647033691,2.6153993606567383,-0.7859485745429993
1701909816829216500,1.239216552734375,9.42054271697998,2.6211647987365723,-0.7867524027824402
1701909816846211800,1.2562119140625,9.419254302978516,2.6255249977111816,-0.7876381874084473
1701909816863204000,1.2732041015625,9.420117378234863,2.62326979637146,-0.7848246693611145
1701909816880195800,1.29019580078125,9.423044204711914,2.613921880722046,-0.7808736562728882
1701909816897186800,1.307186767578125,9.426227569580078,2.602727174758911,-0.7798387408256531
1701909816914188500,1.3241884765625,9.427873611450195,2.5971548557281494,-0.7785252332687378
1701909816931172400,1.34117236328125,9.427433013916016,2.599505662918091,-0.776005744934082
1701909816948168200,1.358168212890625,9.425982475280762,2.6051509380340576,-0.7746965885162354
1701909816965161700,1.37516162109375,9.425386428833008,2.6072046756744385,-0.7750393152236938
1701909816982153200,1.3921533203125,9.426255226135254,2.6037378311157227,-0.7761293053627014
1701909816999145000,1.40914501953125,9.427241325378418,2.6000189781188965,-0.776613175868988
1701909817016137000,1.426136962890625,9.427600860595703,2.5991015434265137,-0.7753128409385681
1701909817033124400,1.443124267578125,9.4276704788208,2.599792003631592,-0.7721508145332336
1701909817050123800,1.460123779296875,9.427244186401367,2.6014204025268555,-0.7718704342842102
1701909817067119000,1.477119140625,9.426750183105469,2.6027991771698,-0.7732609510421753
1701909817084113700,1.49411376953125,9.426480293273926,2.603623390197754,-0.7737712860107422
1701909817101102600,1.5111025390625,9.427266120910645,2.6020030975341797,-0.7696377635002136
1701909817118098000,1.528097900390625,9.42908763885498,2.5964012145996094,-0.7662413120269775
1701909817135092500,1.545092529296875,9.431151390075684,2.5883378982543945,-0.7681161761283875
1701909817152079400,1.562079345703125,9.433087348937988,2.580683946609497,-0.7700969576835632
1701909817169079600,1.57907958984375,9.433846473693848,2.57763671875,-0.770996630191803
1701909817186069800,1.59606982421875,9.432637214660645,2.5818958282470703,-0.7715399861335754
1701909817203062300,1.613062255859375,9.430103302001953,2.5912609100341797,-0.7711216807365417
1701909817220055600,1.6300556640625,9.427960395812988,2.5991857051849365,-0.7706558108329773
1701909817237048300,1.64704833984375,9.426892280578613,2.602510929107666,-0.7725042700767517
1701909817254042000,1.6640419921875,9.42705249786377,2.6018052101135254,-0.7729167342185974
1701909817271025700,1.681025634765625,9.427363395690918,2.601038694381714,-0.77170729637146
1701909817288025600,1.698025634765625,9.427135467529297,2.6024444103240967,-0.7697411775588989
1701909817305023700,1.715023681640625,9.426748275756836,2.605065107345581,-0.7656175494194031
1701909817322011100,1.73201123046875,9.427153587341309,2.6058783531188965,-0.7578203678131104
1701909817339007200,1.74900732421875,9.428037643432617,2.6041452884674072,-0.7527548670768738
1701909817355999200,1.765999267578125,9.429143905639648,2.6005983352661133,-0.7511571049690247
1701909817372993000,1.782992919921875,9.429041862487793,2.6002895832061768,-0.7535064220428467
1701909817389983500,1.7999833984375,9.427590370178223,2.605346441268921,-0.7542046308517456
1701909817406970400,1.816970458984375,9.425849914550781,2.612636089324951,-0.7507347464561462
1701909817423970300,1.83397021484375,9.425674438476562,2.6147167682647705,-0.7456805109977722
1701909817440964000,1.850964111328125,9.427284240722656,2.609072208404541,-0.745100200176239
1701909817457957000,1.86795703125,9.42884635925293,2.601719856262207,-0.7510175704956055
1701909817474951400,1.884951416015625,9.429121017456055,2.5996203422546387,-0.754828155040741
1701909817491939800,1.90193994140625,9.427595138549805,2.605257272720337,-0.7544487714767456
1701909817508934000,1.918933837890625,9.425393104553223,2.6144280433654785,-0.7502214312553406
1701909817525928700,1.9359287109375,9.423514366149902,2.6215901374816895,-0.7488388419151306
1701909817542922800,1.9529228515625,9.422929763793945,2.622809410095215,-0.7519171833992004
1701909817559912200,1.969912109375,9.423583984375,2.619283676147461,-0.755996584892273
1701909817576904200,1.986904296875,9.424738883972168,2.614788293838501,-0.7571635246276855
1701909817593890600,2.003890625,9.425311088562012,2.6126208305358887,-0.75752192735672
1701909817610890500,2.020890380859375,9.425036430358887,2.6132848262786865,-0.7586487531661987
1701909817627888000,2.03788818359375,9.424670219421387,2.6144943237304688,-0.7590285539627075
1701909817644881200,2.054881103515625,9.425310134887695,2.612945318222046,-0.7564195990562439
1701909817661878800,2.071878662109375,9.426141738891602,2.6104283332824707,-0.7547388672828674
1701909817678868200,2.0888681640625,9.425966262817383,2.6101162433624268,-0.7580053210258484
1701909817695848200,2.10584814453125,9.424134254455566,2.614884614944458,-0.7643254995346069
1701909817712852500,2.1228525390625,9.421375274658203,2.623685598373413,-0.768157422542572
1701909817729841700,2.139841552734375,9.418993949890137,2.631953477859497,-0.7690758109092712
1701909817746837000,2.1568369140625,9.418188095092773,2.6352949142456055,-0.7674969434738159
1701909817763830800,2.173830810546875,9.419600486755371,2.6313681602478027,-0.7636294364929199
1701909817780821500,2.190821533203125,9.422245025634766,2.6222851276397705,-0.7622591257095337
1701909817797816000,2.207816162109375,9.424713134765625,2.613372325897217,-0.7623515129089355
1701909817814810600,2.224810546875,9.426066398620605,2.6086909770965576,-0.7616511583328247
1701909817831799600,2.241799560546875,9.426403045654297,2.6079905033111572,-0.7598856687545776
1701909817848795600,2.258795654296875,9.426106452941895,2.6097030639648438,-0.7576771378517151
1701909817865786400,2.275786376953125,9.425863265991211,2.611315965652466,-0.7551416754722595
1701909817882783700,2.29278369140625,9.42547607421875,2.612291097640991,-0.756606936454773
1701909817899772700,2.309772705078125,9.42490291595459,2.6133241653442383,-0.7601607441902161
1701909817916778800,2.32677880859375,9.423985481262207,2.6158101558685303,-0.7629778981208801
1701909817933751800,2.343751708984375,9.422823905944824,2.6200742721557617,-0.7627058625221252
1701909817950747400,2.360747314453125,9.422134399414062,2.623605489730835,-0.7590664625167847
1701909817967745800,2.377745849609375,9.422964096069336,2.6214966773986816,-0.7560416460037231
1701909817984745000,2.394744873046875,9.425362586975098,2.6127026081085205,-0.7565912008285522
1701909818001732000,2.411732177734375,9.428526878356934,2.6012606620788574,-0.7565987706184387
1701909818018722300,2.428722412109375,9.430702209472656,2.5935158729553223,-0.7560651302337646
1701909818035717000,2.445717041015625,9.431278228759766,2.5916659832000732,-0.7552313208580017
1701909818052701400,2.462701416015625,9.430859565734863,2.5933501720428467,-0.7546696662902832
1701909818069700600,2.47970068359375,9.430529594421387,2.5952365398406982,-0.7523067593574524
1701909818086692900,2.49669287109375,9.430831909179688,2.595383882522583,-0.7479977607727051
1701909818103690800,2.513690673828125,9.431556701660156,2.5936367511749268,-0.7449116110801697
1701909818120670000,2.530669921875,9.43308162689209,2.588937282562256,-0.7419571280479431
1701909818137677600,2.547677490234375,9.435100555419922,2.5815470218658447,-0.7420227527618408
1701909818154669300,2.56466943359375,9.4363374710083,2.576030969619751,-0.7454654574394226
1701909818171658500,2.581658447265625,9.435473442077637,2.578627109527588,-0.7474162578582764
1701909818188654600,2.598654541015625,9.43313980102539,2.588531970977783,-0.7426173686981201
1701909818205646800,2.615646728515625,9.431419372558594,2.5978736877441406,-0.7317774891853333
1701909818222641400,2.632641357421875,9.431657791137695,2.600261688232422,-0.7201233506202698
1701909818239632400,2.64963232421875,9.433942794799805,2.594346284866333,-0.7114735841751099
1701909818256623900,2.666623779296875,9.437156677246094,2.583848237991333,-0.7070486545562744
1701909818273621000,2.68362109375,9.440208435058594,2.5739786624908447,-0.7022854089736938
1701909818290610000,2.70060986328125,9.442209243774414,2.5682854652404785,-0.6961997151374817
1701909818307604500,2.7176044921875,9.443171501159668,2.5663650035858154,-0.6902133822441101
1701909818324599300,2.734599365234375,9.443265914916992,2.56663179397583,-0.6879253387451172
1701909818341588000,2.751587890625,9.442755699157715,2.56838321685791,-0.6883850693702698
1701909818358584000,2.768583984375,9.44161319732666,2.5716044902801514,-0.692025363445282
1701909818375576300,2.785576416015625,9.439826965332031,2.5769615173339844,-0.6964487433433533
1701909818392571100,2.802571044921875,9.438490867614746,2.5821385383605957,-0.695390522480011
1701909818409559800,2.819559814453125,9.438117027282715,2.5847086906433105,-0.690892219543457
1701909818426555100,2.83655517578125,9.438617706298828,2.5834975242614746,-0.6885749697685242
1701909818443543800,2.853543701171875,9.439837455749512,2.57877254486084,-0.6895662546157837
1701909818460556500,2.870556640625,9.441191673278809,2.573683261871338,-0.6900479793548584
1701909818477534000,2.887533935546875,9.441776275634766,2.5718190670013428,-0.6889969706535339
1701909818494527200,2.90452734375,9.441507339477539,2.5729329586029053,-0.6885265707969666
1701909818511516400,2.921516357421875,9.44101619720459,2.5751640796661377,-0.6869187355041504
1701909818528520200,2.938520263671875,9.441317558288574,2.5756924152374268,-0.6807701587677002
1701909818545500400,2.95550048828125,9.442914962768555,2.5721049308776855,-0.6721104383468628
1701909818562527000,2.97252685546875,9.445000648498535,2.566004991531372,-0.6660968065261841
1701909818579496200,2.98949609375,9.445839881896973,2.5635323524475098,-0.6637090444564819
1701909818596480800,3.006480712890625,9.444591522216797,2.568485975265503,-0.6623291969299316
1701909818613480200,3.023480224609375,9.441862106323242,2.5799551010131836,-0.6566447019577026
1701909818630469600,3.0404697265625,9.438227653503418,2.5947325229644775,-0.6506296396255493
1701909818647461000,3.057461181640625,9.43506145477295,2.6065051555633545,-0.6495086550712585
1701909818664455400,3.074455322265625,9.432595252990723,2.614194869995117,-0.6544092297554016
1701909818681454300,3.091454345703125,9.431347846984863,2.617859363555908,-0.6577277183532715
1701909818698441200,3.108441162109375,9.43124008178711,2.618652582168579,-0.6561058759689331
1701909818715436000,3.12543603515625,9.432059288024902,2.617161750793457,-0.6502562165260315
1701909818732431600,3.142431640625,9.433248519897461,2.614312171936035,-0.6444438099861145
1701909818749422000,3.159422119140625,9.434408187866211,2.6104605197906494,-0.6430737376213074
1701909818766415400,3.176415283203125,9.435382843017578,2.6057655811309814,-0.6477947235107422
1701909818783407400,3.193407470703125,9.435651779174805,2.6031441688537598,-0.6543883681297302
1701909818800401700,3.210401611328125,9.4348783493042,2.605433940887451,-0.6564175486564636
1701909818817394000,3.227393798828125,9.432168006896973,2.614473819732666,-0.6594295501708984
1701909818834387000,3.244386962890625,9.42850112915039,2.626899242401123,-0.662478506565094
1701909818851380000,3.2613798828125,9.425740242004395,2.6363039016723633,-0.6644047498703003
1701909818868373000,3.278373046875,9.42464828491211,2.6396191120147705,-0.6667252779006958
1701909818885365500,3.295365478515625,9.425209045410156,2.6370816230773926,-0.6688454747200012
1701909818902359600,3.312359619140625,9.426894187927246,2.6313397884368896,-0.6677040457725525
1701909818919345700,3.329345703125,9.428412437438965,2.6265289783477783,-0.6651961803436279
1701909818936344600,3.346344482421875,9.428629875183105,2.6255507469177246,-0.6659806370735168
1701909818953334800,3.363334716796875,9.42796802520752,2.6274731159210205,-0.6677552461624146
1701909818970317000,3.380317138671875,9.427393913269043,2.6294198036193848,-0.6682083606719971
1701909818987319800,3.39731982421875,9.427197456359863,2.6294453144073486,-0.6708797812461853
1701909819004316700,3.414316650390625,9.427597045898438,2.62712025642395,-0.6743627190589905
1701909819021309700,3.431309814453125,9.428278923034668,2.6242737770080566,-0.6759037375450134
1701909819038302500,3.448302490234375,9.428609848022461,2.6228487491607666,-0.676820695400238
1701909819055295500,3.46529541015625,9.427837371826172,2.62446665763855,-0.6813050508499146
1701909819072288300,3.482288330078125,9.426474571228027,2.6281585693359375,-0.6859087347984314
1701909819089278500,3.499278564453125,9.425716400146484,2.631380558013916,-0.6839686036109924
1701909819106273000,3.51627294921875,9.426545143127441,2.6301674842834473,-0.6771880984306335
1701909819123267800,3.533267822265625,9.428390502929688,2.6235811710357666,-0.6770327091217041
1701909819140257500,3.550257568359375,9.430145263671875,2.615734577178955,-0.6829316020011902
1701909819157253600,3.567253662109375,9.430962562561035,2.611903429031372,-0.6862996220588684
1701909819174247400,3.584247314453125,9.43060302734375,2.613771677017212,-0.6841288208961487
1701909819191239400,3.601239501953125,9.429147720336914,2.6186704635620117,-0.6854537129402161
1701909819208231700,3.618231689453125,9.42777156829834,2.6223433017730713,-0.6903257369995117
1701909819225224700,3.635224609375,9.427672386169434,2.6219258308410645,-0.6932623386383057
1701909819242217700,3.6522177734375,9.428621292114258,2.6187610626220703,-0.6923140287399292
1701909819259210800,3.669210693359375,9.429559707641602,2.6158134937286377,-0.6906806826591492
1701909819276212000,3.6862119140625,9.429999351501465,2.6140642166137695,-0.6912962198257446
1701909819293195800,3.70319580078125,9.430148124694824,2.6132938861846924,-0.6921692490577698
1701909819310190600,3.720190673828125,9.430087089538574,2.6134862899780273,-0.6922780275344849
1701909819327182600,3.7371826171875,9.43001651763916,2.61346435546875,-0.6933339238166809
1701909819344175600,3.754175537109375,9.429632186889648,2.61384916305542,-0.6970893740653992
1701909819361168400,3.77116845703125,9.428377151489258,2.6168625354766846,-0.7027438879013062
1701909819378161400,3.788161376953125,9.427034378051758,2.6205949783325195,-0.7068336606025696
1701909819395154200,3.805154296875,9.426874160766602,2.620476007461548,-0.7094104290008545
1701909819412147500,3.8221474609375,9.428690910339355,2.612701654434204,-0.7139157652854919
1701909819429137000,3.839136962890625,9.432077407836914,2.598568916320801,-0.720740020275116
1701909819446130000,3.8561298828125,9.435590744018555,2.584211826324463,-0.7263526916503906
1701909819463126000,3.8731259765625,9.43798542022705,2.5744547843933105,-0.7298851013183594
1701909819480119000,3.890119140625,9.438721656799316,2.5711238384246826,-0.7320961356163025
1701909819497109000,3.90710888671875,9.437954902648926,2.5734851360321045,-0.7336835265159607
1701909819514105000,3.92410498046875,9.436864852905273,2.577930212020874,-0.7320974469184875
1701909819531097900,3.941097900390625,9.435957908630371,2.582017660140991,-0.7293782234191895
1701909819548091000,3.9580908203125,9.434709548950195,2.5864405632019043,-0.7298567295074463
1701909819565073200,3.9750732421875,9.432985305786133,2.5915842056274414,-0.7338826060295105
1701909819582076700,3.99207666015625,9.431851387023926,2.595543146133423,-0.7344629168510437
1701909819599069700,4.009069580078125,9.431938171386719,2.5963637828826904,-0.7304365634918213
1701909819616062200,4.026062255859375,9.4326171875,2.5944650173187256,-0.728421151638031
1701909819633056500,4.043056396484375,9.433035850524902,2.5922813415527344,-0.7307706475257874
1701909819650048800,4.060048828125,9.433330535888672,2.591273069381714,-0.7305386662483215
1701909819667041800,4.077041748046875,9.433564186096191,2.591843366622925,-0.7254785299301147
1701909819684033800,4.09403369140625,9.433842658996582,2.5925710201263428,-0.7192310690879822
1701909819701028400,4.1110283203125,9.433512687683105,2.5939605236053467,-0.7185544967651367
1701909819718020600,4.1280205078125,9.432191848754883,2.598003387451172,-0.7212839722633362
1701909819735013000,4.14501318359375,9.430010795593262,2.6056625843048096,-0.7221726775169373
1701909819752006100,4.162006103515625,9.427589416503906,2.615377426147461,-0.718665599822998
1701909819768999400,4.17899951171875,9.425637245178223,2.623382091522217,-0.7150797247886658
1701909819785989600,4.19598974609375,9.424985885620117,2.625762939453125,-0.714925229549408
1701909819802985200,4.212985107421875,9.426036834716797,2.6216278076171875,-0.7162401676177979
1701909819819970300,4.22997021484375,9.428492546081543,2.6127140522003174,-0.716498076915741
1701909819836971000,4.246970947265625,9.431549072265625,2.6022403240203857,-0.7143799662590027
1701909819853963800,4.2639638671875,9.433272361755371,2.595778703689575,-0.7151334285736084
1701909819870957000,4.28095703125,9.432554244995117,2.5965850353240967,-0.7216432094573975
1701909819887950000,4.2979501953125,9.4307861328125,2.6016740798950195,-0.7264186143875122
1701909819904942800,4.31494287109375,9.429954528808594,2.603614568710327,-0.7302517890930176
1701909819921935400,4.331935302734375,9.431092262268066,2.597635507583618,-0.736820638179779
1701909819938925600,4.348925537109375,9.433073997497559,2.587533473968506,-0.7469192743301392
1701909819955922700,4.365922607421875,9.434380531311035,2.5811169147491455,-0.75259929895401
1701909819972914700,4.382914794921875,9.43427562713623,2.5822672843933105,-0.7499642968177795
1701909819989902800,4.39990283203125,9.434067726135254,2.5850603580474854,-0.7429306507110596
1701909820006897700,4.416897705078125,9.435140609741211,2.582857847213745,-0.7369408011436462
1701909820023893800,4.433893798828125,9.437499046325684,2.575613021850586,-0.7320771217346191
1701909820040886300,4.45088623046875,9.439349174499512,2.568679094314575,-0.7325880527496338
1701909820057879600,4.467879638671875,9.439550399780273,2.566946506500244,-0.7360655069351196
1701909820074872300,4.484872314453125,9.438640594482422,2.570749521255493,-0.7344557642936707
1701909820091866000,4.5018662109375,9.438031196594238,2.575348377227783,-0.7261194586753845
1701909820108857900,4.51885791015625,9.439364433288574,2.573817014694214,-0.7141241431236267
1701909820125851100,4.53585107421875,9.443305015563965,2.5617153644561768,-0.7054880857467651
1701909820142844200,4.55284423828125,9.449267387390137,2.54093599319458,-0.7007904052734375
1701909820159837200,4.569837158203125,9.454848289489746,2.521477460861206,-0.6957761645317078
1701909820176830200,4.586830322265625,9.457103729248047,2.514709234237671,-0.6895846724510193
1701909820193823200,4.6038232421875,9.454977035522461,2.523989677429199,-0.6848307251930237
1701909820210816000,4.62081591796875,9.450428009033203,2.5419058799743652,-0.6813547015190125
1701909820227809000,4.63780908203125,9.447051048278809,2.5555083751678467,-0.6772783994674683
1701909820244801800,4.6548017578125,9.446903228759766,2.556975841522217,-0.6737944483757019
1701909820261784600,4.67178466796875,9.4490966796875,2.5494136810302734,-0.6716955900192261
1701909820278787800,4.688787841796875,9.45059871673584,2.5435051918029785,-0.6729620099067688
1701909820295780900,4.70578076171875,9.450636863708496,2.5441091060638428,-0.6701326966285706
1701909820312774000,4.72277392578125,9.449464797973633,2.550018787384033,-0.6641800403594971
1701909820329763300,4.739763427734375,9.448086738586426,2.5562384128570557,-0.6598619222640991
1701909820346754000,4.756754150390625,9.447200775146484,2.559522867202759,-0.6598073840141296
1701909820363752400,4.77375244140625,9.447123527526855,2.559553861618042,-0.6607956290245056
1701909820380743200,4.7907431640625,9.44722843170166,2.5586915016174316,-0.6626393795013428
1701909820397741000,4.807740966796875,9.447104454040527,2.5581133365631104,-0.6666259765625
1701909820414731500,4.8247314453125,9.446487426757812,2.559375762939453,-0.6705052256584167
1701909820431724800,4.841724853515625,9.445515632629395,2.562878370285034,-0.670825183391571
1701909820448717300,4.85871728515625,9.444295883178711,2.5677738189697266,-0.6692661643028259
1701909820465710300,4.87571044921875,9.444011688232422,2.569676160812378,-0.6659649014472961
1701909820482703400,4.892703369140625,9.445731163024902,2.563507080078125,-0.6653584837913513
1701909820499708200,4.909708251953125,9.44873046875,2.5507051944732666,-0.6719493269920349
1701909820516686300,4.926686279296875,9.45099925994873,2.539660692214966,-0.6818017959594727
1701909820533682400,4.943682373046875,9.451592445373535,2.5355165004730225,-0.6889619827270508
1701909820550675200,4.96067529296875,9.450163841247559,2.540693998336792,-0.6894760727882385
1701909820567671300,4.97767138671875,9.447205543518066,2.551194906234741,-0.6912432909011841
1701909820584658200,4.994658203125,9.4452486038208,2.557499408721924,-0.6946820616722107
1701909820601654000,5.011654052734375,9.445012092590332,2.5582962036132812,-0.6949570178985596
1701909820618652400,5.02865234375,9.444711685180664,2.558617115020752,-0.6978552937507629
1701909820635639800,5.045639892578125,9.443938255310059,2.559993267059326,-0.703259289264679
1701909820652636200,5.06263623046875,9.443215370178223,2.5620388984680176,-0.7055184245109558
1701909820669625600,5.07962548828125,9.442444801330566,2.5652191638946533,-0.7042696475982666
1701909820686619000,5.096618896484375,9.441672325134277,2.568174123764038,-0.7038518190383911
1701909820703611100,5.113611083984375,9.441360473632812,2.5681707859039307,-0.7080384492874146
1701909820720605700,5.130605712890625,9.441722869873047,2.563159465789795,-0.721245288848877
1701909820737597700,5.14759765625,9.443184852600098,2.552454710006714,-0.7398227453231812
1701909820754590500,5.164590576171875,9.445396423339844,2.539153575897217,-0.7571664452552795
1701909820771583500,5.18158349609375,9.447680473327637,2.5284852981567383,-0.7643401622772217
1701909820788576800,5.19857666015625,9.448997497558594,2.525151252746582,-0.7590555548667908
1701909820805569500,5.215569580078125,9.449926376342773,2.525818347930908,-0.745150625705719
1701909820822560000,5.23256005859375,9.450932502746582,2.5240230560302734,-0.7384357452392578
1701909820839554800,5.249554931640625,9.452980041503906,2.5153307914733887,-0.7418810129165649
1701909820856548600,5.266548583984375,9.45605182647705,2.502126693725586,-0.7473660111427307
1701909820873541000,5.283541015625,9.45811939239502,2.4939544200897217,-0.7485214471817017
1701909820890534400,5.300534423828125,9.457165718078613,2.4976794719696045,-0.7481508255004883
1701909820907527200,5.317527099609375,9.454106330871582,2.509040355682373,-0.7487956881523132
1701909820924520400,5.3345205078125,9.451488494873047,2.518735885620117,-0.7492892146110535
1701909820941513000,5.351512939453125,9.451040267944336,2.5210235118865967,-0.7472449541091919
1701909820958506200,5.36850634765625,9.452384948730469,2.5166175365448,-0.745093047618866
1701909820975499000,5.3854990234375,9.453548431396484,2.511817216873169,-0.7465271949768066
1701909820992492300,5.4024921875,9.453482627868652,2.512573719024658,-0.7448115348815918
1701909821009484800,5.41948486328125,9.452038764953613,2.519500732421875,-0.7397214770317078
1701909821026474000,5.436473876953125,9.450523376464844,2.5278263092041016,-0.7306206822395325
1701909821043461000,5.453461181640625,9.44922924041748,2.535430908203125,-0.7209396958351135
1701909821060463900,5.4704638671875,9.448694229125977,2.5405051708221436,-0.7100162506103516
1701909821077457000,5.487456787109375,9.448638916015625,2.5421793460845947,-0.7047317028045654
1701909821094434000,5.50443408203125,9.44992733001709,2.5367789268493652,-0.7069271802902222
1701909821111443500,5.521443359375,9.452876091003418,2.524700880050659,-0.7107173204421997
1701909821128435700,5.538435791015625,9.456199645996094,2.512178659439087,-0.7108843922615051
1701909821145428700,5.5554287109375,9.457942008972168,2.506082773208618,-0.7092054486274719
1701909821162421800,5.572421875,9.458133697509766,2.5059211254119873,-0.7072241306304932
1701909821179414500,5.58941455078125,9.457082748413086,2.509187936782837,-0.7096968293190002
1701909821196407800,5.60640771484375,9.455663681030273,2.512885808944702,-0.7154923677444458
1701909821213399800,5.62339990234375,9.454299926757812,2.516665458679199,-0.7202275991439819
1701909821230394000,5.64039404296875,9.452710151672363,2.522597074508667,-0.7203288078308105
1701909821247386400,5.657386474609375,9.450392723083496,2.531933069229126,-0.7179874777793884
1701909821264368600,5.67436865234375,9.448027610778809,2.541574239730835,-0.7150317430496216
1701909821281372200,5.6913720703125,9.446545600891113,2.547122001647949,-0.7148783206939697
1701909821298365400,5.708365478515625,9.446674346923828,2.5464367866516113,-0.7156232595443726
1701909821315358200,5.725358154296875,9.448643684387207,2.5401053428649902,-0.7121153473854065
1701909821332351200,5.742351318359375,9.450409889221191,2.5345780849456787,-0.7083574533462524
1701909821349339100,5.759339111328125,9.450177192687988,2.5369627475738525,-0.7029140591621399
1701909821366340600,5.776340576171875,9.447957038879395,2.5475504398345947,-0.6944117546081543
1701909821383328500,5.79332861328125,9.445701599121094,2.5582103729248047,-0.6858384013175964
1701909821400323000,5.810322998046875,9.445212364196777,2.5607261657714844,-0.6831974983215332
1701909821417308400,5.827308349609375,9.447083473205566,2.55363130569458,-0.683881402015686
1701909821434313500,5.8443134765625,9.45004653930664,2.5424630641937256,-0.6845537424087524
1701909821451302000,5.861302001953125,9.451033592224121,2.537937641143799,-0.6877045631408691
1701909821468295000,5.878294921875,9.449359893798828,2.543956995010376,-0.6884732246398926
1701909821485285000,5.89528515625,9.446732521057129,2.554865837097168,-0.6841089129447937
1701909821502283500,5.912283447265625,9.444867134094238,2.5632522106170654,-0.678471028804779
1701909821519273700,5.929273681640625,9.443904876708984,2.567014217376709,-0.6776469945907593
1701909821536262700,5.9462626953125,9.443192481994629,2.568763017654419,-0.6809329390525818
1701909821553260500,5.963260498046875,9.44257926940918,2.570937156677246,-0.6812385320663452
1701909821570252500,5.98025244140625,9.441873550415039,2.574273109436035,-0.6784157156944275
1701909821587245600,5.99724560546875,9.440109252929688,2.58099365234375,-0.6774302124977112
1701909821604237800,6.01423779296875,9.436906814575195,2.5922021865844727,-0.6792612671852112
1701909821621232400,6.031232421875,9.432695388793945,2.607368230819702,-0.6797034740447998
1701909821638224400,6.048224365234375,9.428644180297852,2.6235506534576416,-0.6736297011375427
1701909821655217200,6.065217041015625,9.425495147705078,2.637906074523926,-0.6615115404129028
1701909821672210700,6.082210693359375,9.424179077148438,2.6458563804626465,-0.6483774781227112
1701909821689203200,6.099203125,9.425485610961914,2.643603563308716,-0.6385002732276917
1701909821706186000,6.11618603515625,9.427932739257812,2.635093927383423,-0.637549877166748
1701909821723189200,6.133189208984375,9.429471969604492,2.628777265548706,-0.6408588886260986
1701909821740176600,6.1501767578125,9.429201126098633,2.629640579223633,-0.6413063406944275
1701909821757175000,6.167175048828125,9.427745819091797,2.636282444000244,-0.6353915333747864
1701909821774170600,6.184170654296875,9.426220893859863,2.643122673034668,-0.6295821666717529
1701909821791161000,6.2011611328125,9.426032066345215,2.6441619396209717,-0.628045380115509
1701909821808153900,6.21815380859375,9.427119255065918,2.639423131942749,-0.6316455006599426
1701909821825146600,6.235146728515625,9.427665710449219,2.6358792781829834,-0.6382464170455933
1701909821842139600,6.2521396484375,9.42684268951416,2.6380953788757324,-0.6412572264671326
1701909821859128800,6.26912890625,9.425501823425293,2.64426589012146,-0.6355115175247192
1701909821876123400,6.286123291015625,9.424631118774414,2.6496548652648926,-0.6259189248085022
1701909821893118700,6.30311865234375,9.425311088562012,2.6489384174346924,-0.6186646819114685
1701909821910110700,6.32011083984375,9.427577018737793,2.6412782669067383,-0.6168822050094604
1701909821927102500,6.3371025390625,9.429850578308105,2.632298231124878,-0.6205124258995056
1701909821944083500,6.35408349609375,9.430388450622559,2.6295464038848877,-0.6239991784095764
1701909821961090600,6.371090576171875,9.42880630493164,2.6353230476379395,-0.6235275864601135
1701909821978083600,6.38808349609375,9.42716121673584,2.6424357891082764,-0.618276059627533
1701909821995076400,6.405076416015625,9.427382469177246,2.6426093578338623,-0.6141598224639893
1701909822012069400,6.4220693359375,9.429553985595703,2.635385751724243,-0.6118586659431458
1701909822029051600,6.4390517578125,9.43089485168457,2.6303250789642334,-0.6129574179649353
1701909822046055400,6.456055419921875,9.42975902557373,2.633437156677246,-0.6170639395713806
1701909822063035400,6.473035400390625,9.427694320678711,2.6408283710479736,-0.6170198321342468
1701909822080032800,6.49003271484375,9.427225112915039,2.6440019607543945,-0.610562801361084
1701909822097039600,6.50703955078125,9.42941951751709,2.6382217407226562,-0.6016075015068054
1701909822114023700,6.524023681640625,9.433829307556152,2.624189615249634,-0.5938091278076172
1701909822131020800,6.541020751953125,9.437704086303711,2.6100146770477295,-0.5947100520133972
1701909822148014600,6.5580146484375,9.439589500427246,2.602515935897827,-0.5976330637931824
1701909822165004500,6.575004638671875,9.439217567443848,2.6038737297058105,-0.5975947976112366
1701909822181997300,6.591997314453125,9.437220573425293,2.6112427711486816,-0.5969811677932739
1701909822198994000,6.608993896484375,9.434516906738281,2.6203246116638184,-0.5999141931533813
1701909822215985000,6.62598486328125,9.43254280090332,2.626702070236206,-0.6030593514442444
1701909822232978000,6.64297802734375,9.431733131408691,2.629434108734131,-0.6038240790367126
1701909822249967600,6.659967529296875,9.431670188903809,2.6299896240234375,-0.6023861765861511
1701909822266964000,6.6769638671875,9.432211875915527,2.6284515857696533,-0.6006065011024475
1701909822283956500,6.69395654296875,9.433320045471191,2.6243977546691895,-0.600923478603363
1701909822300949500,6.710949462890625,9.435184478759766,2.6175696849823,-0.6014438271522522
1701909822317942500,6.727942626953125,9.437509536743164,2.6096410751342773,-0.5994040966033936
1701909822334935600,6.744935546875,9.438953399658203,2.604902505874634,-0.5972845554351807
1701909822351928000,6.761927978515625,9.438578605651855,2.6061153411865234,-0.5979238748550415
1701909822368921900,6.778921875,9.436447143554688,2.613007068634033,-0.6014761924743652
1701909822385914400,6.795914306640625,9.433913230895996,2.6214466094970703,-0.6044948101043701
1701909822402907600,6.81290771484375,9.432597160339355,2.6265180110931396,-0.6030148863792419
1701909822419900700,6.829900634765625,9.433185577392578,2.6255946159362793,-0.5977983474731445
1701909822436890000,6.84689013671875,9.434924125671387,2.620314598083496,-0.5935149192810059
1701909822453886200,6.86388623046875,9.437020301818848,2.6135997772216797,-0.5897901654243469
1701909822470867700,6.88086767578125,9.439212799072266,2.6063032150268555,-0.5869919657707214
1701909822487861500,6.897861572265625,9.441061973571777,2.599926471710205,-0.5855196118354797
1701909822504865300,6.914865234375,9.44184684753418,2.597154378890991,-0.5851673483848572
1701909822521858300,6.9318583984375,9.44201374053955,2.5969526767730713,-0.5833767056465149
1701909822538851000,6.94885107421875,9.44189453125,2.5975162982940674,-0.5827879905700684
1701909822555844000,6.965843994140625,9.442217826843262,2.596330165863037,-0.5828509330749512
1701909822572836000,6.982836181640625,9.44285774230957,2.594038724899292,-0.582679808139801
1701909822589830000,6.999829833984375,9.442947387695312,2.5933289527893066,-0.5843830108642578
1701909822606832000,7.01683203125,9.442556381225586,2.594076156616211,-0.5873821973800659
1701909822623817500,7.0338173828125,9.442242622375488,2.59452223777771,-0.5904351472854614
1701909822640809500,7.0508095703125,9.442280769348145,2.5941107273101807,-0.5916370749473572
1701909822657802000,7.067802001953125,9.442072868347168,2.5947318077087402,-0.5922240018844604
1701909822674794500,7.08479443359375,9.441476821899414,2.5970563888549805,-0.5915270447731018
1701909822691787500,7.10178759765625,9.441507339477539,2.597759246826172,-0.5879670977592468
1701909822708772600,7.118772705078125,9.442525863647461,2.595001220703125,-0.5837721228599548
1701909822725773300,7.135773193359375,9.444354057312012,2.589221239089966,-0.5798381567001343
1701909822742764800,7.152764892578125,9.445796966552734,2.584658622741699,-0.5766875743865967
1701909822759758300,7.16975830078125,9.445281982421875,2.5864598751068115,-0.5770450830459595
1701909822776746500,7.18674658203125,9.443381309509277,2.593156337738037,-0.578098475933075
1701909822793745400,7.203745361328125,9.441899299621582,2.5984151363372803,-0.5787006616592407
1701909822810727700,7.220727783203125,9.441871643066406,2.5978236198425293,-0.5817893743515015
1701909822827731500,7.2377314453125,9.443216323852539,2.5917749404907227,-0.5869249105453491
1701909822844724200,7.25472412109375,9.444427490234375,2.5862934589385986,-0.5915926694869995
1701909822861707000,7.27170703125,9.444204330444336,2.5865767002105713,-0.5939190983772278
1701909822878710300,7.288710205078125,9.443256378173828,2.590242624282837,-0.5930155515670776
1701909822895700500,7.305700439453125,9.443318367004395,2.590735912322998,-0.589855432510376
1701909822912694800,7.32269482421875,9.444748878479004,2.5856218338012695,-0.5893906354904175
1701909822929693000,7.33969287109375,9.447184562683105,2.5767412185668945,-0.5892589688301086
1701909822946674200,7.356674072265625,9.45007610321045,2.566643714904785,-0.5869521498680115
1701909822963676400,7.373676513671875,9.45290470123291,2.55718994140625,-0.5826517939567566
1701909822980668000,7.39066796875,9.45437240600586,2.5526998043060303,-0.5785117149353027
1701909822997667800,7.407667724609375,9.454499244689941,2.5537359714508057,-0.5718346834182739
1701909823014653000,7.42465283203125,9.454487800598145,2.5557758808135986,-0.5628296732902527
1701909823031648000,7.44164794921875,9.455138206481934,2.5549614429473877,-0.5555581450462341
1701909823048639700,7.4586396484375,9.456022262573242,2.552783250808716,-0.5505026578903198
1701909823065632800,7.4756328125,9.455682754516602,2.5545594692230225,-0.5480779409408569
1701909823082626000,7.4926259765625,9.45391845703125,2.5616719722747803,-0.545318603515625
1701909823099614500,7.509614501953125,9.4522066116333,2.5693318843841553,-0.5389123558998108
1701909823116617500,7.526617431640625,9.451848983764648,2.5720531940460205,-0.5321669578552246
1701909823133601800,7.543601806640625,9.45259952545166,2.569766044616699,-0.5298748016357422
1701909823150586400,7.56058642578125,9.453181266784668,2.5672061443328857,-0.531909167766571
1701909823167590700,7.577590576171875,9.452852249145508,2.5684666633605957,-0.531673014163971
1701909823184583700,7.594583740234375,9.452110290527344,2.572930335998535,-0.5232123732566833
1701909823201574400,7.611574462890625,9.452181816101074,2.575488805770874,-0.5091522932052612
1701909823218571800,7.62857177734375,9.453337669372559,2.572993040084839,-0.5002201795578003
1701909823235562200,7.645562255859375,9.455057144165039,2.566676616668701,-0.5001688003540039
1701909823252555300,7.66255517578125,9.45687484741211,2.559734344482422,-0.501390278339386
1701909823269545200,7.679545166015625,9.458121299743652,2.55562686920166,-0.4988149404525757
1701909823286541300,7.696541259765625,9.4580078125,2.5566370487213135,-0.4957846999168396
1701909823303531800,7.71353173828125,9.456777572631836,2.56138277053833,-0.4947539269924164
1701909823320530000,7.730530029296875,9.456151008605957,2.564253568649292,-0.4918381869792938
1701909823337517000,7.74751708984375,9.457218170166016,2.5608668327331543,-0.488974392414093
1701909823354513000,7.764512939453125,9.45991039276123,2.5513226985931396,-0.4867819547653198
1701909823371505000,7.7815048828125,9.462440490722656,2.5415656566619873,-0.48864540457725525
1701909823388481000,7.79848095703125,9.463038444519043,2.5381126403808594,-0.49498042464256287
1701909823405492200,7.8154921875,9.462130546569824,2.541072368621826,-0.49713584780693054
1701909823422485000,7.832485107421875,9.46078872680664,2.5462234020233154,-0.49632030725479126
1701909823439478000,7.84947802734375,9.460631370544434,2.5471386909484863,-0.4946194887161255
1701909823456464000,7.8664638671875,9.462037086486816,2.541762590408325,-0.49538037180900574
1701909823473468000,7.883468017578125,9.464444160461426,2.5324807167053223,-0.49694982171058655
1701909823490456800,7.900456787109375,9.466779708862305,2.5242061614990234,-0.49453121423721313
1701909823507449600,7.91744970703125,9.467700004577637,2.5215439796447754,-0.4905000627040863
1701909823524441900,7.93444189453125,9.466800689697266,2.5253846645355225,-0.4880915880203247
1701909823541436200,7.951436279296875,9.465484619140625,2.5306715965270996,-0.4862259030342102
1701909823558428700,7.9684287109375,9.464900970458984,2.5330159664154053,-0.4853680431842804
1701909823575421700,7.985421630859375,9.464859008789062,2.5330445766448975,-0.48603710532188416
1701909823592414700,8.002414794921876,9.464218139648438,2.5346591472625732,-0.4900969862937927
1701909823609407500,8.019407470703126,9.462170600891113,2.5406100749969482,-0.4987349808216095
1701909823626400300,8.036400146484375,9.459933280944824,2.547668218612671,-0.5051226615905762
1701909823643375900,8.0533759765625,9.459187507629395,2.5501415729522705,-0.5066052079200745
1701909823660383200,8.07038330078125,9.460761070251465,2.544792652130127,-0.5041264295578003
1701909823677379300,8.08737939453125,9.463489532470703,2.5352587699890137,-0.5009490251541138
1701909823694372000,8.1043720703125,9.465228080749512,2.528822660446167,-0.5006132125854492
1701909823711365000,8.121365234375,9.465241432189941,2.528390884399414,-0.5025393962860107
1701909823728348200,8.13834814453125,9.46413803100586,2.532402515411377,-0.5031269788742065
1701909823745352000,8.15535205078125,9.4622802734375,2.5391111373901367,-0.5042444467544556
1701909823762344200,8.17234423828125,9.460712432861328,2.544877052307129,-0.5046056509017944
1701909823779334000,8.189333984375,9.460430145263672,2.5460970401763916,-0.5037481784820557
1701909823796330000,8.206330078125,9.460969924926758,2.543870210647583,-0.5048521161079407
1701909823813322800,8.22332275390625,9.461801528930664,2.5405755043029785,-0.5058615207672119
1701909823830316000,8.24031591796875,9.462056159973145,2.539581298828125,-0.5060971975326538
1701909823847305700,8.2573056640625,9.461291313171387,2.5423531532287598,-0.5064720511436462
1701909823864301800,8.2743017578125,9.45941162109375,2.5488572120666504,-0.5088801383972168
1701909823881294600,8.291294677734374,9.457254409790039,2.556081771850586,-0.5127238631248474
1701909823898287600,8.30828759765625,9.45608901977539,2.559941291809082,-0.5149556994438171
1701909823915280600,8.32528076171875,9.456159591674805,2.5592355728149414,-0.5171718001365662
1701909823932274000,8.34227392578125,9.456820487976074,2.5563929080963135,-0.5191445350646973
1701909823949267000,8.359266845703125,9.457589149475098,2.553975820541382,-0.5170313119888306
1701909823966259700,8.376259765625,9.45864200592041,2.5513153076171875,-0.5108602643013
1701909823983253000,8.3932529296875,9.461143493652344,2.5433733463287354,-0.504101037979126
1701909824000242700,8.41024267578125,9.464900970458984,2.529970169067383,-0.5010173320770264
1701909824017240800,8.42724072265625,9.468230247497559,2.5175318717956543,-0.5007609128952026
1701909824034230500,8.44423046875,9.468954086303711,2.514720916748047,-0.5011934041976929
1701909824051225300,8.461225341796874,9.466495513916016,2.5235981941223145,-0.5030251741409302
1701909824068217300,8.47821728515625,9.462886810302734,2.5370357036590576,-0.5033215284347534
1701909824085210400,8.49521044921875,9.460601806640625,2.5458531379699707,-0.5017549991607666
1701909824102203600,8.51220361328125,9.460843086242676,2.5453507900238037,-0.4997556209564209
1701909824119196400,8.529196533203125,9.462514877319336,2.539134979248047,-0.4997076094150543
1701909824136187000,8.546186767578124,9.464269638061523,2.5326929092407227,-0.4991823136806488
1701909824153172200,8.563172119140624,9.465121269226074,2.5302274227142334,-0.4955163896083832
1701909824170172200,8.580172119140625,9.464340209960938,2.5335452556610107,-0.49348461627960205
1701909824187168000,8.59716796875,9.463306427001953,2.5379629135131836,-0.49060437083244324
1701909824204161300,8.614161376953126,9.463717460632324,2.5372121334075928,-0.48654377460479736
1701909824221154000,8.631154052734376,9.465728759765625,2.5301811695098877,-0.48401308059692383
1701909824238147300,8.648147216796875,9.467355728149414,2.5238919258117676,-0.4850287437438965
1701909824255140000,8.66514013671875,9.466988563537598,2.5252747535705566,-0.4850153625011444
1701909824272133000,8.682133056640625,9.465303421020508,2.53251051902771,-0.4801441431045532
1701909824289126000,8.6991259765625,9.463953971862793,2.538520574569702,-0.4749695062637329
1701909824306119000,8.716118896484375,9.464362144470215,2.5373318195343018,-0.4731847047805786
1701909824323112000,8.73311181640625,9.466050148010254,2.5305986404418945,-0.47547513246536255
1701909824340105000,8.75010498046875,9.467937469482422,2.5233163833618164,-0.4765970706939697
1701909824357097000,8.767096923828126,9.469758987426758,2.51754093170166,-0.47092804312705994
1701909824374088000,8.784087890625,9.471901893615723,2.511909246444702,-0.4577009975910187
1701909824391081000,8.8010810546875,9.474202156066895,2.5043559074401855,-0.4514334201812744
1701909824408078800,8.818078857421876,9.477163314819336,2.4921624660491943,-0.4567456841468811
1701909824425059000,8.83505908203125,9.47962474822998,2.481268882751465,-0.4648861289024353
1701909824442062600,8.8520625,9.480393409729004,2.478609323501587,-0.46340617537498474
1701909824459053300,8.86905322265625,9.478835105895996,2.485994815826416,-0.45565760135650635
1701909824476050700,8.88605078125,9.475961685180664,2.497483730316162,-0.45259445905685425
1701909824493041200,8.903041259765626,9.473978996276855,2.5047085285186768,-0.4541562497615814
1701909824510034400,8.920034423828126,9.474165916442871,2.5035433769226074,-0.456680566072464
1701909824527027200,8.937027099609375,9.475272178649902,2.498589038848877,-0.4608364701271057
1701909824544021800,8.954021728515626,9.47518253326416,2.498004913330078,-0.46583542227745056
1701909824561011700,8.97101171875,9.473219871520996,2.5049307346343994,-0.4685453176498413
1701909824578000400,8.98800048828125,9.47152042388916,2.5123136043548584,-0.46334266662597656
1701909824595001900,9.005001953125,9.471545219421387,2.5134499073028564,-0.4566178023815155
1701909824611991600,9.021991455078124,9.473164558410645,2.507669448852539,-0.4548226296901703
1701909824628985900,9.03898583984375,9.474771499633789,2.5005600452423096,-0.4604385793209076
1701909824645978000,9.05597802734375,9.475701332092285,2.4962594509124756,-0.46462950110435486
1701909824662971100,9.07297119140625,9.475985527038574,2.4955761432647705,-0.46250322461128235
1701909824679960600,9.089960693359375,9.47549057006836,2.4977645874023438,-0.4608290195465088
1701909824696956700,9.106956787109375,9.47443675994873,2.5018792152404785,-0.46017560362815857
1701909824713950000,9.123949951171875,9.472877502441406,2.5079829692840576,-0.45904117822647095
1701909824730942700,9.140942626953125,9.471808433532715,2.5130562782287598,-0.4533408582210541
1701909824747933000,9.157932861328124,9.472105979919434,2.513336658477783,-0.4454759955406189
1701909824764931300,9.174931396484375,9.47353458404541,2.5093040466308594,-0.4377666413784027
1701909824781921300,9.19192138671875,9.475398063659668,2.5041136741638184,-0.42703139781951904
1701909824798915000,9.2089150390625,9.47701644897461,2.5002949237823486,-0.4132552146911621
1701909824815907600,9.225907470703126,9.47789478302002,2.4984872341156006,-0.40395212173461914
1701909824832900400,9.242900390625,9.47812271118164,2.498272180557251,-0.3999214172363281
1701909824849893600,9.2598935546875,9.477646827697754,2.5000853538513184,-0.3998698890209198
1701909824866883300,9.27688330078125,9.47695541381836,2.5028247833251953,-0.39910581707954407
1701909824883864800,9.29386474609375,9.475982666015625,2.5070087909698486,-0.39592859148979187
1701909824900872400,9.31087255859375,9.475013732910156,2.511359691619873,-0.3915320634841919
1701909824917865500,9.327865478515625,9.47485637664795,2.512505292892456,-0.3879759907722473
1701909824934857500,9.344857421875,9.476099967956543,2.508073568344116,-0.38626816868782043
1701909824951852300,9.361852294921874,9.478650093078613,2.4987828731536865,-0.38391241431236267
1701909824968844000,9.378843994140626,9.481271743774414,2.4895269870758057,-0.37928301095962524
1701909824985837300,9.39583740234375,9.482511520385742,2.485459089279175,-0.37492772936820984
1701909825002830300,9.412830322265625,9.482142448425293,2.487004518508911,-0.3740290701389313
1701909825019823400,9.4298232421875,9.480968475341797,2.490893602371216,-0.37788480520248413
1701909825036816100,9.446816162109375,9.479419708251953,2.495577812194824,-0.3857480585575104
1701909825053808000,9.46380810546875,9.477188110351562,2.502812385559082,-0.3936343491077423
1701909825070800600,9.480800537109374,9.474392890930176,2.5125112533569336,-0.39908871054649353
1701909825087797200,9.49779736328125,9.471610069274902,2.522336006164551,-0.40313732624053955
1701909825104787700,9.51478759765625,9.470173835754395,2.5274696350097656,-0.40473508834838867
1701909825121780700,9.53178076171875,9.470829963684082,2.5248608589172363,-0.4056769013404846
1701909825138773500,9.5487734375,9.472954750061035,2.5165340900421143,-0.40778324007987976
1701909825155767600,9.565767578125,9.475068092346191,2.5083539485931396,-0.40908870100975037
1701909825172759800,9.582759765625,9.4758882522583,2.504782199859619,-0.411977082490921
1701909825189749500,9.59974951171875,9.47582721710205,2.5046000480651855,-0.4144776463508606
1701909825206745600,9.61674560546875,9.475556373596191,2.5026609897613525,-0.43200919032096863
1701909825223739000,9.63373876953125,9.477249145507812,2.4917502403259277,-0.4572092294692993
1701909825240731600,9.650731689453124,9.480155944824219,2.477651596069336,-0.4732862412929535
1701909825257725400,9.667725341796874,9.481629371643066,2.471900701522827,-0.47383856773376465
1701909825274719700,9.6847197265625,9.480361938476562,2.4777584075927734,-0.4685762822628021
1701909825291710700,9.701710693359376,9.47797966003418,2.487633466720581,-0.4644257128238678
1701909825308703200,9.718703125,9.477039337158203,2.491590976715088,-0.4623943865299225
1701909825325696500,9.735696533203125,9.477968215942383,2.4873337745666504,-0.4662591814994812
1701909825342685000,9.752684814453126,9.479730606079102,2.4792120456695557,-0.47363224625587463
1701909825359682600,9.7696826171875,9.481607437133789,2.470486640930176,-0.4815819561481476
1701909825376672500,9.786672607421876,9.48353385925293,2.46240496635437,-0.4850366413593292
1701909825393668000,9.803668212890624,9.484089851379395,2.4607083797454834,-0.4827636778354645
1701909825410661400,9.820661376953124,9.481881141662598,2.469709634780884,-0.48017287254333496
1701909825427654400,9.837654296875,9.477729797363281,2.485521078109741,-0.4805600047111511
1701909825444646700,9.854646728515625,9.474455833435059,2.498049020767212,-0.4801498353481293
1701909825461628400,9.87162841796875,9.47407054901123,2.4999029636383057,-0.4780939519405365
1701909825478633500,9.888633544921875,9.475613594055176,2.4940197467803955,-0.4782543182373047
1701909825495626000,9.9056259765625,9.476787567138672,2.4892632961273193,-0.4797687530517578
1701909825512619000,9.922618896484375,9.476408958435059,2.4909284114837646,-0.4786064028739929
1701909825529612300,9.9396123046875,9.475561141967773,2.4949848651885986,-0.47423499822616577
1701909825546604800,9.956604736328124,9.475669860839844,2.4952328205108643,-0.4707581698894501
1701909825563598300,9.973598388671874,9.47683048248291,2.4905028343200684,-0.4724331200122833
1701909825580587800,9.990587890625,9.478127479553223,2.4849205017089844,-0.4757843017578125
1701909825597572000,10.007572021484375,9.478885650634766,2.4824302196502686,-0.47367915511131287
1701909825614578400,10.024578369140626,9.478270530700684,2.485568046569824,-0.4695095717906952
1701909825631573200,10.0415732421875,9.477091789245605,2.490489959716797,-0.4672236740589142
1701909825648548900,10.058548828125,9.47672176361084,2.4917917251586914,-0.4677906334400177
1701909825665539800,10.075539794921875,9.477807998657227,2.4876294136047363,-0.46793442964553833
1701909825682548700,10.092548828125,9.479437828063965,2.481672525405884,-0.46654775738716125
1701909825699535600,10.10953564453125,9.480677604675293,2.4771625995635986,-0.46532896161079407
1701909825716537000,10.126537109375,9.48098373413086,2.4757585525512695,-0.4665514826774597
1701909825733527600,10.143527587890626,9.480616569519043,2.4768733978271484,-0.46810054779052734
1701909825750520800,10.160520751953126,9.479750633239746,2.4800798892974854,-0.4686566889286041
1701909825767510300,10.17751025390625,9.478536605834961,2.484517812728882,-0.4696965515613556
1701909825784506600,10.194506591796875,9.47762393951416,2.4878246784210205,-0.4706180691719055
1701909825801499600,10.211499755859375,9.477656364440918,2.487624406814575,-0.47102540731430054
1701909825818492400,10.228492431640625,9.478553771972656,2.4840247631073,-0.471957802772522
1701909825835485400,10.2454853515625,9.479869842529297,2.4787845611572266,-0.4730726480484009
1701909825852478200,10.262478271484374,9.48089599609375,2.474459648132324,-0.4751432240009308
1701909825869471500,10.279471435546874,9.481746673583984,2.470815658569336,-0.4771234691143036
1701909825886464300,10.29646435546875,9.482391357421875,2.4679811000823975,-0.4789867401123047
1701909825903455000,10.313455078125,9.4824800491333,2.4669299125671387,-0.48264461755752563
1701909825920452900,10.330452880859376,9.482022285461426,2.4675984382629395,-0.4881782829761505
1701909825937443300,10.347443359375,9.482211112976074,2.466701030731201,-0.4890553057193756
1701909825954435300,10.364435302734375,9.48360824584961,2.4621386528015137,-0.4849276542663574
1701909825971430000,10.381429931640625,9.484819412231445,2.4577269554138184,-0.48363104462623596
1701909825988412000,10.398411865234374,9.485302925109863,2.4557883739471436,-0.48398444056510925
1701909826005415000,10.415414794921874,9.48552417755127,2.455203056335449,-0.48261114954948425
1701909826022408000,10.432407958984374,9.485962867736816,2.453974723815918,-0.4802376925945282
1701909826039400200,10.449400146484376,9.486093521118164,2.4532642364501953,-0.4812895953655243
1701909826056394500,10.46639453125,9.485661506652832,2.454637289047241,-0.4827989935874939
1701909826073386800,10.48338671875,9.484803199768066,2.4578609466552734,-0.4832511842250824
1701909826090376700,10.500376708984374,9.48378849029541,2.4616527557373047,-0.4838687479496002
1701909826107372500,10.51737255859375,9.482821464538574,2.4652698040008545,-0.48439863324165344
1701909826124365800,10.53436572265625,9.482282638549805,2.467982292175293,-0.4811307191848755
1701909826141358800,10.55135888671875,9.481965065002441,2.4698939323425293,-0.4775828421115875
1701909826158352000,10.568351806640624,9.481917381286621,2.470175266265869,-0.47706323862075806
1701909826175344600,10.5853447265625,9.482365608215332,2.4685451984405518,-0.4765893816947937
1701909826192327000,10.602326904296875,9.483137130737305,2.466106653213501,-0.4738493859767914
1701909826209330400,10.619330322265625,9.48355770111084,2.4647932052612305,-0.47226017713546753
1701909826226323500,10.636323486328125,9.48312759399414,2.4660212993621826,-0.4744929373264313
1701909826243316200,10.653316162109375,9.482152938842773,2.4694910049438477,-0.4759252071380615
1701909826260309200,10.670309326171875,9.481197357177734,2.473564386367798,-0.47379177808761597
1701909826277292000,10.6872919921875,9.480795860290527,2.475911855697632,-0.4695429801940918
1701909826294295600,10.704295654296875,9.48083209991455,2.4762182235717773,-0.46718963980674744
1701909826311286300,10.721286376953126,9.480864524841309,2.4757561683654785,-0.4689793884754181
1701909826328283400,10.738283447265625,9.480406761169434,2.4770543575286865,-0.47139063477516174
1701909826345274000,10.755274169921876,9.47957992553711,2.4803659915924072,-0.4705908000469208
1701909826362272500,10.7722724609375,9.479096412658691,2.483167886734009,-0.46552032232284546
1701909826379257900,10.7892578125,9.478883743286133,2.484666109085083,-0.46185630559921265
1701909826396255200,10.806255126953126,9.478772163391113,2.4849674701690674,-0.4625195264816284
1701909826413234200,10.823234130859374,9.478665351867676,2.484776258468628,-0.4657301604747772
1701909826430239200,10.8402392578125,9.478710174560547,2.4844467639923096,-0.4665704667568207
1701909826447232000,10.85723193359375,9.478631973266602,2.4851419925689697,-0.4644607901573181
1701909826464224300,10.874224365234374,9.478264808654785,2.4869422912597656,-0.46231159567832947
1701909826481211000,10.8912109375,9.477962493896484,2.48797869682312,-0.46291714906692505
1701909826498210800,10.9082109375,9.478184700012207,2.4867641925811768,-0.46489912271499634
1701909826515203800,10.925203857421875,9.478848457336426,2.4837043285369873,-0.46770477294921875
1701909826532196400,10.9421962890625,9.479900360107422,2.479977607727051,-0.46616557240486145
1701909826549190400,10.9591904296875,9.481048583984375,2.476430654525757,-0.4616409242153168
1701909826566180400,10.976180419921874,9.48215389251709,2.472647190093994,-0.4592217803001404
1701909826583177700,10.993177734375,9.482904434204102,2.4691436290740967,-0.4625687301158905
1701909826600164000,11.0101640625,9.48357105255127,2.4661471843719482,-0.46485716104507446
1701909826617161700,11.02716162109375,9.48448371887207,2.463446855545044,-0.46053630113601685
1701909826634154800,11.04415478515625,9.485666275024414,2.4601447582244873,-0.4538074731826782
1701909826651147800,11.061147705078126,9.487030982971191,2.455491781234741,-0.45044204592704773
1701909826668140500,11.078140625,9.488399505615234,2.4500865936279297,-0.45106241106987
1701909826685133600,11.095133544921875,9.489507675170898,2.4457473754882812,-0.45130455493927
1701909826702124300,11.112124267578125,9.490577697753906,2.442309856414795,-0.4473910331726074
1701909826719122200,11.1291220703125,9.49130630493164,2.439973831176758,-0.4446784257888794
1701909826736114200,11.1461142578125,9.491028785705566,2.440415620803833,-0.44815313816070557
1701909826753106400,11.1631064453125,9.489338874816895,2.445547580718994,-0.45591655373573303
1701909826770098200,11.18009814453125,9.487140655517578,2.4533050060272217,-0.4599662721157074
1701909826787088100,11.197088134765625,9.48585319519043,2.458824634552002,-0.4570254981517792
1701909826804084500,11.21408447265625,9.486101150512695,2.4586105346679688,-0.45300522446632385
1701909826821077500,11.231077392578126,9.48752212524414,2.4532060623168945,-0.45257312059402466
1701909826838070300,11.2480703125,9.488860130310059,2.447709083557129,-0.45426273345947266
1701909826855062300,11.265062255859375,9.489263534545898,2.446176528930664,-0.4540899693965912
1701909826872056800,11.282056884765625,9.489191055297852,2.4471824169158936,-0.45017823576927185
1701909826889049000,11.299049072265625,9.489502906799316,2.446528673171997,-0.44715121388435364
1701909826906042000,11.3160419921875,9.490304946899414,2.443164110183716,-0.44852516055107117
1701909826923035400,11.333035400390624,9.491256713867188,2.439270257949829,-0.4495852589607239
1701909826940028000,11.35002783203125,9.491617202758789,2.43809175491333,-0.44834330677986145
1701909826957021200,11.367021240234376,9.491446495056152,2.4393043518066406,-0.4453606605529785
1701909826974007600,11.384007568359374,9.491183280944824,2.4406332969665527,-0.44367876648902893
1701909826991007700,11.4010078125,9.490607261657715,2.4429614543914795,-0.4431932270526886
1701909827007999700,11.417999755859375,9.488863945007324,2.450535774230957,-0.43869760632514954
1701909827024992800,11.43499267578125,9.485884666442871,2.4623115062713623,-0.4371902644634247
1701909827041984800,11.45198486328125,9.483720779418945,2.4704208374023438,-0.43838033080101013
1701909827058979600,11.4689794921875,9.483386993408203,2.471282720565796,-0.44073286652565
1701909827075971800,11.485971923828124,9.484101295471191,2.468327522277832,-0.4419047236442566
1701909827092962000,11.502962158203125,9.484976768493652,2.4654762744903564,-0.43901723623275757
1701909827109954800,11.519954833984375,9.485971450805664,2.4626338481903076,-0.4334598183631897
1701909827126953200,11.536953125,9.487297058105469,2.4580039978027344,-0.43072330951690674
1701909827143943400,11.553943359375,9.488173484802246,2.4542462825775146,-0.43283212184906006
1701909827160926000,11.570926025390625,9.487832069396973,2.45522141456604,-0.4347740411758423
1701909827177919200,11.587919189453125,9.486613273620605,2.460103750228882,-0.4337892234325409
1701909827194922500,11.604922607421875,9.485512733459473,2.4645326137542725,-0.4327084422111511
1701909827211915000,11.6219150390625,9.485008239746094,2.4660277366638184,-0.4352435767650604
1701909827228909000,11.638908935546874,9.484935760498047,2.4657905101776123,-0.4381521940231323
1701909827245901300,11.6559013671875,9.484580039978027,2.467097043991089,-0.43850114941596985
1701909827262894300,11.672894287109376,9.484253883361816,2.469437837600708,-0.4323348104953766
1701909827279887400,11.689887451171876,9.485032081604004,2.4678955078125,-0.4239917993545532
1701909827296877300,11.706877197265625,9.487035751342773,2.4606776237487793,-0.42110735177993774
1701909827313873400,11.723873291015625,9.488847732543945,2.452911853790283,-0.4255785048007965
1701909827330866400,11.740866455078125,9.489335060119629,2.450251579284668,-0.42999184131622314
1701909827347859700,11.757859619140625,9.488908767700195,2.4520986080169678,-0.4288693964481354
1701909827364851000,11.774850830078124,9.488656044006348,2.4539549350738525,-0.42381957173347473
1701909827381846000,11.791845947265625,9.488848686218262,2.4536142349243164,-0.42145124077796936
1701909827398828800,11.808828857421876,9.489574432373047,2.451021432876587,-0.4202249348163605
1701909827415831300,11.825831298828126,9.49077320098877,2.446969985961914,-0.41674715280532837
1701909827432822000,11.842822021484375,9.491726875305176,2.443530797958374,-0.4151921570301056
1701909827449819400,11.8598193359375,9.49202823638916,2.442215919494629,-0.4160364866256714
1701909827466809900,11.876809814453125,9.491549491882324,2.443938970565796,-0.4168369770050049
1701909827483803000,11.893802978515625,9.490533828735352,2.4479284286499023,-0.41655728220939636
1701909827500792800,11.910792724609376,9.48955249786377,2.4520721435546875,-0.41453930735588074
1701909827517789000,11.927788818359375,9.489055633544922,2.454242467880249,-0.41306909918785095
1701909827534781700,11.94478173828125,9.489595413208008,2.452409505844116,-0.4115440845489502
1701909827551764200,11.96176416015625,9.491015434265137,2.447021961212158,-0.41088226437568665
1701909827568765200,11.97876513671875,9.492956161499023,2.439892292022705,-0.40842846035957336
1701909827585763300,11.995763427734374,9.494668960571289,2.43396258354187,-0.40396177768707275
1701909827602753800,12.01275390625,9.496047973632812,2.429628372192383,-0.3976169526576996
1701909827619743700,12.02974365234375,9.497063636779785,2.426144599914551,-0.3946000337600708
1701909827636739800,12.04673974609375,9.497981071472168,2.42236328125,-0.3957480490207672
1701909827653732600,12.063732666015625,9.49870777130127,2.4192137718200684,-0.39758387207984924
1701909827670725400,12.080725341796875,9.499106407165527,2.4181532859802246,-0.39449089765548706
1701909827687715300,12.09771533203125,9.49863052368164,2.420661687850952,-0.3905578553676605
1701909827704711400,12.11471142578125,9.497835159301758,2.4241645336151123,-0.3881606161594391
1701909827721704200,12.1317041015625,9.497239112854004,2.4261016845703125,-0.39064592123031616
1701909827738697500,12.148697509765626,9.496750831604004,2.4270691871643066,-0.39643874764442444
1701909827755690500,12.1656904296875,9.496286392211914,2.4283299446105957,-0.3998139798641205
1701909827772683300,12.182683349609375,9.49571418762207,2.4306180477142334,-0.39951446652412415
1701909827789676500,12.199676513671875,9.495707511901855,2.431241989135742,-0.3958626687526703
1701909827806669000,12.2166689453125,9.496975898742676,2.4267027378082275,-0.3932894468307495
1701909827823663000,12.2336630859375,9.499494552612305,2.4165263175964355,-0.39510872960090637
1701909827840654600,12.250654541015624,9.502015113830566,2.405733823776245,-0.40032950043678284
1701909827857648400,12.2676484375,9.503132820129395,2.4003117084503174,-0.4062812328338623
1701909827874640100,12.28464013671875,9.502992630004883,2.400451183319092,-0.4087470769882202
1701909827891634700,12.301634765625,9.502693176269531,2.4019863605499268,-0.40668219327926636
1701909827908627200,12.318627197265625,9.503290176391602,2.4002203941345215,-0.4031466841697693
1701909827925620000,12.335619873046875,9.504898071289062,2.393908739089966,-0.40276676416397095
1701909827942602500,12.3526025390625,9.506608963012695,2.386659622192383,-0.4053947925567627
1701909827959606300,12.369606201171875,9.507647514343262,2.382039785385132,-0.40820926427841187
1701909827976599000,12.38659912109375,9.50732421875,2.382857322692871,-0.4109508991241455
1701909827993592000,12.403592041015624,9.506110191345215,2.387497663497925,-0.41211405396461487
1701909828010577200,12.4205771484375,9.504895210266113,2.3922736644744873,-0.4124455153942108
1701909828027582200,12.437582275390625,9.504396438598633,2.394484281539917,-0.4110969305038452
1701909828044564000,12.45456396484375,9.504673957824707,2.3939075469970703,-0.40801647305488586
1701909828061576200,12.471576171875,9.505102157592773,2.3927619457244873,-0.4047560393810272
1701909828078557000,12.488556884765625,9.505111694335938,2.392749071121216,-0.4046061336994171
1701909828095550000,12.505550048828125,9.504922866821289,2.393090009689331,-0.40703529119491577
1701909828112542500,12.52254248046875,9.505101203918457,2.3919689655303955,-0.4094277620315552
1701909828129535700,12.53953564453125,9.505969047546387,2.388603687286377,-0.40893396735191345
1701909828146528800,12.55652880859375,9.507315635681152,2.383660316467285,-0.40649595856666565
1701909828163521500,12.573521484375,9.508363723754883,2.379516124725342,-0.40623027086257935
1701909828180514600,12.5905146484375,9.508862495422363,2.3772976398468018,-0.4075462818145752
1701909828197504500,12.60750439453125,9.508880615234375,2.376976490020752,-0.4089987277984619
1701909828214500400,12.624500244140625,9.508538246154785,2.3775596618652344,-0.4135379195213318
1701909828231491000,12.641490966796875,9.509012222290039,2.375343084335327,-0.4153774380683899
1701909828248489000,12.658489013671876,9.50986385345459,2.3713583946228027,-0.4186275601387024
1701909828265475000,12.67547509765625,9.509637832641602,2.3710672855377197,-0.4253588616847992
1701909828282472400,12.692472412109375,9.507894515991211,2.3765079975128174,-0.43389374017715454
1701909828299465200,12.70946533203125,9.506027221679688,2.383023977279663,-0.4390382170677185
1701909828316458200,12.726458251953124,9.504800796508789,2.3874175548553467,-0.44171491265296936
1701909828333443000,12.743443115234374,9.504199981689453,2.3890538215637207,-0.4457823932170868
1701909828350444300,12.7604443359375,9.503883361816406,2.389042377471924,-0.45252516865730286
1701909828367437300,12.777437255859375,9.504132270812988,2.387312889099121,-0.45641466975212097
1701909828384428300,12.79442822265625,9.504523277282715,2.3854904174804688,-0.4577830731868744
1701909828401425400,12.81142529296875,9.504798889160156,2.384476900100708,-0.4573560655117035
1701909828418416000,12.828416015625,9.50461483001709,2.3851404190063477,-0.4577239453792572
1701909828435395300,12.845395263671875,9.503754615783691,2.3874082565307617,-0.46371695399284363
1701909828452394500,12.86239453125,9.502269744873047,2.391319990158081,-0.4738844037055969
1701909828469395700,12.879395751953124,9.500617980957031,2.396348714828491,-0.48152393102645874
1701909828486388000,12.896387939453126,9.499649047851562,2.399968385696411,-0.4826200008392334
1701909828503381000,12.913381103515626,9.50007152557373,2.399249315261841,-0.47786056995391846
1701909828520371000,12.930370849609375,9.501527786254883,2.3941688537597656,-0.4743805229663849
1701909828537367000,12.947366943359375,9.503568649291992,2.3862459659576416,-0.4734112024307251
1701909828554359800,12.96435986328125,9.505367279052734,2.3787841796875,-0.4748634994029999
1701909828571352800,12.981352783203125,9.506189346313477,2.374851942062378,-0.47808751463890076
1701909828588345600,12.998345703125,9.506318092346191,2.374030828475952,-0.47958534955978394
1701909828605339000,13.0153388671875,9.507217407226562,2.3708972930908203,-0.4772619605064392
1701909828622331600,13.03233154296875,9.509076118469238,2.362818479537964,-0.4802767336368561
1701909828639324700,13.04932470703125,9.511104583740234,2.3524715900421143,-0.4907878339290619
1701909828656315600,13.066315673828125,9.512317657470703,2.3450276851654053,-0.5027587413787842
1701909828673312800,13.083312744140626,9.512645721435547,2.340925931930542,-0.5155037641525269
1701909828690303200,13.10030322265625,9.513243675231934,2.336446762084961,-0.524713397026062
1701909828707293700,13.117293701171874,9.51356029510498,2.334581136703491,-0.5272684693336487
1701909828724289500,13.13428955078125,9.51326847076416,2.336435317993164,-0.5243120789527893
1701909828741270300,13.151270263671876,9.512764930725098,2.3391809463500977,-0.521190881729126
1701909828758275600,13.168275634765624,9.513102531433105,2.33809232711792,-0.5199083685874939
1701909828775267600,13.185267578125,9.51480770111084,2.3314433097839355,-0.5185773968696594
1701909828792262100,13.20226220703125,9.516708374023438,2.3239612579345703,-0.5172697901725769
1701909828809254700,13.219254638671876,9.517529487609863,2.3212389945983887,-0.514373779296875
1701909828826247200,13.2362470703125,9.517166137695312,2.3236780166625977,-0.510083794593811
1701909828843240200,13.253240234375,9.516809463500977,2.326233386993408,-0.5050679445266724
1701909828860233200,13.270233154296875,9.517257690429688,2.324892520904541,-0.5027854442596436
1701909828877226200,13.287226318359375,9.518232345581055,2.320542812347412,-0.5044168829917908
1701909828894218500,13.304218505859374,9.519207954406738,2.3159031867980957,-0.5073245763778687
1701909828911213000,13.321213134765625,9.519829750061035,2.312695026397705,-0.5102884769439697
1701909828928205000,13.338205078125,9.52018928527832,2.3102777004241943,-0.5145103931427002
1701909828945198000,13.355197998046876,9.520654678344727,2.307577133178711,-0.5180131196975708
1701909828962190300,13.3721904296875,9.521003723144531,2.305093765258789,-0.5226367115974426
1701909828979184600,13.3891845703125,9.52146053314209,2.3029983043670654,-0.5235389471054077
1701909828996175000,13.406175048828125,9.5220947265625,2.300377130508423,-0.523539662361145
1701909829013170000,13.423169921875,9.522601127624512,2.297677993774414,-0.5261642336845398
1701909829030161000,13.440160888671874,9.522727012634277,2.2964887619018555,-0.5290830135345459
1701909829047156000,13.457156005859375,9.522442817687988,2.2974188327789307,-0.5301603674888611
1701909829064149000,13.47414892578125,9.522197723388672,2.298919439315796,-0.528028130531311
1701909829081141800,13.491141845703124,9.522486686706543,2.298438310623169,-0.5249205827713013
1701909829098131500,13.50813134765625,9.52296257019043,2.296055555343628,-0.5267072916030884
1701909829115127800,13.5251279296875,9.524150848388672,2.2910027503967285,-0.5272349119186401
1701909829132120800,13.542120849609375,9.525642395019531,2.2851665019989014,-0.5256058573722839
1701909829149114000,13.559114013671875,9.527077674865723,2.279846429824829,-0.5226896405220032
1701909829166094600,13.576094482421874,9.528426170349121,2.274942398071289,-0.5194569230079651
1701909829183099600,13.593099609375,9.528681755065918,2.273292303085327,-0.521991491317749
1701909829200092700,13.6100927734375,9.528520584106445,2.2731752395629883,-0.5254246592521667
1701909829217082400,13.627082275390626,9.528554916381836,2.2719552516937256,-0.5300683975219727
1701909829234076700,13.64407666015625,9.52892780303955,2.268996238708496,-0.5359990000724792
1701909829251073500,13.661073486328124,9.52958869934082,2.264444351196289,-0.5434513688087463
1701909829268063700,13.678063720703125,9.530094146728516,2.260408639907837,-0.5513302087783813
1701909829285057800,13.695057861328126,9.530640602111816,2.2577133178710938,-0.5529364347457886
1701909829302049000,13.712049072265625,9.531272888183594,2.255977153778076,-0.5491039156913757
1701909829319046000,13.7290458984375,9.53198528289795,2.252667188644409,-0.5503275990486145
1701909829336036600,13.74603662109375,9.532593727111816,2.2478981018066406,-0.5592237710952759
1701909829353029400,13.763029296875,9.532974243164062,2.244292736053467,-0.5671525597572327
1701909829370022100,13.780022216796874,9.532527923583984,2.245868682861328,-0.5684008598327637
1701909829387015400,13.797015380859374,9.530879020690918,2.253232717514038,-0.5669178366661072
1701909829404008400,13.814008544921874,9.528923988342285,2.2611610889434814,-0.5682132244110107
1701909829421001700,13.831001708984376,9.528006553649902,2.2638165950775146,-0.5730133652687073
1701909829437994200,13.847994140625,9.528870582580566,2.2590999603271484,-0.5772334337234497
1701909829454987500,13.864987548828125,9.530718803405762,2.251210927963257,-0.5775408148765564
1701909829471979300,13.881979248046875,9.532191276550293,2.2454116344451904,-0.5758259296417236
1701909829488976000,13.898975830078125,9.533205032348633,2.2425310611724854,-0.570228636264801
1701909829505964000,13.915964111328124,9.533743858337402,2.241633653640747,-0.564727246761322
1701909829522959000,13.932958984375,9.53365421295166,2.242366313934326,-0.5633213520050049
1701909829539949000,13.949948974609375,9.53334903717041,2.2436742782592773,-0.5632819533348083
1701909829556945200,13.966945068359376,9.533320426940918,2.244304656982422,-0.5612572431564331
1701909829573938200,13.983938232421876,9.533315658569336,2.2449991703033447,-0.5585418343544006
1701909829590931000,14.000930908203125,9.532346725463867,2.248997688293457,-0.5589983463287354
1701909829607921000,14.0179208984375,9.530413627624512,2.256972074508667,-0.5598152875900269
1701909829624916700,14.034916748046875,9.52820873260498,2.266592502593994,-0.5584897994995117
1701909829641909200,14.0519091796875,9.527169227600098,2.272592067718506,-0.5518048405647278
1701909829658903600,14.068903564453125,9.527684211730957,2.2718868255615234,-0.5457726120948792
1701909829675879700,14.085879638671875,9.529327392578125,2.2651705741882324,-0.5450050830841064
1701909829692888000,14.10288818359375,9.531304359436035,2.2565388679504395,-0.5462459325790405
1701909829709882600,14.119882568359374,9.532217979431152,2.2522995471954346,-0.5478000640869141
1701909829726875000,14.136875,9.531170845031738,2.251105308532715,-0.5704540014266968
1701909829743867600,14.15386767578125,9.531496047973633,2.2451512813568115,-0.5881981253623962
1701909829760843300,14.17084326171875,9.531932830810547,2.2406020164489746,-0.598388671875
1701909829777853700,14.187853759765625,9.532416343688965,2.237884521484375,-0.6008521318435669
1701909829794846000,14.204845947265625,9.532770156860352,2.2359440326690674,-0.6024543046951294
1701909829811840500,14.221840576171875,9.533105850219727,2.2352261543273926,-0.5998052954673767
1701909829828832500,14.23883251953125,9.53298282623291,2.2361674308776855,-0.5982547998428345
1701909829845825500,14.255825439453124,9.532206535339355,2.2383172512054443,-0.6025541424751282
1701909829862818600,14.272818603515624,9.53152847290039,2.2397682666778564,-0.6078745126724243
1701909829879801300,14.28980126953125,9.530837059020996,2.2406938076019287,-0.6152650117874146
1701909829896786200,14.3067861328125,9.530086517333984,2.2427663803100586,-0.6193234920501709
1701909829913797600,14.323797607421875,9.528543472290039,2.248875141143799,-0.6209064722061157
1701909829930787300,14.340787353515625,9.527045249938965,2.2556097507476807,-0.6194638609886169
1701909829947783200,14.357783203125,9.526384353637695,2.2583298683166504,-0.6197199821472168
1701909829964776200,14.374776123046875,9.526871681213379,2.255359411239624,-0.6230441927909851
1701909829981769200,14.391769287109375,9.527632713317871,2.251037836074829,-0.6270222067832947
1701909829998762200,14.40876220703125,9.527497291564941,2.250720500946045,-0.6301987767219543
1701909830015755300,14.42575537109375,9.527191162109375,2.2525014877319336,-0.6284632086753845
1701909830032748300,14.442748291015626,9.52761173248291,2.2516257762908936,-0.6252245306968689
1701909830049741000,14.459740966796875,9.528328895568848,2.2484326362609863,-0.6257909536361694
1701909830066734300,14.476734375,9.528278350830078,2.2474310398101807,-0.6301411390304565
1701909830083726800,14.493726806640625,9.527200698852539,2.2510688304901123,-0.6334376931190491
1701909830100719900,14.510719970703125,9.525711059570312,2.25730299949646,-0.6336507201194763
1701909830117709300,14.527709228515626,9.525171279907227,2.260145902633667,-0.6316232681274414
1701909830134706000,14.544705810546875,9.52640438079834,2.2553348541259766,-0.6302220225334167
1701909830151701000,14.561700927734375,9.528290748596191,2.247342109680176,-0.6302694082260132
1701909830168690200,14.578690185546876,9.529237747192383,2.2430801391601562,-0.6311264038085938
1701909830185685000,14.59568505859375,9.528946876525879,2.2439494132995605,-0.6324281692504883
1701909830202678000,14.612677978515626,9.528543472290039,2.245582103729248,-0.6327148675918579
1701909830219671000,14.629671142578125,9.52906322479248,2.24381422996521,-0.6311520934104919
1701909830236663800,14.646663818359375,9.530570030212402,2.237687349319458,-0.6301611661911011
1701909830253646000,14.66364599609375,9.531970977783203,2.231045961380005,-0.6325225234031677
1701909830270649900,14.68064990234375,9.532716751098633,2.2274117469787598,-0.6340810656547546
1701909830287643000,14.697642822265625,9.532645225524902,2.228231191635132,-0.6322755217552185
1701909830304635000,14.714634765625,9.531839370727539,2.231698751449585,-0.6321910619735718
1701909830321629400,14.73162939453125,9.531442642211914,2.233330011367798,-0.6324096322059631
1701909830338622000,14.7486220703125,9.532035827636719,2.230955123901367,-0.6318477392196655
1701909830355614700,14.76561474609375,9.533411026000977,2.226163864135742,-0.6279985308647156
1701909830372607000,14.78260693359375,9.534238815307617,2.2235779762268066,-0.6245709657669067
1701909830389601300,14.799601318359375,9.534296989440918,2.2236764430999756,-0.6233391165733337
1701909830406593500,14.816593505859375,9.534482955932617,2.223181962966919,-0.6222689747810364
1701909830423586800,14.8335869140625,9.535163879394531,2.221012592315674,-0.6195586323738098
1701909830440576500,14.850576416015626,9.53534984588623,2.2203874588012695,-0.6189483404159546
1701909830457570000,14.867570068359376,9.534579277038574,2.2228455543518066,-0.6219828128814697
1701909830474568000,14.88456787109375,9.533719062805176,2.226130723953247,-0.6234185099601746
1701909830491558400,14.901558349609376,9.533437728881836,2.2252132892608643,-0.6309519410133362
1701909830508551400,14.918551513671876,9.534706115722656,2.216918706893921,-0.6408958435058594
1701909830525544200,14.935544189453125,9.536247253417969,2.208940267562866,-0.6455044746398926
1701909830542527500,14.952527587890625,9.536133766174316,2.2094566822052,-0.645413339138031
1701909830559519700,14.969519775390625,9.534261703491211,2.218064785003662,-0.6435418128967285
1701909830576520700,14.986520751953124,9.531497955322266,2.229886293411255,-0.6436337232589722
1701909830593519000,15.00351904296875,9.528990745544434,2.239673376083374,-0.646763026714325
1701909830610509300,15.02050927734375,9.527572631835938,2.244394540786743,-0.6512794494628906
1701909830627499000,15.0374990234375,9.52768611907959,2.2438154220581055,-0.6516081690788269
1701909830644484400,15.054484375,9.528512954711914,2.2414019107818604,-0.6478154063224792
1701909830661488000,15.071488037109376,9.529311180114746,2.2394988536834717,-0.6426378488540649
1701909830678481400,15.0884814453125,9.529540061950684,2.238619565963745,-0.6423081755638123
1701909830695469600,15.105469482421874,9.53016185760498,2.2359166145324707,-0.6424942016601562
1701909830712468000,15.122468017578125,9.53096866607666,2.232539653778076,-0.6422702074050903
1701909830729460000,15.1394599609375,9.531288146972656,2.230973958969116,-0.6429664492607117
1701909830746452700,15.15645263671875,9.530970573425293,2.2317678928375244,-0.6449289321899414
1701909830763446000,15.173446044921874,9.53060245513916,2.2327961921691895,-0.6467998623847961
1701909830780438800,15.190438720703124,9.53014850616455,2.2341415882110596,-0.6488382816314697
1701909830797431800,15.207431884765626,9.529364585876465,2.237051248550415,-0.6503250598907471
1701909830814424300,15.22442431640625,9.528682708740234,2.240283250808716,-0.6491886973381042
1701909830831419000,15.2414189453125,9.5285062789917,2.2415671348571777,-0.6473425030708313
1701909830848411000,15.258410888671875,9.528966903686523,2.239854097366333,-0.6464916467666626
1701909830865403000,15.27540283203125,9.529638290405273,2.23653244972229,-0.6480900049209595
1701909830882397000,15.29239697265625,9.530266761779785,2.2335574626922607,-0.6491085290908813
1701909830899390500,15.309390380859375,9.530496597290039,2.2327933311462402,-0.6483672857284546
1701909830916382700,15.3263828125,9.52981948852539,2.2355637550354004,-0.6487700939178467
1701909830933375200,15.343375244140624,9.528233528137207,2.2415194511413574,-0.6515128016471863
1701909830950365400,15.360365478515625,9.526936531066895,2.2469654083251953,-0.6517124176025391
1701909830967361500,15.377361572265626,9.52692985534668,2.2479403018951416,-0.6484407782554626
1701909830984353800,15.394353759765625,9.528453826904297,2.2427568435668945,-0.6439904570579529
1701909831001346000,15.411345947265625,9.530428886413574,2.2346856594085693,-0.6428200602531433
1701909831018340000,15.428340087890625,9.531756401062012,2.228797435760498,-0.6435797214508057
1701909831035333400,15.44533349609375,9.532559394836426,2.225616216659546,-0.6426867246627808
1701909831052326400,15.462326416015625,9.53310775756836,2.224032402038574,-0.640032947063446
1701909831069319400,15.4793193359375,9.533123970031738,2.2245185375213623,-0.6381116509437561
1701909831086312400,15.4963125,9.532386779785156,2.227492332458496,-0.6387487053871155
1701909831103305500,15.513305419921876,9.531427383422852,2.2313692569732666,-0.6395247578620911
1701909831120298200,15.53029833984375,9.530332565307617,2.235813617706299,-0.6403113603591919
1701909831137288000,15.547287841796875,9.529108047485352,2.2403481006622314,-0.6426829099655151
1701909831154287000,15.564287109375,9.528111457824707,2.243903636932373,-0.6450610756874084
1701909831171260000,15.581260009765625,9.527678489685059,2.2452504634857178,-0.646755039691925
1701909831188270000,15.59827001953125,9.527956008911133,2.2439212799072266,-0.6472814083099365
1701909831205262300,15.615262451171875,9.528607368469238,2.240950107574463,-0.6479994058609009
1701909831222257200,15.632257080078125,9.5291109085083,2.238140821456909,-0.6502949595451355
1701909831239249200,15.649249267578124,9.529007911682129,2.2376022338867188,-0.6536388397216797
1701909831256239600,15.666239501953125,9.528474807739258,2.239563226699829,-0.6546983122825623
1701909831273238000,15.683238037109374,9.528141021728516,2.2413418292999268,-0.6534755825996399
1701909831290222300,15.700222412109374,9.528572082519531,2.2397677898406982,-0.6525842547416687
1701909831307221200,15.71722119140625,9.529438972473145,2.2355306148529053,-0.6544474959373474
1701909831324214000,15.734214111328125,9.530442237854004,2.2313990592956543,-0.6539303064346313
1701909831341204700,15.751204833984374,9.531375885009766,2.228410005569458,-0.6505223512649536
1701909831358198800,15.76819873046875,9.531617164611816,2.2275960445404053,-0.6497763991355896
1701909831375197000,15.785197021484375,9.53061294555664,2.2302544116973877,-0.6553639769554138
1701909831392185300,15.802185302734374,9.529197692871094,2.2348673343658447,-0.6602052450180054
1701909831409180000,15.819179931640624,9.528193473815918,2.2393784523010254,-0.6593981981277466
1701909831426166800,15.836166748046875,9.527923583984375,2.2419638633728027,-0.6545051336288452
1701909831443168000,15.85316796875,9.52801513671875,2.2420647144317627,-0.6528253555297852
1701909831460155000,15.87015478515625,9.528231620788574,2.240213394165039,-0.6560064554214478
1701909831477151000,15.88715087890625,9.528960227966309,2.236482620239258,-0.6581644415855408
1701909831494144000,15.90414404296875,9.53046703338623,2.2310004234313965,-0.6549422740936279
1701909831511136800,15.92113671875,9.531625747680664,2.2270352840423584,-0.651557445526123
1701909831528126500,15.93812646484375,9.5316743850708,2.226903200149536,-0.651296079158783
1701909831545122600,15.95512255859375,9.53154182434082,2.2277309894561768,-0.6504083275794983
1701909831562115800,15.97211572265625,9.532203674316406,2.225663900375366,-0.647784411907196
1701909831579108600,15.989108642578126,9.533208847045898,2.2214930057525635,-0.6473079323768616
1701909831596102700,16.0061025390625,9.53377628326416,2.2187600135803223,-0.6483262777328491
1701909831613094700,16.0230947265625,9.533929824829102,2.21834397315979,-0.6474837064743042
1701909831630079700,16.040079833984375,9.533906936645508,2.218975782394409,-0.6456513404846191
1701909831647081700,16.057081787109375,9.53396987915039,2.218355417251587,-0.6468509435653687
1701909831664075300,16.0740751953125,9.534558296203613,2.2150533199310303,-0.6495037078857422
1701909831681066200,16.091066162109374,9.535786628723145,2.209867477416992,-0.6491296887397766
1701909831698059300,16.108059326171876,9.537501335144043,2.2033872604370117,-0.6459594368934631
1701909831715051800,16.1250517578125,9.538825035095215,2.1975502967834473,-0.6462875604629517
1701909831732043800,16.142043701171875,9.53928279876709,2.193938732147217,-0.6517866849899292
1701909831749042700,16.159042724609375,9.538747787475586,2.1938958168029785,-0.65971440076828
1701909831766037200,16.176037353515625,9.538092613220215,2.1952250003814697,-0.6647440195083618
1701909831783026000,16.19302587890625,9.53747272491455,2.196402072906494,-0.6697368025779724
1701909831800017200,16.21001708984375,9.536888122558594,2.1967391967773438,-0.676912248134613
1701909831817010200,16.22701025390625,9.536581993103027,2.1961722373962402,-0.6830387115478516
1701909831834003200,16.244003173828126,9.536714553833008,2.195188045501709,-0.6843450665473938
1701909831850996500,16.26099658203125,9.537050247192383,2.1940627098083496,-0.6832765340805054
1701909831867989200,16.2779892578125,9.537582397460938,2.191887617111206,-0.6828269362449646
1701909831884982000,16.29498193359375,9.53806209564209,2.1897428035736084,-0.6830111145973206
1701909831901974300,16.311974365234374,9.53825855255127,2.189363956451416,-0.6814886927604675
1701909831918968800,16.32896875,9.538396835327148,2.1894969940185547,-0.6791167259216309
1701909831935961300,16.34596142578125,9.53848648071289,2.188722610473633,-0.6803570985794067
1701909831952953900,16.362953857421875,9.53838062286377,2.187612533569336,-0.6853882074356079
1701909831969945600,16.379945556640624,9.538634300231934,2.1871352195739746,-0.6833791136741638
1701909831986940000,16.39693994140625,9.538900375366211,2.1890487670898438,-0.6734681725502014
1701909832003932200,16.41393212890625,9.538585662841797,2.192871570587158,-0.6654279232025146
1701909832020927000,16.430927001953126,9.537798881530762,2.197263240814209,-0.6622204184532166
1701909832037923000,16.447923095703125,9.537160873413086,2.199767589569092,-0.6630995273590088
1701909832054912800,16.464912841796874,9.537249565124512,2.198941946029663,-0.6645532846450806
1701909832071902200,16.481902099609375,9.537460327148438,2.198056936264038,-0.6644673943519592
1701909832088900400,16.498900390625,9.537003517150879,2.2003819942474365,-0.6633102893829346
1701909832105890800,16.515890869140627,9.535608291625977,2.2060658931732178,-0.6644983887672424
1701909832122883800,16.5328837890625,9.534279823303223,2.211350440979004,-0.6659824848175049
1701909832139876900,16.549876953125,9.534168243408203,2.212975263595581,-0.662188708782196
1701909832156873000,16.566873046875,9.534584999084473,2.2129576206207275,-0.6562165021896362
1701909832173849900,16.583849853515623,9.534428596496582,2.213693380355835,-0.656007707118988
1701909832190865000,16.600864990234374,9.533720970153809,2.215251922607422,-0.6610078811645508
1701909832207849000,16.617848876953126,9.533945083618164,2.2140698432922363,-0.6617321372032166
1701909832224839000,16.6348388671875,9.535014152526855,2.2106707096099854,-0.6576929688453674
1701909832241837300,16.65183740234375,9.535411834716797,2.2099337577819824,-0.6543938517570496
1701909832258828000,16.668828125,9.534603118896484,2.213606595993042,-0.6537487506866455
1701909832275820500,16.685820556640625,9.53364372253418,2.2184484004974365,-0.6513286232948303
1701909832292812800,16.702812744140626,9.533114433288574,2.2220096588134766,-0.6469323039054871
1701909832309807400,16.719807373046876,9.532452583312988,2.2256038188934326,-0.6443153619766235
1701909832326798300,16.73679833984375,9.531378746032715,2.2300639152526855,-0.6447861194610596
1701909832343793400,16.75379345703125,9.530597686767578,2.2331104278564453,-0.6457828879356384
1701909832360778200,16.7707783203125,9.53113079071045,2.231539011001587,-0.6433366537094116
1701909832377778400,16.7877783203125,9.532475471496582,2.227170705795288,-0.638541042804718
1701909832394771000,16.80477099609375,9.532915115356445,2.2261669635772705,-0.6354614496231079
1701909832411764700,16.8217646484375,9.53185749053955,2.2311923503875732,-0.633696973323822
1701909832428757200,16.83875732421875,9.529897689819336,2.239893913269043,-0.6324778199195862
1701909832445750300,16.855750244140626,9.528489112854004,2.2466940879821777,-0.6295803189277649
1701909832462743300,16.872743408203124,9.528372764587402,2.2485811710357666,-0.62458336353302
1701909832479736300,16.889736328125,9.528839111328125,2.247457265853882,-0.6215122938156128
1701909832496718600,16.906718505859374,9.529239654541016,2.2458910942077637,-0.6210314035415649
1701909832513722400,16.923722412109374,9.52951431274414,2.245134115219116,-0.61954265832901
1701909832530715100,16.940715087890624,9.52982234954834,2.2448415756225586,-0.6158621311187744
1701909832547705000,16.957705078125,9.530181884765625,2.2447235584259033,-0.6107007265090942
1701909832564701000,16.974700927734375,9.530831336975098,2.2438769340515137,-0.6036414504051208
1701909832581694200,16.991694091796877,9.531436920166016,2.2430577278137207,-0.5970820188522339
1701909832598687000,17.00868701171875,9.531635284423828,2.243023633956909,-0.5940393209457397
1701909832615679000,17.025678955078124,9.531359672546387,2.2439725399017334,-0.5948652029037476
1701909832632679000,17.042678955078124,9.530658721923828,2.246617555618286,-0.5961315631866455
1701909832649666000,17.059666015625,9.529509544372559,2.251354932785034,-0.5966206192970276
1701909832666659000,17.0766591796875,9.528316497802734,2.2567737102508545,-0.5952126383781433
1701909832683651800,17.09365185546875,9.52796745300293,2.2589151859283447,-0.5926680564880371
1701909832700644900,17.110644775390625,9.52845287322998,2.2570083141326904,-0.5921290516853333
1701909832717638000,17.127637939453123,9.529009819030762,2.2540335655212402,-0.5944896340370178
1701909832734630100,17.144630126953125,9.528940200805664,2.253488779067993,-0.597667396068573
1701909832751614500,17.161614501953125,9.528236389160156,2.2559661865234375,-0.5995379686355591
1701909832768617000,17.178616943359376,9.527769088745117,2.2578186988830566,-0.5999748110771179
1701909832785610000,17.19560986328125,9.527915954589844,2.256556272506714,-0.6023902893066406
1701909832802602000,17.21260205078125,9.528614044189453,2.252417802810669,-0.6068295240402222
1701909832819596300,17.22959619140625,9.529170036315918,2.2488291263580322,-0.6113865971565247
1701909832836588800,17.2465888671875,9.529131889343262,2.2486135959625244,-0.6127757430076599
1701909832853584400,17.26358447265625,9.52846622467041,2.251157760620117,-0.6137833595275879
1701909832870568700,17.280568603515626,9.527826309204102,2.2532103061676025,-0.6161856055259705
1701909832887564800,17.297564697265624,9.527729988098145,2.2526843547821045,-0.619590163230896
1701909832904561000,17.314560791015627,9.528216361999512,2.2501673698425293,-0.6212542057037354
1701909832921551000,17.331551025390624,9.52876091003418,2.247779369354248,-0.621536374092102
1701909832938546200,17.348546142578126,9.529073715209961,2.2465877532958984,-0.6210570931434631
1701909832955539500,17.36553955078125,9.528779029846191,2.247803211212158,-0.6211715340614319
1701909832972532500,17.382532470703126,9.527626991271973,2.252115249633789,-0.6232221722602844
1701909832989525500,17.399525390625,9.52641773223877,2.2573158740997314,-0.6228978633880615
1701909833006516000,17.416515869140625,9.525728225708008,2.2607874870300293,-0.620845377445221
1701909833023514400,17.433514404296876,9.525607109069824,2.261578321456909,-0.6198214292526245
1701909833040504300,17.45050439453125,9.525675773620605,2.261181592941284,-0.620224118232727
1701909833057492500,17.467492431640625,9.525625228881836,2.2613508701324463,-0.6203736066818237
1701909833074492400,17.484492431640625,9.525440216064453,2.2623965740203857,-0.6193958520889282
1701909833091482600,17.501482666015626,9.525169372558594,2.2640397548675537,-0.6175678968429565
1701909833108477000,17.518476806640624,9.525053977966309,2.2652366161346436,-0.6149458289146423
1701909833125468400,17.535468505859374,9.525303840637207,2.2649059295654297,-0.6122946739196777
1701909833142463000,17.552462890625,9.525565147399902,2.264151096343994,-0.6110167503356934
1701909833159455500,17.56945556640625,9.525598526000977,2.264220714569092,-0.6102391481399536
1701909833176448300,17.5864482421875,9.525748252868652,2.264742136001587,-0.6059598326683044
1701909833193441300,17.603441162109377,9.526121139526367,2.2642769813537598,-0.601810097694397
1701909833210434000,17.62043408203125,9.526466369628906,2.2630856037139893,-0.6008352041244507
1701909833227427300,17.63742724609375,9.526427268981934,2.2631497383117676,-0.6012024283409119
1701909833244419800,17.654419921875,9.52558422088623,2.266725778579712,-0.601091742515564
1701909833261413400,17.671413330078124,9.52428150177002,2.2724592685699463,-0.6000807881355286
1701909833278406000,17.688406005859374,9.523622512817383,2.275876760482788,-0.5975860357284546
1701909833295399200,17.705399169921876,9.523919105529785,2.2749576568603516,-0.5963539481163025
1701909833312391400,17.722391357421873,9.524662971496582,2.271695613861084,-0.5969163775444031
1701909833329386200,17.73938623046875,9.525513648986816,2.268644094467163,-0.5949355959892273
1701909833346377500,17.75637744140625,9.52685260772705,2.264866352081299,-0.5878486037254333
1701909833363384000,17.773384033203126,9.528335571289062,2.260054111480713,-0.5823143124580383
1701909833380361000,17.79036083984375,9.529475212097168,2.2552595138549805,-0.5822529196739197
1701909833397356800,17.807356689453126,9.529451370239258,2.2544238567352295,-0.5858615040779114
1701909833414350000,17.82435009765625,9.52774715423584,2.2606635093688965,-0.5895287990570068
1701909833431342800,17.8413427734375,9.525259017944336,2.2705507278442383,-0.5917306542396545
1701909833448332800,17.858332763671875,9.523448944091797,2.2780189514160156,-0.5921560525894165
1701909833465328600,17.87532861328125,9.523422241210938,2.2785093784332275,-0.59071284532547
1701909833482328800,17.892328857421877,9.525115013122559,2.272148370742798,-0.5879079699516296
1701909833499312000,17.90931201171875,9.527432441711426,2.2633144855499268,-0.5844189524650574
1701909833516310300,17.926310302734375,9.52916431427002,2.256740093231201,-0.5816152095794678
1701909833533300700,17.94330078125,9.529642105102539,2.2550079822540283,-0.5804910659790039
1701909833550293800,17.960293701171874,9.528690338134766,2.2584691047668457,-0.5826599597930908
1701909833567281700,17.97728173828125,9.526772499084473,2.265023708343506,-0.5885292291641235
1701909833584269000,17.99426904296875,9.525158882141113,2.2706234455108643,-0.5930757522583008
1701909833601272600,18.0112724609375,9.524596214294434,2.272756576538086,-0.5939273834228516
1701909833618265900,18.028265869140625,9.524481773376465,2.273138999938965,-0.5942988395690918
1701909833635257600,18.045257568359375,9.52432632446289,2.2731130123138428,-0.5968942642211914
1701909833652252200,18.062252197265625,9.524348258972168,2.2721760272979736,-0.6000947952270508
1701909833669244700,18.07924462890625,9.524388313293457,2.272176742553711,-0.5994594097137451
1701909833686237400,18.096237548828125,9.523506164550781,2.276454448699951,-0.5972447395324707
1701909833703231000,18.11323095703125,9.522050857543945,2.28291392326355,-0.5957849025726318
1701909833720223500,18.130223388671876,9.520963668823242,2.2870237827301025,-0.597389280796051
1701909833737216500,18.147216552734374,9.520813941955566,2.286696434020996,-0.6010361909866333
1701909833754199000,18.164198974609373,9.521285057067871,2.2840445041656494,-0.6036370992660522
1701909833771202600,18.18120263671875,9.521693229675293,2.282428026199341,-0.60331130027771
1701909833788195300,18.1981953125,9.521610260009766,2.28312611579895,-0.6019858717918396
1701909833805188600,18.215188720703125,9.52138614654541,2.2844672203063965,-0.6004398465156555
1701909833822180600,18.2321806640625,9.521866798400879,2.28350830078125,-0.5964460372924805
1701909833839175200,18.249175048828125,9.522608757019043,2.281256675720215,-0.5932101607322693
1701909833856164000,18.2661640625,9.523069381713867,2.279231548309326,-0.5936036705970764
1701909833873161200,18.2831611328125,9.523629188537598,2.2767062187194824,-0.5943095088005066
1701909833890153500,18.300153564453126,9.524809837341309,2.27238130569458,-0.591927170753479
1701909833907146200,18.317146240234376,9.526055335998535,2.2678866386413574,-0.5891160368919373
1701909833924139000,18.334138916015625,9.526503562927246,2.2663888931274414,-0.587635338306427
1701909833941132500,18.351132568359375,9.526026725769043,2.2682061195373535,-0.5883568525314331
1701909833958122200,18.368122314453124,9.525934219360352,2.2687630653381348,-0.5877135992050171
1701909833975118300,18.385118408203127,9.526670455932617,2.2662644386291504,-0.5854015946388245
1701909833992111000,18.402111083984376,9.52701473236084,2.264695644378662,-0.5858778953552246
1701909834009104400,18.4191044921875,9.526659965515137,2.2661080360412598,-0.5861760377883911
1701909834026097700,18.43609765625,9.526150703430176,2.2689061164855957,-0.5836343169212341
1701909834043090200,18.453090087890626,9.525955200195312,2.2704005241394043,-0.5810038447380066
1701909834060083000,18.4700830078125,9.525999069213867,2.2697229385375977,-0.5829206705093384
1701909834077076200,18.487076171875,9.526310920715332,2.267261266708374,-0.5873985290527344
1701909834094069200,18.5040693359375,9.526698112487793,2.2650227546691895,-0.5897451639175415
1701909834111062000,18.52106201171875,9.526778221130371,2.2648887634277344,-0.5889625549316406
1701909834128052500,18.538052490234374,9.526476860046387,2.266451120376587,-0.5878386497497559
1701909834145049300,18.55504931640625,9.525869369506836,2.2682793140411377,-0.5906087160110474
1701909834162038800,18.572038818359374,9.525792121887207,2.267956018447876,-0.593106746673584
1701909834179036700,18.58903662109375,9.52649974822998,2.2653746604919434,-0.5916011929512024
1701909834196027000,18.60602685546875,9.527337074279785,2.262678384780884,-0.5884288549423218
1701909834213019000,18.623018798828124,9.527618408203125,2.2616841793060303,-0.5876915454864502
1701909834230013700,18.640013671875,9.527140617370605,2.262993335723877,-0.5903933048248291
1701909834247003100,18.657003173828127,9.5265474319458,2.2649877071380615,-0.5923050045967102
1701909834264001500,18.67400146484375,9.526079177856445,2.266829252243042,-0.5927944183349609
1701909834280992000,18.690991943359375,9.526008605957031,2.267824649810791,-0.5901204943656921
1701909834297984800,18.70798486328125,9.526657104492188,2.2659549713134766,-0.5868215560913086
1701909834314977500,18.7249775390625,9.527957916259766,2.2605948448181152,-0.5863808393478394
1701909834331970000,18.741969970703124,9.529242515563965,2.2542848587036133,-0.5897748470306396
1701909834348964600,18.758964599609374,9.529949188232422,2.250840663909912,-0.5915175080299377
1701909834365954300,18.775954345703123,9.52971076965332,2.252272605895996,-0.5899112224578857
1701909834382952200,18.7929521484375,9.528871536254883,2.2563743591308594,-0.5877895355224609
1701909834399932400,18.809932373046873,9.528337478637695,2.2584309577941895,-0.5885404348373413
1701909834416935400,18.826935302734373,9.52851676940918,2.256410837173462,-0.593372642993927
1701909834433928700,18.8439287109375,9.529067039489746,2.25299334526062,-0.5975020527839661
1701909834450921500,18.86092138671875,9.529278755187988,2.251664400100708,-0.5991224646568298
1701909834467909000,18.8779091796875,9.529012680053711,2.2525322437286377,-0.6000972986221313
1701909834484910000,18.89491015625,9.528983116149902,2.2520971298217773,-0.6022013425827026
1701909834501899500,18.9118994140625,9.529888153076172,2.2476534843444824,-0.604476273059845
1701909834518894800,18.928894775390624,9.530877113342285,2.243027448654175,-0.6060667634010315
1701909834535885800,18.9458857421875,9.530712127685547,2.242928981781006,-0.609028160572052
1701909834552880000,18.962880126953124,9.530229568481445,2.244800329208374,-0.6096805930137634
1701909834569869600,18.97986962890625,9.530221939086914,2.245039463043213,-0.6089117527008057
1701909834586868000,18.996867919921876,9.531023979187012,2.24191951751709,-0.6078540682792664
1701909834603868000,19.013867919921875,9.531942367553711,2.2375993728637695,-0.6093785762786865
1701909834620851500,19.0308515625,9.53223991394043,2.2351105213165283,-0.6138262748718262
1701909834637840100,19.047840087890624,9.531728744506836,2.236004590988159,-0.6184931397438049
1701909834654840800,19.0648408203125,9.530694961547852,2.2398836612701416,-0.6203967928886414
1701909834671830800,19.081830810546876,9.529480934143066,2.2447738647460938,-0.6213522553443909
1701909834688823300,19.0988232421875,9.528671264648438,2.2479872703552246,-0.622151792049408
1701909834705808100,19.11580810546875,9.528701782226562,2.2477972507476807,-0.6223867535591125
1701909834722808600,19.13280859375,9.529702186584473,2.2439799308776855,-0.620832622051239
1701909834739803000,19.149802978515623,9.531405448913574,2.237733840942383,-0.6172145009040833
1701909834756795400,19.16679541015625,9.532922744750977,2.2319142818450928,-0.6148521304130554
1701909834773788000,19.183787841796875,9.533649444580078,2.2287189960479736,-0.6151763200759888
1701909834790781400,19.200781494140625,9.53372859954834,2.2284975051879883,-0.6147608757019043
1701909834807762400,19.217762451171875,9.533597946166992,2.2301559448242188,-0.6107605695724487
1701909834824758000,19.234758056640626,9.532990455627441,2.233461380004883,-0.6081487536430359
1701909834841760000,19.251760009765626,9.531915664672852,2.2376768589019775,-0.6095046401023865
1701909834858749700,19.268749755859375,9.531307220458984,2.2403042316436768,-0.6093584895133972
1701909834875746000,19.28574609375,9.531218528747559,2.2412776947021484,-0.6071740388870239
1701909834892739000,19.302739013671875,9.531586647033691,2.2409558296203613,-0.6025596261024475
1701909834909732000,19.319732177734377,9.532400131225586,2.238588333129883,-0.5984849333763123
1701909834926722300,19.336722412109374,9.533371925354004,2.234773874282837,-0.5972551107406616
1701909834943720400,19.353720458984377,9.534177780151367,2.2310118675231934,-0.5984570384025574
1701909834960693800,19.37069384765625,9.535181045532227,2.2272756099700928,-0.5963890552520752
1701909834977700900,19.387700927734375,9.535927772521973,2.2245519161224365,-0.5946042537689209
1701909834994687200,19.404687255859375,9.53580379486084,2.224442958831787,-0.5970054864883423
1701909835011690000,19.42168994140625,9.535030364990234,2.2268178462982178,-0.6004825234413147
1701909835028683000,19.43868310546875,9.534322738647461,2.2300915718078613,-0.5995711088180542
1701909835045675300,19.45567529296875,9.534000396728516,2.2322723865509033,-0.5965855121612549
1701909835062669800,19.472669921875,9.533835411071777,2.2330644130706787,-0.596260130405426
1701909835079661600,19.48966162109375,9.533613204956055,2.233349084854126,-0.5987223982810974
1701909835096654300,19.506654296875,9.533726692199707,2.2325658798217773,-0.5998470187187195
1701909835113647900,19.52364794921875,9.534653663635254,2.229051351547241,-0.598185658454895
1701909835130641000,19.540640869140624,9.535804748535156,2.2243964672088623,-0.5971542596817017
1701909835147634000,19.557634033203126,9.536401748657227,2.2218732833862305,-0.5970155000686646
1701909835164627000,19.574626953125,9.536109924316406,2.223311424255371,-0.5963293313980103
1701909835181620000,19.591619873046874,9.535757064819336,2.2258987426757812,-0.5922954678535461
1701909835198612500,19.608612548828123,9.535820007324219,2.226787567138672,-0.5879299640655518
1701909835215605500,19.62560546875,9.535669326782227,2.2272636890411377,-0.5885792374610901
1701909835232588800,19.6425888671875,9.534590721130371,2.2307870388031006,-0.5926839113235474
1701909835249592600,19.659592529296877,9.532395362854004,2.2392780780792236,-0.5959717035293579
1701909835266584600,19.67658447265625,9.530702590942383,2.2473409175872803,-0.5926768779754639
1701909835283577600,19.69357763671875,9.530579566955566,2.2490646839141846,-0.5881137251853943
1701909835300567300,19.7105673828125,9.531885147094727,2.2441699504852295,-0.5856362581253052
1701909835317563400,19.7275634765625,9.533355712890625,2.238407850265503,-0.5837538242340088
1701909835334553600,19.7445537109375,9.533760070800781,2.2375450134277344,-0.5804412961006165
1701909835351552000,19.761552001953124,9.532848358154297,2.242704153060913,-0.5754883289337158
1701909835368535000,19.77853515625,9.531271934509277,2.2506465911865234,-0.5705767869949341
1701909835385546000,19.7955458984375,9.529706001281738,2.2580018043518066,-0.5676621198654175
1701909835402528500,19.812528564453125,9.528367042541504,2.2641823291778564,-0.5654996037483215
1701909835419521500,19.829521484375,9.527210235595703,2.269888162612915,-0.56211918592453
1701909835436514300,19.846514404296876,9.526554107666016,2.2734427452087402,-0.558874785900116
1701909835453496800,19.863496826171875,9.526880264282227,2.273641347885132,-0.5524670481681824
1701909835470500600,19.88050048828125,9.528210639953613,2.2702300548553467,-0.5434715151786804
1701909835487482600,19.897482666015627,9.529605865478516,2.2663183212280273,-0.5352749228477478
1701909835504486100,19.914486083984375,9.529787063598633,2.265972375869751,-0.5335096120834351
1701909835521479200,19.931479248046877,9.529065132141113,2.2686612606048584,-0.5349793434143066
1701909835538472400,19.948472412109375,9.528347969055176,2.27191162109375,-0.533963143825531
1701909835555464400,19.96546435546875,9.527802467346191,2.274488687515259,-0.5327315926551819
1701909835572459000,19.982458984375,9.527250289916992,2.2762322425842285,-0.5351406931877136
1701909835589451000,19.999450927734376,9.526998519897461,2.2764580249786377,-0.5386629700660706
1701909835606444300,20.0164443359375,9.527521133422852,2.274448871612549,-0.5378984808921814
1701909835623437600,20.0334375,9.52813720703125,2.2724833488464355,-0.5352827906608582
1701909835640430300,20.050430419921874,9.527754783630371,2.2740559577941895,-0.5354061722755432
1701909835657420500,20.067420654296875,9.526345252990723,2.279531240463257,-0.5372119545936584
1701909835674418700,20.084418701171874,9.524582862854004,2.286414861679077,-0.5392119884490967
1701909835691409400,20.101409423828127,9.523845672607422,2.2895097732543945,-0.5390798449516296
1701909835708402400,20.11840234375,9.52464485168457,2.285609483718872,-0.5415217876434326
1701909835725395000,20.13539501953125,9.526233673095703,2.278048038482666,-0.5454208254814148
1701909835742387200,20.15238720703125,9.527667999267578,2.272127628326416,-0.5450496673583984
1701909835759371500,20.16937158203125,9.52810287475586,2.270914316177368,-0.5424996018409729
1701909835776374300,20.186374267578124,9.527691841125488,2.272775888442993,-0.5419278144836426
1701909835793367000,20.203366943359374,9.526996612548828,2.275092840194702,-0.5444300770759583
1701909835810357000,20.22035693359375,9.526725769042969,2.275827407836914,-0.5460847020149231
1701909835827356000,20.23735595703125,9.526700019836426,2.2761032581329346,-0.5453923344612122
1701909835844345900,20.254345947265627,9.526172637939453,2.2781565189361572,-0.5460299849510193
1701909835861339000,20.2713388671875,9.524796485900879,2.2832212448120117,-0.548866331577301
1701909835878332200,20.288332275390626,9.523296356201172,2.2889223098754883,-0.5511497259140015
1701909835895322000,20.305322021484375,9.522794723510742,2.2909510135650635,-0.5513858199119568
1701909835912320500,20.322320556640626,9.523582458496094,2.2879788875579834,-0.5501270294189453
1701909835929308400,20.339308349609375,9.524452209472656,2.284471035003662,-0.5496435761451721
1701909835946297000,20.356297119140624,9.524564743041992,2.283954620361328,-0.5498520135879517
1701909835963294200,20.373294189453127,9.523669242858887,2.287201404571533,-0.5518487095832825
1701909835980292000,20.3902919921875,9.522024154663086,2.2929933071136475,-0.5561779141426086
1701909835997282600,20.407282470703127,9.520358085632324,2.2990376949310303,-0.5597524642944336
1701909836014278400,20.4242783203125,9.519234657287598,2.303654193878174,-0.5598698258399963
1701909836031266000,20.44126611328125,9.519186019897461,2.3051512241363525,-0.5545117259025574
1701909836048264000,20.458263916015625,9.51992416381836,2.30349063873291,-0.5487126708030701
1701909836065254000,20.47525390625,9.520647048950195,2.3008124828338623,-0.5474063158035278
1701909836082248400,20.49224853515625,9.520459175109863,2.3010754585266113,-0.5495529770851135
1701909836099240400,20.509240478515625,9.519488334655762,2.3050832748413086,-0.5495931506156921
1701909836116233500,20.5262333984375,9.518180847167969,2.3111965656280518,-0.546556293964386
1701909836133225700,20.543225830078125,9.516775131225586,2.3172295093536377,-0.5454789400100708
1701909836150220500,20.560220458984375,9.515904426574707,2.3204734325408936,-0.5468659996986389
1701909836167212500,20.577212646484377,9.516120910644531,2.319361448287964,-0.5478267073631287
1701909836184205800,20.594205810546875,9.517085075378418,2.3156611919403076,-0.5467275381088257
1701909836201196000,20.611196044921876,9.517781257629395,2.313235282897949,-0.5448680520057678
1701909836218194000,20.62819384765625,9.517738342285156,2.313816785812378,-0.543157160282135
1701909836235184400,20.645184326171876,9.516905784606934,2.3173000812530518,-0.5428977608680725
1701909836252176600,20.6621767578125,9.515524864196777,2.322643995285034,-0.5442562699317932
1701909836269171200,20.679171142578124,9.514018058776855,2.328354835510254,-0.5461960434913635
1701909836286161200,20.6961611328125,9.512909889221191,2.332719326019287,-0.5468868017196655
1701909836303156200,20.71315625,9.512672424316406,2.3340418338775635,-0.5453663468360901
1701909836320149500,20.7301494140625,9.51366138458252,2.330684185028076,-0.5424636006355286
1701909836337142500,20.747142578125,9.515680313110352,2.3230059146881104,-0.5399734973907471
1701909836354135300,20.76413525390625,9.51771068572998,2.315229654312134,-0.537591814994812
1701909836371128300,20.78112841796875,9.518548011779785,2.312255859375,-0.5355678200721741
1701909836388114000,20.798114013671874,9.518054008483887,2.3146865367889404,-0.5338481664657593
1701909836405114400,20.8151142578125,9.516755104064941,2.3200275897979736,-0.5338135957717896
1701909836422107400,20.832107421875,9.515777587890625,2.3240091800689697,-0.5339100956916809
1701909836439099600,20.849099609375,9.515604972839355,2.3247106075286865,-0.533939778804779
1701909836456093400,20.866093505859375,9.515771865844727,2.323762893676758,-0.5350964665412903
1701909836473087200,20.883087158203125,9.515691757202148,2.3238954544067383,-0.5359368324279785
1701909836490079200,20.900079345703126,9.514942169189453,2.3271448612213135,-0.5351431965827942
1701909836507072300,20.917072265625,9.513679504394531,2.332171678543091,-0.5357130169868469
1701909836524065000,20.93406494140625,9.512639999389648,2.335690975189209,-0.5388231873512268
1701909836541058300,20.951058349609376,9.512249946594238,2.3368494510650635,-0.5406867861747742
1701909836558051300,20.96805126953125,9.511761665344238,2.338948965072632,-0.5402073860168457
1701909836575043300,20.985043212890623,9.511040687561035,2.3424549102783203,-0.5376974940299988
1701909836592038400,21.002038330078125,9.510611534118652,2.3445959091186523,-0.5359579920768738
1701909836609030000,21.01902978515625,9.511259078979492,2.3418874740600586,-0.5363059043884277
1701909836626023000,21.03602294921875,9.512422561645508,2.336923360824585,-0.5373167395591736
1701909836643015200,21.05301513671875,9.512614250183105,2.336007595062256,-0.5379153490066528
1701909836660007400,21.07000732421875,9.511408805847168,2.341127634048462,-0.5369635820388794
1701909836677004800,21.0870048828125,9.509637832641602,2.3483078479766846,-0.5369831919670105
1701909836693995000,21.1039951171875,9.508437156677246,2.352783203125,-0.5386573672294617
1701909836710988300,21.12098828125,9.508008003234863,2.353982448577881,-0.5409685373306274
1701909836727981000,21.13798095703125,9.507712364196777,2.3549766540527344,-0.5418485403060913
1701909836744974000,21.15497412109375,9.507279396057129,2.356884002685547,-0.5411589741706848
1701909836761967000,21.171967041015623,9.507035255432129,2.3582663536071777,-0.5393974184989929
1701909836778954000,21.1889541015625,9.50729751586914,2.357712984085083,-0.5372145175933838
1701909836795955700,21.205955810546875,9.507805824279785,2.3561041355133057,-0.5352659821510315
1701909836812939300,21.222939208984375,9.508091926574707,2.355266571044922,-0.5338668823242188
1701909836829939000,21.23993896484375,9.508092880249023,2.3556783199310303,-0.5320387482643127
1701909836846931700,21.256931640625,9.507771492004395,2.357165813446045,-0.5311903357505798
1701909836863924700,21.2739248046875,9.507165908813477,2.3592944145202637,-0.5325796008110046
1701909836880907500,21.290907470703125,9.50637149810791,2.361886739730835,-0.535256564617157
1701909836897910500,21.30791064453125,9.50565242767334,2.364656686782837,-0.5357896685600281
1701909836914901200,21.3249013671875,9.505308151245117,2.3668975830078125,-0.5320050716400146
1701909836931896300,21.341896240234377,9.505699157714844,2.3665313720703125,-0.5266059637069702
1701909836948890600,21.358890625,9.506587982177734,2.363769292831421,-0.5229593515396118
1701909836965882400,21.37588232421875,9.507102966308594,2.3616535663604736,-0.523157000541687
1701909836982876700,21.392876708984375,9.50705337524414,2.3618059158325195,-0.5233624577522278
1701909836999869000,21.409868896484376,9.506843566894531,2.363234758377075,-0.5207346081733704
1701909837016861700,21.42686181640625,9.506706237792969,2.3642234802246094,-0.5187303423881531
1701909837033854700,21.443854736328124,9.5061616897583,2.365658760070801,-0.5221608877182007
1701909837050847500,21.460847412109374,9.505101203918457,2.369098663330078,-0.525858461856842
1701909837067840800,21.4778408203125,9.503764152526855,2.374427556991577,-0.5259954929351807
1701909837084831200,21.494831298828124,9.502964973449707,2.3783318996429443,-0.5227916240692139
1701909837101830000,21.511829833984375,9.503181457519531,2.3780174255371094,-0.5202608108520508
1701909837118819300,21.5288193359375,9.504003524780273,2.3744235038757324,-0.5216672420501709
1701909837135812600,21.5458125,9.504916191101074,2.370417356491089,-0.5232565999031067
1701909837152804900,21.562804931640624,9.505779266357422,2.3675670623779297,-0.5204851031303406
1701909837169799700,21.579799560546874,9.50633430480957,2.366098165512085,-0.5169986486434937
1701909837186791700,21.596791748046876,9.506329536437988,2.366110324859619,-0.5170368552207947
1701909837203785000,21.613784912109374,9.505667686462402,2.3681771755218506,-0.519737958908081
1701909837220778000,21.630778076171875,9.504256248474121,2.3735671043395996,-0.5209535360336304
1701909837237770500,21.6477705078125,9.502677917480469,2.3805205821990967,-0.5180197954177856
1701909837254763500,21.664763427734375,9.501673698425293,2.3854551315307617,-0.5137207508087158
1701909837271756500,21.681756591796876,9.501312255859375,2.3870363235473633,-0.5130683183670044
1701909837288746200,21.698746337890626,9.50128173828125,2.386702060699463,-0.5151699781417847
1701909837305742300,21.715742431640624,9.500920295715332,2.387716054916382,-0.5171380639076233
1701909837322735600,21.732735595703126,9.500288963317871,2.390303611755371,-0.5167828798294067
1701909837339728600,21.749728759765624,9.499934196472168,2.3922173976898193,-0.5144532322883606
1701909837356723200,21.76672314453125,9.50039005279541,2.390933036804199,-0.5119852423667908
1701909837373713000,21.783712890625,9.501216888427734,2.3874034881591797,-0.5131189823150635
1701909837390707500,21.80070751953125,9.501731872558594,2.3847289085388184,-0.5160167813301086
1701909837407700700,21.81770068359375,9.501367568969727,2.385895013809204,-0.5173224210739136
1701909837424693500,21.834693603515625,9.500642776489258,2.3889405727386475,-0.5165827870368958
1701909837441675800,21.85167578125,9.500600814819336,2.3892085552215576,-0.5161072015762329
