time,seconds_elapsed,z,y,x
1700939041851912200,0.140912109375,8.702054023742676,4.423915863037109,0.9691891670227051
1700939041868908000,0.157907958984375,8.695493698120117,4.435420513153076,0.9754724502563477
1700939041885895200,0.174895263671875,8.68642520904541,4.448907375335693,0.9946647882461548
1700939041902892000,0.19189208984375,8.673347473144531,4.467868804931641,1.0233737230300903
1700939041919888100,0.20888818359375,8.65420913696289,4.495116710662842,1.0652254819869995
1700939041936881000,0.225880859375,8.626659393310547,4.533535003662109,1.1242446899414062
1700939041953872600,0.24287255859375,8.58236026763916,4.593272686004639,1.216986060142517
1700939041970868200,0.2598681640625,8.508801460266113,4.69411563873291,1.342268943786621
1700939041987860700,0.27686083984375,8.3875150680542,4.856222629547119,1.5174996852874756
1700939042004855800,0.293855712890625,8.206709861755371,5.0798659324646,1.7552720308303833
1700939042021845000,0.310844970703125,7.992090702056885,5.3031816482543945,2.0588505268096924
1700939042038840600,0.327840576171875,7.774211406707764,5.4725422859191895,2.418478012084961
1700939042055835100,0.344835205078125,7.572511672973633,5.575132846832275,2.794829845428467
1700939042072817400,0.3618173828125,7.366215229034424,5.648553371429443,3.173142671585083
1700939042089812500,0.3788125,7.072173595428467,5.761038303375244,3.609834671020508
1700939042106812000,0.39581201171875,6.640429496765137,5.909307479858398,4.149806022644043
1700939042123805000,0.412804931640625,6.105579853057861,6.007528305053711,4.782008171081543
1700939042140804000,0.42980419921875,5.572319507598877,5.972944259643555,5.432246208190918
1700939042157793000,0.44679296875,5.113166332244873,5.794030666351318,6.043247699737549
1700939042174788000,0.4637880859375,4.679753303527832,5.536262512207031,6.609523773193359
1700939042191777300,0.48077734375,4.152153491973877,5.267413139343262,7.15891695022583
1700939042208772900,0.49777294921875,3.484255313873291,4.999943733215332,7.687434196472168
1700939042225757400,0.51475732421875,2.7904112339019775,4.675589084625244,8.16018295288086
1700939042242756900,0.5317568359375,2.208432674407959,4.262285232543945,8.555225372314453
1700939042259766000,0.54876611328125,1.7656054496765137,3.774712324142456,8.880895614624023
1700939042276745000,0.565744873046875,1.3985430002212524,3.24603009223938,9.151145935058594
1700939042293738200,0.58273828125,1.0407874584197998,2.698779821395874,9.373870849609375
1700939042310733000,0.599733154296875,0.7308627963066101,2.1312973499298096,9.547750473022461
1700939042327716000,0.616716064453125,0.5107788443565369,1.5512627363204956,9.673097610473633
1700939042344702200,0.6337021484375,0.3617374300956726,0.9490490555763245,9.757283210754395
1700939042361711400,0.65071142578125,0.24147364497184753,0.3281770348548889,9.801535606384277
1700939042378704600,0.66770458984375,0.12242959439754486,-0.2894980013370514,9.804964065551758
1700939042395707100,0.68470703125,0.004064984619617462,-0.9020798206329346,9.768437385559082
1700939042412689400,0.701689453125,-0.09575049579143524,-1.5244861841201782,9.690350532531738
1700939042429676500,0.718676513671875,-0.19218219816684723,-2.1697330474853516,9.565115928649902
1700939042446669600,0.735669677734375,-0.28710123896598816,-2.8269457817077637,9.389466285705566
1700939042463669500,0.75266943359375,-0.3504523038864136,-3.4682695865631104,9.169754981994629
1700939042480665900,0.769665771484375,-0.35893896222114563,-4.0761284828186035,8.915855407714844
1700939042497657000,0.786656982421875,-0.3033032715320587,-4.641193866729736,8.637328147888184
1700939042514654500,0.803654541015625,-0.2048051655292511,-5.153205871582031,8.344978332519531
1700939042531640600,0.820640625,-0.08135055750608444,-5.600882530212402,8.053545951843262
1700939042548639000,0.837638916015625,0.05784709006547928,-5.9860711097717285,7.771725177764893
1700939042565634000,0.854634033203125,0.21109677851200104,-6.3074564933776855,7.510496139526367
1700939042582622200,0.871622314453125,0.3712344765663147,-6.575057029724121,7.270963668823242
1700939042599618000,0.8886181640625,0.5292297601699829,-6.800182342529297,7.050785064697266
1700939042616612600,0.905612548828125,0.6843955516815186,-6.999302387237549,6.839408874511719
1700939042633602000,0.92260205078125,0.8376885056495667,-7.182583808898926,6.629092216491699
1700939042650598700,0.9395986328125,0.9846746921539307,-7.355654716491699,6.415675163269043
1700939042667591700,0.956591796875,1.1306854486465454,-7.517024993896484,6.200968265533447
1700939042684585700,0.973585693359375,1.273468017578125,-7.661241054534912,5.993311882019043
1700939042701574700,0.99057470703125,1.413081407546997,-7.785528182983398,5.798696994781494
1700939042718570500,1.007570556640625,1.5492031574249268,-7.885035037994385,5.626926898956299
1700939042735562000,1.02456201171875,1.6737453937530518,-7.954927444458008,5.4912495613098145
1700939042752558000,1.04155810546875,1.781977891921997,-7.995405197143555,5.397608280181885
1700939042769550600,1.058550537109375,1.871106505393982,-8.011794090270996,5.342865467071533
1700939042786545200,1.075545166015625,1.9429187774658203,-8.011364936828613,5.317819118499756
1700939042803534600,1.09253466796875,1.9967210292816162,-7.998049736022949,5.317934036254883
1700939042820531000,1.109531005859375,2.0383427143096924,-7.9695563316345215,5.34485387802124
1700939042837523500,1.1265234375,2.071598768234253,-7.921387195587158,5.403353214263916
1700939042854518300,1.143518310546875,2.0938873291015625,-7.85034704208374,5.49761962890625
1700939042871505400,1.16050537109375,2.1011312007904053,-7.755249500274658,5.6282758712768555
1700939042888505000,1.177505126953125,2.090169668197632,-7.638627052307129,5.789529800415039
1700939042905507800,1.1945078125,2.066765785217285,-7.50663948059082,5.967827796936035
1700939042922485500,1.211485595703125,2.041642665863037,-7.366407871246338,6.148482799530029
1700939042939484700,1.228484619140625,2.01991868019104,-7.219351291656494,6.327479839324951
1700939042956465200,1.245465087890625,2.002157211303711,-7.061596870422363,6.508560657501221
1700939042973469000,1.262468994140625,1.9818934202194214,-6.889586925506592,6.696403503417969
1700939042990464500,1.279464599609375,1.9524710178375244,-6.710506439208984,6.884263515472412
1700939043007456000,1.2964560546875,1.9117753505706787,-6.533963203430176,7.063182830810547
1700939043024451000,1.313451171875,1.8624019622802734,-6.365678787231445,7.228119373321533
1700939043041440300,1.330440185546875,1.809098482131958,-6.208715438842773,7.376661777496338
1700939043058435600,1.347435546875,1.7583361864089966,-6.063326835632324,7.508689880371094
1700939043075430700,1.3644306640625,1.7105720043182373,-5.925576686859131,7.628734588623047
1700939043092419800,1.381419921875,1.659516453742981,-5.795290946960449,7.739297866821289
1700939043109415400,1.39841552734375,1.6015021800994873,-5.673875331878662,7.840819835662842
1700939043126410500,1.415410400390625,1.5416967868804932,-5.567112445831299,7.9288434982299805
1700939043143396600,1.432396728515625,1.4881690740585327,-5.480727195739746,7.998945236206055
1700939043160393500,1.4493935546875,1.4439810514450073,-5.417372226715088,8.050037384033203
1700939043177391000,1.46639111328125,1.4107022285461426,-5.374602317810059,8.084534645080566
1700939043194383600,1.483383544921875,1.3809937238693237,-5.343069553375244,8.110523223876953
1700939043211372500,1.50037255859375,1.3438966274261475,-5.313889503479004,8.135886192321777
1700939043228358000,1.51735791015625,1.2912003993988037,-5.284670829772949,8.163403511047363
1700939043245363200,1.53436328125,1.2304530143737793,-5.258035182952881,8.189942359924316
1700939043262352400,1.551352294921875,1.1794570684432983,-5.25199031829834,8.201316833496094
1700939043279337700,1.568337646484375,1.145340919494629,-5.271759986877441,8.193465232849121
1700939043296343000,1.585343017578125,1.127305269241333,-5.3104658126831055,8.170940399169922
1700939043313329400,1.602329345703125,1.120225429534912,-5.364566802978516,8.13650131225586
1700939043330331400,1.619331298828125,1.119685173034668,-5.433255195617676,8.090869903564453
1700939043347309300,1.636309326171875,1.1290143728256226,-5.5168304443359375,8.032809257507324
1700939043364317200,1.653317138671875,1.1516401767730713,-5.614755153656006,7.961430072784424
1700939043381305300,1.670305419921875,1.1784204244613647,-5.722194194793701,7.880605220794678
1700939043398300200,1.687300048828125,1.2029495239257812,-5.838755130767822,7.790890693664551
1700939043415294000,1.7042939453125,1.2274277210235596,-5.961323261260986,7.6936445236206055
1700939043432297200,1.721297119140625,1.247504711151123,-6.086781978607178,7.591504096984863
1700939043449277400,1.73827734375,1.2608410120010376,-6.212998390197754,7.486323833465576
1700939043466279200,1.755279052734375,1.2673208713531494,-6.337747097015381,7.379903316497803
1700939043483267600,1.772267578125,1.2698650360107422,-6.4561052322387695,7.276144504547119
1700939043500264000,1.789263916015625,1.272840142250061,-6.566384792327881,7.176251411437988
1700939043517264600,1.8062646484375,1.2762484550476074,-6.670052528381348,7.079385757446289
1700939043534247000,1.823246826171875,1.2775102853775024,-6.76390266418457,6.989543437957764
1700939043551239700,1.84023974609375,1.280869483947754,-6.845353603363037,6.909169673919678
1700939043568233700,1.857233642578125,1.2862823009490967,-6.912386417388916,6.841091156005859
1700939043585228500,1.874228515625,1.2910816669464111,-6.963376522064209,6.788270950317383
1700939043602211000,1.891211181640625,1.2939151525497437,-6.997551441192627,6.7524943351745605
1700939043619214800,1.90821484375,1.2913477420806885,-7.015310764312744,6.734533309936523
1700939043636206600,1.92520654296875,1.2805776596069336,-7.020312309265137,6.731378555297852
1700939043653197600,1.942197509765625,1.264568567276001,-7.018447399139404,6.736347198486328
1700939043670194200,1.959194091796875,1.2502645254135132,-7.0136823654174805,6.743977069854736
1700939043687186400,1.9761865234375,1.2394601106643677,-7.004122257232666,6.755895614624023
1700939043704181500,1.993181396484375,1.2311488389968872,-6.987473487854004,6.774628639221191
1700939043721170200,2.010170166015625,1.221479892730713,-6.963780879974365,6.800724983215332
1700939043738168300,2.027168212890625,1.2082394361495972,-6.934629440307617,6.832803726196289
1700939043755161300,2.044161376953125,1.1895289421081543,-6.899852275848389,6.871184349060059
1700939043772150300,2.061150390625,1.16828191280365,-6.8585124015808105,6.916071891784668
1700939043789139200,2.07813916015625,1.1520588397979736,-6.8103718757629395,6.966183185577393
1700939043806141200,2.09514111328125,1.1470565795898438,-6.754689693450928,7.021008014678955
1700939043823130000,2.112130126953125,1.1529324054718018,-6.693552017211914,7.078362464904785
1700939043840121300,2.129121337890625,1.1668668985366821,-6.62869930267334,7.136867523193359
1700939043857117200,2.1461171875,1.18479323387146,-6.559499740600586,7.197593688964844
1700939043874115800,2.16311572265625,1.2026969194412231,-6.484316825866699,7.262456893920898
1700939043891103200,2.180103271484375,1.2144304513931274,-6.404510974884033,7.330996513366699
1700939043908098800,2.197098876953125,1.2193374633789062,-6.32299280166626,7.400614261627197
1700939043925094000,2.214093994140625,1.218993067741394,-6.241705894470215,7.469356536865234
1700939043942082800,2.231082763671875,1.220458984375,-6.163773059844971,7.5335588455200195
1700939043959079000,2.248078857421875,1.2292596101760864,-6.092086315155029,7.590224742889404
1700939043976073500,2.265073486328125,1.2452107667922974,-6.025566101074219,7.640559196472168
1700939043993063200,2.282063232421875,1.2671279907226562,-5.963213920593262,7.685739994049072
1700939044010060000,2.29906005859375,1.2910810708999634,-5.907500743865967,7.724678993225098
1700939044027041000,2.316041015625,1.3105703592300415,-5.861580848693848,7.756313323974609
1700939044044052000,2.333052001953125,1.3264415264129639,-5.826439380645752,7.780056476593018
1700939044061037800,2.350037841796875,1.3401930332183838,-5.802393913269043,7.795653820037842
1700939044078023000,2.36702294921875,1.353590726852417,-5.786223411560059,7.805352210998535
1700939044095028200,2.3840283203125,1.3672720193862915,-5.777300834655762,7.809575080871582
1700939044112016000,2.401015869140625,1.3807674646377563,-5.775775909423828,7.808330059051514
1700939044129011200,2.41801123046875,1.3919554948806763,-5.781857013702393,7.801840305328369
1700939044146006800,2.4350068359375,1.3953509330749512,-5.798165798187256,7.789119720458984
1700939044162995700,2.45199560546875,1.3911006450653076,-5.827572345733643,7.767905235290527
1700939044179990000,2.468989990234375,1.3806487321853638,-5.871807098388672,7.736393928527832
1700939044196982000,2.48598193359375,1.3662054538726807,-5.9294352531433105,7.6948933601379395
1700939044213977900,2.502977783203125,1.3513675928115845,-5.996124744415283,7.64567756652832
1700939044230967600,2.519967529296875,1.3379640579223633,-6.067282676696777,7.591708183288574
1700939044247965400,2.53696533203125,1.3252732753753662,-6.140745639801025,7.53465461730957
1700939044264974600,2.553974609375,1.3141108751296997,-6.213927745819092,7.47638463973999
1700939044281947000,2.57094677734375,1.3048237562179565,-6.284983158111572,7.418392181396484
1700939044298947000,2.587947021484375,1.2974159717559814,-6.353532314300537,7.361076831817627
1700939044315939000,2.60493896484375,1.2917388677597046,-6.420084476470947,7.304110527038574
1700939044332925700,2.62192578125,1.2879440784454346,-6.485022068023682,7.247194766998291
1700939044349927000,2.638927001953125,1.285589337348938,-6.54586124420166,7.192712306976318
1700939044366917400,2.65591748046875,1.2838456630706787,-6.598528861999512,7.144736289978027
1700939044383908000,2.672908203125,1.2798765897750854,-6.639504909515381,7.107392311096191
1700939044400894000,2.68989404296875,1.2689504623413086,-6.670605182647705,7.08017635345459
1700939044417897000,2.70689697265625,1.2538138628005981,-6.695562839508057,7.0592851638793945
1700939044434891500,2.7238916015625,1.239223837852478,-6.718092441558838,7.040431499481201
1700939044451883800,2.7408837890625,1.2287322282791138,-6.737978935241699,7.023244857788086
1700939044468879000,2.757879150390625,1.2214845418930054,-6.753096580505371,7.009976863861084
1700939044485871400,2.774871337890625,1.2142632007598877,-6.7581634521484375,7.00634765625
1700939044502860800,2.79186083984375,1.202056646347046,-6.751565456390381,7.014809608459473
1700939044519857400,2.808857421875,1.1845546960830688,-6.727039813995361,7.041297435760498
1700939044536849700,2.825849609375,1.163682460784912,-6.682870388031006,7.086690425872803
1700939044553841400,2.84284130859375,1.1432359218597412,-6.630412578582764,7.139101505279541
1700939044570837000,2.8598369140625,1.126107096672058,-6.580328941345215,7.187994003295898
1700939044587814700,2.876814697265625,1.1136817932128906,-6.533353805541992,7.2326436042785645
1700939044604825600,2.89382568359375,1.1067599058151245,-6.486105918884277,7.276099681854248
1700939044621812500,2.9108125,1.101860523223877,-6.436534404754639,7.320727825164795
1700939044638809000,2.92780908203125,1.0950613021850586,-6.386333465576172,7.365576267242432
1700939044655803000,2.944802978515625,1.0852198600769043,-6.336877346038818,7.409614562988281
1700939044672794600,2.961794677734375,1.0747053623199463,-6.28590726852417,7.454428672790527
1700939044689793000,2.97879296875,1.0668509006500244,-6.23376989364624,7.499204158782959
1700939044706780400,2.995780517578125,1.0644675493240356,-6.183038234710693,7.541423320770264
1700939044723782100,3.0127822265625,1.0676045417785645,-6.134886741638184,7.580204486846924
1700939044740769800,3.029769775390625,1.0757123231887817,-6.089846134185791,7.615295886993408
1700939044757762000,3.046761962890625,1.08542799949646,-6.04926872253418,7.646195888519287
1700939044774757400,3.06375732421875,1.0935866832733154,-6.015578746795654,7.671571731567383
1700939044791745500,3.08074560546875,1.0979557037353516,-5.989126682281494,7.691617012023926
1700939044808743000,3.097742919921875,1.0974177122116089,-5.9698004722595215,7.706703186035156
1700939044825725700,3.1147255859375,1.0939111709594727,-5.955133438110352,7.718541145324707
1700939044842729000,3.13172900390625,1.0864601135253906,-5.943127632141113,7.72883939743042
1700939044859723800,3.148723876953125,1.0776792764663696,-5.932422637939453,7.738286018371582
1700939044876716000,3.165716064453125,1.06912362575531,-5.922924041748047,7.746744632720947
1700939044893709300,3.182709228515625,1.0673221349716187,-5.917090892791748,7.751449108123779
1700939044910702300,3.199702392578125,1.0712263584136963,-5.917518138885498,7.750584125518799
1700939044927685400,3.216685302734375,1.0769612789154053,-5.921821117401123,7.746504306793213
1700939044944689000,3.23368896484375,1.083513617515564,-5.92732048034668,7.74138069152832
1700939044961682400,3.250682373046875,1.0886001586914062,-5.933987617492676,7.735558986663818
1700939044978675700,3.26767578125,1.091647744178772,-5.9422221183776855,7.728804588317871
1700939044995656400,3.284656494140625,1.096853494644165,-5.954847812652588,7.718343257904053
1700939045012661200,3.3016611328125,1.107146978378296,-5.973049640655518,7.702792644500732
1700939045029657900,3.318657958984375,1.1199371814727783,-5.99661111831665,7.682611465454102
1700939045046648600,3.335648681640625,1.1286728382110596,-6.02452278137207,7.659460544586182
1700939045063641600,3.3526416015625,1.1303919553756714,-6.055461406707764,7.634768962860107
1700939045080635000,3.369634765625,1.1226794719696045,-6.088466167449951,7.609617710113525
1700939045097624000,3.3866240234375,1.106687307357788,-6.123076915740967,7.584146976470947
1700939045114613200,3.40361328125,1.0854847431182861,-6.160646915435791,7.556737899780273
1700939045131616000,3.420615966796875,1.0653966665267944,-6.196219444274902,7.530465602874756
1700939045148608500,3.4376083984375,1.0517246723175049,-6.221421241760254,7.511585712432861
1700939045165601800,3.454601806640625,1.0413131713867188,-6.239523887634277,7.49800968170166
1700939045182594800,3.4715947265625,1.0329878330230713,-6.254594802856445,7.486594200134277
1700939045199588400,3.48858837890625,1.0235960483551025,-6.2694783210754395,7.475427150726318
1700939045216581400,3.505581298828125,1.01228928565979,-6.28536319732666,7.463618278503418
1700939045233574700,3.52257470703125,1.0005346536636353,-6.301558971405029,7.451537132263184
1700939045250568000,3.53956787109375,0.9904499650001526,-6.318282604217529,7.438710689544678
1700939045267561200,3.556561279296875,0.9799419045448303,-6.336400032043457,7.424680233001709
1700939045284554200,3.57355419921875,0.9695268869400024,-6.3548994064331055,7.410223484039307
1700939045301553700,3.5905537109375,0.9592301845550537,-6.370773792266846,7.39792013168335
1700939045318542600,3.60754248046875,0.9466689229011536,-6.383189678192139,7.388832092285156
1700939045335534300,3.624534423828125,0.9291717410087585,-6.393426418304443,7.382198810577393
1700939045352527600,3.641527587890625,0.9098343849182129,-6.401695251464844,7.377439975738525
1700939045369510400,3.658510498046875,0.8951695561408997,-6.41026496887207,7.371789932250977
1700939045386514200,3.67551416015625,0.8908008337020874,-6.420531272888184,7.363380432128906
1700939045403507700,3.6925078125,0.8951631188392639,-6.432196140289307,7.352661609649658
1700939045420490200,3.709490234375,0.9032080173492432,-6.444798469543457,7.340633869171143
1700939045437494000,3.726493896484375,0.9081939458847046,-6.458180904388428,7.328245639801025
1700939045454487000,3.743487060546875,0.906531572341919,-6.471455097198486,7.316732883453369
1700939045471480600,3.76048046875,0.9005241394042969,-6.4825568199157715,7.307642936706543
1700939045488471300,3.77747119140625,0.8938925266265869,-6.489987373352051,7.301858901977539
1700939045505469400,3.794469482421875,0.8921030163764954,-6.491682529449463,7.300569534301758
1700939045522460400,3.81146044921875,0.8983832001686096,-6.488879203796387,7.302291393280029
1700939045539453400,3.828453369140625,0.9081735014915466,-6.484315872192383,7.305133819580078
1700939045556436500,3.8454365234375,0.9171314239501953,-6.479918956756592,7.307916641235352
1700939045573440300,3.862440185546875,0.9184136986732483,-6.475620269775391,7.311565399169922
1700939045590433500,3.87943359375,0.9065731167793274,-6.471465110778809,7.316719055175781
1700939045607426800,3.8964267578125,0.8861979246139526,-6.4675068855285645,7.322713851928711
1700939045624420000,3.913420166015625,0.8667061924934387,-6.4632720947265625,7.328782081604004
1700939045641413000,3.9304130859375,0.8529123067855835,-6.458187580108643,7.334880352020264
1700939045658406700,3.94740673828125,0.8443356156349182,-6.452195644378662,7.341144561767578
1700939045675399700,3.964399658203125,0.8354937434196472,-6.446147918701172,7.347464561462402
1700939045692382500,3.981382568359375,0.822403609752655,-6.439371585845947,7.354881763458252
1700939045709388500,3.998388427734375,0.8037503957748413,-6.431705474853516,7.363646507263184
1700939045726377500,4.01537744140625,0.7793587446212769,-6.421327590942383,7.375315189361572
1700939045743354400,4.032354248046875,0.7533380389213562,-6.408048629760742,7.389554977416992
1700939045760364000,4.049364013671875,0.7305666208267212,-6.395615577697754,7.402599334716797
1700939045777361700,4.066361572265625,0.7131363749504089,-6.384973049163818,7.413479328155518
1700939045794352600,4.0833525390625,0.6980081796646118,-6.374220371246338,7.424165725708008
1700939045811346000,4.100345947265625,0.6793000102043152,-6.363249778747559,7.435302257537842
1700939045828328700,4.11732861328125,0.655444860458374,-6.35311222076416,7.446104526519775
1700939045845332500,4.13433251953125,0.6289399862289429,-6.343937873840332,7.456206798553467
1700939045862325800,4.15132568359375,0.6018606424331665,-6.335271835327148,7.4658026695251465
1700939045879319000,4.168319091796875,0.5769491791725159,-6.325442314147949,7.47609806060791
1700939045896312600,4.1853125,0.5562418699264526,-6.315887451171875,7.485739231109619
1700939045913305900,4.202305908203125,0.537620484828949,-6.308465480804443,7.49335241317749
1700939045930296800,4.219296875,0.5196830034255981,-6.3015923500061035,7.5003981590271
1700939045947306000,4.236305908203125,0.501022219657898,-6.2924017906188965,7.509378433227539
1700939045964291800,4.253291748046875,0.47850602865219116,-6.279932022094727,7.52127742767334
1700939045981279000,4.270279052734375,0.4527335464954376,-6.263095855712891,7.536895751953125
1700939045998272000,4.28727197265625,0.4269493818283081,-6.2433695793151855,7.554744243621826
1700939046015265300,4.304265380859375,0.40561816096305847,-6.225731372833252,7.570460796356201
1700939046032243500,4.321243408203125,0.39098024368286133,-6.2112908363342285,7.583080291748047
1700939046049251800,4.338251953125,0.38009798526763916,-6.199213027954102,7.593509197235107
1700939046066245000,4.3552451171875,0.3696334958076477,-6.189097881317139,7.602271556854248
1700939046083227000,4.372226806640625,0.35884860157966614,-6.180194854736328,7.6100287437438965
1700939046100234200,4.389234130859375,0.34541961550712585,-6.171474456787109,7.617722511291504
1700939046117222400,4.406222412109375,0.3285425007343292,-6.161736011505127,7.626347064971924
1700939046134218500,4.423218505859375,0.3105175793170929,-6.153174877166748,7.634011745452881
1700939046151214300,4.44021435546875,0.2956527769565582,-6.147439479827881,7.639220237731934
1700939046168204800,4.457204833984375,0.28809261322021484,-6.1433610916137695,7.642788887023926
1700939046185198000,4.474197998046875,0.2839893400669098,-6.138879299163818,7.646542072296143
1700939046202188800,4.491188720703125,0.27567341923713684,-6.133330821990967,7.651298522949219
1700939046219187200,4.508187255859375,0.25948366522789,-6.128692150115967,7.655580043792725
1700939046236167200,4.525167236328125,0.23979227244853973,-6.126320838928223,7.6581196784973145
1700939046253171200,4.542171142578125,0.22287365794181824,-6.125361442565918,7.659399509429932
1700939046270164500,4.55916455078125,0.2096332162618637,-6.122817516326904,7.661805629730225
1700939046287158000,4.576157958984375,0.19732920825481415,-6.1169233322143555,7.666839599609375
1700939046304151300,4.5931513671875,0.18684281408786774,-6.108833312988281,7.673549175262451
1700939046321141800,4.610141845703125,0.17809830605983734,-6.0985612869262695,7.681923866271973
1700939046338140200,4.62714013671875,0.16943944990634918,-6.086964130401611,7.691311836242676
1700939046355127600,4.64412744140625,0.16149689257144928,-6.075442314147949,7.700588226318359
1700939046372127700,4.661127685546875,0.1541697382926941,-6.065235137939453,7.7087788581848145
1700939046389117200,4.6781171875,0.14614267647266388,-6.054445266723633,7.717411518096924
1700939046406110500,4.6951103515625,0.1379937082529068,-6.0425496101379395,7.726879119873047
1700939046423094000,4.712093994140625,0.13086888194084167,-6.030251979827881,7.736605167388916
1700939046440097300,4.72909716796875,0.12748099863529205,-6.017314434051514,7.746728897094727
1700939046457090300,4.74609033203125,0.13034993410110474,-6.003902435302734,7.757079601287842
1700939046474070800,4.76307080078125,0.13701283931732178,-5.992946147918701,7.765432357788086
1700939046491077000,4.7800771484375,0.14392980933189392,-5.9874773025512695,7.769526958465576
1700939046508070100,4.797070068359375,0.14939022064208984,-5.986480712890625,7.770190238952637
1700939046525063700,4.814063720703125,0.15423288941383362,-5.987191677093506,7.7695465087890625
1700939046542057200,4.83105712890625,0.15896329283714294,-5.98779821395874,7.768986225128174
1700939046559050200,4.84805029296875,0.16508795320987701,-5.987941265106201,7.768747329711914
1700939046576043500,4.86504345703125,0.17127810418605804,-5.98921537399292,7.767630577087402
1700939046593033500,4.882033447265625,0.17739692330360413,-5.994566440582275,7.763363361358643
1700939046610024400,4.8990244140625,0.18384875357151031,-6.003872871398926,7.756017208099365
1700939046627026200,4.916026123046875,0.18659226596355438,-6.014319896697998,7.747855186462402
1700939046644016600,4.9330166015625,0.18633820116519928,-6.021555423736572,7.742238521575928
1700939046661010000,4.950010009765625,0.1863279640674591,-6.02352237701416,7.740708351135254
1700939046678003000,4.9670029296875,0.18717552721500397,-6.02084493637085,7.742772102355957
1700939046694996500,4.98399658203125,0.18653495609760284,-6.0163655281066895,7.746268272399902
1700939046711989500,5.000989501953125,0.18523453176021576,-6.010575294494629,7.750792980194092
1700939046728982800,5.017982666015625,0.18434984982013702,-6.00323486328125,7.756502151489258
1700939046745976300,5.034976318359375,0.1869308203458786,-5.993986129760742,7.763587474822998
1700939046762969600,5.051969482421875,0.19209741055965424,-5.984147548675537,7.771047592163086
1700939046779962000,5.068962158203125,0.19598610699176788,-5.975747585296631,7.777412414550781
1700939046796957200,5.085957275390625,0.19721080362796783,-5.971205711364746,7.7808709144592285
1700939046813949400,5.102949462890625,0.19809606671333313,-5.972273826599121,7.780028343200684
1700939046830951400,5.119951416015625,0.20216339826583862,-5.9810662269592285,7.773165225982666
1700939046847935700,5.136935791015625,0.20948615670204163,-5.998593807220459,7.759453296661377
1700939046864929300,5.15392919921875,0.21727874875068665,-6.022768497467041,7.7404890060424805
1700939046881922600,5.170922607421875,0.22232723236083984,-6.051628589630127,7.717803001403809
1700939046898915800,5.187915771484375,0.22647085785865784,-6.083279609680176,7.692758560180664
1700939046915909400,5.204909423828125,0.23422981798648834,-6.116750240325928,7.665937900543213
1700939046932902100,5.221902099609375,0.24968752264976501,-6.151302814483643,7.63775110244751
1700939046949895700,5.238895751953125,0.2732982933521271,-6.186946868896484,7.608095645904541
1700939046966889200,5.25588916015625,0.30463117361068726,-6.222454071044922,7.5778889656066895
1700939046983882000,5.272882080078125,0.3450872004032135,-6.2564167976379395,7.548130512237549
1700939047000878600,5.289878662109375,0.3950878977775574,-6.284262180328369,7.522503852844238
1700939047017865700,5.30686572265625,0.4433116316795349,-6.302606582641602,7.504447937011719
1700939047034862000,5.323862060546875,0.4838802218437195,-6.312815189361572,7.493353843688965
1700939047051855400,5.34085546875,0.5161726474761963,-6.314090251922607,7.490121841430664
1700939047068846000,5.35784619140625,0.5408703684806824,-6.304310321807861,7.496614933013916
1700939047085844500,5.374844482421875,0.5645954608917236,-6.28501033782959,7.511057376861572
1700939047102835000,5.3918349609375,0.5898443460464478,-6.259560585021973,7.530346393585205
1700939047119828200,5.408828125,0.6148136854171753,-6.232093334197998,7.551100254058838
1700939047136822000,5.425822021484375,0.6379838585853577,-6.20375394821167,7.572484493255615
1700939047153815300,5.442815185546875,0.6607500314712524,-6.178094863891602,7.591487884521484
1700939047170808300,5.459808349609375,0.6826525330543518,-6.159401893615723,7.604727745056152
1700939047187801600,5.476801513671875,0.7021342515945435,-6.149315357208252,7.611112594604492
1700939047204792600,5.49379248046875,0.7160459756851196,-6.147265911102295,7.6114726066589355
1700939047221790700,5.510790771484375,0.7246636152267456,-6.149012565612793,7.609246730804443
1700939047238781400,5.527781494140625,0.7289332151412964,-6.1518330574035645,7.606558799743652
1700939047255775000,5.54477490234375,0.7304704785346985,-6.152029037475586,7.606251239776611
1700939047272767700,5.561767822265625,0.7312387824058533,-6.1466779708862305,7.610504627227783
1700939047289759200,5.57875927734375,0.7339144945144653,-6.135432720184326,7.619313716888428
1700939047306757000,5.595757080078125,0.7379993200302124,-6.120784282684326,7.630692958831787
1700939047323748000,5.612748046875,0.744301438331604,-6.103094577789307,7.6442365646362305
1700939047340741000,5.6297412109375,0.7537721991539001,-6.083163738250732,7.659182548522949
1700939047357734400,5.646734375,0.7651011943817139,-6.062518119812012,7.674412250518799
1700939047374727700,5.663727783203125,0.7762822508811951,-6.0430498123168945,7.688632011413574
1700939047391721000,5.680720947265625,0.78664231300354,-6.027619361877441,7.699682235717773
1700939047408714500,5.697714599609375,0.7990530729293823,-6.018184185028076,7.705783843994141
1700939047425697000,5.714697021484375,0.8177021741867065,-6.01554536819458,7.705887794494629
1700939047442699800,5.73169970703125,0.8406665325164795,-6.018487930297852,7.701117038726807
1700939047459695400,5.7486953125,0.8637115359306335,-6.027404308319092,7.691586971282959
1700939047476690400,5.7656904296875,0.8843639492988586,-6.0414814949035645,7.678184986114502
1700939047493677600,5.782677490234375,0.9017991423606873,-6.0572733879089355,7.66370153427124
1700939047510670300,5.79967041015625,0.9171591997146606,-6.073442459106445,7.649068355560303
1700939047527660000,5.816659912109375,0.9328034520149231,-6.092870235443115,7.631704807281494
1700939047544660500,5.833660400390625,0.9500041604042053,-6.1175689697265625,7.609794616699219
1700939047561650000,5.85064990234375,0.9686591625213623,-6.145139694213867,7.585188388824463
1700939047578651100,5.867651123046875,0.9876351356506348,-6.171374797821045,7.561403274536133
1700939047595640300,5.884640380859375,1.0024999380111694,-6.194915771484375,7.540167808532715
1700939047612633900,5.9016337890625,1.013665795326233,-6.216048717498779,7.5212578773498535
1700939047629625900,5.9186259765625,1.025057315826416,-6.235595226287842,7.503515243530273
1700939047646621000,5.935620849609375,1.0373598337173462,-6.254972457885742,7.485672950744629
1700939047663613400,5.952613525390625,1.0491816997528076,-6.275278091430664,7.467008590698242
1700939047680606700,5.969606689453125,1.0602329969406128,-6.296566963195801,7.447502613067627
1700939047697597200,5.98659716796875,1.0690728425979614,-6.316426753997803,7.429396629333496
1700939047714596000,6.00359619140625,1.0757040977478027,-6.333265781402588,7.414089202880859
1700939047731586600,6.020586669921875,1.079307198524475,-6.346011638641357,7.402658462524414
1700939047748569300,6.0375693359375,1.0817185640335083,-6.354855537414551,7.394716262817383
1700939047765573400,6.054573486328125,1.084010124206543,-6.362855434417725,7.387495994567871
1700939047782566700,6.071566650390625,1.0872600078582764,-6.371063709259033,7.379941463470459
1700939047799559700,6.0885595703125,1.089690089225769,-6.3770294189453125,7.374428749084473
1700939047816553000,6.105552978515625,1.0904934406280518,-6.379760265350342,7.371945858001709
1700939047833543700,6.122543701171875,1.0880072116851807,-6.379287242889404,7.37272310256958
1700939047850542300,6.139542236328125,1.0820798873901367,-6.378612518310547,7.374178409576416
1700939047867533000,6.156532958984375,1.0779091119766235,-6.37864875793457,7.374759674072266
1700939047884518000,6.173517822265625,1.0795574188232422,-6.377960681915283,7.375112533569336
1700939047901519400,6.190519287109375,1.0873219966888428,-6.375864028930664,7.375784397125244
1700939047918508800,6.2075087890625,1.0984433889389038,-6.372830390930176,7.376759052276611
1700939047935506000,6.224505859375,1.1095986366271973,-6.370588302612305,7.377025127410889
1700939047952488700,6.24148876953125,1.1177257299423218,-6.370497703552246,7.375875949859619
1700939047969492700,6.25849267578125,1.1232635974884033,-6.372406482696533,7.373386383056641
1700939047986486000,6.275486083984375,1.129403829574585,-6.375559329986572,7.369722843170166
1700939048003479000,6.29247900390625,1.137832522392273,-6.378910064697266,7.365525245666504
1700939048020472600,6.30947265625,1.1439013481140137,-6.381481647491455,7.362358093261719
1700939048037465600,6.326465576171875,1.1462864875793457,-6.382228374481201,7.361339569091797
1700939048054458400,6.343458251953125,1.145627498626709,-6.381760120391846,7.361847877502441
1700939048071453200,6.360453125,1.1440784931182861,-6.379452705383301,7.364087104797363
1700939048088445700,6.37744580078125,1.1432342529296875,-6.37494421005249,7.36812162399292
1700939048105439000,6.39443896484375,1.1481972932815552,-6.369161605834961,7.372350692749023
1700939048122432300,6.411432373046875,1.1593854427337646,-6.364031791687012,7.375028610229492
1700939048139425300,6.42842529296875,1.1708143949508667,-6.361615180969238,7.375308513641357
1700939048156418800,6.445418701171875,1.1794143915176392,-6.3613128662109375,7.374198913574219
1700939048173400300,6.462400390625,1.1859809160232544,-6.362672328948975,7.371971130371094
1700939048190396000,6.47939599609375,1.190066933631897,-6.3635759353637695,7.370532989501953
1700939048207401500,6.4964013671875,1.1943862438201904,-6.361260414123535,7.371831893920898
1700939048224389400,6.513389404296875,1.2001410722732544,-6.354915618896484,7.376369476318359
1700939048241388000,6.530387939453125,1.205552101135254,-6.346575736999512,7.382664203643799
1700939048258378500,6.54737841796875,1.207595705986023,-6.338812828063965,7.388998031616211
1700939048275371500,6.56437158203125,1.2060760259628296,-6.332340240478516,7.394793510437012
1700939048292364800,6.58136474609375,1.203123688697815,-6.326259136199951,7.40047550201416
1700939048309360400,6.5983603515625,1.2020957469940186,-6.3205695152282715,7.405501842498779
1700939048326349600,6.615349609375,1.2040201425552368,-6.314944267272949,7.409988880157471
1700939048343345000,6.632344970703125,1.2071547508239746,-6.30965518951416,7.4139838218688965
1700939048360338200,6.649338134765625,1.2093591690063477,-6.30515193939209,7.417454242706299
1700939048377331700,6.666331787109375,1.2099521160125732,-6.3024797439575195,7.419628143310547
1700939048394324500,6.683324462890625,1.210297703742981,-6.302284240722656,7.41973876953125
1700939048411318300,6.700318359375,1.2110261917114258,-6.303661823272705,7.418447017669678
1700939048428300800,6.71730078125,1.2118133306503296,-6.304615497589111,7.417510509490967
1700939048445304600,6.7343046875,1.2126967906951904,-6.303997993469238,7.417889595031738
1700939048462298000,6.751298095703125,1.2144094705581665,-6.302882194519043,7.418558597564697
1700939048479287800,6.768287841796875,1.2158788442611694,-6.303012371063232,7.418206691741943
1700939048496287700,6.785287841796875,1.2178890705108643,-6.305113315582275,7.4160919189453125
1700939048513278000,6.80227783203125,1.2214792966842651,-6.308239459991455,7.412841796875
1700939048530271700,6.819271728515625,1.226636528968811,-6.310789108276367,7.409818649291992
1700939048547261200,6.83626123046875,1.231235384941101,-6.311213493347168,7.408695220947266
1700939048564257500,6.853257568359375,1.234020471572876,-6.309423923492432,7.409755706787109
1700939048581240300,6.870240234375,1.2350267171859741,-6.306880950927734,7.4117536544799805
1700939048598244400,6.887244384765625,1.2370346784591675,-6.305119514465332,7.412917137145996
1700939048615237600,6.904237548828125,1.2409874200820923,-6.3052873611450195,7.412112712860107
1700939048632230700,6.921230712890625,1.2442671060562134,-6.30892276763916,7.408468723297119
1700939048649224000,6.938223876953125,1.2445284128189087,-6.314932346343994,7.403304100036621
1700939048666216700,6.955216796875,1.2444027662277222,-6.320343971252441,7.398704528808594
1700939048683210800,6.972210693359375,1.245423674583435,-6.322287082672119,7.3968729972839355
1700939048700204000,6.9892041015625,1.2463306188583374,-6.319233417510986,7.399327278137207
1700939048717197000,7.006197021484375,1.2447435855865479,-6.310872554779053,7.4067277908325195
1700939048734190600,7.023190673828125,1.2435280084609985,-6.300165176391602,7.416040897369385
1700939048751184000,7.040183837890625,1.242551565170288,-6.290886402130127,7.42407751083374
1700939048768177000,7.057177001953125,1.2402207851409912,-6.285799980163574,7.428774833679199
1700939048785170200,7.074170166015625,1.2385274171829224,-6.28270149230957,7.431677341461182
1700939048802153000,7.091153076171875,1.238864779472351,-6.279634475708008,7.434212684631348
1700939048819157000,7.108156982421875,1.23887300491333,-6.277575492858887,7.43595027923584
1700939048836150300,7.125150390625,1.2372685670852661,-6.274806976318359,7.438553333282471
1700939048853143600,7.1421435546875,1.236145257949829,-6.271460056304932,7.441563606262207
1700939048870137000,7.15913720703125,1.2375463247299194,-6.268665790557861,7.4436845779418945
1700939048887130400,7.17613037109375,1.2415387630462646,-6.268537521362305,7.443126201629639
1700939048904119800,7.193119873046875,1.2456955909729004,-6.270274639129639,7.440968036651611
1700939048921115600,7.21011572265625,1.2483869791030884,-6.270553112030029,7.440284252166748
1700939048938114600,7.227114501953125,1.2495038509368896,-6.2691264152526855,7.441298007965088
1700939048955103200,7.244103271484375,1.249434232711792,-6.266310214996338,7.443680286407471
1700939048972096500,7.261096435546875,1.250290870666504,-6.263269424438477,7.446097373962402
1700939048989089800,7.27808984375,1.252549648284912,-6.261042594909668,7.4475908279418945
1700939049006083300,7.295083251953125,1.255714774131775,-6.259755611419678,7.448139667510986
1700939049023076600,7.31207666015625,1.2569228410720825,-6.259843826293945,7.447857856750488
1700939049040069600,7.329069580078125,1.2556445598602295,-6.261572360992432,7.446621417999268
1700939049057063000,7.34606298828125,1.2525444030761719,-6.263636589050293,7.445406913757324
1700939049074059300,7.363059326171875,1.2486817836761475,-6.2647480964660645,7.445122718811035
1700939049091049700,7.3800498046875,1.2460697889328003,-6.265954494476318,7.444544792175293
1700939049108043000,7.39704296875,1.2471064329147339,-6.267702102661133,7.442898750305176
1700939049125036300,7.414036376953125,1.2488840818405151,-6.2708845138549805,7.4399189949035645
1700939049142030000,7.431030029296875,1.2483958005905151,-6.275201320648193,7.4363627433776855
1700939049159022300,7.448022216796875,1.2460428476333618,-6.2788543701171875,7.433671951293945
1700939049176016100,7.46501611328125,1.243997573852539,-6.281054973602295,7.432155609130859
1700939049193006600,7.482006591796875,1.2427339553833008,-6.281400203704834,7.432075023651123
1700939049210005200,7.499005126953125,1.2411476373672485,-6.279311180114746,7.43410587310791
1700939049226996000,7.515995849609375,1.2376041412353516,-6.275084972381592,7.438263893127441
1700939049243989200,7.5329892578125,1.2320942878723145,-6.270144939422607,7.44334077835083
1700939049260982500,7.549982421875,1.2266687154769897,-6.267599582672119,7.44638204574585
1700939049277975300,7.566975341796875,1.222516655921936,-6.268579959869385,7.446239471435547
1700939049294969300,7.58396923828125,1.2197701930999756,-6.271604061126709,7.444144248962402
1700939049311950800,7.600950927734375,1.2193942070007324,-6.275054931640625,7.44129753112793
1700939049328953600,7.61795361328125,1.2203549146652222,-6.277759075164795,7.43885612487793
1700939049345951000,7.634950927734375,1.221896767616272,-6.277890682220459,7.438493728637695
1700939049362942500,7.6519423828125,1.2227270603179932,-6.274587154388428,7.441143035888672
1700939049379932200,7.66893212890625,1.223793625831604,-6.2708940505981445,7.444080829620361
1700939049396929000,7.685928955078125,1.2259793281555176,-6.2697601318359375,7.444676399230957
1700939049413922000,7.702922119140625,1.2289409637451172,-6.270563125610352,7.443511486053467
1700939049430904800,7.71990478515625,1.232974886894226,-6.272048473358154,7.441592216491699
1700939049447908600,7.73690869140625,1.2369422912597656,-6.274168014526367,7.439147472381592
1700939049464892400,7.753892333984375,1.2392191886901855,-6.275437831878662,7.4376959800720215
1700939049481895400,7.7708955078125,1.2390730381011963,-6.275058269500732,7.438041687011719
1700939049498888700,7.787888671875,1.2386882305145264,-6.275152206420898,7.438027381896973
1700939049515881700,7.8048818359375,1.2394355535507202,-6.275973320007324,7.4372100830078125
1700939049532875000,7.821875,1.2407108545303345,-6.276341915130615,7.436686038970947
1700939049549870000,7.8388701171875,1.242868423461914,-6.275423526763916,7.437101364135742
1700939049566861600,7.855861572265625,1.2459218502044678,-6.2751970291137695,7.43678092956543
1700939049583854800,7.872854736328125,1.2456557750701904,-6.277842998504639,7.434590816497803
1700939049600848400,7.889848388671875,1.246297836303711,-6.2831010818481445,7.430038928985596
1700939049617841400,7.90684130859375,1.2507580518722534,-6.2884135246276855,7.424792289733887
1700939049634835000,7.9238349609375,1.2541459798812866,-6.292525768280029,7.420739650726318
1700939049651828000,7.940827880859375,1.2535115480422974,-6.2949347496032715,7.418801307678223
1700939049668821500,7.957821533203125,1.2511515617370605,-6.296083450317383,7.418225288391113
1700939049685814800,7.974814697265625,1.2489845752716064,-6.2960710525512695,7.418600082397461
1700939049702808000,7.99180810546875,1.2457563877105713,-6.296591758728027,7.418701171875
1700939049719801300,8.00880126953125,1.2435601949691772,-6.2975077629089355,7.41829252243042
1700939049736795000,8.025794921875,1.2423491477966309,-6.297430992126465,7.4185614585876465
1700939049753784300,8.042784423828126,1.2404500246047974,-6.296301364898682,7.4198384284973145
1700939049770785000,8.059784912109375,1.238735556602478,-6.29600715637207,7.420374393463135
1700939049787774700,8.076774658203124,1.240523099899292,-6.2978620529174805,7.418501377105713
1700939049804768000,8.09376806640625,1.2458242177963257,-6.299642562866211,7.416100978851318
1700939049821761300,8.11076123046875,1.2524367570877075,-6.2991623878479,7.415395259857178
1700939049838754300,8.12775439453125,1.2586792707443237,-6.296192169189453,7.416857719421387
1700939049855743200,8.1447431640625,1.2624706029891968,-6.292256832122803,7.419553279876709
1700939049872741000,8.1617412109375,1.2621666193008423,-6.288243293762207,7.423008918762207
1700939049889734400,8.178734375,1.261349081993103,-6.285726547241211,7.425278186798096
1700939049906725000,8.19572509765625,1.2640031576156616,-6.285139083862305,7.425326824188232
1700939049923723800,8.212723876953126,1.2693012952804565,-6.285723686218262,7.423926830291748
1700939049940716800,8.229716796875,1.2765775918960571,-6.285643100738525,7.42274808883667
1700939049957705000,8.246705078125,1.2844619750976562,-6.284745693206787,7.422145366668701
1700939049974700800,8.26370068359375,1.2900484800338745,-6.284125804901123,7.421703338623047
1700939049991694000,8.280694091796875,1.2926160097122192,-6.284438610076904,7.420989036560059
1700939050008687600,8.2976875,1.2932124137878418,-6.286155700683594,7.419431209564209
1700939050025672700,8.314672607421874,1.2937287092208862,-6.28886604309082,7.417044639587402
1700939050042671400,8.33167138671875,1.2956640720367432,-6.291074752807617,7.4148335456848145
1700939050059667500,8.34866748046875,1.2977088689804077,-6.292099952697754,7.413604259490967
1700939050076660700,8.36566064453125,1.2998086214065552,-6.292660713195801,7.412761688232422
1700939050093653800,8.38265380859375,1.3016211986541748,-6.294710159301758,7.410703659057617
1700939050110644500,8.39964453125,1.3039648532867432,-6.298159599304199,7.407360553741455
1700939050127632400,8.41663232421875,1.3063721656799316,-6.301252841949463,7.404306888580322
1700939050144622800,8.433622802734375,1.3083244562149048,-6.304649353027344,7.401067733764648
1700939050161627100,8.450627197265625,1.3099348545074463,-6.307427406311035,7.398416996002197
1700939050178619400,8.467619384765625,1.310407280921936,-6.307908058166504,7.397921085357666
1700939050195614700,8.48461474609375,1.3086864948272705,-6.305798053741455,7.400025367736816
1700939050212606700,8.501606689453125,1.306090235710144,-6.302585601806641,7.403219699859619
1700939050229609000,8.51860888671875,1.3043372631072998,-6.298760890960693,7.406783580780029
1700939050246590200,8.535590087890625,1.3036677837371826,-6.295719146728516,7.409485340118408
1700939050263579000,8.552578857421874,1.3046863079071045,-6.294321060180664,7.410494327545166
1700939050280579800,8.569579833984376,1.3064054250717163,-6.2952165603637695,7.409430503845215
1700939050297573400,8.586573486328126,1.3080841302871704,-6.2976884841918945,7.407034873962402
1700939050314566700,8.603566650390626,1.3094536066055298,-6.300169467926025,7.404680252075195
1700939050331560000,8.620559814453125,1.3105779886245728,-6.301881313323975,7.403026580810547
1700939050348553200,8.63755322265625,1.3120217323303223,-6.30195951461792,7.402706146240234
1700939050365546800,8.654546630859375,1.3140337467193604,-6.301122188568115,7.403059005737305
1700939050382539800,8.671539794921875,1.3167550563812256,-6.301103115081787,7.402592182159424
1700939050399533300,8.688533203125,1.3180583715438843,-6.302665710449219,7.401030540466309
1700939050416526600,8.705526611328125,1.31999671459198,-6.304780006408691,7.3988847732543945
1700939050433519900,8.722519775390625,1.323647141456604,-6.306360721588135,7.396883487701416
1700939050450513200,8.73951318359375,1.3274648189544678,-6.306450843811035,7.396122455596924
1700939050467506200,8.756506103515624,1.3286570310592651,-6.304881572723389,7.397244930267334
1700939050484499500,8.77349951171875,1.3268847465515137,-6.30224084854126,7.399812698364258
1700939050501493000,8.790492919921874,1.3243166208267212,-6.300498008728027,7.401758670806885
1700939050518486300,8.807486328125,1.3235090970993042,-6.3000168800354,7.4023118019104
1700939050535479600,8.8244794921875,1.325469732284546,-6.29886531829834,7.402942180633545
1700939050552472800,8.841472900390626,1.328277587890625,-6.296473503112793,7.404472827911377
1700939050569463600,8.858463623046875,1.328372836112976,-6.292975902557373,7.407427787780762
1700939050586462200,8.875462158203124,1.3245195150375366,-6.289963722229004,7.410676002502441
1700939050603448800,8.89244873046875,1.3181360960006714,-6.289574146270752,7.412143707275391
1700939050620449800,8.90944970703125,1.312681794166565,-6.293293476104736,7.4099555015563965
1700939050637439200,8.926439208984375,1.3093582391738892,-6.297911167144775,7.406620979309082
1700939050654432800,8.943432861328125,1.3085198402404785,-6.300654411315918,7.404432773590088
1700939050671426000,8.960426025390625,1.3087338209152222,-6.3000593185424805,7.404902458190918
1700939050688419000,8.977419189453125,1.3086168766021729,-6.295538425445557,7.4087700843811035
1700939050705412600,8.99441259765625,1.307498812675476,-6.289057731628418,7.414465427398682
1700939050722406000,9.011406005859374,1.30592942237854,-6.283066749572754,7.419821739196777
1700939050739399000,9.02839892578125,1.3036905527114868,-6.2781572341918945,7.424367427825928
1700939050756392200,9.04539208984375,1.302994728088379,-6.275876522064209,7.426418304443359
1700939050773385700,9.0623857421875,1.3048090934753418,-6.276466369628906,7.425600528717041
1700939050790379000,9.07937890625,1.3081028461456299,-6.277718544006348,7.423964023590088
1700939050807372300,9.096372314453125,1.310070514678955,-6.277838230133057,7.423514366149902
1700939050824365800,9.11336572265625,1.3104230165481567,-6.27679967880249,7.42432975769043
1700939050841358800,9.13035888671875,1.3103885650634766,-6.274821758270264,7.426009654998779
1700939050858352000,9.14735205078125,1.3096436262130737,-6.272147178649902,7.428399085998535
1700939050875345400,9.164345458984375,1.3090916872024536,-6.270179748535156,7.430157661437988
1700939050892338700,9.181338623046875,1.3077982664108276,-6.269482135772705,7.430972099304199
1700939050909332000,9.19833203125,1.3060646057128906,-6.269258975982666,7.4314680099487305
1700939050926322200,9.215322265625,1.3037092685699463,-6.269558906555176,7.43162727355957
1700939050943318500,9.232318603515624,1.301688551902771,-6.2697343826293945,7.431833744049072
1700939050960312300,9.249312255859374,1.3014224767684937,-6.269398212432861,7.432164192199707
1700939050977305000,9.26630517578125,1.3011283874511719,-6.267030239105225,7.434212684631348
1700939050994298400,9.28329833984375,1.2976082563400269,-6.262485027313232,7.438654899597168
1700939051011298000,9.300298095703125,1.2912003993988037,-6.258121490478516,7.44344425201416
1700939051028281000,9.317281005859375,1.2866652011871338,-6.254807949066162,7.447014331817627
1700939051045282600,9.334282470703124,1.2860629558563232,-6.252162456512451,7.44933557510376
1700939051062271700,9.351271728515625,1.2879515886306763,-6.249207496643066,7.451490879058838
1700939051079265000,9.36826513671875,1.2889386415481567,-6.246416091918945,7.453660011291504
1700939051096258600,9.385258544921875,1.2887468338012695,-6.244871139526367,7.454987525939941
1700939051113251600,9.40225146484375,1.2877949476242065,-6.24514102935791,7.454926013946533
1700939051130244900,9.419244873046875,1.2862553596496582,-6.246474266052246,7.454075813293457
1700939051147238100,9.436238037109375,1.285724401473999,-6.248104095458984,7.452798843383789
1700939051164231400,9.4532314453125,1.2865097522735596,-6.248215198516846,7.452573776245117
1700939051181225000,9.470224853515624,1.286831259727478,-6.245614051818848,7.4546942710876465
1700939051198218200,9.48721826171875,1.2847321033477783,-6.240626335144043,7.459234714508057
1700939051215211500,9.50421142578125,1.2785773277282715,-6.234031677246094,7.465800762176514
1700939051232206600,9.52120654296875,1.2716566324234009,-6.22894811630249,7.471223831176758
1700939051249196500,9.538196533203125,1.2682383060455322,-6.226940631866455,7.473479747772217
1700939051266191000,9.555191162109375,1.268062949180603,-6.2279767990112305,7.472647666931152
1700939051283185000,9.572184814453125,1.268101453781128,-6.231090068817139,7.470044136047363
1700939051300178200,9.58917822265625,1.264582633972168,-6.235860824584961,7.466658115386963
1700939051317170400,9.60617041015625,1.2610350847244263,-6.2418928146362305,7.462215900421143
1700939051334165800,9.623165771484375,1.2603756189346313,-6.24923849105835,7.456179141998291
1700939051351157200,9.6401572265625,1.2631845474243164,-6.255392074584961,7.450542449951172
1700939051368148500,9.6571484375,1.2666133642196655,-6.258365154266357,7.447458744049072
1700939051385146000,9.67414599609375,1.2681126594543457,-6.258922576904297,7.446736812591553
1700939051402137900,9.691137939453125,1.2682968378067017,-6.258538722991943,7.447027683258057
1700939051419129000,9.708129150390626,1.2678319215774536,-6.258387088775635,7.447235107421875
1700939051436124700,9.725124755859374,1.2666940689086914,-6.258734226226807,7.4471354484558105
1700939051453118500,9.742118408203124,1.263510823249817,-6.260462760925293,7.446225166320801
1700939051470110200,9.759110107421876,1.2613965272903442,-6.263073921203613,7.444386959075928
1700939051487104500,9.7761044921875,1.2622934579849243,-6.26560115814209,7.442107200622559
1700939051504097500,9.79309765625,1.2652831077575684,-6.2683868408203125,7.439253330230713
1700939051521090800,9.8100908203125,1.269888997077942,-6.271259307861328,7.43604850769043
1700939051538084000,9.827083984375,1.2742557525634766,-6.272610664367676,7.4341607093811035
1700939051555077600,9.84407763671875,1.2753701210021973,-6.270524024963379,7.435729503631592
1700939051572071000,9.86107080078125,1.2730605602264404,-6.267068862915039,7.439037322998047
1700939051589061000,9.87806103515625,1.2695832252502441,-6.26442289352417,7.441862106323242
1700939051606057500,9.895057373046875,1.2658895254135132,-6.265030860900879,7.441978454589844
1700939051623050800,9.91205078125,1.2612695693969727,-6.268637657165527,7.439723968505859
1700939051640044000,9.9290439453125,1.257563591003418,-6.273907661437988,7.435909271240234
1700939051657037300,9.946037353515624,1.25608491897583,-6.276824474334717,7.433699131011963
1700939051674030300,9.9630302734375,1.257137417793274,-6.274566650390625,7.435423851013184
1700939051691024000,9.98002392578125,1.2571086883544922,-6.268239498138428,7.440763473510742
1700939051708017000,9.997016845703126,1.2559983730316162,-6.262140274047852,7.446085453033447
1700939051725010400,10.014010498046876,1.2561591863632202,-6.257476329803467,7.449978828430176
1700939051742004000,10.03100390625,1.2579220533370972,-6.253993034362793,7.452605724334717
1700939051758997000,10.0479970703125,1.259732961654663,-6.252185821533203,7.4538164138793945
1700939051775990300,10.064990234375,1.2606626749038696,-6.251418590545654,7.4543023109436035
1700939051792983800,10.08198388671875,1.260618805885315,-6.251097202301025,7.454578876495361
1700939051809967900,10.0989677734375,1.2603013515472412,-6.2513747215271,7.45440149307251
1700939051826968800,10.11596875,1.2622805833816528,-6.252854347229004,7.452824592590332
1700939051843963600,10.132963623046875,1.2652124166488647,-6.254278659820557,7.451130390167236
1700939051860957000,10.14995703125,1.2666590213775635,-6.255605220794678,7.449771881103516
1700939051877948000,10.166947998046876,1.2669490575790405,-6.257060527801514,7.448500633239746
1700939051894946000,10.183946044921875,1.2680336236953735,-6.258152008056641,7.447399616241455
1700939051911936800,10.200936767578124,1.2700761556625366,-6.257761001586914,7.4473772048950195
1700939051928930300,10.217930419921874,1.2731558084487915,-6.256152153015137,7.448204040527344
1700939051945923300,10.23492333984375,1.2756239175796509,-6.2540788650512695,7.449524879455566
1700939051962916900,10.251916748046876,1.278227686882019,-6.2524566650390625,7.450439453125
1700939051979910000,10.268909912109375,1.2798035144805908,-6.252288341522217,7.450307369232178
1700939051996903400,10.2859033203125,1.2787405252456665,-6.253486156463623,7.449486255645752
1700939052013896700,10.302896728515625,1.2756496667861938,-6.255643367767334,7.448204517364502
1700939052030890000,10.319889892578125,1.2730072736740112,-6.257566452026367,7.447042465209961
1700939052047883000,10.336883056640625,1.270668387413025,-6.257612705230713,7.4474029541015625
1700939052064876300,10.353876220703125,1.2679588794708252,-6.2566704750061035,7.448655605316162
1700939052081869800,10.370869873046875,1.267805576324463,-6.255383014678955,7.44976282119751
1700939052098863400,10.38786328125,1.2696305513381958,-6.255232810974121,7.449577808380127
1700939052115845400,10.404845458984376,1.270296573638916,-6.256909370422363,7.448057174682617
1700939052132852200,10.421852294921875,1.268799066543579,-6.260477066040039,7.445314407348633
1700939052149843200,10.43884326171875,1.26668119430542,-6.2633843421936035,7.443227291107178
1700939052166836500,10.45583642578125,1.2649726867675781,-6.264430999755859,7.442636966705322
1700939052183829800,10.472829833984376,1.2640224695205688,-6.263492584228516,7.4435906410217285
1700939052200812300,10.489812255859375,1.2655550241470337,-6.260951519012451,7.445466041564941
1700939052217816300,10.50681640625,1.2683312892913818,-6.257206916809082,7.4481401443481445
1700939052234809600,10.5238095703125,1.2710789442062378,-6.254557132720947,7.449898719787598
1700939052251801600,10.540801513671875,1.2732359170913696,-6.255274772644043,7.448927402496338
1700939052268795600,10.557795654296875,1.2749912738800049,-6.25742244720459,7.446822166442871
1700939052285789700,10.574789794921875,1.2768664360046387,-6.258962631225586,7.445207595825195
1700939052302780700,10.59178076171875,1.2788931131362915,-6.2594099044799805,7.444484710693359
1700939052319778000,10.608778076171875,1.280602216720581,-6.258948802947998,7.444579601287842
1700939052336769500,10.62576953125,1.2799830436706543,-6.259181499481201,7.444488048553467
1700939052353762800,10.6427626953125,1.2762706279754639,-6.261830806732178,7.442897796630859
1700939052370755800,10.659755859375,1.270155668258667,-6.266188144683838,7.440276622772217
1700939052387749400,10.676749267578124,1.2628448009490967,-6.270285129547119,7.438069820404053
1700939052404742400,10.693742431640626,1.2558025121688843,-6.2732648849487305,7.4367475509643555
1700939052421736200,10.710736083984376,1.250288486480713,-6.27570915222168,7.435614585876465
1700939052438729200,10.727729248046876,1.2451167106628418,-6.2786688804626465,7.433981895446777
1700939052455722500,10.744722412109375,1.2404224872589111,-6.281821250915527,7.432106018066406
1700939052472716000,10.761716064453125,1.2370123863220215,-6.285096168518066,7.429904460906982
1700939052489709300,10.778709228515625,1.2356845140457153,-6.288217067718506,7.427485466003418
1700939052506702600,10.79570263671875,1.2346056699752808,-6.2897419929504395,7.426373481750488
1700939052523695600,10.812695556640625,1.2330539226531982,-6.290475368499756,7.426009654998779
1700939052540689200,10.829689208984375,1.2305564880371094,-6.2926812171936035,7.424554824829102
1700939052557682200,10.84668212890625,1.2276334762573242,-6.297327518463135,7.421098709106445
1700939052574675700,10.86367578125,1.2288888692855835,-6.303323745727539,7.415799617767334
1700939052591673000,10.880673095703125,1.2344753742218018,-6.309867858886719,7.409300804138184
1700939052608662500,10.89766259765625,1.2419673204421997,-6.316372394561768,7.402503967285156
1700939052625646300,10.914646240234376,1.247916340827942,-6.321373462677002,7.397234916687012
1700939052642648800,10.93164892578125,1.2520076036453247,-6.32391357421875,7.394371032714844
1700939052659642000,10.94864208984375,1.2531460523605347,-6.323559761047363,7.394480228424072
1700939052676635400,10.965635498046876,1.25197434425354,-6.322655200958252,7.395451068878174
1700939052693616600,10.98261669921875,1.2509551048278809,-6.322954177856445,7.3953680992126465
1700939052710622000,10.9996220703125,1.2502955198287964,-6.324394702911377,7.3942484855651855
1700939052727610000,11.016610107421876,1.2509095668792725,-6.326759338378906,7.392120361328125
1700939052744611600,11.033611572265626,1.2524268627166748,-6.329615116119385,7.389420986175537
1700939052761602300,11.050602294921875,1.25465989112854,-6.332576274871826,7.386502742767334
1700939052778595300,11.06759521484375,1.255749225616455,-6.33296012878418,7.385986804962158
1700939052795587800,11.084587890625,1.2554972171783447,-6.330033302307129,7.3885393142700195
1700939052812579600,11.10157958984375,1.25383722782135,-6.324649810791016,7.393428325653076
1700939052829577700,11.11857763671875,1.2509335279464722,-6.318810939788818,7.398913860321045
1700939052846568400,11.135568359375,1.247639775276184,-6.314945697784424,7.402769088745117
1700939052863562000,11.15256201171875,1.2456529140472412,-6.314388751983643,7.403575897216797
1700939052880555300,11.16955517578125,1.2450237274169922,-6.315464496612549,7.402766704559326
1700939052897548500,11.186548583984376,1.245027780532837,-6.315343856811523,7.402867794036865
1700939052914542000,11.2035419921875,1.2442864179611206,-6.314133167266846,7.404025554656982
1700939052931535000,11.22053515625,1.2413270473480225,-6.312374591827393,7.4060211181640625
1700939052948528400,11.2375283203125,1.2371808290481567,-6.3110527992248535,7.407842636108398
1700939052965522000,11.25452197265625,1.2332983016967773,-6.310259819030762,7.409163951873779
1700939052982515000,11.271514892578125,1.2297303676605225,-6.310420036315918,7.409620761871338
1700939052999508500,11.288508544921875,1.2253519296646118,-6.3120808601379395,7.408931255340576
1700939053016501800,11.305501708984375,1.221643090248108,-6.314024448394775,7.407887935638428
1700939053033495000,11.3224951171875,1.2201075553894043,-6.315255165100098,7.4070916175842285
1700939053050488300,11.33948828125,1.2214062213897705,-6.315707683563232,7.406491756439209
1700939053067481600,11.356481689453124,1.2270259857177734,-6.314883708953857,7.406264781951904
1700939053084475100,11.37347509765625,1.2347642183303833,-6.313496112823486,7.406161308288574
1700939053101467400,11.39046728515625,1.2405067682266235,-6.312828540802002,7.405772686004639
1700939053118451000,11.407450927734375,1.24339759349823,-6.314006805419922,7.40428352355957
1700939053135469600,11.424469482421875,1.2453739643096924,-6.31599760055542,7.402252197265625
1700939053152443000,11.44144287109375,1.2474029064178467,-6.31564998626709,7.40220832824707
1700939053169444000,11.458444091796874,1.2496588230133057,-6.31200647354126,7.404933452606201
1700939053186434600,11.4754345703125,1.2528489828109741,-6.306743144989014,7.408877372741699
1700939053203428000,11.492427978515625,1.2571923732757568,-6.301782608032227,7.4123640060424805
1700939053220421000,11.509421142578125,1.2607814073562622,-6.2971696853637695,7.415671348571777
1700939053237414700,11.52641455078125,1.2616994380950928,-6.293339252471924,7.418766498565674
1700939053254408000,11.543407958984375,1.2596365213394165,-6.292254447937012,7.420036792755127
1700939053271413200,11.560413330078125,1.2571449279785156,-6.292929172515869,7.419886589050293
1700939053288394500,11.57739453125,1.2559772729873657,-6.293219089508057,7.419839382171631
1700939053305388000,11.594387939453124,1.2543909549713135,-6.291884422302246,7.421242713928223
1700939053322381000,11.611381103515624,1.2500605583190918,-6.289604663848877,7.4239044189453125
1700939053339374300,11.628374267578126,1.2429006099700928,-6.287947654724121,7.426507949829102
1700939053356367600,11.64536767578125,1.236894965171814,-6.287648677825928,7.427762985229492
1700939053373361200,11.662361083984376,1.2340993881225586,-6.289085865020752,7.4270124435424805
1700939053390344000,11.679343994140625,1.2346957921981812,-6.290599822998047,7.425631523132324
1700939053407347500,11.696347412109375,1.2367124557495117,-6.290463447570801,7.425411224365234
1700939053424329200,11.7133291015625,1.237930417060852,-6.288976192474365,7.426466464996338
1700939053441334300,11.730334228515625,1.2380163669586182,-6.287191390991211,7.42796516418457
1700939053458327600,11.74732763671875,1.2384766340255737,-6.285589218139648,7.429242134094238
1700939053475320800,11.76432080078125,1.2399775981903076,-6.286141872406006,7.428525924682617
1700939053492314000,11.781314208984375,1.243029236793518,-6.287928104400635,7.426503658294678
1700939053509307600,11.7983076171875,1.2491015195846558,-6.288767337799072,7.424774646759033
1700939053526301000,11.815301025390625,1.256484866142273,-6.287937641143799,7.424228668212891
1700939053543296300,11.832296142578125,1.2625004053115845,-6.28651762008667,7.424413681030273
1700939053560285700,11.84928564453125,1.2659906148910522,-6.285831928253174,7.4243998527526855
1700939053577278500,11.866278564453125,1.2667419910430908,-6.2864203453063965,7.423770427703857
1700939053594276900,11.88327685546875,1.2643932104110718,-6.289202690124512,7.421816825866699
1700939053611267300,11.900267333984376,1.2611467838287354,-6.294625759124756,7.417769432067871
1700939053628260900,11.9172607421875,1.2599825859069824,-6.30062198638916,7.412877082824707
1700939053645254100,11.934254150390625,1.2595393657684326,-6.303656101226807,7.410369873046875
1700939053662247400,11.951247314453125,1.2554762363433838,-6.303983688354492,7.41077995300293
1700939053679240700,11.96824072265625,1.2488232851028442,-6.303080081939697,7.412673473358154
1700939053696234000,11.98523388671875,1.2449564933776855,-6.301338195800781,7.414803981781006
1700939053713227300,12.002227294921875,1.2467118501663208,-6.299731731414795,7.4158735275268555
1700939053730220500,12.019220458984375,1.2519965171813965,-6.300033092498779,7.414728164672852
1700939053747213800,12.0362138671875,1.2590646743774414,-6.301894187927246,7.411947727203369
1700939053764207400,12.053207275390625,1.2655590772628784,-6.303795337677002,7.409225940704346
1700939053781200600,12.07020068359375,1.2705152034759521,-6.305979251861572,7.406518459320068
1700939053798194000,12.08719384765625,1.2757198810577393,-6.309630870819092,7.402512073516846
1700939053815187000,12.10418701171875,1.2815126180648804,-6.312412261962891,7.39914083480835
1700939053832180500,12.121180419921876,1.2884849309921265,-6.313551425933838,7.396958351135254
1700939053849173800,12.138173828125,1.2951717376708984,-6.314375877380371,7.395087242126465
1700939053866167000,12.1551669921875,1.3014814853668213,-6.3166351318359375,7.392046928405762
1700939053883160300,12.172160400390625,1.307752013206482,-6.32029914855957,7.387809753417969
1700939053900153900,12.18915380859375,1.3154171705245972,-6.324512958526611,7.382841110229492
1700939053917147000,12.20614697265625,1.3229659795761108,-6.329803466796875,7.376953601837158
1700939053934140200,12.22314013671875,1.3293890953063965,-6.336219310760498,7.3702898025512695
1700939053951135700,12.2401357421875,1.33589768409729,-6.343189239501953,7.363112926483154
1700939053968119800,12.257119873046875,1.3432101011276245,-6.351227283477783,7.3548502922058105
1700939053985120800,12.274120849609375,1.3516985177993774,-6.360560417175293,7.345220565795898
1700939054002110500,12.2911103515625,1.3604143857955933,-6.370102405548096,7.335338115692139
1700939054019109400,12.308109375,1.3688349723815918,-6.379217147827148,7.3258442878723145
1700939054036100400,12.325100341796874,1.374172329902649,-6.3871259689331055,7.317947864532471
1700939054053093600,12.34209375,1.3762387037277222,-6.39251708984375,7.31285285949707
1700939054070086700,12.359086669921876,1.377517580986023,-6.395742416381836,7.309790134429932
1700939054087080000,12.376079833984376,1.3782899379730225,-6.399166584014893,7.306650638580322
1700939054104073500,12.393073486328126,1.3771917819976807,-6.403869152069092,7.302735328674316
1700939054121066800,12.410066650390625,1.3759721517562866,-6.408833980560303,7.29860782623291
1700939054138060000,12.42706005859375,1.3758083581924438,-6.411949157714844,7.295900344848633
1700939054155053300,12.44405322265625,1.3768714666366577,-6.410919189453125,7.296605587005615
1700939054172046800,12.461046875,1.3780840635299683,-6.404293060302734,7.302193641662598
1700939054189039900,12.478039794921875,1.378596305847168,-6.392913818359375,7.312062740325928
1700939054206022700,12.495022705078124,1.3763662576675415,-6.379443168640137,7.32423734664917
1700939054223026700,12.512026611328125,1.3706557750701904,-6.367777347564697,7.335448265075684
1700939054240010000,12.529010009765624,1.3633993864059448,-6.360252380371094,7.343327045440674
1700939054257013200,12.54601318359375,1.358290672302246,-6.355827808380127,7.348103046417236
1700939054274006500,12.563006591796874,1.3557074069976807,-6.3526225090026855,7.3513503074646
1700939054291000000,12.58,1.3553571701049805,-6.348452091217041,7.35501766204834
1700939054307993300,12.596993408203126,1.3558646440505981,-6.3422088623046875,7.3603057861328125
1700939054324986600,12.613986572265626,1.3551641702651978,-6.334239959716797,7.36729621887207
1700939054341977300,12.630977294921875,1.3540122509002686,-6.326003074645996,7.374582290649414
1700939054358975700,12.647975830078124,1.3532902002334595,-6.319338321685791,7.380425453186035
1700939054375962000,12.664962158203124,1.353053331375122,-6.315077781677246,7.384115219116211
1700939054392964000,12.681964111328124,1.3535269498825073,-6.313610076904297,7.385281562805176
1700939054409953000,12.698953125,1.35371994972229,-6.314025402069092,7.384891510009766
1700939054426946300,12.7159462890625,1.3522862195968628,-6.316030979156494,7.383439064025879
1700939054443937300,12.732937255859374,1.3494648933410645,-6.318074703216553,7.382208347320557
1700939054460935700,12.749935791015625,1.3465986251831055,-6.319897174835205,7.381171703338623
1700939054477926400,12.766926513671875,1.3440510034561157,-6.322467803955078,7.379433631896973
1700939054494919700,12.783919677734374,1.3422915935516357,-6.325760364532471,7.3769307136535645
1700939054511913000,12.800912841796874,1.3393223285675049,-6.328449249267578,7.375166416168213
1700939054528906200,12.81790625,1.3333553075790405,-6.3295159339904785,7.375332355499268
1700939054545886700,12.83488671875,1.3266280889511108,-6.329423427581787,7.37662410736084
1700939054562883300,12.85188330078125,1.3232828378677368,-6.329087257385254,7.377511024475098
1700939054579887900,12.868887939453124,1.3245329856872559,-6.32930326461792,7.377105236053467
1700939054596879600,12.885879638671875,1.3283406496047974,-6.332464694976807,7.373703956604004
1700939054613873000,12.902872802734375,1.3318548202514648,-6.3394975662231445,7.367024898529053
1700939054630866400,12.919866455078125,1.3329968452453613,-6.347572326660156,7.359863758087158
1700939054647859500,12.936859375,1.3316659927368164,-6.353165149688721,7.355274677276611
1700939054664850200,12.95385009765625,1.3291592597961426,-6.3554534912109375,7.353751182556152
1700939054681846300,12.97084619140625,1.3279225826263428,-6.3540120124816895,7.355219841003418
1700939054698839300,12.98783935546875,1.328763484954834,-6.347965240478516,7.360288143157959
1700939054715833300,13.004833251953125,1.3316326141357422,-6.339357376098633,7.367183685302734
1700939054732826000,13.021826171875,1.3350123167037964,-6.3311848640441895,7.373599529266357
1700939054749819400,13.0388193359375,1.3372430801391602,-6.324880123138428,7.378601551055908
1700939054766812400,13.0558125,1.3387101888656616,-6.319793224334717,7.382694721221924
1700939054783806000,13.072805908203126,1.3405917882919312,-6.314926624298096,7.38651704788208
1700939054800799200,13.08979931640625,1.3438042402267456,-6.310379505157471,7.389819622039795
1700939054817782000,13.106781982421875,1.3483644723892212,-6.305959224700928,7.392760276794434
1700939054834786000,13.1237861328125,1.3530118465423584,-6.301564693450928,7.395660877227783
1700939054851776500,13.140776611328125,1.3549981117248535,-6.297436237335205,7.398809909820557
1700939054868764700,13.1577646484375,1.3540011644363403,-6.294674873352051,7.401342391967773
1700939054885766000,13.174765869140625,1.3531451225280762,-6.293254852294922,7.402707576751709
1700939054902759000,13.191759033203125,1.3543519973754883,-6.292201995849609,7.403379917144775
1700939054919750000,13.20875,1.3562839031219482,-6.290690898895264,7.4043097496032715
1700939054936748500,13.22574853515625,1.3563868999481201,-6.289062976837158,7.405675888061523
1700939054953739300,13.2427392578125,1.3544946908950806,-6.288491249084473,7.406507968902588
1700939054970732500,13.259732666015625,1.3530364036560059,-6.289301872253418,7.406086444854736
1700939054987725800,13.276725830078124,1.3533293008804321,-6.29136848449707,7.404273986816406
1700939055004719000,13.293718994140624,1.3557506799697876,-6.29433536529541,7.401311874389648
1700939055021712400,13.31071240234375,1.35820472240448,-6.297686576843262,7.398009300231934
1700939055038703400,13.327703369140625,1.358512282371521,-6.301207542419434,7.394954204559326
1700939055055701500,13.344701416015624,1.3583707809448242,-6.30588436126709,7.390993118286133
1700939055072692500,13.3616923828125,1.3611301183700562,-6.312441349029541,7.384885311126709
1700939055089685800,13.378685791015625,1.3663171529769897,-6.321151256561279,7.376471519470215
1700939055106676500,13.395676513671875,1.3711662292480469,-6.331084728240967,7.367048740386963
1700939055123673900,13.412673828125,1.3735777139663696,-6.339512348175049,7.359346866607666
1700939055140666600,13.42966650390625,1.3724322319030762,-6.344751358032227,7.355042934417725
1700939055157659000,13.446658935546875,1.3694921731948853,-6.3460001945495605,7.354514122009277
1700939055174652200,13.463652099609375,1.3669416904449463,-6.345203876495361,7.355676651000977
1700939055191645700,13.480645751953125,1.365491509437561,-6.343233108520508,7.357647895812988
1700939055208639000,13.497638916015624,1.3645975589752197,-6.342347621917725,7.358574867248535
1700939055225619200,13.514619140625,1.3637818098068237,-6.343298435211182,7.357907295227051
1700939055242625500,13.53162548828125,1.3618206977844238,-6.3453049659729,7.356540679931641
1700939055259619000,13.548619140625,1.3593952655792236,-6.345754146575928,7.3565993309021
1700939055276610300,13.5656103515625,1.3589496612548828,-6.343745708465576,7.3584136962890625
1700939055293607400,13.582607421875,1.3591595888137817,-6.3394083976745605,7.362112045288086
1700939055310599000,13.599598876953126,1.357556939125061,-6.333359718322754,7.367611885070801
1700939055327576000,13.616576171875,1.3524329662322998,-6.327264308929443,7.373789310455322
1700939055344585500,13.63358544921875,1.3464401960372925,-6.322295188903809,7.37914514541626
1700939055361578800,13.650578857421875,1.3418916463851929,-6.3181471824646,7.383528232574463
1700939055378572000,13.667572021484375,1.3398118019104004,-6.313992023468018,7.387455463409424
1700939055395565300,13.6845654296875,1.338752269744873,-6.310129642486572,7.390946865081787
1700939055412558800,13.701558837890625,1.336568832397461,-6.307758808135986,7.39336633682251
1700939055429552000,13.71855224609375,1.3318145275115967,-6.307316303253174,7.394604206085205
1700939055446545700,13.735545654296875,1.3262146711349487,-6.308969974517822,7.394198417663574
1700939055463538700,13.75253857421875,1.3213666677474976,-6.312432289123535,7.3921098709106445
1700939055480531700,13.76953173828125,1.318654179573059,-6.317755222320557,7.388045787811279
1700939055497530400,13.7865302734375,1.3181443214416504,-6.323140621185303,7.383529186248779
1700939055514518500,13.8035185546875,1.317082405090332,-6.3266987800598145,7.38067102432251
1700939055531501300,13.820501220703125,1.311065673828125,-6.329459190368652,7.379374980926514
1700939055548505300,13.83750537109375,1.3030076026916504,-6.333570957183838,7.377272605895996
1700939055565498600,13.85449853515625,1.2996677160263062,-6.33961820602417,7.372669219970703
1700939055582502700,13.871502685546876,1.3016821146011353,-6.34702730178833,7.365934371948242
1700939055599485200,13.888485107421875,1.304770588874817,-6.3546528816223145,7.358809471130371
1700939055616478700,13.905478759765625,1.3063013553619385,-6.360289573669434,7.353667259216309
1700939055633472000,13.922471923828125,1.307084321975708,-6.361330032348633,7.352626800537109
1700939055650465300,13.93946533203125,1.3072164058685303,-6.358642578125,7.3549275398254395
1700939055667458600,13.95645849609375,1.3061060905456543,-6.354279518127441,7.358892917633057
1700939055684444400,13.9734443359375,1.3043354749679565,-6.350220203399658,7.36271333694458
1700939055701440500,13.9904404296875,1.3025503158569336,-6.34835958480835,7.364634037017822
1700939055718432800,14.007432861328125,1.301347017288208,-6.348641395568848,7.364603519439697
1700939055735432000,14.024431884765624,1.300820231437683,-6.3495917320251465,7.363874435424805
1700939055752425200,14.04142529296875,1.3003658056259155,-6.349154949188232,7.364334583282471
1700939055769418800,14.058418701171876,1.3001447916030884,-6.347875118255615,7.365474700927734
1700939055786401800,14.07540185546875,1.2996876239776611,-6.346053600311279,7.367127895355225
1700939055803405300,14.0924052734375,1.2991695404052734,-6.344241142272949,7.36877965927124
1700939055820398300,14.1093984375,1.2973065376281738,-6.343337535858154,7.369884014129639
1700939055837391600,14.1263916015625,1.2950338125228882,-6.342951774597168,7.370614528656006
1700939055854385200,14.14338525390625,1.2929913997650146,-6.343820095062256,7.3702263832092285
1700939055871378400,14.16037841796875,1.2926907539367676,-6.344113826751709,7.370025634765625
1700939055888371700,14.177371826171875,1.2931222915649414,-6.342136383056641,7.371653079986572
1700939055905365000,14.194364990234375,1.2922908067703247,-6.337952136993408,7.375397682189941
1700939055922358300,14.211358154296875,1.288730502128601,-6.332973957061768,7.380292892456055
1700939055939351600,14.2283515625,1.284574270248413,-6.329965114593506,7.383598804473877
1700939055956345000,14.245344970703124,1.2842713594436646,-6.328945159912109,7.384524822235107
1700939055973327600,14.26232763671875,1.28706693649292,-6.327856540679932,7.384970664978027
1700939055990331600,14.27933154296875,1.2898327112197876,-6.325595855712891,7.3864264488220215
1700939056007325200,14.2963251953125,1.290190577507019,-6.321590423583984,7.3897905349731445
1700939056024320000,14.313320068359374,1.285624384880066,-6.316920280456543,7.3945817947387695
1700939056041311500,14.3303115234375,1.2784966230392456,-6.313272476196289,7.398930072784424
1700939056058304800,14.3473046875,1.2738423347473145,-6.312758922576904,7.400170803070068
1700939056075295500,14.36429541015625,1.2725412845611572,-6.315734386444092,7.397853851318359
1700939056092291800,14.381291748046875,1.2714414596557617,-6.321163177490234,7.393406391143799
1700939056109287400,14.398287353515625,1.2692604064941406,-6.326848983764648,7.388915538787842
1700939056126276600,14.415276611328125,1.2665215730667114,-6.328512668609619,7.387962341308594
1700939056143260700,14.4322607421875,1.2625735998153687,-6.323540210723877,7.392892837524414
1700939056160265000,14.449264892578125,1.2563883066177368,-6.3138628005981445,7.402211666107178
1700939056177258200,14.46625830078125,1.250190258026123,-6.303069114685059,7.412453651428223
1700939056194251500,14.48325146484375,1.2460341453552246,-6.2946014404296875,7.420344352722168
1700939056211244500,14.50024462890625,1.2432204484939575,-6.287980556488037,7.426427364349365
1700939056228244200,14.517244140625,1.239073634147644,-6.279122352600098,7.434610366821289
1700939056245231400,14.5342314453125,1.233641505241394,-6.266976833343506,7.445753574371338
1700939056262224600,14.551224609375,1.2283830642700195,-6.253728866577148,7.4577531814575195
1700939056279218200,14.56821826171875,1.2220178842544556,-6.239892482757568,7.470377445220947
1700939056296209000,14.585208984375,1.2167916297912598,-6.225743770599365,7.483025550842285
1700939056313207000,14.60220703125,1.2142468690872192,-6.211584568023682,7.495195388793945
1700939056330198300,14.6191982421875,1.2138229608535767,-6.197537422180176,7.506882667541504
1700939056347191300,14.63619140625,1.2132529020309448,-6.182227611541748,7.519589424133301
1700939056364166400,14.65316650390625,1.2112232446670532,-6.165287971496582,7.533807754516602
1700939056381164000,14.6701640625,1.2098416090011597,-6.148736953735352,7.547543525695801
1700939056398175000,14.687175048828125,1.2110273838043213,-6.132775783538818,7.560329914093018
1700939056415164700,14.70416455078125,1.213338851928711,-6.1174635887146,7.572356224060059
1700939056432158200,14.721158203125,1.2157812118530273,-6.1027679443359375,7.583812236785889
1700939056449140500,14.738140380859376,1.2165296077728271,-6.088421821594238,7.595214366912842
1700939056466144500,14.75514453125,1.2148994207382202,-6.07249116897583,7.608219623565674
1700939056483138000,14.772137939453126,1.2102117538452148,-6.054187297821045,7.623537063598633
1700939056500131300,14.78913134765625,1.2037025690078735,-6.034032821655273,7.640529155731201
1700939056517124600,14.80612451171875,1.1958497762680054,-6.014050483703613,7.657496452331543
1700939056534118100,14.8231181640625,1.19001305103302,-5.9959516525268555,7.6725850105285645
1700939056551111400,14.840111328125,1.188673496246338,-5.980137825012207,7.685123443603516
1700939056568104700,14.857104736328125,1.1901224851608276,-5.967147350311279,7.694991111755371
1700939056585097000,14.874096923828125,1.1899172067642212,-5.957995891571045,7.702110767364502
1700939056602092000,14.891092041015625,1.1875251531600952,-5.9537672996521,7.705747127532959
1700939056619084300,14.908084228515625,1.1863778829574585,-5.953536033630371,7.706103324890137
1700939056636078000,14.925078125,1.1877081394195557,-5.955819129943848,7.704134464263916
1700939056653068800,14.94206884765625,1.191009521484375,-5.960546493530273,7.699968338012695
1700939056670067200,14.959067138671875,1.1952199935913086,-5.969367980957031,7.692478179931641
1700939056687055400,14.976055419921876,1.2006690502166748,-5.981170177459717,7.6824541091918945
1700939056704053500,14.993053466796875,1.2085165977478027,-5.994203090667725,7.67105770111084
1700939056721044500,15.01004443359375,1.2194942235946655,-6.007806301116943,7.658668041229248
1700939056738037800,15.027037841796876,1.2315669059753418,-6.022018909454346,7.64556360244751
1700939056755031000,15.044031005859376,1.2426385879516602,-6.037014007568359,7.63193416595459
1700939056772024600,15.061024658203126,1.2519679069519043,-6.052032947540283,7.618503093719482
1700939056789017600,15.078017578125,1.258992075920105,-6.066961288452148,7.6054606437683105
1700939056806011100,15.09501123046875,1.2646446228027344,-6.082912921905518,7.591768264770508
1700939056823004400,15.11200439453125,1.2706842422485352,-6.099766731262207,7.577223300933838
1700939056839998000,15.128998046875,1.2779446840286255,-6.116644382476807,7.56238317489624
1700939056856991000,15.145990966796875,1.284744381904602,-6.133307933807373,7.547719955444336
1700939056873984300,15.162984375,1.2917453050613403,-6.149974822998047,7.5329484939575195
1700939056890977800,15.179977783203125,1.2980778217315674,-6.165838241577148,7.5188798904418945
1700939056907971000,15.19697119140625,1.301430583000183,-6.179518222808838,7.507058620452881
1700939056924964400,15.21396435546875,1.3014897108078003,-6.190557479858398,7.497949123382568
1700939056941957400,15.230957275390624,1.3013417720794678,-6.199355602264404,7.490703582763672
1700939056958951200,15.247951171875,1.3016002178192139,-6.2070417404174805,7.484288215637207
1700939056975941600,15.264941650390625,1.3039286136627197,-6.213465690612793,7.478551864624023
1700939056992936000,15.28193603515625,1.307619333267212,-6.216883182525635,7.475066661834717
1700939057009916700,15.298916748046874,1.3120988607406616,-6.2174391746521,7.473818302154541
1700939057026924300,15.31592431640625,1.3132314682006836,-6.215888023376465,7.474908828735352
1700939057043917600,15.33291748046875,1.3124011754989624,-6.213625431060791,7.476937294006348
1700939057060911000,15.3499111328125,1.3129122257232666,-6.212284564971924,7.477960586547852
1700939057077901800,15.36690185546875,1.3151025772094727,-6.213201522827148,7.476813793182373
1700939057094900500,15.383900390625,1.3177028894424438,-6.215939998626709,7.474080562591553
1700939057111891000,15.400890869140625,1.322081208229065,-6.219212055206299,7.470581531524658
1700939057128884200,15.41788427734375,1.3276729583740234,-6.22067403793335,7.468374252319336
1700939057145877200,15.434877197265624,1.3326834440231323,-6.219326972961426,7.468603134155273
1700939057162868200,15.4518681640625,1.336349606513977,-6.215756416320801,7.470921039581299
1700939057179867000,15.468866943359375,1.3378932476043701,-6.211336135864258,7.474320888519287
1700939057196857300,15.485857421875,1.3394064903259277,-6.2080464363098145,7.476782321929932
1700939057213851100,15.50285107421875,1.3400111198425293,-6.205531597137451,7.478762149810791
1700939057230844400,15.519844482421876,1.3405801057815552,-6.204970359802246,7.479125499725342
1700939057247835000,15.5368349609375,1.340309977531433,-6.207224369049072,7.477303504943848
1700939057264833300,15.553833251953124,1.3391731977462769,-6.210317611694336,7.474936485290527
1700939057281813500,15.5708134765625,1.3366998434066772,-6.21190071105957,7.47406530380249
1700939057298817800,15.58781787109375,1.3335002660751343,-6.212003707885742,7.474549770355225
1700939057315811000,15.60481103515625,1.3333710432052612,-6.212337017059326,7.474296569824219
1700939057332804000,15.62180419921875,1.3347796201705933,-6.2115302085876465,7.474716663360596
1700939057349795000,15.638795166015624,1.335646152496338,-6.209185600280762,7.476508617401123
1700939057366793500,15.65579345703125,1.3352456092834473,-6.207204341888428,7.478225231170654
1700939057383784000,15.672783935546875,1.3336645364761353,-6.206027984619141,7.479483127593994
1700939057400774700,15.689774658203126,1.3335084915161133,-6.203925132751465,7.481256484985352
1700939057417773300,15.706773193359375,1.3370589017868042,-6.200753688812256,7.483251571655273
1700939057434764000,15.723763916015624,1.3422938585281372,-6.196178913116455,7.486103534698486
1700939057451757300,15.74075732421875,1.3449620008468628,-6.190807819366455,7.490066051483154
1700939057468752100,15.757752197265624,1.3420518636703491,-6.185665130615234,7.49483585357666
1700939057485742600,15.77474267578125,1.3360549211502075,-6.181942462921143,7.498976707458496
1700939057502734800,15.79173486328125,1.3306199312210083,-6.178821086883545,7.50251579284668
1700939057519733200,15.808733154296876,1.3264684677124023,-6.174911975860596,7.5064697265625
1700939057536724000,15.825723876953125,1.3251913785934448,-6.169712543487549,7.510966777801514
1700939057553717500,15.842717529296875,1.3266953229904175,-6.16408634185791,7.515317916870117
1700939057570710800,15.859710693359375,1.328240156173706,-6.159366130828857,7.518916606903076
1700939057587703800,15.876703857421875,1.3269203901290894,-6.1567063331604,7.521327972412109
1700939057604697600,15.893697509765625,1.3245750665664673,-6.1564106941223145,7.521983623504639
1700939057621686800,15.910686767578126,1.3214491605758667,-6.155406475067139,7.52335262298584
1700939057638687700,15.927687744140625,1.3178800344467163,-6.151075839996338,7.527520179748535
1700939057655677200,15.94467724609375,1.3149791955947876,-6.144167900085449,7.53366756439209
1700939057672670700,15.961670654296874,1.3118170499801636,-6.136700630187988,7.540304183959961
1700939057689664000,15.9786640625,1.308355450630188,-6.130486488342285,7.545956611633301
1700939057706657500,15.995657470703126,1.3049213886260986,-6.12625789642334,7.549985408782959
1700939057723650800,16.01265087890625,1.3025321960449219,-6.124980926513672,7.551433086395264
1700939057740635600,16.0296357421875,1.2998682260513306,-6.125277519226074,7.551652431488037
1700939057757639400,16.046639404296876,1.2969452142715454,-6.126364707946777,7.551270484924316
1700939057774630700,16.063630615234374,1.294071912765503,-6.128201961517334,7.550273895263672
1700939057791624000,16.0806240234375,1.2919703722000122,-6.129900932312012,7.549254894256592
1700939057808617500,16.097617431640625,1.288089632987976,-6.1317830085754395,7.5483903884887695
1700939057825618700,16.11461865234375,1.2824751138687134,-6.135324478149414,7.546467304229736
1700939057842603800,16.131603759765625,1.2782697677612305,-6.141433238983154,7.542211055755615
1700939057859597300,16.148597412109375,1.2757654190063477,-6.148548603057861,7.536835670471191
1700939057876590800,16.1655908203125,1.2735844850540161,-6.156187057495117,7.530966281890869
1700939057893579500,16.18257958984375,1.270705223083496,-6.163917541503906,7.52512788772583
1700939057910581500,16.19958154296875,1.2674881219863892,-6.171533107757568,7.519427299499512
1700939057927560000,16.216559814453124,1.2636734247207642,-6.178600311279297,7.514261245727539
1700939057944560000,16.23356005859375,1.2598826885223389,-6.184805870056152,7.509793758392334
1700939057961557500,16.2505576171875,1.2559655904769897,-6.19066047668457,7.505624294281006
1700939057978550800,16.26755078125,1.2532185316085815,-6.196547508239746,7.501224517822266
1700939057995544000,16.2845439453125,1.2517269849777222,-6.202688694000244,7.496397495269775
1700939058012537600,16.30153759765625,1.2515316009521484,-6.207746982574463,7.4922404289245605
1700939058029531000,16.31853076171875,1.2529484033584595,-6.211202144622803,7.489140033721924
1700939058046524200,16.335524169921875,1.253846526145935,-6.212759494781494,7.487696647644043
1700939058063517200,16.35251708984375,1.253705620765686,-6.213569641113281,7.487048149108887
1700939058080510500,16.369510498046875,1.2550837993621826,-6.215747356414795,7.485008239746094
1700939058097503700,16.386503662109376,1.2583121061325073,-6.220347881317139,7.480645179748535
1700939058114494700,16.40349462890625,1.2608188390731812,-6.226840019226074,7.474818229675293
1700939058131493000,16.4204931640625,1.2620835304260254,-6.2331695556640625,7.4693284034729
1700939058148472300,16.437472412109376,1.2651375532150269,-6.237836837768555,7.4649128913879395
1700939058165477000,16.45447705078125,1.2704638242721558,-6.239125728607178,7.462932586669922
1700939058182470400,16.471470458984374,1.2743089199066162,-6.236254692077637,7.464674949645996
1700939058199464000,16.4884638671875,1.2748900651931763,-6.230473041534424,7.46940279006958
1700939058216457200,16.505457275390626,1.2736773490905762,-6.224350929260254,7.474710464477539
1700939058233450500,16.522450439453124,1.2710590362548828,-6.219845294952393,7.478907108306885
1700939058250441500,16.53944140625,1.2688475847244263,-6.217332363128662,7.4813714027404785
1700939058267439600,16.556439697265624,1.2669028043746948,-6.215396881103516,7.4833083152771
1700939058284422000,16.573421875,1.264579176902771,-6.213376045227051,7.485380172729492
1700939058301410000,16.59041015625,1.2597236633300781,-6.212111473083496,7.487247467041016
1700939058318406700,16.60740673828125,1.2534191608428955,-6.210551738739014,7.489599227905273
1700939058335410400,16.624410400390627,1.2484050989151,-6.208790302276611,7.491898536682129
1700939058352403700,16.64140380859375,1.246240496635437,-6.207369327545166,7.493434429168701
1700939058369397500,16.6583974609375,1.2452903985977173,-6.206456184387207,7.494349956512451
1700939058386390800,16.675390869140625,1.242477297782898,-6.205216884613037,7.495841979980469
1700939058403384000,16.692384033203126,1.237950325012207,-6.202640056610107,7.49872350692749
1700939058420377000,16.709377197265624,1.2344993352890015,-6.198896884918213,7.502387523651123
1700939058437367800,16.726367919921874,1.2338274717330933,-6.19502592086792,7.505694389343262
1700939058454366700,16.74336669921875,1.2349741458892822,-6.192633152008057,7.507480621337891
1700939058471357200,16.760357177734374,1.2382999658584595,-6.19338846206665,7.506308555603027
1700939058488350500,16.7773505859375,1.2438232898712158,-6.196554183959961,7.502782344818115
1700939058505343700,16.79434375,1.248684048652649,-6.200812339782715,7.498456954956055
1700939058522337300,16.811337158203123,1.252947211265564,-6.205103397369385,7.494192600250244
1700939058539330600,16.82833056640625,1.2587693929672241,-6.208251476287842,7.490610599517822
1700939058556321000,16.845321044921874,1.2651907205581665,-6.20913553237915,7.488795280456543
1700939058573319700,16.862319580078125,1.2705930471420288,-6.20928955078125,7.487751007080078
1700939058590302500,16.879302490234377,1.275547981262207,-6.210705757141113,7.4857354164123535
1700939058607306500,16.896306396484373,1.2819401025772095,-6.213798999786377,7.482074737548828
1700939058624300300,16.91330029296875,1.2884796857833862,-6.21916389465332,7.4764933586120605
1700939058641287400,16.930287353515624,1.2931702136993408,-6.227409362792969,7.46881628036499
1700939058658283800,16.94728369140625,1.2956799268722534,-6.2372727394104,7.460144519805908
1700939058675277300,16.96427734375,1.2968300580978394,-6.2455854415893555,7.452986717224121
1700939058692270300,16.981270263671874,1.2962161302566528,-6.250040531158447,7.449357509613037
1700939058709253400,16.99825341796875,1.2948238849639893,-6.25126314163208,7.448575019836426
1700939058726257200,17.015257080078126,1.292427659034729,-6.250852108001709,7.449336051940918
1700939058743249700,17.032249755859375,1.2898671627044678,-6.25034236907959,7.450206756591797
1700939058760244700,17.04924462890625,1.2885205745697021,-6.250326633453369,7.45045280456543
1700939058777237200,17.0662373046875,1.2870283126831055,-6.2500505447387695,7.4509429931640625
1700939058794230500,17.08323046875,1.28575599193573,-6.248515605926514,7.452449798583984
1700939058811223800,17.100223876953127,1.2855619192123413,-6.245452404022217,7.455049514770508
1700939058828217000,17.117217041015625,1.2857378721237183,-6.242336750030518,7.457629203796387
1700939058845210400,17.13421044921875,1.2854256629943848,-6.240151882171631,7.459510803222656
1700939058862204000,17.151203857421876,1.285568356513977,-6.239374160766602,7.460136890411377
1700939058879197200,17.168197265625,1.2853296995162964,-6.23878812789917,7.460667610168457
1700939058896190700,17.185190673828124,1.28313410282135,-6.2373528480529785,7.462244987487793
1700939058913173500,17.202173583984376,1.279921054840088,-6.235565185546875,7.464291572570801
1700939058930177300,17.21917724609375,1.2768611907958984,-6.234117031097412,7.466024875640869
1700939058947170300,17.23617041015625,1.2751444578170776,-6.232404708862305,7.467748165130615
1700939058964164000,17.2531640625,1.273283839225769,-6.231324672698975,7.468966484069824
1700939058981157400,17.270157470703126,1.269966721534729,-6.231779098510742,7.469151496887207
1700939058998150700,17.287150634765624,1.26617431640625,-6.234032154083252,7.467916011810303
1700939059015144000,17.30414404296875,1.263880968093872,-6.2373948097229,7.465495586395264
1700939059032137200,17.32113720703125,1.2628560066223145,-6.2410173416137695,7.462640285491943
1700939059049130800,17.338130859375,1.262319803237915,-6.243438243865967,7.4607062339782715
1700939059066124000,17.3551240234375,1.2621279954910278,-6.243891716003418,7.460360050201416
1700939059083117000,17.372116943359377,1.2627074718475342,-6.242965221405029,7.461037635803223
1700939059100117500,17.389117431640624,1.2641212940216064,-6.240945339202881,7.46248722076416
1700939059117101600,17.4061015625,1.265622854232788,-6.239710330963135,7.463265419006348
1700939059134099700,17.423099609375,1.2690013647079468,-6.240562915802002,7.461978912353516
1700939059151103700,17.440103759765623,1.2749824523925781,-6.243217468261719,7.458738803863525
1700939059168084000,17.457083984375,1.280802845954895,-6.246341228485107,7.455125331878662
1700939059185077000,17.474076904296876,1.2840614318847656,-6.249422073364258,7.451982021331787
1700939059202070300,17.4910703125,1.2863407135009766,-6.251042366027832,7.450229167938232
1700939059219062300,17.508062255859375,1.2879908084869385,-6.248714447021484,7.451896667480469
1700939059236057300,17.525057373046874,1.2891854047775269,-6.242129325866699,7.4572062492370605
1700939059253050600,17.542050537109375,1.2897858619689941,-6.233399868011475,7.4644012451171875
1700939059270044000,17.5590439453125,1.2907425165176392,-6.2261176109313965,7.470311164855957
1700939059287037400,17.576037353515623,1.2926603555679321,-6.221511363983154,7.473818302154541
1700939059304030700,17.59303076171875,1.293798804283142,-6.218081474304199,7.476474285125732
1700939059321023700,17.610023681640627,1.2917108535766602,-6.215288162231445,7.479156970977783
1700939059338017000,17.62701708984375,1.287828803062439,-6.2122979164123535,7.4823102951049805
1700939059355010600,17.644010498046875,1.2840287685394287,-6.208865642547607,7.485811233520508
1700939059371991000,17.660990966796874,1.2804415225982666,-6.20545768737793,7.489252090454102
1700939059388980700,17.677980712890626,1.2773629426956177,-6.203733921051025,7.491204738616943
1700939059405990700,17.69499072265625,1.2738556861877441,-6.204316139221191,7.491321086883545
1700939059422981400,17.7119814453125,1.2697720527648926,-6.205155372619629,7.491316795349121
1700939059439979500,17.7289794921875,1.2661771774291992,-6.205402851104736,7.491720676422119
1700939059456969700,17.7459697265625,1.2633044719696045,-6.206327438354492,7.491440296173096
1700939059473964000,17.762964111328124,1.2614532709121704,-6.206129550933838,7.491915702819824
1700939059490957300,17.779957275390625,1.2609702348709106,-6.204187870025635,7.493605136871338
1700939059507950600,17.79695068359375,1.2613170146942139,-6.201706886291504,7.495599746704102
1700939059524941300,17.81394140625,1.2609187364578247,-6.200802326202393,7.49641752243042
1700939059541939700,17.830939697265624,1.260632872581482,-6.2006144523620605,7.49661922454834
1700939059558930700,17.8479306640625,1.262589931488037,-6.200514793395996,7.496372699737549
1700939059575919600,17.864919677734374,1.2663198709487915,-6.20088529586792,7.495437145233154
1700939059592921600,17.881921630859374,1.2695913314819336,-6.2007832527160645,7.494968414306641
1700939059609910800,17.898910888671875,1.271909236907959,-6.198997497558594,7.496052265167236
1700939059626904600,17.915904541015625,1.273117184638977,-6.19631290435791,7.498064994812012
1700939059643896600,17.932896484375,1.2724273204803467,-6.193673610687256,7.500363349914551
1700939059660890600,17.949890625,1.269971489906311,-6.192422866821289,7.501812934875488
1700939059677884000,17.9668837890625,1.2697076797485352,-6.193224906921387,7.501194953918457
1700939059694877400,17.98387744140625,1.2716320753097534,-6.197943687438965,7.496969223022461
1700939059711870500,18.000870361328126,1.2724997997283936,-6.206477642059326,7.48975944519043
1700939059728864000,18.017864013671876,1.2719805240631104,-6.215120315551758,7.4826765060424805
1700939059745857000,18.03485693359375,1.270768404006958,-6.219407558441162,7.479320526123047
1700939059762850800,18.051850830078124,1.269658088684082,-6.219259738922119,7.4796319007873535
1700939059779841500,18.068841552734376,1.2696703672409058,-6.2156524658203125,7.482627868652344
1700939059796839700,18.085839599609375,1.270656704902649,-6.211268901824951,7.4860992431640625
1700939059813830700,18.10283056640625,1.2737873792648315,-6.207329750061035,7.48883581161499
1700939059830824200,18.11982421875,1.2784072160720825,-6.2056050300598145,7.489477157592773
1700939059847817200,18.136817138671876,1.2808654308319092,-6.204975605010986,7.489579200744629
1700939059864810500,18.153810546875,1.280342698097229,-6.203603267669678,7.490804672241211
1700939059881804000,18.170803955078124,1.278945803642273,-6.2025980949401855,7.491875171661377
1700939059898797300,18.18779736328125,1.2776920795440674,-6.20255184173584,7.49212646484375
1700939059915790300,18.204790283203124,1.2774372100830078,-6.202442646026611,7.492260456085205
1700939059932784000,18.2217841796875,1.2790263891220093,-6.202242374420166,7.492156505584717
1700939059949777400,18.23877734375,1.2811402082443237,-6.202123641967773,7.491892337799072
1700939059966770700,18.255770751953126,1.2821611166000366,-6.201440811157227,7.492283344268799
1700939059983748400,18.272748291015624,1.2812577486038208,-6.2001953125,7.493468761444092
1700939060000757500,18.289757568359374,1.2793784141540527,-6.199213027954102,7.494602203369141
1700939060017750500,18.30675048828125,1.2767301797866821,-6.198425769805908,7.495705604553223
1700939060034747100,18.3237470703125,1.274697184562683,-6.196937084197998,7.497281551361084
1700939060051719000,18.340718994140627,1.2739685773849487,-6.195424556732178,7.498655796051025
1700939060068730600,18.357730712890625,1.2747591733932495,-6.1941633224487305,7.499562740325928
1700939060085724000,18.374723876953126,1.2752573490142822,-6.193306922912598,7.500186443328857
1700939060102717700,18.3917177734375,1.2748374938964844,-6.191994667053223,7.501340866088867
1700939060119710700,18.408710693359374,1.272892713546753,-6.189321517944336,7.503876686096191
1700939060136704000,18.4257041015625,1.2707345485687256,-6.185887336730957,7.507073879241943
1700939060153683000,18.442682861328127,1.270193099975586,-6.1823296546936035,7.510095119476318
1700939060170690800,18.45969091796875,1.2698732614517212,-6.177911758422852,7.5137834548950195
1700939060187684000,18.47668408203125,1.2678377628326416,-6.1735920906066895,7.517676830291748
1700939060204677600,18.493677734375,1.264346957206726,-6.1714186668396,7.520049571990967
1700939060221671000,18.5106708984375,1.2618671655654907,-6.171832084655762,7.520126819610596
1700939060238664000,18.527663818359375,1.261214017868042,-6.17476749420166,7.517826080322266
1700939060255657500,18.544657470703125,1.2608766555786133,-6.178938388824463,7.514455318450928
1700939060272650500,18.561650390625,1.2607462406158447,-6.183155059814453,7.511007308959961
1700939060289644000,18.57864404296875,1.2610976696014404,-6.184958457946777,7.509462356567383
1700939060306635500,18.595635498046875,1.261857271194458,-6.182638168334961,7.511245250701904
1700939060323632600,18.612632568359373,1.2631477117538452,-6.178385257720947,7.514527320861816
1700939060340624100,18.6296240234375,1.2651410102844238,-6.173964023590088,7.517825603485107
1700939060357617400,18.646617431640625,1.2688984870910645,-6.170729637145996,7.519848823547363
1700939060374610700,18.663610595703126,1.2725424766540527,-6.1689372062683105,7.520703315734863
1700939060391604000,18.68060400390625,1.2740440368652344,-6.168228626251221,7.521029472351074
1700939060408597500,18.697597412109374,1.2731634378433228,-6.168344497680664,7.521084308624268
1700939060425575000,18.714574951171876,1.272196888923645,-6.168197154998779,7.521368503570557
1700939060442584000,18.731583984375,1.2720342874526978,-6.166669845581055,7.522647380828857
1700939060459569200,18.748569091796874,1.272141933441162,-6.165057182312012,7.523951053619385
1700939060476568600,18.765568603515625,1.2700397968292236,-6.164103031158447,7.525087833404541
1700939060493564000,18.78256396484375,1.2678898572921753,-6.164589881896973,7.525051593780518
1700939060510557400,18.799557373046873,1.2662736177444458,-6.166474342346191,7.52377986907959
1700939060527540200,18.816540283203125,1.2644908428192139,-6.169897079467773,7.521273136138916
1700939060544544300,18.833544189453125,1.2614532709121704,-6.17396879196167,7.518442153930664
1700939060561537500,18.85053759765625,1.25770103931427,-6.175920486450195,7.517467975616455
1700939060578527700,18.86752783203125,1.2554200887680054,-6.175339221954346,7.5183258056640625
1700939060595527000,18.88452685546875,1.2546218633651733,-6.173373699188232,7.520073890686035
1700939060612517600,18.901517578125,1.254538893699646,-6.1716790199279785,7.521477699279785
1700939060629511000,18.918510986328126,1.2532823085784912,-6.170798301696777,7.522409439086914
1700939060646504000,18.93550390625,1.2515661716461182,-6.1714558601379395,7.522156238555908
1700939060663497500,18.95249755859375,1.2502282857894897,-6.1731181144714355,7.52101469039917
1700939060680486700,18.969486572265627,1.2499932050704956,-6.1738739013671875,7.520432949066162
1700939060697484300,18.986484375,1.251156210899353,-6.1724162101745605,7.521437644958496
1700939060714477300,19.003477294921876,1.2531402111053467,-6.168823719024658,7.524052619934082
1700939060731470800,19.020470947265625,1.253064751625061,-6.16398811340332,7.52802848815918
1700939060748458000,19.0374580078125,1.2499756813049316,-6.159846782684326,7.531929969787598
1700939060765457400,19.05445751953125,1.2478396892547607,-6.15822172164917,7.533613204956055
1700939060782450700,19.07145068359375,1.2486612796783447,-6.1603922843933105,7.53170108795166
1700939060799442000,19.08844189453125,1.2500563859939575,-6.165807723999023,7.527038097381592
1700939060816439800,19.105439697265624,1.2490787506103516,-6.172555446624756,7.521667957305908
1700939060833431000,19.12243115234375,1.2456241846084595,-6.178029537200928,7.517745494842529
1700939060850421800,19.139421875,1.241986632347107,-6.180333137512207,7.516453742980957
1700939060867420400,19.15642041015625,1.238587737083435,-6.17971658706665,7.517520427703857
1700939060884411000,19.173410888671874,1.2377053499221802,-6.178145885467529,7.518957138061523
1700939060901404200,19.190404052734376,1.239499807357788,-6.178188323974609,7.518626689910889
1700939060918387000,19.207386962890624,1.243038535118103,-6.181036949157715,7.515700340270996
1700939060935383800,19.2243837890625,1.2474602460861206,-6.185643196105957,7.511176109313965
1700939060952387000,19.241386962890626,1.2510253190994263,-6.189423084259033,7.507469654083252
1700939060969377800,19.258377685546876,1.2536804676055908,-6.191150665283203,7.505600452423096
1700939060986371300,19.275371337890626,1.2563802003860474,-6.1913838386535645,7.504958152770996
1700939061003364400,19.2923642578125,1.2589582204818726,-6.190324783325195,7.505398750305176
1700939061020358000,19.30935791015625,1.261073112487793,-6.188259601593018,7.506747722625732
1700939061037351200,19.32635107421875,1.2632688283920288,-6.1856913566589355,7.508494853973389
1700939061054344200,19.34334423828125,1.266136884689331,-6.183683395385742,7.509665489196777
1700939061071337700,19.360337646484375,1.2704280614852905,-6.182546615600586,7.5098772048950195
1700939061088331300,19.377331298828125,1.2724599838256836,-6.1812920570373535,7.510565757751465
1700939061105324300,19.39432421875,1.2709507942199707,-6.179732799530029,7.512103080749512
1700939061122318000,19.411318115234376,1.2662309408187866,-6.17861270904541,7.513822078704834
1700939061139311000,19.42831103515625,1.2613486051559448,-6.178343772888184,7.514863967895508
1700939061156304600,19.4453046875,1.2576559782028198,-6.1793670654296875,7.514640808105469
1700939061173298000,19.4622978515625,1.2541003227233887,-6.182059288024902,7.513020992279053
1700939061190291200,19.479291259765624,1.2503470182418823,-6.18684196472168,7.509708404541016
1700939061207284500,19.496284423828126,1.2461808919906616,-6.192286968231201,7.505913734436035
1700939061224275200,19.513275146484375,1.241600751876831,-6.196990013122559,7.502791404724121
1700939061241273600,19.530273681640626,1.2365902662277222,-6.200100421905518,7.5010480880737305
1700939061258264600,19.5472646484375,1.2318826913833618,-6.2021989822387695,7.500088214874268
1700939061275257900,19.5642578125,1.228493094444275,-6.203897953033447,7.499238014221191
1700939061292251100,19.581251220703123,1.225785255432129,-6.205352783203125,7.498478889465332
1700939061309244400,19.598244384765625,1.22318434715271,-6.207032680511475,7.497511863708496
1700939061326238000,19.615238037109375,1.2207080125808716,-6.20792818069458,7.497173309326172
1700939061343231000,19.63223095703125,1.2183984518051147,-6.207496643066406,7.4979071617126465
1700939061360206300,19.649206298828126,1.2176440954208374,-6.2065863609313965,7.498783111572266
1700939061377218000,19.666218017578124,1.2195912599563599,-6.2054643630981445,7.499395370483398
1700939061394211600,19.683211669921874,1.2222628593444824,-6.205533981323242,7.4989013671875
1700939061411204400,19.700204345703124,1.2238672971725464,-6.2072577476501465,7.497213840484619
1700939061428198000,19.717197998046874,1.2242859601974487,-6.21035099029541,7.494583606719971
1700939061445183000,19.734182861328126,1.2236515283584595,-6.212615489959717,7.492808818817139
1700939061462184700,19.751184814453126,1.2231996059417725,-6.2124786376953125,7.492997646331787
1700939061479178000,19.768177978515624,1.2242485284805298,-6.208995819091797,7.4957122802734375
1700939061496171300,19.785171142578125,1.227042317390442,-6.203356742858887,7.4999237060546875
1700939061513164800,19.802164794921875,1.2293695211410522,-6.1969170570373535,7.5048651695251465
1700939061530145000,19.81914501953125,1.2315932512283325,-6.192112922668457,7.5084638595581055
1700939061547154200,19.836154296875,1.2326737642288208,-6.18998908996582,7.510037899017334
1700939061564144600,19.85314453125,1.23237144947052,-6.190237522125244,7.509881496429443
1700939061581138200,19.87013818359375,1.2301641702651978,-6.192436695098877,7.5084309577941895
1700939061598131500,19.88713134765625,1.227493166923523,-6.195687770843506,7.506185531616211
1700939061615124700,19.904124755859375,1.225743055343628,-6.1992902755737305,7.503497123718262
1700939061632118300,19.9211181640625,1.224432110786438,-6.202565670013428,7.501003742218018
1700939061649111600,19.938111572265626,1.2213681936264038,-6.204977989196777,7.499507427215576
1700939061666104800,19.955104736328124,1.216287612915039,-6.20723295211792,7.498467445373535
1700939061683097900,19.972097900390626,1.2116881608963013,-6.210328102111816,7.496650218963623
1700939061700091400,19.98909130859375,1.2091124057769775,-6.213359832763672,7.49455451965332
1700939061717085000,20.0060849609375,1.2084113359451294,-6.215455055236816,7.492928981781006
1700939061734078200,20.023078125,1.2082523107528687,-6.216310501098633,7.492244720458984
1700939061751069000,20.04006884765625,1.2073326110839844,-6.216625690460205,7.492131233215332
1700939061768067600,20.057067626953124,1.206098198890686,-6.216358661651611,7.492551326751709
1700939061785058000,20.07405810546875,1.2053240537643433,-6.215276718139648,7.493574619293213
1700939061802051300,20.09105126953125,1.2047288417816162,-6.213703632354736,7.494974613189697
1700939061819044900,20.108044921875,1.204244613647461,-6.210667133331299,7.497568130493164
1700939061836038400,20.125038330078127,1.203790307044983,-6.206675052642822,7.500945568084717
1700939061853031700,20.14203173828125,1.2024238109588623,-6.2032790184021,7.503973484039307
1700939061870025200,20.159025146484375,1.2000130414962769,-6.201940536499023,7.505465507507324
1700939061887018000,20.17601806640625,1.196824550628662,-6.2026214599609375,7.505411624908447
1700939061904011800,20.19301171875,1.1927285194396973,-6.204663276672363,7.50437593460083
1700939061921005000,20.210005126953124,1.18718421459198,-6.205976963043213,7.504168510437012
1700939061937998300,20.226998291015626,1.1805294752120972,-6.20552396774292,7.5055928230285645
1700939061954991400,20.243991455078124,1.173056721687317,-6.2037434577941895,7.508235931396484
1700939061971985000,20.26098486328125,1.1655412912368774,-6.202554702758789,7.5103888511657715
1700939061988977000,20.277976806640623,1.1599770784378052,-6.20414924621582,7.509932994842529
1700939062005971700,20.2949716796875,1.1542152166366577,-6.208817005157471,7.506962776184082
1700939062022965000,20.311965087890623,1.1453924179077148,-6.215805530548096,7.502531051635742
1700939062039958500,20.32895849609375,1.1357860565185547,-6.222723484039307,7.498254299163818
1700939062056949200,20.34594921875,1.1288295984268188,-6.226762294769287,7.495952606201172
1700939062073945000,20.362945068359377,1.122422218322754,-6.225584506988525,7.497892379760742
1700939062090950100,20.3799501953125,1.1147629022598267,-6.219707012176514,7.503909111022949
1700939062107931600,20.396931640625,1.1064107418060303,-6.21272611618042,7.51092529296875
1700939062124925000,20.413925048828126,1.1000624895095825,-6.206263065338135,7.5171990394592285
1700939062141918700,20.430918701171876,1.0969102382659912,-6.201106548309326,7.521914005279541
1700939062158912000,20.447912109375,1.0942386388778687,-6.197455406188965,7.525311470031738
1700939062175904800,20.46490478515625,1.0905823707580566,-6.194736957550049,7.528079509735107
1700939062192898800,20.48189892578125,1.0862858295440674,-6.192200660705566,7.530786514282227
1700939062209891800,20.498891845703124,1.0832535028457642,-6.189792156219482,7.533202648162842
1700939062226892300,20.515892333984375,1.0828312635421753,-6.18700647354126,7.535553455352783
1700939062243878700,20.532878662109376,1.0825214385986328,-6.182371139526367,7.539399147033691
1700939062260871700,20.54987158203125,1.0802550315856934,-6.17621374130249,7.5447678565979
1700939062277865200,20.566865234375,1.0758099555969238,-6.170058727264404,7.550439834594727
1700939062294858800,20.583858642578125,1.0697942972183228,-6.164471626281738,7.555854320526123
1700939062311852000,20.60085205078125,1.0627162456512451,-6.160315036773682,7.560243606567383
1700939062328845300,20.61784521484375,1.0549898147583008,-6.1571760177612305,7.56387996673584
1700939062345838600,20.634838623046875,1.0499564409255981,-6.154468536376953,7.56678581237793
1700939062362832000,20.651831787109376,1.0485343933105469,-6.150773048400879,7.569985866546631
1700939062379825400,20.668825439453126,1.0504616498947144,-6.145915508270264,7.57366418838501
1700939062396818400,20.685818359375,1.0524293184280396,-6.1415228843688965,7.576953411102295
1700939062413812200,20.702812255859374,1.0530643463134766,-6.137345790863037,7.58024787902832
1700939062430805500,20.719805419921876,1.0524368286132812,-6.133779048919678,7.583221435546875
1700939062447798500,20.736798583984374,1.050361156463623,-6.132842063903809,7.584268093109131
1700939062464792000,20.7537919921875,1.0493980646133423,-6.135708332061768,7.582080364227295
1700939062481774600,20.770774658203123,1.0507534742355347,-6.1408257484436035,7.577749729156494
1700939062498779000,20.78777880859375,1.0531946420669556,-6.146022319793701,7.573196887969971
1700939062515772200,20.804772216796874,1.0536267757415771,-6.151893138885498,7.568368911743164
1700939062532765700,20.821765625,1.0509048700332642,-6.15803861618042,7.563747882843018
1700939062549748200,20.838748291015627,1.0492706298828125,-6.164840221405029,7.5584330558776855
1700939062566752300,20.855752197265623,1.0501325130462646,-6.173236846923828,7.551455020904541
1700939062583745300,20.872745361328125,1.049456000328064,-6.18374490737915,7.542947292327881
1700939062600739000,20.889739013671875,1.0450729131698608,-6.195682048797607,7.533754825592041
1700939062617721600,20.9067216796875,1.0402238368988037,-6.206593036651611,7.525439739227295
1700939062634731000,20.92373095703125,1.0372235774993896,-6.215445041656494,7.518545627593994
1700939062651719200,20.94071923828125,1.0359289646148682,-6.221142292022705,7.514010429382324
1700939062668712200,20.957712158203126,1.036488652229309,-6.2236714363098145,7.511838912963867
1700939062685705500,20.97470556640625,1.0359559059143066,-6.224483966827393,7.511238098144531
1700939062702699300,20.99169921875,1.0344291925430298,-6.225643634796143,7.510488033294678
1700939062719690000,21.00868994140625,1.033674955368042,-6.22728157043457,7.5092339515686035
1700939062736688000,21.025688232421874,1.033353328704834,-6.229211807250977,7.50767707824707
1700939062753679000,21.04267919921875,1.0320727825164795,-6.231181621551514,7.506217956542969
1700939062770673200,21.059673095703126,1.0302724838256836,-6.233108997344971,7.504864692687988
1700939062787665000,21.076664794921875,1.0296000242233276,-6.233931541442871,7.504275321960449
1700939062804658700,21.09365869140625,1.0308870077133179,-6.232941627502441,7.504920959472656
1700939062821653000,21.110653076171875,1.0326569080352783,-6.230711936950684,7.506528377532959
1700939062838645800,21.127645751953125,1.0353788137435913,-6.228318691253662,7.508139610290527
1700939062855637000,21.144636962890626,1.0389561653137207,-6.226592063903809,7.509076118469238
1700939062872633000,21.161633056640625,1.0424240827560425,-6.225564479827881,7.509449005126953
1700939062889625900,21.1786259765625,1.0444244146347046,-6.224090099334717,7.510392189025879
1700939062906619400,21.195619384765624,1.0457488298416138,-6.223387241363525,7.51078987121582
1700939062923610000,21.212610107421874,1.0491735935211182,-6.224319934844971,7.509539604187012
1700939062940608500,21.2296083984375,1.0539367198944092,-6.225794315338135,7.507649898529053
1700939062957599500,21.246599609375,1.0585793256759644,-6.226767539978027,7.506190299987793
1700939062974592500,21.263592529296876,1.0612035989761353,-6.228394031524658,7.5044708251953125
1700939062991585800,21.280585693359374,1.0628138780593872,-6.231298923492432,7.501829624176025
1700939063008579300,21.297579345703124,1.0634050369262695,-6.234084606170654,7.499431133270264
1700939063025575200,21.3145751953125,1.0634770393371582,-6.236345291137695,7.497542858123779
1700939063042566000,21.33156591796875,1.0623239278793335,-6.238476276397705,7.495932102203369
1700939063059559400,21.348559326171873,1.0619421005249023,-6.24098539352417,7.493896961212158
1700939063076552700,21.365552734375,1.0630863904953003,-6.242400169372559,7.492556571960449
1700939063093546200,21.382546142578125,1.0637413263320923,-6.242251873016357,7.492588520050049
1700939063110539500,21.39953955078125,1.0647090673446655,-6.240948677062988,7.493535995483398
1700939063127539200,21.416539306640626,1.0676934719085693,-6.23936653137207,7.494426727294922
1700939063144526000,21.433526123046875,1.0704585313796997,-6.238970756530762,7.4943623542785645
1700939063161519600,21.45051953125,1.0699609518051147,-6.240288734436035,7.493338108062744
1700939063178512600,21.4675126953125,1.0666216611862183,-6.242735385894775,7.491775035858154
1700939063195503400,21.48450341796875,1.0624899864196777,-6.2448225021362305,7.490622520446777
1700939063212502300,21.501502197265626,1.05894136428833,-6.24512243270874,7.490875244140625
1700939063229493000,21.518492919921876,1.056058645248413,-6.243880271911621,7.4923176765441895
1700939063246486000,21.535486083984374,1.0543652772903442,-6.241887092590332,7.49421501159668
1700939063263479600,21.5524794921875,1.0530794858932495,-6.239488124847412,7.496393203735352
1700939063280472800,21.569472900390625,1.0519919395446777,-6.237585544586182,7.49813175201416
1700939063297466400,21.58646630859375,1.0509744882583618,-6.237247943878174,7.49855375289917
1700939063314459400,21.60345947265625,1.0489115715026855,-6.237464427947998,7.498661994934082
1700939063331453000,21.620452880859375,1.0460160970687866,-6.236018180847168,7.500269412994385
1700939063348446500,21.637446533203125,1.0426048040390015,-6.232590198516846,7.5035929679870605
1700939063365439500,21.654439453125,1.0396028757095337,-6.228832721710205,7.50712776184082
1700939063382432800,21.671432861328125,1.0379170179367065,-6.226399898529053,7.509380340576172
1700939063399426300,21.68842626953125,1.0378936529159546,-6.225866317749023,7.50982666015625
1700939063416419800,21.705419921875,1.038334608078003,-6.226767063140869,7.509018421173096
1700939063433413000,21.7224130859375,1.0365909337997437,-6.228933334350586,7.5074615478515625
1700939063450406400,21.739406494140624,1.0328088998794556,-6.231433391571045,7.505908012390137
1700939063467400000,21.75639990234375,1.0300414562225342,-6.232098579406738,7.505735874176025
1700939063484397800,21.773397705078125,1.0285481214523315,-6.230147361755371,7.507560729980469
1700939063501386200,21.79038623046875,1.0275791883468628,-6.227401256561279,7.509970664978027
1700939063518379800,21.8073798828125,1.0267577171325684,-6.225235939025879,7.511878490447998
1700939063535373000,21.824373046875,1.0274161100387573,-6.22355842590332,7.51317834854126
1700939063552355800,21.84135595703125,1.0300976037979126,-6.2212653160095215,7.514711856842041
1700939063569360000,21.85835986328125,1.0341953039169312,-6.217775821685791,7.517035961151123
1700939063586350600,21.8753505859375,1.0394519567489624,-6.213230609893799,7.520069122314453
1700939063603349500,21.892349609375,1.0433169603347778,-6.207552433013916,7.524221420288086
1700939063620339700,21.909339599609375,1.0461674928665161,-6.200698375701904,7.52947473526001
1700939063637333200,21.926333251953125,1.0483145713806152,-6.193669319152832,7.534958839416504
1700939063654326500,21.943326416015626,1.0500723123550415,-6.187897682189941,7.539457321166992
1700939063671320000,21.960320068359376,1.0529063940048218,-6.183543682098389,7.542632102966309
1700939063688313600,21.977313720703126,1.057436227798462,-6.179993629455566,7.544907093048096
