time,seconds_elapsed,z,y,x
1700856725705629400,0.14862939453125,-0.012999534606933594,0.014807194471359253,0.008896269835531712
1700856725722617300,0.165617431640625,-0.017787933349609375,0.010096937417984009,0.009521793574094772
1700856725739614000,0.182614013671875,-0.00821685791015625,-0.009071320295333862,0.008899851702153683
1700856725756606000,0.19960595703125,-0.012998580932617188,-0.009147793054580688,0.004078300669789314
1700856725773600500,0.2166005859375,-0.008212089538574219,0.014753907918930054,-0.015096476301550865
1700856725790592800,0.2335927734375,-0.013596534729003906,0.014777660369873047,-0.024639446288347244
1700856725807585800,0.250585693359375,-0.017783164978027344,-0.013961762189865112,-0.005417962558567524
1700856725824576800,0.26757666015625,-0.012998580932617188,-0.018720567226409912,0.004072288982570171
1700856725841576700,0.28457666015625,-0.008211135864257812,0.014752596616744995,0.004039544612169266
1700856725858565400,0.3015654296875,-0.02256488800048828,0.01945871114730835,0.00944744236767292
1700856725875561000,0.31856103515625,-0.012989997863769531,0.0050237178802490234,0.004082978703081608
1700856725892550000,0.3355498046875,-0.012991905212402344,-0.009307533502578735,-0.000735429348424077
1700856725909546200,0.352546142578125,-0.012989997863769531,0.009808242321014404,-0.015072448179125786
1700856725926540000,0.3695400390625,-0.013586997985839844,0.00020992755889892578,-0.024770021438598633
1700856725943529500,0.386529541015625,-0.022561073303222656,-0.014121055603027344,-0.02005993202328682
1700856725960524800,0.40352490234375,-0.008206367492675781,-0.014092057943344116,-0.0009972931584343314
1700856725977510400,0.420510498046875,-0.017772674560546875,0.019328325986862183,0.0044038803316652775
1700856725994507000,0.437507080078125,-0.017772674560546875,0.028867483139038086,0.01394182350486517
1700856726011507200,0.454507080078125,-0.012983322143554688,0.00007477402687072754,0.013367719016969204
1700856726028505600,0.471505615234375,-0.0081939697265625,-0.02392527461051941,0.003814829047769308
1700856726045493000,0.488492919921875,-0.017766952514648438,-0.014325499534606934,-0.015362871810793877
1700856726062481200,0.505481201171875,-0.01297760009765625,-0.004830479621887207,-0.015389202162623405
1700856726079467300,0.52246728515625,-0.012976646423339844,-0.0000711679458618164,-0.015456445515155792
1700856726096472300,0.539472412109375,-0.012972831726074219,0.004636943340301514,-0.005857490003108978
1700856726113461200,0.556461181640625,-0.01775646209716797,0.023747116327285767,0.004280522465705872
1700856726130456600,0.57345654296875,-0.012971878051757812,0.014193415641784668,0.013271331787109375
1700856726147451600,0.59045166015625,-0.012973785400390625,-0.01449507474899292,0.01329492125660181
1700856726164440600,0.607440673828125,-0.012970924377441406,-0.024135619401931763,0.0036911603529006243
1700856726181437700,0.624437744140625,-0.01775074005126953,0.004452884197235107,-0.010151897557079792
1700856726198429200,0.64142919921875,-0.008181571960449219,0.018879711627960205,-0.015508339740335941
1700856726215414800,0.658414794921875,-0.0225372314453125,0.018846750259399414,-0.010194472037255764
1700856726232415700,0.675415771484375,-0.012965202331542969,-0.0051076412200927734,-0.0010977009078487754
1700856726249409500,0.692409423828125,-0.012961387634277344,-0.0003980398178100586,0.003651855979114771
1700856726266398700,0.709398681640625,-0.01296234130859375,0.009192675352096558,0.008506150916218758
1700856726283390700,0.726390625,-0.017745018005371094,-0.014808088541030884,0.0037958254106342793
1700856726300391000,0.743390869140625,-0.017746925354003906,-0.02434241771697998,0.00376247800886631
1700856726317394400,0.76039453125,-0.01774120330810547,0.004243403673171997,-0.005784254055470228
1700856726334370800,0.777370849609375,-0.023125648498535156,0.028185606002807617,-0.014676227234303951
1700856726351381500,0.794381591796875,-0.017742156982421875,0.01384502649307251,-0.01045580580830574
1700856726368351500,0.8113515625,-0.012955665588378906,-0.010106682777404785,0.0038177892565727234
1700856726385352700,0.828352783203125,-0.008167266845703125,-0.0006083846092224121,0.003830287605524063
1700856726402346800,0.8453466796875,-0.012953758239746094,0.004199564456939697,0.0038960138335824013
1700856726419345200,0.86234521484375,-0.03209686279296875,0.00362473726272583,0.013481630012392998
1700856726436340000,0.879340087890625,-0.07516956329345703,0.008429676294326782,0.009311860427260399
1700856726453324000,0.896323974609375,0.02473163604736328,0.023401707410812378,-0.010412207804620266
1700856726470320000,0.913320068359375,-0.05602550506591797,0.013195514678955078,-0.00983753614127636
1700856726487315500,0.9303154296875,-0.01773834228515625,-0.01494288444519043,-0.019915377721190453
1700856726504304000,0.94730419921875,0.010979652404785156,-0.015061438083648682,-0.015044325962662697
1700856726521301200,0.96430126953125,-0.05601310729980469,0.00335654616355896,-0.00007568160071969032
1700856726538292700,0.981292724609375,0.010984420776367188,0.023108601570129395,-0.0005043363198637962
1700856726555288600,0.99828857421875,-0.03208446502685547,0.008116185665130615,0.01930345594882965
1700856726572276700,1.01527685546875,-0.02251148223876953,-0.005664736032485962,0.009147627279162407
1700856726589273300,1.0322734375,0.010990142822265625,-0.015304237604141235,-0.009869713336229324
1700856726606267100,1.04926708984375,-0.022504806518554688,-0.0010223090648651123,-0.014575854875147343
1700856726623257000,1.066257080078125,0.0008258819580078125,0.008520334959030151,-0.019324718043208122
1700856726640245200,1.083245361328125,-0.017716407775878906,0.0037067830562591553,-0.004888972267508507
1700856726657247500,1.10024755859375,-0.022502899169921875,0.018078088760375977,0.00519566610455513
1700856726674235600,1.117235595703125,0.0014238357543945312,0.013303279876708984,0.014178033918142319
1700856726691222300,1.13422216796875,-0.02250194549560547,-0.015434563159942627,0.009359351359307766
1700856726708224800,1.151224853515625,-0.017716407775878906,-0.02979639172554016,0.009268262423574924
1700856726725214500,1.16821435546875,-0.008145332336425781,-0.010668128728866577,-0.009898913092911243
1700856726742207700,1.185207763671875,-0.027280807495117188,0.022692352533340454,-0.014108225703239441
1700856726759204900,1.202204833984375,-0.008133888244628906,0.022592157125473022,-0.009890325367450714
1700856726776199200,1.21919921875,-0.017705917358398438,-0.0013188719749450684,-0.0002944578882306814
1700856726793189400,1.236189453125,-0.01770782470703125,-0.015642225742340088,0.009393136948347092
1700856726810183400,1.253183349609375,-0.0033502578735351562,-0.01565501093864441,0.009456469677388668
1700856726827179300,1.27017919921875,-0.027278900146484375,-0.015621453523635864,-0.004877478815615177
1700856726844167700,1.287167724609375,-0.012919425964355469,0.003444761037826538,-0.009633852168917656
1700856726861163800,1.304163818359375,-0.013515472412109375,0.027328073978424072,-0.0185229554772377
1700856726878155800,1.32115576171875,-0.013512611389160156,0.036845654249191284,-0.013704017736017704
1700856726895152400,1.33815234375,-0.017698287963867188,0.012869864702224731,-0.009483194909989834
1700856726912140300,1.355140380859375,-0.01769256591796875,-0.020747393369674683,0.004844249691814184
1700856726929137200,1.37213720703125,-0.012907981872558594,-0.020747482776641846,0.0048047080636024475
1700856726946125800,1.389125732421875,-0.017691612243652344,-0.0016277134418487549,0.004716707393527031
1700856726963121400,1.406121337890625,-0.008119583129882812,0.02225703001022339,-0.00004602433182299137
1700856726980116200,1.4231162109375,-0.017690658569335938,0.01747351884841919,-0.004304215312004089
1700856726997107000,1.44010693359375,-0.027261734008789062,0.0031325221061706543,-0.014491582289338112
1700856727014101200,1.457101318359375,-0.01768970489501953,-0.0016830265522003174,-0.004892224445939064
1700856727031097300,1.474097412109375,-0.008122444152832031,-0.01595330238342285,-0.00008589494973421097
1700856727048088600,1.491088623046875,-0.01769542694091797,-0.015912741422653198,-0.000060660531744360924
1700856727065082400,1.508082275390625,-0.012904167175292969,-0.0016750097274780273,-0.004869786091148853
1700856727082091500,1.525091552734375,-0.01290130615234375,0.041335493326187134,-0.004194799344986677
1700856727099072300,1.542072265625,-0.022472381591796875,0.03175124526023865,-0.008999008685350418
1700856727116060700,1.559060791015625,-0.008116722106933594,0.007854878902435303,-0.000004216562956571579
1700856727133044700,1.576044677734375,-0.017688751220703125,-0.025629639625549316,0.000009980984032154083
1700856727150042400,1.59304248046875,-0.01769256591796875,-0.03989943861961365,0.004856199957430363
1700856727167039000,1.6100390625,-0.01769542694091797,-0.015897244215011597,0.009650779888033867
1700856727184034600,1.62703466796875,-0.017694473266601562,-0.001584082841873169,0.014289405196905136
1700856727201019000,1.644018798828125,-0.02248096466064453,0.02237159013748169,-0.004291899502277374
1700856727218021600,1.661021728515625,-0.008120536804199219,0.017509013414382935,-0.00008808774873614311
1700856727235013000,1.67801318359375,-0.017694473266601562,-0.006369411945343018,-0.0049014887772500515
1700856727252007400,1.69500732421875,-0.012906074523925781,-0.039934515953063965,-0.00014745513908565044
1700856727269000200,1.712000244140625,-0.008113861083984375,-0.01613667607307434,-0.004918007180094719
1700856727285996000,1.72899609375,-0.02246570587158203,0.017245620489120483,0.00042968220077455044
1700856727302982700,1.745982666015625,-0.008107185363769531,0.03156149387359619,-0.0002049040049314499
1700856727319976000,1.762975830078125,-0.01768207550048828,-0.0018461048603057861,-0.0050161490216851234
1700856727336982000,1.77998193359375,-0.027256011962890625,-0.016138315200805664,-0.01460894662886858
1700856727353959400,1.79695947265625,-0.0033311843872070312,-0.01129305362701416,-0.014578723348677158
1700856727370960100,1.813960205078125,-0.01828765869140625,0.01744931936264038,-0.014588480815291405
1700856727387952000,1.8309521484375,-0.01768779754638672,0.026986122131347656,-0.00988036673516035
1700856727404937200,1.847937255859375,-0.017686843872070312,0.022168666124343872,0.005039162002503872
1700856727421939000,1.86493896484375,-0.0176849365234375,0.01257142424583435,0.005100959911942482
1700856727438932000,1.881931884765625,-0.02246856689453125,-0.006619364023208618,0.00022192345932126045
1700856727455916300,1.898916259765625,-0.01290130615234375,-0.0400240421295166,-0.005181204993277788
1700856727472916500,1.91591650390625,-0.017691612243652344,-0.030357569456100464,-0.005213784985244274
1700856727489910800,1.932910888671875,-0.01768970489501953,0.012658119201660156,0.009746983647346497
1700856727506906600,1.94990673828125,-0.01768970489501953,0.03659048676490784,0.009750766679644585
1700856727523895000,1.96689501953125,-0.012904167175292969,0.03180268406867981,-0.0045847175642848015
1700856727540882000,1.9838818359375,-0.008120536804199219,-0.011217862367630005,-0.014776615425944328
1700856727557883600,2.000883544921875,-0.017694473266601562,-0.030277013778686523,-0.014741148799657822
1700856727574875600,2.017875732421875,-0.012910842895507812,-0.015893638134002686,-0.014752806164324284
1700856727591860500,2.034860595703125,-0.012915611267089844,-0.006211400032043457,-0.00042218295857310295
1700856727608862200,2.0518623046875,-0.02248668670654297,-0.0020212531089782715,0.013781337067484856
1700856727625859600,2.068859619140625,-0.017702102661132812,0.02252712845802307,0.004706875421106815
1700856727642848000,2.085847900390625,-0.012917518615722656,0.02253854274749756,-0.005497868172824383
1700856727659842800,2.1028427734375,-0.0182952880859375,0.017615139484405518,-0.034153763204813004
1700856727676838700,2.119838623046875,0.05827617645263672,0.022366225719451904,-0.03891614452004433
1700856727693826800,2.136826904296875,-0.0039386749267578125,0.031983137130737305,-0.014951392076909542
1700856727710823400,2.153823486328125,-0.0416259765625,0.017043113708496094,0.014220863580703735
1700856727727816700,2.170816650390625,0.035536766052246094,-0.020520269870758057,0.02318684011697769
1700856727744807200,2.18780712890625,-0.05060768127441406,-0.03542602062225342,0.02365432307124138
1700856727761810200,2.20481005859375,-0.008135795593261719,-0.006088584661483765,0.013380492106080055
1700856727778784300,2.2217841796875,0.0056247711181640625,0.027368903160095215,-0.01530407089740038
1700856727795790000,2.2387900390625,-0.04701709747314453,0.03215140104293823,-0.024272385984659195
1700856727812779500,2.255779541015625,0.005623817443847656,0.0082511305809021,-0.024761304259300232
1700856727829775400,2.272775390625,-0.01771068572998047,-0.0442965030670166,-0.000796386506408453
1700856727846770000,2.28977001953125,-0.02668476104736328,-0.053835928440093994,0.003906466066837311
1700856727863758600,2.306758544921875,0.00142669677734375,-0.005898714065551758,0.008593657985329628
1700856727880755000,2.3237548828125,-0.027284622192382812,0.018004179000854492,0.004415099509060383
1700856727897749000,2.3407490234375,-0.017711639404296875,0.03708714246749878,-0.005138704553246498
1700856727914738700,2.35773876953125,-0.008133888244628906,0.02735784649848938,-0.010492624714970589
1700856727931734800,2.37473486328125,-0.022490501403808594,-0.015706002712249756,-0.010455897077918053
1700856727948727600,2.3917275390625,0.0014333724975585938,-0.0251828134059906,-0.00573711097240448
1700856727965719300,2.40871923828125,-0.02249622344970703,-0.015576988458633423,0.0038001928478479385
1700856727982714600,2.425714599609375,-0.012926101684570312,0.02272963523864746,-0.0010763584868982434
1700856727999706400,2.442706298828125,-0.008137702941894531,0.03702482581138611,-0.001104662660509348
1700856728016702200,2.4597021484375,-0.02727985382080078,0.017886728048324585,-0.005364717449992895
1700856728033690400,2.4766904296875,-0.0129241943359375,-0.02037864923477173,-0.001259888056665659
1700856728050683000,2.493682861328125,-0.012925148010253906,-0.020346850156784058,-0.0011810053838416934
1700856728067684400,2.510684326171875,-0.02249431610107422,-0.006029456853866577,-0.0011981450952589512
1700856728084671000,2.5276708984375,-0.008137702941894531,0.008313864469528198,-0.005952032282948494
1700856728101666600,2.54466650390625,-0.012925148010253906,0.008351236581802368,0.003587408922612667
1700856728118659300,2.561659423828125,-0.012925148010253906,-0.0012295246124267578,-0.006009481381624937
1700856728135654000,2.57865380859375,-0.01771068572998047,-0.0012263059616088867,-0.0011986567405983806
1700856728152643600,2.5956435546875,-0.008136749267578125,-0.006050795316696167,-0.005954809952527285
1700856728169636900,2.612636962890625,-0.01770782470703125,0.008296608924865723,-0.00060105393640697
1700856728186635300,2.62963525390625,-0.022487640380859375,0.017734646797180176,-0.0005837864009663463
1700856728203622400,2.646622314453125,-0.01770305633544922,0.012968629598617554,0.004169699270278215
1700856728220618800,2.66361865234375,-0.017705917358398438,-0.01090085506439209,-0.0012414875673130155
1700856728237612500,2.680612548828125,-0.02249622344970703,-0.025164157152175903,-0.010839730501174927
1700856728254602500,2.6976025390625,-0.012923240661621094,-0.010832518339157104,-0.015643520280718803
1700856728271595800,2.714595703125,-0.022490501403808594,0.027360260486602783,-0.010320443660020828
1700856728288594000,2.731593994140625,-0.017704010009765625,0.03212904930114746,0.00390911428257823
1700856728305585400,2.74858544921875,-0.012919425964355469,0.013005226850509644,0.00820436142385006
1700856728322575400,2.765575439453125,-0.012919425964355469,-0.01091921329498291,0.0034225722774863243
1700856728339570200,2.782570068359375,-0.012920379638671875,-0.00611606240272522,-0.001299484632909298
1700856728356565800,2.799565673828125,-0.017702102661132812,-0.0062004923820495605,-0.015660494565963745
1700856728373554000,2.816553955078125,-0.008130073547363281,0.01292768120765686,-0.01087643951177597
1700856728390550500,2.833550537109375,-0.012914657592773438,0.02246108651161194,-0.006064792163670063
1700856728407540000,2.8505400390625,-0.012915611267089844,0.0033548474311828613,-0.0012111368123441935
1700856728424531700,2.86753173828125,-0.022484779357910156,-0.006254106760025024,0.008309612050652504
1700856728441532700,2.88453271484375,-0.017698287963867188,-0.006286740303039551,-0.001240427722223103
1700856728458523100,2.901523193359375,-0.012911796569824219,0.0032788515090942383,-0.015555281192064285
1700856728475517700,2.918517578125,-0.02727031707763672,0.008090794086456299,-0.005401354283094406
1700856728492504800,2.9355048828125,-0.01769542694091797,0.00801578164100647,-0.010744694620370865
1700856728509504500,2.95250439453125,-0.017694473266601562,-0.006352782249450684,-0.001236426061950624
1700856728526497500,2.96949755859375,-0.01769542694091797,-0.015918195247650146,0.0034745028242468834
1700856728543486000,2.98648583984375,-0.012905120849609375,-0.006437748670578003,0.003498805221170187
1700856728560480800,3.003480712890625,-0.017683982849121094,0.007748782634735107,-0.005373123101890087
1700856728577478100,3.02047802734375,-0.008112907409667969,0.01732894778251648,-0.005923490971326828
1700856728594465800,3.0374658203125,-0.022470474243164062,0.007774949073791504,-0.010107056237757206
1700856728611462100,3.054462158203125,-0.0176849365234375,-0.0018042922019958496,-0.0011825585970655084
1700856728628455200,3.071455078125,-0.012899398803710938,-0.011364072561264038,-0.005919708404690027
1700856728645449200,3.08844921875,-0.0176849365234375,-0.001791536808013916,0.008471104316413403
1700856728662440200,3.105440185546875,-0.01290130615234375,0.007807254791259766,-0.005893176421523094
1700856728679430700,3.1224306640625,-0.017683029174804688,-0.001827836036682129,-0.0011218206491321325
1700856728696433700,3.13943359375,-0.012900352478027344,-0.006565362215042114,-0.005856229458004236
1700856728713421000,3.156421142578125,-0.017686843872070312,0.0030382871627807617,-0.015416629612445831
1700856728730415000,3.1734150390625,-0.01768779754638672,0.003065168857574463,-0.00106950628105551
1700856728747407600,3.19040771484375,-0.01290130615234375,0.007822543382644653,-0.0010786973871290684
1700856728764402000,3.20740185546875,-0.003326416015625,0.002962768077850342,-0.0009964891942217946
1700856728781393700,3.2243935546875,-0.01768016815185547,0.002893507480621338,-0.0010121488012373447
1700856728798387700,3.2413876953125,-0.012894630432128906,0.0028805136680603027,-0.0057490975596010685
1700856728815387100,3.25838720703125,-0.022464752197265625,-0.0019185245037078857,-0.009875945746898651
1700856728832374500,3.27537451171875,-0.012897491455078125,0.0029559433460235596,-0.01040226686745882
1700856728849366500,3.292366455078125,-0.0176849365234375,0.0029876530170440674,-0.01044787559658289
1700856728866360300,3.3093603515625,-0.017683982849121094,0.0029691457748413086,-0.0009323890553787351
1700856728883353000,3.32635302734375,-0.017683029174804688,0.002955704927444458,-0.000897123129107058
1700856728900347100,3.34334716796875,-0.012896537780761719,0.0029374361038208008,-0.0008111324859783053
1700856728917339400,3.36033935546875,-0.008111000061035156,0.0029145479202270508,-0.0008726926753297448
1700856728934333200,3.377333251953125,-0.012895584106445312,-0.006664395332336426,0.0038999058306217194
1700856728951322000,3.394322021484375,-0.008109092712402344,-0.0018806755542755127,-0.010397571139037609
1700856728968323800,3.41132373046875,-0.022467613220214844,0.0029425621032714844,-0.015113798901438713
1700856728985312300,3.428312255859375,-0.02246856689453125,0.012524068355560303,-0.010321392677724361
1700856729002295600,3.445295654296875,-0.022464752197265625,0.012427419424057007,-0.0008160112192854285
1700856729019298600,3.462298583984375,-0.017675399780273438,-0.0019991397857666016,0.003951416350901127
1700856729036288800,3.479288818359375,-0.01767444610595703,-0.025947242975234985,0.008710309863090515
1700856729053288400,3.496288330078125,-0.022464752197265625,-0.021074682474136353,-0.010435669682919979
1700856729070279000,3.51327880859375,-0.01767730712890625,-0.016309231519699097,-0.005745662376284599
1700856729087271200,3.530271240234375,-0.012888908386230469,0.012335270643234253,-0.0008570513455197215
1700856729104255200,3.547255126953125,-0.017669677734375,0.02659010887145996,-0.00016806763596832752
1700856729121257700,3.5642578125,-0.01287841796875,0.02168583869934082,0.004588706884533167
1700856729138251500,3.58125146484375,-0.022446632385253906,0.0024628639221191406,-0.0002520482521504164
1700856729155244000,3.598244140625,-0.017658233642578125,-0.016760200262069702,-0.0008068749448284507
1700856729172238300,3.61523828125,-0.012873649597167969,-0.021507680416107178,-0.0007711155340075493
1700856729189230000,3.63222998046875,-0.017656326293945312,0.0023572444915771484,-0.005614703055471182
1700856729206224400,3.649224365234375,-0.022436141967773438,0.007011830806732178,-0.010441169142723083
1700856729223217200,3.666217041015625,-0.013463020324707031,0.011813700199127197,-0.019974764436483383
1700856729240210700,3.683210693359375,-0.013462066650390625,0.006994158029556274,-0.0294510368257761
1700856729257203000,3.700202880859375,-0.01765155792236328,0.011835038661956787,-0.014362706802785397
1700856729274197000,3.717197021484375,-0.012867927551269531,0.007065266370773315,-0.0005511140916496515
1700856729291183900,3.734183837890625,-0.012866973876953125,-0.0025120973587036133,0.004258632659912109
1700856729308183300,3.751183349609375,-0.012264251708984375,-0.002613633871078491,0.018507029861211777
1700856729325176000,3.768176025390625,-0.022429466247558594,0.021212071180343628,0.004705285653471947
1700856729342169900,3.785169921875,-0.0032815933227539062,0.021080583333969116,-0.010195695795118809
1700856729359162400,3.802162353515625,-0.017640113830566406,-0.017147451639175415,-0.010128654539585114
1700856729376156400,3.819156494140625,-0.0032854080200195312,-0.02189156413078308,-0.005286747124046087
1700856729393148400,3.8361484375,-0.012854576110839844,-0.00756719708442688,0.008934550918638706
1700856729410156300,3.85315625,-0.017638206481933594,0.016314536333084106,0.0047119371592998505
1700856729427135200,3.87013525390625,-0.017633438110351562,0.01621130108833313,0.000005247537046670914
1700856729444129000,3.88712890625,-0.017632484436035156,0.0018317997455596924,-0.019069653004407883
1700856729461121300,3.904121337890625,-0.02301788330078125,-0.022072702646255493,-0.029132526367902756
1700856729478112500,3.921112548828125,-0.017632484436035156,-0.007754325866699219,-0.024299301207065582
1700856729495106000,3.93810595703125,-0.017630577087402344,0.006580442190170288,0.0003342630807310343
1700856729512103700,3.955103759765625,0.04458332061767578,0.0065531134605407715,-0.004809979815036058
1700856729529094000,3.972093994140625,-0.20307445526123047,-0.032892704010009766,0.03430349379777908
1700856729546088000,3.989087890625,0.08764076232910156,-0.060154616832733154,-0.005881371442228556
1700856729563062800,4.006062744140625,-0.0032939910888671875,-0.01692071557044983,0.009077661670744419
1700856729580072400,4.023072509765625,-0.07506656646728516,0.058781057596206665,-0.00423876428976655
1700856729597066000,4.04006591796875,0.06731605529785156,0.09746488928794861,-0.03389390930533409
1700856729614063600,4.057063720703125,-0.07505321502685547,0.034555584192276,-0.01893681101500988
1700856729631053300,4.07405322265625,-0.008056640625,-0.046142369508743286,-0.014713995158672333
1700856729648047400,4.09104736328125,0.015867233276367188,-0.05081075429916382,0.004507577978074551
1700856729665039400,4.108039306640625,-0.05053234100341797,-0.0179537832736969,0.024182291701436043
1700856729682031000,4.125031005859375,0.006299018859863281,0.016110539436340332,0.014002964831888676
1700856729699028500,4.142028564453125,-0.031981468200683594,0.0249595046043396,0.014595194719731808
1700856729716007400,4.15900732421875,-0.013432502746582031,0.0302545428276062,-0.01416978519409895
1700856729733014300,4.17601416015625,-0.0038633346557617188,0.0016011297702789307,-0.03375924006104469
1700856729750004200,4.193004150390625,-0.036772727966308594,-0.04131138324737549,-0.028853194788098335
1700856729766998800,4.209998779296875,-0.012852668762207031,-0.055484771728515625,-0.014515427872538567
1700856729783992800,4.226992919921875,-0.008067131042480469,0.006729245185852051,0.009432587772607803
1700856729800974600,4.243974609375,-0.022414207458496094,0.05918401479721069,0.005250758025795221
1700856729817979100,4.260979248046875,0.00151824951171875,0.030353456735610962,-0.00008392147719860077
1700856729834971600,4.2779716796875,-0.02719593048095703,-0.027054160833358765,-0.009537976235151291
1700856729851966000,4.294966064453125,-0.022413253784179688,-0.03176814317703247,-0.014243129640817642
1700856729868957700,4.311957763671875,-0.008061408996582031,-0.012540936470031738,-0.009438427165150642
1700856729885952000,4.328951904296875,-0.027204513549804688,0.0066345930099487305,0.0007708854973316193
1700856729902945800,4.34594580078125,-0.008059501647949219,0.025709331035614014,0.010346725583076477
1700856729919935700,4.362935791015625,-0.0032711029052734375,0.04001259803771973,0.005578896496444941
1700856729936933000,4.37993310546875,-0.008053779602050781,0.03037998080253601,-0.003947571851313114
1700856729953911300,4.396911376953125,-0.012842178344726562,-0.017417222261428833,-0.014092326164245605
1700856729970914600,4.41391455078125,-0.008058547973632812,-0.04130369424819946,-0.014067238196730614
1700856729987913500,4.43091357421875,-0.0032711029052734375,-0.01742914319038391,-0.004444090183824301
1700856730004903400,4.4479033203125,-0.012842178344726562,0.025637149810791016,0.0009344248101115227
1700856730021897200,4.464897216796875,-0.0176239013671875,0.02077600359916687,0.015339161269366741
1700856730038889700,4.4818896484375,-0.012836456298828125,0.0016040802001953125,0.014787441119551659
1700856730055883800,4.4988837890625,-0.008049964904785156,-0.017572462558746338,0.005182091146707535
1700856730072876000,4.5158759765625,-0.0032644271850585938,-0.027132421731948853,-0.009173840284347534
1700856730089870300,4.532870361328125,-0.017622947692871094,-0.017506450414657593,-0.013938544318079948
1700856730106862800,4.54986279296875,-0.00804901123046875,0.020702391862869263,-0.009161250665783882
1700856730123856600,4.566856689453125,-0.023001670837402344,0.049339503049850464,-0.008525622077286243
1700856730140838100,4.583838134765625,0.10622024536132812,0.0401628315448761,-0.019027823582291603
1700856730157842000,4.600842041015625,-0.045726776123046875,-0.018395990133285522,0.010735584422945976
1700856730174836200,4.617836181640625,0.006313323974609375,-0.046434998512268066,0.00523168221116066
1700856730191831600,4.63483154296875,0.0398101806640625,-0.01765117049217224,-0.00898559670895338
1700856730208821800,4.65182177734375,-0.07025623321533203,0.029550522565841675,-0.008437475189566612
1700856730225815300,4.668815185546875,0.024860382080078125,0.034887075424194336,-0.009073852561414242
1700856730242806300,4.68580615234375,-0.017608642578125,0.0013060569763183594,-0.004144219681620598
1700856730259804000,4.702803955078125,-0.04153633117675781,-0.018453150987625122,0.0012242093216627836
1700856730276794400,4.71979443359375,0.006319999694824219,-0.017853975296020508,-0.004081453196704388
1700856730293788200,4.7367880859375,-0.036757469177246094,-0.013527840375900269,0.005411246791481972
1700856730310780700,4.75378076171875,-0.022401809692382812,0.0062621235847473145,0.005390324629843235
1700856730327775000,4.77077490234375,-0.0032596588134765625,0.02540561556816101,0.0012847462203353643
1700856730344764700,4.7877646484375,-0.02718639373779297,0.025386452674865723,0.0012661265209317207
1700856730361763600,4.804763671875,-0.0032587051391601562,-0.00333520770072937,-0.00406800489872694
1700856730378753800,4.82175390625,-0.022406578063964844,-0.03192037343978882,0.005484172608703375
1700856730395745800,4.838745849609375,-0.02719402313232422,-0.012726366519927979,0.0012230216525495052
1700856730412741600,4.85574169921875,-0.017624855041503906,0.006463527679443359,0.005926604848355055
1700856730429734000,4.87273388671875,-0.017620086669921875,0.020705044269561768,0.0011112666688859463
1700856730446726400,4.889726318359375,-0.017620086669921875,0.0015458762645721436,-0.00852485466748476
1700856730463720400,4.906720458984375,-0.017617225646972656,-0.003287076950073242,-0.013241448439657688
1700856730480712700,4.923712646484375,-0.003261566162109375,-0.008054465055465698,-0.013721155934035778
1700856730497706500,4.94070654296875,-0.012833595275878906,-0.0032505691051483154,-0.009026819840073586
1700856730514699300,4.95769921875,-0.01761913299560547,0.0015383362770080566,0.005845054518431425
1700856730531693000,4.974693115234375,-0.012833595275878906,0.0015357732772827148,0.005104907788336277
1700856730548683000,4.99168310546875,-0.012833595275878906,0.01589915156364441,-0.0044310251250863075
1700856730565679000,5.00867919921875,-0.027191162109375,0.011139988899230957,-0.009211390279233456
1700856730582661600,5.02566162109375,-0.01762104034423828,-0.003213822841644287,-0.009150817058980465
1700856730599656400,5.042656494140625,-0.017622947692871094,-0.017532289028167725,-0.013873659074306488
1700856730616655600,5.059655517578125,-0.022408485412597656,-0.012745529413223267,-0.004369483329355717
1700856730633654300,5.076654296875,-0.017620086669921875,0.0015502572059631348,0.0051651704125106335
1700856730650644700,5.093644775390625,-0.008047103881835938,0.011091381311416626,0.00516460370272398
1700856730667638800,5.110638671875,-0.003261566162109375,0.015883594751358032,0.005125884432345629
1700856730684630800,5.127630859375,-0.0032606124877929688,0.0062885582447052,-0.0043983906507492065
1700856730701624800,5.144624755859375,-0.0128326416015625,-0.008064597845077515,-0.009164594113826752
1700856730718617600,5.16161767578125,-0.017621994018554688,-0.012760162353515625,-0.004380501806735992
1700856730735611400,5.178611328125,-0.008054733276367188,-0.0031060874462127686,0.009976469911634922
1700856730752604000,5.19560400390625,-0.02241230010986328,0.01127663254737854,0.01052294671535492
1700856730769597700,5.21259765625,-0.017624855041503906,0.016009807586669922,0.005102550610899925
1700856730786590200,5.229590087890625,-0.01762676239013672,-0.0030862092971801758,-0.009306298568844795
1700856730803584300,5.246584228515625,-0.012839317321777344,-0.0031266510486602783,-0.018802141770720482
1700856730820576300,5.263576171875,-0.008051872253417969,0.006391793489456177,-0.009211317636072636
1700856730837570000,5.280570068359375,-0.017624855041503906,-0.003124743700027466,0.0051690624095499516
1700856730854563300,5.297563232421875,-0.012839317321777344,0.006436377763748169,0.005173356272280216
1700856730871557000,5.31455712890625,-0.012837409973144531,0.006411910057067871,0.00029271235689520836
1700856730888549000,5.331549072265625,-0.012838363647460938,-0.007934123277664185,-0.004508574027568102
1700856730905543000,5.34854296875,-0.0032701492309570312,-0.022214889526367188,-0.009334017522633076
1700856730922532600,5.36553271484375,-0.012843132019042969,-0.00781857967376709,-0.009274521842598915
1700856730939529700,5.38252978515625,-0.01762866973876953,0.025677591562271118,0.0008815990295261145
1700856730956521700,5.399521728515625,-0.022411346435546875,0.039965659379959106,-0.003913676366209984
1700856730973516000,5.41651611328125,-0.008054733276367188,0.006470799446105957,0.005038505420088768
1700856730990508500,5.433508544921875,-0.008057594299316406,-0.026974201202392578,0.00022320356220006943
1700856731007492000,5.4504921875,-0.012849807739257812,-0.036390095949172974,-0.004427480511367321
1700856731024494600,5.46749462890625,-0.012854576110839844,-0.017128795385360718,-0.004430787637829781
1700856731041488400,5.48448828125,-0.012852668762207031,0.0019729137420654297,-0.009152570739388466
1700856731058483200,5.501483154296875,-0.022421836853027344,0.02106654644012451,0.0010089403949677944
1700856731075475500,5.518475341796875,-0.008060455322265625,0.020946532487869263,0.005220682360231876
1700856731092467500,5.535467529296875,-0.008055686950683594,0.011277347803115845,0.0004759493749588728
1700856731109461500,5.55246142578125,-0.008056640625,-0.01263156533241272,-0.004264946095645428
1700856731126454000,5.5694541015625,-0.02719879150390625,-0.017414361238479614,-0.004237537272274494
1700856731143448000,5.586447998046875,-0.008054733276367188,-0.003090381622314453,-0.004149097949266434
1700856731160440300,5.6034404296875,-0.02240753173828125,0.011182159185409546,0.0012686115223914385
1700856731177434400,5.620434326171875,-0.017620086669921875,0.01113516092300415,-0.004131702706217766
1700856731194425000,5.637425048828125,-0.017617225646972656,0.006273180246353149,-0.004136106465011835
1700856731211410200,5.65441015625,-0.008049964904785156,0.0015943348407745361,-0.004144877195358276
1700856731228413200,5.6714130859375,-0.008053779602050781,-0.007899463176727295,0.0006681766826659441
1700856731245406000,5.688406005859375,-0.008057594299316406,-0.00782957673072815,0.005466375034302473
1700856731262400500,5.705400390625,-0.012842178344726562,0.006516188383102417,-0.004080009646713734
1700856731279393500,5.7223935546875,-0.017629623413085938,0.0017699599266052246,-0.00345551036298275
1700856731296386000,5.739385986328125,-0.012846946716308594,-0.007732033729553223,-0.004050517920404673
1700856731313379600,5.756379638671875,-0.017635345458984375,-0.00289231538772583,-0.012953144498169422
1700856731330372400,5.773372314453125,-0.012850761413574219,0.011489033699035645,0.0013925726525485516
1700856731347366400,5.790366455078125,-0.017637252807617188,0.0354326069355011,0.006135350093245506
1700856731364358700,5.807358642578125,-0.01763153076171875,0.020960837602615356,0.0061525264754891396
1700856731381352700,5.824352783203125,-0.012849807739257812,-0.002905905246734619,0.005558980628848076
1700856731398345200,5.84134521484375,-0.012853622436523438,-0.017163872718811035,-0.008695866912603378
1700856731415336700,5.858336669921875,-0.017640113830566406,-0.021931171417236328,-0.013466107659041882
1700856731432333800,5.875333740234375,-0.017641067504882812,0.0020148158073425293,-0.008612086996436119
1700856731449325000,5.892324951171875,-0.017641067504882812,0.011602044105529785,0.005725607741624117
1700856731466318000,5.909318115234375,-0.01763629913330078,0.03543591499328613,0.015892600640654564
1700856731483311900,5.926311767578125,-0.012847900390625,0.0162217915058136,0.006274696905165911
1700856731500304100,5.94330419921875,-0.017633438110351562,-0.01248207688331604,0.0015035965479910374
1700856731517295900,5.9602958984375,-0.008066177368164062,-0.02199000120162964,-0.013453755527734756
1700856731534293000,5.97729296875,-0.012854576110839844,-0.0027781426906585693,-0.012794720940291882
1700856731551282200,5.9942822265625,-0.017640113830566406,0.006780564785003662,-0.003210183000192046
1700856731568279300,6.011279296875,-0.017640113830566406,0.001989603042602539,-0.0038234631065279245
1700856731585270500,6.0282705078125,-0.012852668762207031,0.006755560636520386,0.005821867845952511
1700856731602263600,6.045263671875,-0.008062362670898438,0.0066349804401397705,0.005785742774605751
1700856731619255600,6.062255615234375,-0.017630577087402344,-0.0029847025871276855,0.0016243050340563059
1700856731636248800,6.079248779296875,-0.022420883178710938,-0.007686644792556763,0.0016059593763202429
1700856731653246000,6.096245849609375,-0.012849807739257812,-0.00288274884223938,-0.013287712819874287
1700856731670217700,6.1132177734375,-0.012846946716308594,0.006633073091506958,-0.00795926433056593
1700856731687230000,6.13022998046875,-0.017633438110351562,0.001850515604019165,-0.00861038826406002
1700856731704224800,6.147224853515625,-0.012846946716308594,0.006624311208724976,-0.003783592488616705
1700856731721214200,6.164214111328125,-0.012850761413574219,0.006706953048706055,0.005862213671207428
1700856731738208800,6.181208740234375,-0.017635345458984375,0.011457383632659912,-0.0030734678730368614
1700856731755203000,6.198203125,-0.022421836853027344,0.0019241273403167725,-0.0030334144830703735
1700856731772195300,6.2151953125,-0.022424697875976562,-0.007578432559967041,-0.007822494953870773
1700856731789188900,6.23218896484375,-0.02242565155029297,-0.0027677714824676514,-0.00782384630292654
1700856731806181600,6.249181640625,-0.008069038391113281,0.006791412830352783,-0.0037100270856171846
1700856731823176000,6.266176025390625,-0.017640113830566406,-0.007562816143035889,-0.0037101185880601406
1700856731840157200,6.2831572265625,-0.012857437133789062,-0.002716064453125,0.001005049329251051
1700856731857159400,6.300159423828125,-0.012857437133789062,-0.0027055740356445312,0.0010288767516613007
1700856731874157000,6.317156982421875,-0.0080718994140625,0.006858199834823608,0.0010491593275219202
1700856731891148300,6.334148193359375,-0.012853622436523438,0.011553138494491577,-0.01325299497693777
1700856731908140500,6.351140625,-0.012854576110839844,0.011564910411834717,-0.013181768357753754
1700856731925134600,6.368134521484375,-0.012849807739257812,0.006688922643661499,-0.008290892466902733
1700856731942124500,6.38512451171875,-0.027204513549804688,-0.007712304592132568,0.0012075456324964762
1700856731959124000,6.4021240234375,-0.012852668762207031,-0.01718670129776001,0.005959405098110437
1700856731976113400,6.419113525390625,-0.012254714965820312,-0.007592707872390747,0.01606297306716442
1700856731993107200,6.436107177734375,-0.012851715087890625,0.006733238697052002,0.0016702422872185707
1700856732010100200,6.453100341796875,0.0015048980712890625,0.011515557765960693,-0.013229697942733765
1700856732027094300,6.47009423828125,-0.027802467346191406,0.016194671392440796,-0.017342275008559227
1700856732044086000,6.4870859375,-0.0032796859741210938,0.0019175410270690918,-0.013169581070542336
1700856732061069600,6.504069580078125,-0.008065223693847656,0.0067220330238342285,-0.01305398903787136
1700856732078072800,6.52107275390625,-0.02242279052734375,0.01151949167251587,0.0018871738575398922
1700856732095066600,6.538066650390625,-0.0032758712768554688,0.0018392503261566162,0.010865301825106144
1700856732112059000,6.555058837890625,-0.012849807739257812,-0.007665961980819702,0.01563095673918724
1700856732129053200,6.57205322265625,-0.02241992950439453,-0.012471795082092285,-0.003541060956194997
1700856732146045700,6.589045654296875,0.0015087127685546875,-0.007728159427642822,-0.013110012747347355
1700856732163039700,6.606039794921875,-0.031991004943847656,-0.007714509963989258,-0.007512189913541079
1700856732180032000,6.623031982421875,-0.008059501647949219,0.0018143951892852783,-0.008116791024804115
1700856732197025800,6.64002587890625,-0.012843132019042969,0.011330872774124146,0.006313600577414036
1700856732214029000,6.657029052734375,-0.02241039276123047,0.0064469873905181885,0.006968340836465359
1700856732231012600,6.6740126953125,-0.01284027099609375,0.0016973018646240234,0.011157790198922157
1700856732248004400,6.69100439453125,-0.012842178344726562,-0.012635588645935059,0.001553207403048873
1700856732264998400,6.707998291015625,-0.017622947692871094,-0.007936090230941772,-0.00801696814596653
1700856732281985800,6.72498583984375,-0.012834548950195312,0.006347447633743286,-0.012726946733891964
1700856732298985000,6.74198486328125,-0.01761913299560547,0.0015385746955871582,-0.0031507043167948723
1700856732315975000,6.758974853515625,-0.0128326416015625,-0.0032539665699005127,-0.0031545418314635754
1700856732332971800,6.7759716796875,-0.008047103881835938,-0.003260701894760132,-0.00789096113294363
1700856732349963800,6.7929638671875,-0.017620086669921875,0.011124253273010254,-0.003167734481394291
1700856732366959900,6.8099599609375,-0.00804901123046875,0.006351560354232788,-0.0032337349839508533
1700856732383950000,6.8269501953125,-0.012831687927246094,0.020638197660446167,0.011637626215815544
1700856732400933000,6.84393310546875,-0.01761627197265625,0.011047273874282837,-0.0027406150475144386
1700856732417936400,6.860936279296875,-0.008048057556152344,-0.017590880393981934,-0.003296829992905259
1700856732434930400,6.877930419921875,-0.0032644271850585938,-0.03190970420837402,-0.008020732551813126
1700856732451923000,6.8949228515625,-0.008055686950683594,-0.017429262399673462,0.0014799346681684256
1700856732468916700,6.911916748046875,-0.017627716064453125,0.016089916229248047,0.0068276422098279
1700856732485907500,6.928907470703125,-0.012833595275878906,0.02069610357284546,0.00200974615290761
1700856732502905300,6.9459052734375,-0.012825965881347656,0.01573878526687622,0.001918109366670251
1700856732519895300,6.962895263671875,-0.01282501220703125,0.010922342538833618,-0.008153793402016163
1700856732536889600,6.9798896484375,-0.02239227294921875,0.006055086851119995,-0.012324257753789425
1700856732553879800,6.9968798828125,-0.022393226623535156,-0.008293241262435913,-0.00818394310772419
1700856732570878700,7.013878662109375,-0.017608642578125,-0.017831504344940186,0.0013762926682829857
1700856732587881200,7.030881103515625,-0.01282501220703125,0.0013555586338043213,0.010945499874651432
1700856732604862200,7.0478623046875,-0.012824058532714844,0.00611075758934021,0.0013866715598851442
1700856732621855000,7.06485498046875,-0.008037567138671875,-0.0034741461277008057,-0.012917931191623211
1700856732638848800,7.081848876953125,-0.02239513397216797,-0.013020247220993042,-0.008130094036459923
1700856732655841000,7.098841064453125,-0.017608642578125,-0.008260190486907959,-0.003392669605091214
1700856732672835000,7.1158349609375,-0.0032529830932617188,0.010903984308242798,0.00137188914231956
1700856732689827800,7.132827880859375,-0.017608642578125,0.0013103783130645752,0.006165574304759502
1700856732706821600,7.149821533203125,-0.012822151184082031,0.0060732364654541016,0.006719834171235561
1700856732723810300,7.166810302734375,-0.017607688903808594,0.0012892484664916992,-0.01729237288236618
1700856732740811500,7.1838115234375,-0.017607688903808594,0.006087660789489746,-0.0077116163447499275
1700856732757800700,7.20080078125,-0.008036613464355469,0.0012881457805633545,-0.008244261145591736
1700856732774794500,7.21779443359375,-0.017607688903808594,-0.0034872591495513916,0.0013692211359739304
1700856732791790600,7.23479052734375,-0.017609596252441406,0.006120055913925171,0.006096102297306061
1700856732808780800,7.25178076171875,-0.017610549926757812,0.010925441980361938,0.010762061923742294
1700856732825773600,7.268773681640625,-0.012826919555664062,-0.008172035217285156,0.001215439522638917
1700856732842767400,7.285767333984375,-0.022396087646484375,-0.008206158876419067,-0.013026159256696701
1700856732859759600,7.302759521484375,-0.0038537979125976562,0.001410067081451416,-0.017780011519789696
1700856732876753400,7.31975341796875,-0.017614364624023438,0.006215900182723999,0.0019674634095281363
1700856732893746000,7.336745849609375,-0.0080413818359375,0.006185442209243774,0.006105018779635429
1700856732910740000,7.353739990234375,-0.008044242858886719,-0.003332972526550293,0.01084194891154766
1700856732927732200,7.370732177734375,-0.008047103881835938,0.006317138671875,0.00605732761323452
1700856732944715500,7.387715576171875,-0.017617225646972656,0.0015003979206085205,-0.012420006096363068
1700856732961718800,7.40471875,-0.017620086669921875,-0.012788474559783936,-0.01782282441854477
1700856732978702300,7.421702392578125,-0.022405624389648438,-0.007994204759597778,-0.008134204894304276
1700856732995705000,7.438705078125,-0.012836456298828125,-0.003172457218170166,-0.008129436522722244
1700856733012696600,7.455696533203125,-0.012834548950195312,-0.008016198873519897,0.010917598381638527
1700856733029694200,7.472694091796875,-0.0128326416015625,0.001539856195449829,0.006131788250058889
1700856733046685700,7.489685791015625,-0.017624855041503906,0.006446659564971924,0.0019511827267706394
1700856733063678000,7.506677978515625,-0.017620086669921875,0.011133939027786255,-0.012462836690247059
1700856733080671700,7.523671630859375,-0.00804901123046875,0.006360560655593872,-0.013079497963190079
1700856733097653800,7.54065380859375,-0.027193069458007812,0.0063874125480651855,-0.00757650937885046
1700856733114658300,7.557658203125,-0.01761913299560547,-0.003243058919906616,0.006159855052828789
1700856733131653000,7.574653076171875,-0.017620086669921875,-0.012797743082046509,0.006169886328279972
1700856733148641800,7.591641845703125,-0.012835502624511719,-0.01276463270187378,0.0014000653754919767
1700856733165637400,7.608637451171875,-0.01762104034423828,0.0015934407711029053,-0.003355886787176132
1700856733182620400,7.625620361328125,-0.022401809692382812,0.020620673894882202,-0.007538849487900734
1700856733199623400,7.64262353515625,-0.027184486389160156,0.015761613845825195,-0.007433800958096981
1700856733216617200,7.6596171875,-0.01761341094970703,0.001415848731994629,0.006308958865702152
1700856733233610000,7.67660986328125,-0.017614364624023438,-0.008137226104736328,0.0014818531926721334
1700856733250604000,7.69360400390625,-0.008044242858886719,-0.008119195699691772,0.006285259500145912
1700856733267596300,7.71059619140625,-0.012830734252929688,-0.008100807666778564,-0.008091009221971035
1700856733284590000,7.727590087890625,-0.022397994995117188,0.0014120042324066162,-0.00809621624648571
1700856733301582600,7.74458251953125,-0.012825965881347656,0.010944008827209473,-0.00809294544160366
1700856733318574800,7.761574951171875,-0.008634567260742188,0.025213241577148438,-0.01225962769240141
1700856733335569200,7.778569091796875,-0.022391319274902344,0.015612125396728516,-0.007417355664074421
1700856733352563200,7.795563232421875,-0.017604827880859375,-0.013140738010406494,-0.0031285397708415985
1700856733369555500,7.812555419921875,-0.012822151184082031,-0.02742573618888855,0.001653176499530673
1700856733386549200,7.82954931640625,-0.017609596252441406,-0.013012439012527466,-0.0031939372420310974
1700856733403541800,7.846541748046875,-0.012827873229980469,-0.003376305103302002,0.0016691104974597692
1700856733420535600,7.86353564453125,-0.02239513397216797,0.006125390529632568,0.0064857639372348785
1700856733437528000,7.880528076171875,-0.008032798767089844,0.025141477584838867,0.0017271803226321936
1700856733454519800,7.897519775390625,-0.022386550903320312,0.015502631664276123,-0.002467422280460596
1700856733471517000,7.914516845703125,-0.017599105834960938,0.00588911771774292,0.002301504136994481
1700856733488508200,7.931508056640625,-0.017600059509277344,-0.013221383094787598,0.001629495294764638
1700856733505501000,7.9485009765625,-0.01760387420654297,-0.02272859215736389,0.006491995416581631
1700856733522493400,7.965493408203125,-0.017601966857910156,-0.008399546146392822,0.001721205422654748
1700856733539489300,7.9824892578125,-0.012815475463867188,0.0011544525623321533,-0.0030221021734178066
1700856733556481000,7.99948095703125,-0.008027076721191406,0.0058644115924835205,-0.007810927461832762
1700856733573474800,8.016474853515625,-0.012811660766601562,0.02020546793937683,-0.00721758184954524
1700856733590467800,8.0334677734375,-0.008021354675292969,0.010540693998336792,-0.003025519195944071
1700856733607463400,8.05046337890625,-0.012806892395019531,-0.013388335704803467,0.006566802971065044
1700856733624450600,8.067450439453125,-0.012808799743652344,-0.013355523347854614,0.011298507452011108
1700856733641446700,8.08444677734375,-0.02238178253173828,-0.0037523210048675537,0.0017529998440295458
1700856733658440700,8.101440673828124,-0.012807846069335938,-0.0038035213947296143,-0.002990015782415867
1700856733675432700,8.1184326171875,-0.00323486328125,0.005726993083953857,-0.012537898495793343
1700856733692426800,8.1354267578125,-0.012804985046386719,0.010487645864486694,-0.007139247376471758
1700856733709419500,8.15241943359375,-0.022370338439941406,0.0007973313331604004,-0.0023014345206320286
1700856733726413600,8.16941357421875,-0.0128021240234375,0.0008479952812194824,0.006743826903402805
1700856733743405600,8.186405517578125,-0.012804985046386719,-0.003878951072692871,0.016194628551602364
1700856733760400000,8.20339990234375,-0.012806892395019531,-0.0038285255432128906,0.006576761603355408
1700856733777392000,8.22039208984375,-0.012808799743652344,0.00099945068359375,-0.0028543053194880486
1700856733794386200,8.23738623046875,-0.008021354675292969,0.0057525634765625,-0.011759618297219276
1700856733811378400,8.25437841796875,-0.01759624481201172,-0.008538126945495605,-0.01650935783982277
1700856733828372500,8.27137255859375,-0.012808799743652344,-0.018152952194213867,-0.007567408960312605
1700856733845365200,8.288365234375,-0.01280975341796875,-0.0037702322006225586,0.01213423814624548
1700856733862359000,8.305359130859374,-0.0175933837890625,0.015338242053985596,0.007352539338171482
1700856733879351300,8.322351318359376,-0.01758861541748047,0.019997745752334595,0.01211678795516491
1700856733896342800,8.3393427734375,-0.017584800720214844,0.0007787942886352539,-0.0023132567293941975
1700856733913340200,8.356340087890626,-0.008015632629394531,-0.018320977687835693,-0.012314297258853912
1700856733930331600,8.37333154296875,-0.0128021240234375,-0.02307531237602234,-0.016967393457889557
1700856733947323600,8.39032373046875,0.010526657104492188,0.005655348300933838,-0.016926227137446404
1700856733964317700,8.407317626953125,-0.06543827056884766,0.04321441054344177,-0.006796910893172026
1700856733981310700,8.424310791015625,0.015326499938964844,0.07233360409736633,-0.01159847155213356
1700856733998304800,8.4413046875,-0.013383865356445312,0.043579667806625366,-0.011631344445049763
1700856734015297000,8.458297119140624,-0.03671741485595703,-0.028767526149749756,0.00262573198415339
1700856734032290600,8.47529052734375,0.01651287078857422,-0.061431676149368286,0.01160932332277298
1700856734049283000,8.492282958984376,-0.03135204315185547,-0.04748108983039856,0.016331270337104797
1700856734066265300,8.509265380859375,-0.0032377243041992188,0.010563045740127563,0.006660011596977711
1700856734083268000,8.52626806640625,-0.008017539978027344,0.04873207211494446,0.0023817752953618765
1700856734100260600,8.543260498046875,-0.03194427490234375,0.019363075494766235,0.002410115906968713
1700856734117256200,8.560256103515625,-0.0032300949096679688,-0.023109734058380127,-0.002985027153044939
1700856734134250200,8.577250244140625,-0.012807846069335938,-0.04210272431373596,0.006609542295336723
1700856734151241200,8.5942412109375,-0.0032358169555664062,-0.022960811853408813,-0.0077908821403980255
1700856734168237600,8.611237548828125,-0.008024215698242188,-0.01811683177947998,-0.007678140886127949
1700856734185229000,8.62822900390625,-0.017599105834960938,-0.02282780408859253,0.0017784715164452791
1700856734202222800,8.645222900390625,-0.008029937744140625,-0.013215690851211548,0.006471054628491402
1700856734219226600,8.6622265625,-0.012818336486816406,-0.0035852789878845215,0.01597778871655464
1700856734236209200,8.679209228515624,-0.012218475341796875,-0.00423353910446167,0.030340462923049927
1700856734253205000,8.696205078125,-0.02178192138671875,0.0003994405269622803,0.020727984607219696
1700856734270192400,8.7131923828125,-0.012801170349121094,0.019979417324066162,0.002147174207493663
1700856734287185400,8.730185302734375,-0.008009910583496094,0.01983642578125,-0.012186446227133274
1700856734304184300,8.747184326171874,-0.013390541076660156,-0.004158198833465576,-0.026479994878172874
1700856734321174500,8.764174560546875,-0.017579078674316406,-0.0136871337890625,-0.01202952116727829
1700856734338168300,8.781168212890625,-0.012789726257324219,0.005362182855606079,-0.007231998723000288
1700856734355160300,8.798160400390625,-0.007998466491699219,0.0291578471660614,0.02146339789032936
1700856734372155000,8.81515478515625,-0.03192138671875,0.06192067265510559,0.011769134551286697
1700856734389147400,8.8321474609375,0.03928089141845703,0.07177600264549255,0.00171424332074821
1700856734406141200,8.84914111328125,0.010572433471679688,0.023780792951583862,-0.012540256604552269
1700856734423133700,8.8661337890625,-0.07976627349853516,-0.043612003326416016,-0.012051979079842567
1700856734440127500,8.88312744140625,0.044643402099609375,-0.10483574867248535,-0.022753771394491196
1700856734457120000,8.9001201171875,-0.031342506408691406,-0.06625157594680786,0.0018034500535577536
1700856734474104000,8.91710400390625,-0.027152061462402344,0.024625122547149658,0.007106408476829529
1700856734491106300,8.934106201171875,0.02011871337890625,0.07698118686676025,-0.007808625232428312
1700856734508100000,8.95110009765625,-0.0414886474609375,0.03790214657783508,0.0023856123443692923
1700856734525092900,8.9680927734375,-0.003204345703125,-0.02367722988128662,-0.002901704516261816
1700856734542087000,8.9850869140625,-0.0032148361206054688,-0.06171044707298279,-0.0030066254548728466
1700856734559079000,9.002078857421875,-0.026554107666015625,-0.051945775747299194,0.0017527986783534288
1700856734576072700,9.01907275390625,0.0015659332275390625,0.0005935132503509521,0.0112751554697752
1700856734593065500,9.0360654296875,-0.0223541259765625,0.042887598276138306,0.016630500555038452
1700856734610059800,9.053059814453125,-0.007989883422851562,0.06246030330657959,0.007046072743833065
1700856734627052000,9.070052001953124,-0.0032014846801757812,0.009776532649993896,-0.007906090468168259
1700856734644045600,9.087045654296874,-0.012777328491210938,-0.04756656289100647,-0.017391463741660118
1700856734661038000,9.1040380859375,-0.012787818908691406,-0.04732990264892578,-0.0030886325985193253
1700856734678016000,9.12101611328125,-0.012788772583007812,0.005344480276107788,0.011322151869535446
1700856734695028700,9.13802880859375,-0.012778282165527344,0.043399691581726074,0.007126782089471817
1700856734712018200,9.15501806640625,-0.007988929748535156,0.019370198249816895,0.006471840664744377
1700856734729011000,9.172010986328125,-0.007988929748535156,-0.014129281044006348,-0.00783601589500904
1700856734745994500,9.188994384765625,-0.012781143188476562,-0.04267379641532898,-0.012607992626726627
1700856734762997500,9.20599755859375,-0.017574310302734375,-0.04251328110694885,-0.01252419501543045
1700856734779991300,9.2229912109375,-0.01757335662841797,-0.013817518949508667,0.0018186348024755716
1700856734796983800,9.23998388671875,-0.012783050537109375,0.038713037967681885,0.0215386264026165
1700856734813977900,9.256977783203125,-0.01756000518798828,0.052882999181747437,0.011851671151816845
1700856734830970400,9.273970458984374,-0.012769699096679688,0.02405107021331787,0.0022991469595581293
1700856734847964000,9.2909638671875,-0.022345542907714844,-0.028490126132965088,-0.021595384925603867
1700856734864957000,9.30795703125,-0.017566680908203125,-0.04747268557548523,-0.02208174578845501
1700856734881951000,9.324950927734376,-0.012782096862792969,-0.018725305795669556,-0.0029235216788947582
1700856734898940400,9.3419404296875,-0.017571449279785156,0.01483994722366333,0.0071625784039497375
1700856734915939300,9.358939208984374,-0.017568588256835938,0.03393039107322693,0.016654493287205696
1700856734932929800,9.3759296875,-0.012775421142578125,0.024172484874725342,0.011789051815867424
1700856734949923600,9.392923583984375,-0.012777328491210938,0.0050973594188690186,-0.008023400790989399
1700856734966915800,9.409915771484375,-0.012783050537109375,-0.03786343336105347,-0.017549941316246986
1700856734983909600,9.42690966796875,-0.017577171325683594,-0.032883256673812866,-0.0127785112708807
1700856735000890600,9.443890625,-0.012793540954589844,-0.0041200220584869385,-0.007984096184372902
1700856735017896400,9.460896484375,-0.022360801696777344,0.028686970472335815,0.011765753850340843
1700856735034888400,9.477888427734374,-0.012783050537109375,0.024353712797164917,0.0021680777426809072
1700856735051882500,9.494882568359374,-0.022352218627929688,0.0003898739814758301,-0.002597796730697155
1700856735068875000,9.511875,-0.007998466491699219,-0.013907670974731445,-0.012172321788966656
1700856735085869000,9.528869140625,-0.017568588256835938,-0.023505449295043945,-0.01757250726222992
1700856735102861600,9.545861572265625,-0.02235698699951172,-0.01386803388595581,-0.002571703400462866
1700856735119855400,9.56285546875,-0.012790679931640625,0.005366504192352295,0.01174463052302599
1700856735136861200,9.579861083984374,-0.008005142211914062,0.0245322585105896,0.016457587480545044
1700856735153842000,9.596842041015625,-0.022357940673828125,0.0052856504917144775,0.006883885711431503
1700856735170834200,9.613834228515625,-0.008005142211914062,-0.01855054497718811,0.0014125090092420578
1700856735187828000,9.630827880859375,-0.012793540954589844,-0.03285658359527588,-0.0034518542233854532
1700856735204820700,9.64782080078125,-0.01758098602294922,-0.004094064235687256,-0.0035130491014569998
1700856735221814800,9.664814697265625,-0.01758098602294922,0.019831597805023193,-0.00774766830727458
1700856735238807000,9.68180712890625,-0.013388633728027344,0.029299527406692505,-0.0125043336302042
1700856735255800800,9.69880078125,0.0009717941284179688,0.0244273841381073,-0.013068679720163345
1700856735272783400,9.715783447265625,-0.01757049560546875,-0.00912424921989441,-0.008266516961157322
1700856735289787600,9.73278759765625,-0.01757526397705078,-0.028140395879745483,0.0019476560410112143
1700856735306779400,9.749779296875,-0.012195587158203125,-0.018492907285690308,0.021071963012218475
1700856735323773400,9.7667734375,-0.0169830322265625,0.0007070302963256836,0.016247892752289772
1700856735340766500,9.783766357421875,-0.008008003234863281,0.019788891077041626,0.0018932039383798838
1700856735357756700,9.800756591796874,-0.012785911560058594,0.019617974758148193,0.0018717884086072445
1700856735374752300,9.817752197265625,-0.008000373840332031,-0.004310905933380127,-0.01799018308520317
1700856735391746300,9.834746337890625,-0.008004188537597656,-0.009003281593322754,-0.017999282106757164
1700856735408738800,9.85173876953125,-0.012790679931640625,0.0005843043327331543,-0.01725836843252182
1700856735425732900,9.86873291015625,-0.012787818908691406,0.014888167381286621,-0.00767136225476861
1700856735442725000,9.88572509765625,-0.017568588256835938,0.010006844997406006,-0.0028406025376170874
1700856735459719200,9.90271923828125,-0.012785911560058594,-0.004291325807571411,0.010876174084842205
1700856735476709400,9.91970947265625,-0.012790679931640625,-0.0185471773147583,0.005989225581288338
1700856735493708300,9.936708251953124,-0.012793540954589844,-0.0184800922870636,0.005896291695535183
1700856735510698000,9.953697998046875,-0.012797355651855469,0.0007375776767730713,0.005906159058213234
1700856735527701800,9.97070166015625,-0.012797355651855469,0.015100181102752686,0.011278205551207066
1700856735544684800,9.987684814453125,-0.012797355651855469,0.019874662160873413,0.0064977314323186874
1700856735561675300,10.00467529296875,-0.017579078674316406,0.00543898344039917,0.006409310735762119
1700856735578674200,10.021674072265625,-0.012801170349121094,-0.018328577280044556,0.001645446289330721
1700856735595648000,10.03864794921875,-0.012803077697753906,-0.027857840061187744,-0.0037141384091228247
1700856735612660200,10.05566015625,-0.022377967834472656,-0.0038390755653381348,-0.0031188568100333214
1700856735629651500,10.0726513671875,-0.012804031372070312,0.024803191423416138,-0.007848039269447327
1700856735646630700,10.089630615234375,-0.0038280487060546875,0.034320324659347534,-0.01265095267444849
1700856735663640300,10.106640380859375,-0.0128021240234375,0.015208154916763306,-0.00784449465572834
1700856735680630000,10.123630126953126,-0.012804031372070312,0.0008824765682220459,-0.012549266219139099
1700856735697624000,10.1406240234375,-0.017594337463378906,-0.013375461101531982,-0.0035651258658617735
1700856735714616000,10.157615966796875,-0.022385597229003906,-0.022805094718933105,-0.0035190789494663477
1700856735731610400,10.1746103515625,-0.012816429138183594,-0.0036315619945526123,0.0012864284217357635
1700856735748603100,10.19160302734375,-0.008030891418457031,0.01551586389541626,0.0060789440758526325
1700856735765597000,10.208596923828125,-0.02238750457763672,0.015511780977249146,0.00667894072830677
1700856735782586400,10.22558642578125,-0.017604827880859375,-0.00835314393043518,0.00662637036293745
1700856735799585500,10.24258544921875,-0.008038520812988281,-0.013039767742156982,0.005933110602200031
1700856735816576000,10.259575927734375,-0.012826919555664062,-0.00816449522972107,-0.008377504535019398
1700856735833569800,10.27656982421875,-0.012826919555664062,0.0013903379440307617,-0.013137001544237137
1700856735850562000,10.29356201171875,-0.017606735229492188,0.015636026859283447,-0.012513999827206135
1700856735867555800,10.310555908203124,-0.012821197509765625,0.015620052814483643,-0.0030355704948306084
1700856735884548400,10.32754833984375,-0.022390365600585938,0.006006687879562378,0.0015937532298266888
1700856735901542700,10.344542724609376,-0.017606735229492188,-0.0035129189491271973,-0.0037497151643037796
1700856735918535200,10.36153515625,-0.01761150360107422,-0.017775654792785645,0.01063928846269846
1700856735935528700,10.37852880859375,-0.012824058532714844,0.0061025917530059814,-0.008549814112484455
1700856735952521200,10.395521240234375,-0.022393226623535156,0.00607648491859436,-0.013385653495788574
1700856735969504800,10.4125048828125,-0.012821197509765625,0.015630513429641724,-0.008006571792066097
1700856735986507500,10.429507568359375,-0.01760578155517578,0.0012489855289459229,0.00578192388638854
1700856736003501300,10.446501220703125,-0.017609596252441406,-0.013030529022216797,-0.0038040028885006905
1700856736020494000,10.463494140625,-0.017610549926757812,-0.008218437433242798,0.0009264592081308365
1700856736037488400,10.48048828125,-0.008037567138671875,-0.0034830868244171143,0.005683288909494877
1700856736054480400,10.49748046875,-0.022393226623535156,0.006062954664230347,0.001432790420949459
1700856736071474200,10.51447412109375,-0.012819290161132812,0.015575140714645386,-0.003429033327847719
1700856736088467000,10.531467041015626,-0.017600059509277344,0.005911201238632202,-0.008200882002711296
1700856736105461000,10.5484609375,-0.012814521789550781,-0.01803147792816162,-0.013604486361145973
1700856736122453200,10.565453369140625,-0.012816429138183594,-0.008433103561401367,-0.003981447778642178
1700856736139447000,10.582447021484375,-0.017599105834960938,0.020230412483215332,0.001401873305439949
1700856736156439600,10.599439453125,-0.017595291137695312,0.02014663815498352,0.0013910741545259953
1700856736173433600,10.61643359375,-0.022376060485839844,0.005689173936843872,0.010914728045463562
1700856736190425900,10.63342578125,-0.022377967834472656,-0.0038385987281799316,0.001358530716970563
1700856736207417000,10.6504169921875,-0.01280975341796875,-0.008562088012695312,-0.003968675155192614
1700856736224415700,10.667415771484375,-0.017597198486328125,0.0010433495044708252,-0.008199603296816349
1700856736241406700,10.68440673828125,-0.008028030395507812,-0.008466154336929321,-0.004054044373333454
1700856736258399000,10.70139892578125,-0.012811660766601562,-0.0037296414375305176,0.000777172390371561
1700856736275392500,10.718392578125,-0.022382736206054688,0.01063615083694458,0.001360613852739334
1700856736292385300,10.73538525390625,-0.012806892395019531,0.015312671661376953,-0.008688795380294323
1700856736309378000,10.7523779296875,-0.012804985046386719,0.015254735946655273,-0.008728263899683952
1700856736326371600,10.76937158203125,-0.0038328170776367188,0.005702495574951172,-0.023012768477201462
1700856736343363300,10.78636328125,-0.008017539978027344,0.0056532323360443115,-0.013385708443820477
1700856736360360400,10.8033603515625,-0.012806892395019531,-0.008633732795715332,0.010565065778791904
1700856736377352000,10.82035205078125,-0.02178192138671875,-0.018757551908493042,0.030201004818081856
1700856736394342000,10.837341796875,-0.0026445388793945312,0.005865246057510376,0.019936179742217064
1700856736411337000,10.8543369140625,-0.017599105834960938,0.00588265061378479,0.0013560091610997915
1700856736428334600,10.87133447265625,-0.008625984191894531,-0.003702878952026367,-0.02783903107047081
1700856736445325000,10.888324951171874,-0.00384521484375,-0.027508646249771118,-0.03250711411237717
1700856736462317300,10.9053173828125,-0.03196144104003906,-0.013151019811630249,-0.012761885300278664
1700856736479311000,10.92231103515625,-0.012818336486816406,0.0012075304985046387,0.006371724419295788
1700856736496303900,10.939303955078126,-0.012816429138183594,0.015514224767684937,0.020647089928388596
1700856736513298000,10.9562978515625,-0.012811660766601562,0.010628074407577515,0.019948715344071388
1700856736530290000,10.9732900390625,-0.008028984069824219,-0.0036755800247192383,0.010260626673698425
1700856736547285000,10.990284912109376,-0.008030891418457031,-0.003622710704803467,-0.004041619133204222
1700856736564275200,11.007275146484375,-0.008028984069824219,0.0011053681373596191,-0.008749077096581459
1700856736581270300,11.024270263671875,-0.012813568115234375,-0.003677874803543091,-0.013437218964099884
1700856736598262800,11.0412626953125,-0.017600059509277344,0.010687977075576782,-0.0032606518361717463
1700856736615256600,11.058256591796875,-0.012804031372070312,0.010467618703842163,0.0015160583425313234
1700856736632249300,11.075249267578124,-0.02237415313720703,0.0002576112747192383,0.015920666977763176
1700856736649243400,11.092243408203124,-0.0074214935302734375,-0.008661866188049316,0.015252478420734406
1700856736666235400,11.1092353515625,-0.008023262023925781,-0.0037878751754760742,0.010404706001281738
1700856736683229400,11.1262294921875,-0.012813568115234375,-0.01804855465888977,0.000812785467132926
1700856736700211700,11.143211669921875,-0.022391319274902344,-0.02748069167137146,-0.01834286004304886
1700856736717216000,11.160216064453126,-0.013422012329101562,-0.008234471082687378,-0.027775753289461136
1700856736734208300,11.177208251953125,-0.013418197631835938,0.034741222858428955,-0.0414150208234787
1700856736751202300,11.194202392578125,-0.018187522888183594,0.06310448050498962,-0.022124575451016426
1700856736768194800,11.21119482421875,-0.0080108642578125,0.02463209629058838,-0.007724315859377384
1700856736785186800,11.228186767578125,-0.02656269073486328,-0.05714687705039978,0.01556219719350338
1700856736802183700,11.24518359375,0.016493797302246094,-0.07536724209785461,0.034711264073848724
1700856736819175000,11.2621748046875,-0.026582717895507812,-0.00882682204246521,0.04932721331715584
1700856736836167700,11.279167724609374,-0.017601966857910156,0.06277081370353699,0.02989126741886139
1700856736853161700,11.29616162109375,-0.013403892517089844,0.07269757986068726,-0.013186320662498474
1700856736870154000,11.313154052734374,-0.028354644775390625,0.005596369504928589,-0.06087157502770424
1700856736887147800,11.330147705078126,-0.003833770751953125,-0.05168983340263367,-0.06590267270803452
1700856736904140500,11.347140625,-0.0038394927978515625,-0.046778708696365356,-0.0368710421025753
1700856736921134600,11.364134521484376,-0.017599105834960938,-0.008472710847854614,0.011030448600649834
1700856736938126600,11.381126708984375,-0.01221466064453125,0.010049134492874146,0.04443100094795227
1700856736955120400,11.398120361328125,0.031459808349609375,0.015302538871765137,0.07292046397924423
1700856736972113400,11.415113525390625,0.012315750122070312,-0.009179890155792236,0.06307815760374069
1700856736989107500,11.432107421875,-0.03614234924316406,-0.02824103832244873,0.020443571731448174
1700856737006099500,11.449099365234375,0.015298843383789062,-0.022767096757888794,-0.03270399942994118
1700856737023093500,11.466093505859375,-0.037940025329589844,0.015497833490371704,-0.06063386797904968
1700856737040086000,11.4830859375,-0.009211540222167969,0.048675745725631714,-0.06037246063351631
1700856737057080300,11.500080322265624,-0.0038194656372070312,0.043708622455596924,-0.026689764112234116
1700856737074072000,11.517072021484376,-0.02176189422607422,-0.009611725807189941,0.025861848145723343
1700856737091066000,11.534066162109376,-0.01638507843017578,-0.057348936796188354,0.04901000112295151
1700856737108059100,11.55105908203125,-0.02117633819580078,-0.05721324682235718,0.05371267348527908
1700856737125052700,11.568052734375,-0.016988754272460938,-0.014118552207946777,0.02014837972819805
1700856737142045200,11.585045166015625,-0.008609771728515625,0.03424263000488281,-0.017476925626397133
1700856737159039000,11.6020390625,-0.018770217895507812,0.07229557633399963,-0.04600982740521431
1700856737176032000,11.619031982421875,0.0003871917724609375,0.06242796778678894,-0.060060054063797
1700856737193025500,11.636025634765625,-0.008585929870605469,0.009787708520889282,-0.04130170866847038
1700856737210017800,11.653017822265625,-0.027138710021972656,-0.04266244173049927,0.0017888688016682863
1700856737227011800,11.67001171875,-0.012188911437988281,-0.05273604393005371,0.039940278977155685
1700856737244004600,11.687004638671874,-0.007404327392578125,-0.0048548877239227295,0.04931747540831566
1700856737260998400,11.703998291015624,-0.017566680908203125,0.04286825656890869,0.02591288462281227
1700856737277988400,11.72098828125,-0.008586883544921875,0.03852027654647827,-0.012327071279287338
1700856737294987500,11.737987548828125,-0.018157958984375,-0.004547595977783203,-0.04629398137331009
1700856737311977500,11.7549775390625,-0.013376235961914062,-0.037954866886138916,-0.045911647379398346
1700856737328971300,11.77197119140625,-0.007998466491699219,-0.04262933135032654,-0.02670978754758835
1700856737345963500,11.788963623046875,-0.02175617218017578,-0.01931825280189514,0.016326794400811195
1700856737362957300,11.805957275390625,-0.007397651672363281,0.018930554389953613,0.04081105440855026
1700856737379950000,11.8229501953125,-0.007389068603515625,0.03787297010421753,0.03602462261915207
1700856737396946200,11.8399462890625,-0.01695728302001953,0.018674999475479126,0.02639929950237274
1700856737413926100,11.856926025390624,-0.012772560119628906,-0.014170229434967041,-0.012386254966259003
1700856737430920000,11.873919921875,-0.022339820861816406,-0.023820430040359497,-0.026028461754322052
1700856737447922700,11.890922607421874,-0.008582115173339844,-0.014233231544494629,-0.026391297578811646
1700856737464916700,11.907916748046874,-0.012766838073730469,0.00007873773574829102,-0.0066776094026863575
1700856737481909000,11.924908935546876,-0.012767791748046875,0.004895120859146118,0.007633882574737072
1700856737498903000,11.941903076171876,-0.012766838073730469,0.014410674571990967,0.017186278477311134
1700856737515895800,11.958895751953126,-0.017547607421875,0.009528100490570068,0.0029006244149059057
1700856737532889900,11.975889892578126,-0.0031890869140625,0.004697144031524658,-0.007274426985532045
1700856737549881900,11.9928818359375,-0.012763023376464844,-0.009585380554199219,-0.016751157119870186
1700856737566876000,12.0098759765625,-0.007976531982421875,-0.00960475206375122,-0.011925695464015007
1700856737583868700,12.02686865234375,-0.007976531982421875,-0.000026911497116088867,-0.01183166541159153
1700856737600862500,12.043862548828125,-0.031902313232421875,-0.00010782480239868164,0.003055739914998412
1700856737617852000,12.060851806640626,-0.012757301330566406,-0.00012797117233276367,0.007215368561446667
1700856737634840800,12.0778408203125,-0.012755393981933594,-0.004957854747772217,0.011994252912700176
1700856737651841000,12.094841064453124,-0.017539024353027344,-0.00500217080116272,0.002396010560914874
1700856737668832800,12.111832763671876,-0.012754440307617188,-0.0002097487449645996,-0.007164718583226204
1700856737685830100,12.128830078125,-0.017539024353027344,0.0045643150806427,-0.0017204037867486477
1700856737702821400,12.1458212890625,-0.017541885375976562,0.009414583444595337,-0.0016731694340705872
1700856737719814100,12.162814208984376,-0.022321701049804688,0.004489779472351074,0.00786967109888792
1700856737736808400,12.179808349609376,-0.012754440307617188,-0.019345760345458984,0.0071878135204315186
1700856737753800200,12.19680029296875,-0.01754283905029297,-0.019270211458206177,0.007099411450326443
1700856737770794200,12.213794189453125,-0.007974624633789062,-0.004855722188949585,-0.007304174825549126
1700856737787787300,12.230787353515625,-0.012760162353515625,0.01906222105026245,-0.006746076978743076
1700856737804781000,12.247781005859375,-0.01754283905029297,0.018988698720932007,-0.006841368041932583
1700856737821770500,12.2647705078125,-0.007968902587890625,0.014147907495498657,-0.002072881441563368
1700856737838769700,12.281769775390625,-0.01753997802734375,-0.004988759756088257,-0.006874131038784981
1700856737855759600,12.298759521484374,-0.012758255004882812,-0.014477521181106567,-0.007567975670099258
1700856737872746800,12.315746826171875,-0.007978439331054688,-0.023922443389892578,0.002004429930821061
1700856737889746200,12.33274609375,-0.01755237579345703,0.004864543676376343,0.0026185691822320223
1700856737906740000,12.349739990234376,-0.02233600616455078,0.019155949354171753,0.0025930425617843866
1700856737923732700,12.366732666015626,-0.02233123779296875,0.004700064659118652,-0.0022007524967193604
1700856737940726500,12.3837265625,-0.012759208679199219,-0.014470577239990234,0.0019711556378751993
1700856737957714000,12.4007138671875,-0.012762069702148438,-0.01918157935142517,0.0068417685106396675
1700856737974712600,12.417712646484375,-0.022333145141601562,-0.000026017427444458008,-0.0020919395610690117
1700856737991702000,12.434701904296874,-0.012762069702148438,0.01432567834854126,-0.0021462091244757175
1700856738008702700,12.45170263671875,-0.017545700073242188,0.00949317216873169,0.0026782474014908075
1700856738025691600,12.468691650390625,-0.022332191467285156,-0.00004819035530090332,0.007382196374237537
1700856738042685400,12.485685546875,-0.012760162353515625,-0.009647220373153687,0.002028056187555194
1700856738059675600,12.502675537109376,-0.01755046844482422,-0.014333397150039673,-0.002771859522908926
1700856738076674600,12.519674560546875,-0.017551422119140625,-0.004739582538604736,-0.0021916162222623825
1700856738093664300,12.536664306640626,-0.017548561096191406,0.00954526662826538,0.0025804161559790373
1700856738110639900,12.553639892578126,-0.012755393981933594,0.00940626859664917,-0.006940752733498812
1700856738127650800,12.57065087890625,-0.022330284118652344,-0.004886060953140259,0.0026060158852487803
1700856738144643800,12.587643798828125,-0.012760162353515625,-0.009639889001846313,0.006810175254940987
1700856738161638400,12.604638427734375,-0.02711772918701172,-0.004849880933761597,-0.0021234597079455853
1700856738178631000,12.621630859375,-0.031902313232421875,0.009476274251937866,0.0026842954102903605
1700856738195621400,12.638621337890624,0.006382942199707031,0.01426011323928833,0.002078013261780143
1700856738212620500,12.65562060546875,-0.017546653747558594,-0.004844367504119873,0.0025974095333367586
1700856738229610000,12.67260986328125,-0.02711963653564453,-0.014367222785949707,-0.006971852388232946
1700856738246603800,12.689603759765625,-0.012768745422363281,-0.019035637378692627,-0.016948390752077103
1700856738263596500,12.706596435546874,-0.022336959838867188,0.009622454643249512,-0.011577952653169632
1700856738280590800,12.7235908203125,-0.017547607421875,0.02867370843887329,-0.006783480755984783
1700856738297582800,12.740582763671876,-0.007970809936523438,0.014202624559402466,0.0021810156758874655
1700856738314574000,12.757573974609375,-0.012761116027832031,-0.01920562982559204,0.006941280327737331
1700856738331572000,12.774572021484374,-0.012763023376464844,-0.0287264883518219,0.007001744583249092
1700856738348563500,12.7915634765625,-0.007981300354003906,0.00006967782974243164,-0.006713606417179108
1700856738365555500,12.808555419921875,-0.012767791748046875,0.00966140627861023,-0.0019525382667779922
1700856738382549800,12.8255498046875,-0.017553329467773438,0.009664386510848999,0.0028085673693567514
1700856738399542300,12.842542236328125,-0.007981300354003906,0.004857271909713745,0.007545351982116699
1700856738416536300,12.859536376953125,-0.01755523681640625,-0.009452581405639648,0.0027731365989893675
1700856738433528600,12.876528564453125,-0.007987022399902344,-0.023734241724014282,-0.007442498113960028
1700856738450522400,12.8935224609375,-0.007991790771484375,-0.009270727634429932,-0.002553411293774843
1700856738467515000,12.910514892578124,-0.031920433044433594,0.028401851654052734,0.0028073794674128294
1700856738484509000,12.927509033203124,0.006369590759277344,0.033703237771987915,0.007552057504653931
1700856738501501400,12.94450146484375,-0.012775421142578125,-0.009321212768554688,0.007464824244379997
1700856738518496000,12.96149609375,-0.031925201416015625,-0.03308182954788208,-0.006947604939341545
1700856738535487700,12.97848779296875,-0.0032138824462890625,-0.004311203956604004,-0.012348979711532593
1700856738552481800,12.995481689453126,-0.018167495727539062,0.024377137422561646,-0.011723347008228302
1700856738569463600,13.012463623046875,-0.012782096862792969,0.01954987645149231,-0.0026925569400191307
1700856738586468000,13.029468017578125,-0.012780189514160156,-0.004425495862960815,0.002083385596051812
1700856738603460600,13.046460693359375,-0.012785911560058594,-0.0043027400970458984,0.0022040025796741247
1700856738620454400,13.063454345703125,-0.017568588256835938,-0.004341870546340942,-0.0020017828792333603
1700856738637446700,13.08044677734375,-0.02714252471923828,-0.004280149936676025,0.0027140432503074408
1700856738654441000,13.09744091796875,-0.027144432067871094,0.0005164444446563721,0.007506157271564007
1700856738671433500,13.11443359375,-0.0032176971435546875,0.005331158638000488,0.0068460991606116295
1700856738688427500,13.131427490234374,0.011140823364257812,0.005308598279953003,0.002155050402507186
1700856738705419500,13.14841943359375,-0.0032176971435546875,0.005354166030883789,-0.007352542132139206
1700856738722413300,13.165413330078126,-0.022363662719726562,0.010209083557128906,-0.00674474285915494
1700856738739411500,13.182411376953125,-0.017576217651367188,0.01494455337524414,0.002868811832740903
1700856738756400400,13.199400390625,-0.008008956909179688,-0.004111170768737793,0.0022282504942268133
1700856738773395000,13.21639501953125,-0.022368431091308594,-0.027967840433120728,0.006923537701368332
1700856738790383600,13.233383544921875,-0.008017539978027344,-0.013486862182617188,-0.007393655367195606
1700856738807379000,13.25037890625,0.0009584426879882812,0.0008047521114349365,-0.021703466773033142
1700856738824372700,13.267372802734375,-0.03194141387939453,0.010339528322219849,-0.006567024160176516
1700856738841365200,13.284365234375,-0.046294212341308594,0.024024754762649536,0.012500876560807228
1700856738858359300,13.301359375,0.02549266815185547,0.014987647533416748,0.011837365105748177
1700856738875351800,13.318351806640624,-0.008008003234863281,0.0006656944751739502,0.011819275096058846
1700856738892348000,13.335347900390625,-0.031943321228027344,-0.03328979015350342,0.0027683309745043516
1700856738909325300,13.3523251953125,0.0015535354614257812,-0.032617151737213135,-0.007309692911803722
1700856738926313200,13.369313232421876,-0.013405799865722656,-0.008584171533584595,-0.025848567485809326
1700856738943324700,13.38632470703125,-0.05587196350097656,0.01938679814338684,-0.011349838227033615
1700856738960316200,13.403316162109375,-0.02715301513671875,0.03422403335571289,0.003051610430702567
1700856738977313300,13.420313232421876,0.00156402587890625,0.043691486120224,0.017384354025125504
1700856738994305000,13.437304931640625,-0.0409088134765625,0.004850298166275024,0.022072860971093178
1700856739011297300,13.45429736328125,-0.0032281875610351562,-0.032693952322006226,0.007082052528858185
1700856739028291300,13.471291259765625,-0.008019447326660156,-0.042165279388427734,-0.012108732014894485
1700856739045283800,13.488283935546875,-0.02297496795654297,0.0009178817272186279,-0.03058895282447338
1700856739062277600,13.505277587890625,-0.008611679077148438,0.024718552827835083,-0.03515956550836563
1700856739079270400,13.5222705078125,-0.022362709045410156,0.01019197702407837,-0.001586283091455698
1700856739096264200,13.53926416015625,-0.007411956787109375,-0.014234453439712524,0.03597921505570412
1700856739113256700,13.556256591796876,-0.012200355529785156,-0.0237729549407959,0.04536288231611252
1700856739130250200,13.573250244140626,-0.0217742919921875,-0.00454944372177124,0.017121154814958572
1700856739147243000,13.590242919921875,-0.008016586303710938,0.015208959579467773,-0.0068130274303257465
1700856739164237000,13.607237060546876,-0.013396263122558594,0.03425726294517517,-0.0449705570936203
1700856739181229600,13.6242294921875,-0.008601188659667969,0.03884580731391907,-0.04481542482972145
1700856739198223400,13.641223388671875,-0.0133819580078125,0.01960054039955139,-0.04460499808192253
1700856739215216000,13.658216064453125,-0.017571449279785156,-0.02820083498954773,-0.006960614118725061
1700856739232210000,13.6752099609375,-0.012195587158203125,-0.043002188205718994,0.026388373225927353
1700856739249202200,13.6922021484375,-0.012201309204101562,-0.028526782989501953,0.0358518548309803
1700856739266196000,13.709196044921875,-0.016986846923828125,0.019338905811309814,0.03145601972937584
1700856739283188700,13.726188720703124,-0.012795448303222656,0.010274499654769897,0.002696702489629388
1700856739300172000,13.743172119140626,-0.01817798614501953,0.019828885793685913,-0.021189168095588684
1700856739317166600,13.76016650390625,-0.018177032470703125,0.01024964451789856,-0.04016181454062462
1700856739334168800,13.7771689453125,-0.013397216796875,-0.013565361499786377,-0.02624763920903206
1700856739351161300,13.794161376953125,-0.01758098602294922,-0.01843923330307007,0.0025156408082693815
1700856739368155600,13.81115576171875,-0.012201309204101562,-0.004589498043060303,0.02694179303944111
1700856739385147600,13.828147705078125,-0.007411956787109375,0.02881920337677002,0.03164828196167946
1700856739402141700,13.8451416015625,-0.022363662719726562,0.023974955081939697,0.012486404739320278
1700856739419134200,13.86213427734375,-0.012792587280273438,-0.004163652658462524,-0.0019370978698134422
1700856739436128500,13.87912841796875,-0.017583847045898438,-0.027959108352661133,-0.021624237298965454
1700856739453120500,13.89612060546875,-0.01758861541748047,-0.018272817134857178,-0.021492108702659607
1700856739470114800,13.91311474609375,-0.008019447326660156,0.0009233653545379639,-0.01665751077234745
1700856739487107300,13.930107421875,0.0063419342041015625,0.01995694637298584,-0.007068458944559097
1700856739504101000,13.94710107421875,-0.07441139221191406,0.03363558650016785,0.02693517878651619
1700856739521093400,13.96409326171875,0.01592254638671875,0.04368865489959717,0.021399226039648056
1700856739538076700,13.98107666015625,-0.017576217651367188,0.0005903542041778564,0.01655123569071293
1700856739555080000,13.998079833984375,-0.03672599792480469,-0.037542492151260376,-0.01632891595363617
1700856739572073200,14.0150732421875,0.010522842407226562,-0.03252854943275452,-0.05978858098387718
1700856739589067000,14.03206689453125,-0.018192291259765625,0.015363484621047974,-0.04954036325216293
1700856739606060000,14.04906005859375,-0.013397216796875,0.03909534215927124,-0.030273403972387314
1700856739623050200,14.06605029296875,-0.012797355651855469,0.015114277601242065,-0.0014477954246103764
1700856739640049400,14.08304931640625,-0.002628326416015625,-0.023172885179519653,0.031463347375392914
1700856739657038800,14.100038818359375,0.0027475357055664062,-0.0762467086315155,0.05515247583389282
1700856739674033000,14.117032958984375,-0.015813827514648438,-0.09978652000427246,0.06925429403781891
1700856739691025700,14.134025634765624,-0.021210670471191406,-0.05642598867416382,0.045128628611564636
1700856739708019700,14.151019775390624,-0.022406578063964844,0.035087913274765015,0.002539814682677388
1700856739725011700,14.16801171875,-0.014016151428222656,0.12088567018508911,-0.054793037474155426
1700856739742005800,14.185005859375,-0.028957366943359375,0.0966547429561615,-0.07839011400938034
1700856739758998500,14.20199853515625,-0.004427909851074219,0.0008818507194519043,-0.0594952329993248
1700856739775992300,14.218992431640626,-0.0175933837890625,-0.05644449591636658,-0.002012580167502165
1700856739792987100,14.235987060546876,-0.0020503997802734375,-0.04245489835739136,0.05057385936379433
1700856739809976000,14.25297607421875,-0.006836891174316406,-0.004131317138671875,0.09336133301258087
1700856739826967800,14.2699677734375,-0.02178955078125,0.019721001386642456,0.06009877473115921
1700856739843968500,14.286968505859376,-0.008027076721191406,0.0202254056930542,-0.002135519403964281
1700856739860957400,14.30395751953125,-0.022981643676757812,-0.008513957262039185,-0.05946168303489685
1700856739877951500,14.320951416015625,-0.018798828125,-0.022757738828659058,-0.07409723848104477
1700856739894941400,14.33794140625,-0.018210411071777344,-0.022525876760482788,-0.045192621648311615
1700856739911940900,14.35494091796875,-0.01760578155517578,0.006035506725311279,0.017604757100343704
1700856739928930300,14.371930419921876,-0.016999244689941406,0.024401068687438965,0.05574534833431244
1700856739945924000,14.388924072265626,-0.011612892150878906,0.014754951000213623,0.06032862514257431
1700856739962906600,14.40590673828125,-0.017002105712890625,-0.018612384796142578,0.021954035386443138
1700856739979911000,14.422910888671876,-0.02238941192626953,-0.02271944284439087,-0.021064292639493942
1700856739996904700,14.43990478515625,-0.0182037353515625,-0.003540903329849243,-0.054362647235393524
1700856740013893000,14.45689306640625,0.014700889587402344,0.05860832333564758,-0.06357139348983765
1700856740030892500,14.473892578125,-0.02297496795654297,0.08227518200874329,-0.001345030963420868
1700856740047883500,14.490883544921875,0.0398406982421875,0.05348232388496399,0.021858908236026764
1700856740064875800,14.507875732421875,-0.05468273162841797,-0.023542344570159912,0.046227943152189255
1700856740081869800,14.524869873046875,-0.0026521682739257812,-0.0992283821105957,0.011937553063035011
1700856740098862300,14.5418623046875,-0.0032644271850585938,-0.07017412781715393,-0.026247164234519005
1700856740115856600,14.558856689453124,-0.04214191436767578,0.015839070081710815,-0.03983195871114731
1700856740132848600,14.5758486328125,0.0057315826416015625,0.08723685145378113,-0.015674009919166565
1700856740149843000,14.592843017578126,-0.0032291412353515625,0.03910422325134277,0.02260906994342804
1700856740166835200,14.609835205078125,-0.025971412658691406,-0.09527584910392761,0.059990089386701584
1700856740183829500,14.62682958984375,0.002716064453125,-0.15629184246063232,0.025634944438934326
1700856740200821500,14.643821533203125,-0.0319976806640625,-0.060205817222595215,-0.02643098682165146
1700856740217815600,14.660815673828125,-0.013441085815429688,0.07356509566307068,-0.035400982946157455
1700856740234808000,14.67780810546875,-0.009237289428710938,0.14019092917442322,-0.03041645884513855
1700856740251802000,14.694802001953125,-0.032547950744628906,0.10146650671958923,-0.011219462379813194
1700856740268794400,14.71179443359375,-0.0032281875610351562,-0.013566374778747559,0.0074646975845098495
1700856740285788200,14.7287880859375,-0.012209892272949219,-0.09950748085975647,0.0218360498547554
1700856740302781000,14.745781005859374,-0.0026483535766601562,-0.08972448110580444,0.021774690598249435
1700856740319774700,14.762774658203124,-0.0074405670166015625,-0.02258273959159851,0.021802611649036407
1700856740336767000,14.77976708984375,-0.022391319274902344,0.04912126064300537,0.00800081342458725
1700856740353761300,14.79676123046875,-0.013409614562988281,0.06805270910263062,-0.0014851079322397709
1700856740370754000,14.813754150390626,-0.018182754516601562,0.04387402534484863,-0.01092551276087761
1700856740387738400,14.83073828125,-0.012801170349121094,-0.018293946981430054,-0.01625518500804901
1700856740404742400,14.847742431640626,-0.012208938598632812,-0.05168411135673523,0.007668308913707733
1700856740421731300,14.8647314453125,-0.026572227478027344,-0.013839006423950195,0.01788165792822838
1700856740438726700,14.8817265625,-0.01759624481201172,0.029761582612991333,0.017791246995329857
1700856740455720200,14.89872021484375,-0.01758575439453125,0.06302541494369507,0.012984020635485649
1700856740472713200,14.915713134765625,-0.017580032348632812,0.03418058156967163,-0.006135737057775259
1700856740489696300,14.9326962890625,-0.008011817932128906,-0.027951925992965698,-0.021047811955213547
1700856740506699500,14.949699462890624,-0.017592430114746094,-0.05644583702087402,-0.025794021785259247
1700856740523693600,14.966693603515624,-0.012818336486816406,-0.04663729667663574,-0.011391004547476768
1700856740540685800,14.983685791015626,-0.022393226623535156,0.0012888908386230469,0.008373153395950794
1700856740557679600,15.0006796875,-0.008030891418457031,0.049030184745788574,0.022712821140885353
1700856740574672400,15.01767236328125,-0.012808799743652344,0.04887154698371887,0.013070943765342236
1700856740591666400,15.03466650390625,-0.017594337463378906,-0.0037802159786224365,-0.001250196248292923
1700856740608658200,15.051658203125,-0.017607688903808594,-0.05132472515106201,-0.01611260510981083
1700856740625652500,15.068652587890625,-0.00804901123046875,-0.055847495794296265,-0.016047317534685135
1700856740642651400,15.0856513671875,-0.012836456298828125,0.006410032510757446,0.0037930740509182215
1700856740659639000,15.10263916015625,-0.008043289184570312,0.05886837840080261,0.018085287883877754
1700856740676631300,15.11963134765625,-0.02239227294921875,0.048530787229537964,0.022833218798041344
1700856740693625300,15.136625244140625,-0.017604827880859375,0.006022036075592041,0.013241993263363838
1700856740710617900,15.153617919921874,-0.008038520812988281,-0.04172694683074951,-0.006512809079140425
1700856740727611600,15.170611572265624,-0.01761627197265625,-0.06071743369102478,-0.016045251861214638
1700856740744604200,15.187604248046876,-0.012836456298828125,-0.01750767230987549,-0.010592970997095108
1700856740761598200,15.20459814453125,-0.0032634735107421875,0.035079777240753174,-0.001016015186905861
1700856740778590700,15.2215908203125,-0.017612457275390625,0.05406218767166138,0.008510160259902477
1700856740795587000,15.238587158203124,-0.05589485168457031,0.010336101055145264,0.013350294902920723
1700856740812574700,15.25557470703125,0.06852531433105469,-0.03199806809425354,0.0026202339213341475
1700856740829570800,15.27257080078125,0.011683464050292969,-0.05087652802467346,0.008051758632063866
1700856740846563600,15.2895634765625,-0.06070232391357422,-0.013109356164932251,0.0037399556022137403
1700856740863566800,15.30656689453125,0.04876708984375,0.035371631383895874,-0.006279194261878729
1700856740880550000,15.3235498046875,-0.036769866943359375,0.04958966374397278,-0.00567344157025218
1700856740897544000,15.3405439453125,-0.018218040466308594,0.030300647020339966,-0.01038888469338417
1700856740914536200,15.3575361328125,0.006306648254394531,-0.022323817014694214,-0.010916830971837044
1700856740931533600,15.374533447265625,-0.036773681640625,-0.05142703652381897,-0.0007058568298816681
1700856740948522800,15.391522705078126,-0.0026836395263671875,-0.03631281852722168,0.017878498882055283
1700856740965516300,15.408516357421876,-0.012851715087890625,0.006756216287612915,0.00889231264591217
1700856740982509300,15.42550927734375,-0.022417068481445312,0.04012325406074524,0.00889465119689703
1700856740999503000,15.442503173828126,0.006300926208496094,0.03523126244544983,-0.005464641377329826
1700856741016495600,15.45949560546875,-0.017625808715820312,0.0017299056053161621,-0.01024453155696392
1700856741033489200,15.4764892578125,-0.012846946716308594,-0.03163906931877136,-0.010969365015625954
1700856741050482200,15.493482177734375,-0.0032815933227539062,-0.036301881074905396,-0.0013519544154405594
1700856741067476000,15.51047607421875,-0.027208328247070312,0.0013675689697265625,0.013549994677305222
1700856741084468500,15.527468505859375,-0.008054733276367188,0.03999856114387512,0.008766488172113895
1700856741101462300,15.544462158203125,-0.012835502624511719,0.03510501980781555,0.008773760870099068
1700856741118454800,15.561454833984374,-0.017618179321289062,0.0063211917877197266,-0.010402003303170204
1700856741135449000,15.578448974609374,-0.008051872253417969,-0.03184261918067932,-0.010871716775000095
1700856741152441300,15.59544140625,-0.012847900390625,-0.03162604570388794,-0.0107371024787426
1700856741169435000,15.612434814453126,-0.012849807739257812,0.0019232332706451416,-0.0005282480269670486
1700856741186428000,15.629427978515626,-0.01763153076171875,0.02098587155342102,0.013843506574630737
1700856741203421700,15.646421630859376,-0.01762866973876953,0.025707244873046875,0.013830186799168587
1700856741220413700,15.66341357421875,-0.01762866973876953,0.00178450345993042,0.009042056277394295
1700856741237405200,15.6804052734375,-0.017633438110351562,-0.026826828718185425,-0.005915552377700806
1700856741254392600,15.697392578125,-0.01285552978515625,-0.03623417019844055,-0.0011303452774882317
1700856741271394300,15.714394287109375,-0.017648696899414062,-0.012137174606323242,0.00432511605322361
1700856741288386800,15.73138671875,-0.01764965057373047,0.011821389198303223,0.009111382067203522
1700856741305380600,15.748380615234375,-0.02721881866455078,0.021344125270843506,0.004293340258300304
1700856741322373400,15.765373291015624,0.011067390441894531,0.016521453857421875,0.008538154885172844
1700856741339368000,15.782367919921874,-0.02721881866455078,-0.007368326187133789,-0.005823531653732061
1700856741356359200,15.799359130859376,-0.012866973876953125,-0.021613657474517822,-0.010683308355510235
1700856741373353200,15.816353271484376,-0.0032949447631835938,-0.007266581058502197,-0.0057370662689208984
1700856741390346200,15.83334619140625,-0.022436141967773438,0.030986785888671875,0.004353364929556847
1700856741407340300,15.85034033203125,-0.008072853088378906,0.04039815068244934,0.009140709415078163
1700856741424332300,15.867332275390625,-0.01764202117919922,0.006867319345474243,0.009146958589553833
1700856741441326000,15.884326171875,-0.0128631591796875,-0.04562067985534668,0.0037469917442649603
1700856741458319000,15.901319091796875,-0.022444725036621094,-0.0453982949256897,-0.005765205714851618
1700856741475313000,15.91831298828125,-0.027235031127929688,0.002582728862762451,-0.009828977286815643
1700856741492305200,15.93530517578125,-0.012873649597167969,0.031177937984466553,-0.00021063443273305893
1700856741509299000,15.952298828125,-0.02722644805908203,0.02631533145904541,0.004544861614704132
1700856741526291700,15.969291748046874,-0.0176544189453125,0.007160484790802002,-0.000362990889698267
1700856741543286000,15.9862861328125,-0.01287078857421875,-0.0023809075355529785,-0.0009656911715865135
1700856741560275500,16.003275390625,-0.017660140991210938,-0.011886686086654663,-0.00570560060441494
1700856741577274400,16.0202744140625,-0.008087158203125,-0.011904299259185791,-0.0009306808933615685
1700856741594254600,16.037254638671875,-0.008088111877441406,-0.0023274123668670654,-0.0008922722190618515
1700856741611258600,16.054258544921876,-0.01765918731689453,0.012024134397506714,-0.000306492205709219
1700856741628251000,16.0712509765625,-0.01287078857421875,0.011967271566390991,0.004402810707688332
1700856741645240600,16.088240478515626,-0.0033016204833984375,-0.0023586153984069824,0.003765026805922389
1700856741662237400,16.105237548828125,-0.008087158203125,-0.0023428797721862793,0.003695463063195348
1700856741679231200,16.122231201171875,-0.017663002014160156,-0.002244800329208374,-0.005217249039560556
1700856741696223500,16.139223388671876,-0.01765918731689453,-0.002317100763320923,-0.0004900945350527763
1700856741713215700,16.1562158203125,-0.017661094665527344,-0.0022774040699005127,0.004335988312959671
1700856741730212600,16.173212646484377,-0.012874603271484375,0.002478957176208496,0.009089802391827106
1700856741747204000,16.1902041015625,-0.01765918731689453,0.00245743989944458,0.004223574884235859
1700856741764196400,16.2071962890625,-0.003307342529296875,-0.011807233095169067,-0.001173157710582018
1700856741781190400,16.2241904296875,-0.012880325317382812,-0.002179473638534546,-0.0005291067063808441
1700856741798183400,16.241183349609376,-0.017663002014160156,0.021674424409866333,-0.005328729748725891
1700856741815177200,16.25817724609375,-0.012872695922851562,0.02157410979270935,-0.005422340240329504
1700856741832169200,16.275169189453123,-0.008088111877441406,0.0024534761905670166,0.0035850966814905405
1700856741849163300,16.292163330078125,-0.012877464294433594,-0.016597628593444824,-0.0011673285625874996
1700856741866154200,16.309154296875,-0.017663955688476562,-0.00700417160987854,0.009004049003124237
1700856741883149300,16.3261494140625,-0.017661094665527344,0.007280141115188599,0.004189386963844299
1700856741900137500,16.343137451171874,-0.017658233642578125,-0.002363353967666626,0.004204443655908108
1700856741917136100,16.36013623046875,-0.022439002990722656,0.011894911527633667,-0.0005420250818133354
1700856741934129000,16.37712890625,-0.012866973876953125,0.021444350481033325,-0.0004959055222570896
1700856741951123000,16.394123046875,-0.012861251831054688,0.011766493320465088,-0.00110529363155365
1700856741968115000,16.411114990234374,-0.022436141967773438,-0.016890734434127808,0.0037131875287741423
1700856741985109000,16.42810888671875,-0.02243328094482422,-0.02171972393989563,0.003798319259658456
1700856742002101800,16.445101806640626,-0.027217864990234375,-0.0026139020919799805,0.004365461878478527
1700856742019095800,16.462095703125,-0.008076667785644531,-0.01692962646484375,-0.0009318869560956955
1700856742036081400,16.479081298828124,-0.01764965057373047,-0.02646508812904358,0.0038764893542975187
1700856742053081600,16.49608154296875,0.0014886856079101562,-0.007237344980239868,-0.005704815033823252
1700856742070074600,16.51307470703125,-0.008083343505859375,0.03106805682182312,-0.009973714128136635
1700856742087069200,16.530069091796875,-0.0128631591796875,0.0500834584236145,-0.005193439777940512
1700856742104060400,16.547060302734376,-0.017641067504882812,0.02119305729866028,-0.00026528770104050636
1700856742121054500,16.564054443359375,-0.017641067504882812,-0.021886616945266724,-0.00034004077315330505
1700856742138043000,16.58104296875,-0.012860298156738281,-0.050486087799072266,0.00371514237485826
1700856742155045600,16.598045654296875,-0.0032949447631835938,-0.016840577125549316,-0.00585914496332407
1700856742172038000,16.615037841796877,-0.012860298156738281,0.026107192039489746,-0.010031180456280708
1700856742189027300,16.63202734375,-0.012854576110839844,0.035536736249923706,-0.005228870548307896
1700856742206020400,16.649020263671876,-0.008066177368164062,0.025900423526763916,0.004313183948397636
1700856742223014000,16.666013916015626,-0.008065223693847656,0.001939237117767334,-0.005261998623609543
1700856742240006100,16.683006103515623,-0.008068084716796875,-0.017139047384262085,-0.0004344182088971138
1700856742257000200,16.700000244140625,-0.012858390808105469,-0.03615650534629822,-0.00595613569021225
1700856742273993000,16.716992919921875,-0.012865066528320312,-0.016864359378814697,-0.010062390938401222
1700856742290986800,16.73398681640625,-0.0032968521118164062,0.031033188104629517,-0.0005122227594256401
1700856742307978800,16.750978759765626,-0.00807952880859375,0.045343250036239624,0.013660252094268799
1700856742324984800,16.76798486328125,-0.0128631591796875,0.021361500024795532,0.013487374410033226
1700856742341965800,16.7849658203125,-0.02722644805908203,-0.03591081500053406,-0.0016609067097306252
1700856742358957300,16.801957275390624,-0.017667770385742188,-0.050005584955215454,-0.0017642383463680744
1700856742375954400,16.818954345703126,-0.0033159255981445312,-0.011607199907302856,-0.0018362868577241898
1700856742392935700,16.835935791015626,-0.022459030151367188,0.036270081996917725,-0.0061307852156460285
1700856742409938400,16.8529384765625,-0.012887001037597656,0.03624725341796875,-0.0014093867503106594
1700856742426932700,16.8699326171875,-0.017673492431640625,0.0027705132961273193,-0.0015334938652813435
1700856742443924700,16.8869248046875,-0.022462844848632812,-0.025856852531433105,0.003118890104815364
1700856742460918800,16.903918701171875,-0.0027284622192382812,-0.025743186473846436,0.012081943452358246
1700856742477911600,16.92091162109375,-0.007515907287597656,-0.007146120071411133,0.04064539819955826
1700856742494905600,16.937905517578123,-0.012299537658691406,0.007160842418670654,0.041004449129104614
1700856742511897900,16.95489794921875,-0.012894630432128906,0.02205333113670349,0.021778380498290062
1700856742528891400,16.971891357421875,-0.022464752197265625,0.0029000043869018555,-0.011674467474222183
1700856742545884200,16.98888427734375,-0.013494491577148438,-0.020959943532943726,-0.04087087884545326
1700856742562875600,17.005875732421874,-0.008715629577636719,-0.016046345233917236,-0.04485821723937988
1700856742579873300,17.022873291015625,-0.008714675903320312,0.00785556435585022,-0.02566690184175968
1700856742596862000,17.039862060546874,-0.022470474243164062,0.026344329118728638,0.012631561607122421
1700856742613859800,17.05685986328125,-0.01708221435546875,0.021470487117767334,0.04596618562936783
1700856742630851000,17.07385107421875,-0.021866798400878906,-0.0025089383125305176,0.05049915984272957
1700856742647843000,17.090843017578123,-0.007511138916015625,-0.025802135467529297,0.025883814319968224
1700856742664837000,17.107837158203125,-0.017685890197753906,-0.025680720806121826,-0.007641796488314867
1700856742681830000,17.124829833984375,-0.013497352600097656,-0.01611649990081787,-0.036207787692546844
1700856742698824200,17.14182421875,-0.01828289031982422,0.012594431638717651,-0.040205467492341995
1700856742715816200,17.158816162109375,-0.013490676879882812,0.041150033473968506,-0.02094016782939434
1700856742732809700,17.175809814453125,-0.003314971923828125,0.026645004749298096,0.007796854712069035
1700856742749803000,17.192802978515626,-0.017072677612304688,0.0021016597747802734,0.03159637004137039
1700856742766796800,17.209796875,-0.017075538635253906,-0.031342148780822754,0.03565875068306923
1700856742783789000,17.2267890625,-0.01708221435546875,-0.031192153692245483,0.030760640278458595
1700856742800782800,17.243782958984376,-0.008105278015136719,-0.0019724369049072266,-0.007611043751239777
1700856742817757000,17.2607568359375,-0.013482093811035156,0.021826744079589844,-0.030870752409100533
1700856742834769700,17.277769775390624,-0.02304840087890625,0.031257569789886475,-0.035636771470308304
1700856742851762000,17.294761962890625,-0.008687973022460938,0.021615266799926758,-0.030698679387569427
1700856742868755700,17.311755615234375,-0.008090019226074219,-0.011867046356201172,-0.0025202282704412937
1700856742885748700,17.328748779296873,-0.0074977874755859375,-0.026118040084838867,0.026143960654735565
1700856742902742300,17.3457421875,-0.021262168884277344,-0.031360775232315063,0.04576009139418602
1700856742919734500,17.362734619140625,-0.017075538635253906,-0.012198060750961304,0.036029718816280365
1700856742936728600,17.379728515625,-0.01767253875732422,0.012301653623580933,0.007174510508775711
1700856742953722400,17.396722412109376,-0.01348114013671875,0.02656957507133484,-0.02621840499341488
1700856742970715100,17.413715087890626,-0.0182647705078125,0.0026050209999084473,-0.04051133245229721
1700856742987697400,17.430697509765626,-0.013482093811035156,-0.021262139081954956,-0.030872048810124397
1700856743004703500,17.447703369140626,-0.012887954711914062,-0.02116572856903076,-0.002037195023149252
1700856743021692400,17.4646923828125,-0.0170745849609375,-0.012206494808197021,0.02175128273665905
1700856743038688000,17.48168798828125,-0.01229095458984375,0.0021864473819732666,0.04077927768230438
1700856743055669800,17.498669677734377,-0.002719879150390625,0.011751323938369751,0.04069661349058151
1700856743072674000,17.515674072265625,-0.0081024169921875,0.012332051992416382,0.0071188341826200485
1700856743089667000,17.5326669921875,-0.008701324462890625,-0.002017289400100708,-0.031101606786251068
1700856743106660900,17.549660888671873,-0.013485908508300781,-0.006819993257522583,-0.04528100788593292
1700856743123653000,17.566653076171875,-0.013489723205566406,-0.006726056337356567,-0.0355738066136837
1700856743140647200,17.583647216796876,-0.01767730712890625,0.007620662450790405,-0.002054572105407715
1700856743157639700,17.6006396484375,-0.0075054168701171875,0.012346446514129639,0.02661984972655773
1700856743174633700,17.6176337890625,-0.012291908264160156,-0.0025814473628997803,0.044982705265283585
1700856743191625700,17.634625732421874,-0.012297630310058594,-0.012029677629470825,0.040112607181072235
1700856743208615400,17.651615478515627,-0.012897491455078125,-0.01137089729309082,0.006627650931477547
1700856743225617200,17.6686171875,-0.013494491577148438,0.007728397846221924,-0.021442096680402756
1700856743242606300,17.6856064453125,-0.008708953857421875,0.017313867807388306,-0.030871281400322914
1700856743259598800,17.702598876953125,-0.013492584228515625,0.01727655529975891,-0.030720826238393784
1700856743276593000,17.719593017578124,-0.00811004638671875,0.012506157159805298,-0.007417738437652588
1700856743293585400,17.73658544921875,-0.007515907287597656,-0.0017834007740020752,0.021174747496843338
1700856743310579200,17.7535791015625,-0.01708698272705078,-0.016728073358535767,0.03126867115497589
1700856743327571500,17.770571533203125,-0.0027341842651367188,-0.016041874885559082,0.035291638225317
1700856743344565800,17.787565673828126,-0.012904167175292969,0.007902294397354126,0.01664908416569233
1700856743361558300,17.804558349609376,-0.018280029296875,0.031665027141571045,-0.016849173232913017
1700856743378552300,17.82155224609375,-0.013485908508300781,0.021902859210968018,-0.02630925551056862
1700856743395542000,17.8385419921875,-0.013483047485351562,0.002691119909286499,-0.026189332827925682
1700856743412541200,17.855541259765626,-0.008101463317871094,-0.011613458395004272,-0.012342620640993118
1700856743429531100,17.87253125,-0.012888908386230469,-0.021139830350875854,-0.0027234191074967384
1700856743446523600,17.889523681640625,-0.01707744598388672,-0.021128833293914795,0.01640712097287178
1700856743463518700,17.906518798828124,-0.02664470672607422,0.006894022226333618,0.031385064125061035
1700856743480498700,17.923498779296875,-0.017661094665527344,0.04017874598503113,0.02650436758995056
1700856743497504300,17.940504150390623,-0.05594062805175781,0.025688856840133667,0.007481415756046772
1700856743514497800,17.957497802734373,-0.10798072814941406,-0.01747000217437744,0.0031244070269167423
1700856743531490000,17.974489990234375,0.07745838165283203,-0.055060386657714844,-0.036646969616413116
1700856743548484400,17.991484375,-0.10379981994628906,-0.03645437955856323,-0.02046745829284191
1700856743565476900,18.008476806640626,0.020028114318847656,0.021579056978225708,-0.03104538284242153
1700856743582471000,18.025470947265624,0.005680084228515625,0.06922957301139832,-0.0016033314168453217
1700856743599463000,18.042462890625,-0.07027626037597656,0.06828656792640686,0.02274220436811447
1700856743616456700,18.059456787109376,0.049368858337402344,0.0017888844013214111,0.02159436047077179
1700856743633449700,18.07644970703125,-0.050537109375,-0.0608881413936615,0.02222646027803421
1700856743650443800,18.09344384765625,0.006281852722167969,-0.06484666466712952,0.0024919782299548388
1700856743667433500,18.11043359375,0.001495361328125,-0.016960352659225464,-0.016485748812556267
1700856743684432100,18.12743212890625,-0.0559234619140625,0.044447481632232666,-0.011025974527001381
1700856743701411800,18.144411865234375,0.01049041748046875,0.04954829812049866,-0.01084765326231718
1700856743718416400,18.16141650390625,-0.02718639373779297,0.025409191846847534,-0.005894320085644722
1700856743735408600,18.17840869140625,-0.017607688903808594,-0.017828285694122314,0.00848421361297369
1700856743752402400,18.19540234375,0.01648426055908203,-0.04164707660675049,0.012717919424176216
1700856743769395200,18.212395263671876,-0.031373023986816406,-0.042212873697280884,0.022907111793756485
1700856743786385200,18.22938525390625,-0.008043289184570312,-0.008127093315124512,0.00794173963367939
1700856743803384000,18.246384033203125,-0.012821197509765625,0.020430713891983032,-0.0009797988459467888
1700856743820375600,18.26337548828125,-0.022986412048339844,0.039451003074645996,-0.02006174996495247
1700856743837368000,18.2803681640625,0.005730628967285156,0.005919039249420166,-0.025371579453349113
1700856743854362000,18.297362060546874,-0.027167320251464844,-0.018100380897521973,-0.01514704804867506
1700856743871354400,18.314354248046875,-0.022380828857421875,-0.018113166093826294,0.008222734555602074
1700856743888348400,18.331348388671874,-0.0032358169555664062,0.005775362253189087,0.01778225786983967
1700856743905341200,18.348341064453123,-0.02237701416015625,0.019483089447021484,0.02312481217086315
1700856743922335000,18.3653349609375,-0.008015632629394531,0.019980192184448242,0.0038883837405592203
1700856743939327000,18.382326904296875,-0.018181800842285156,0.015124589204788208,-0.020008431747555733
1700856743956321000,18.399321044921876,-0.01818370819091797,-0.003956347703933716,-0.024820297956466675
1700856743973313800,18.416313720703126,-0.012803077697753906,-0.03739091753959656,-0.020499343052506447
1700856743990307800,18.433307861328124,-0.022376060485839844,-0.03256562352180481,0.0040798066183924675
1700856744007297800,18.4502978515625,-0.017589569091796875,0.010472863912582397,0.013611171394586563
1700856744024296700,18.467296630859376,-0.008014678955078125,0.029530227184295654,0.02316051721572876
1700856744041286400,18.484286376953126,-0.007411956787109375,0.015065133571624756,0.023101404309272766
1700856744058281200,18.50128125,-0.012796401977539062,-0.02798384428024292,0.003384080482646823
1700856744075273000,18.51827294921875,-0.017584800720214844,-0.037471890449523926,-0.010950727388262749
1700856744092266800,18.535266845703124,-0.008013725280761719,-0.018331259489059448,-0.015626316890120506
1700856744109259800,18.552259765625,-0.017583847045898438,-0.003988444805145264,-0.005364836659282446
1700856744126253600,18.569253662109375,-0.017580032348632812,0.024624168872833252,0.018598180264234543
1700856744143245800,18.586245849609377,-0.008002281188964844,0.029275089502334595,0.028109446167945862
1700856744160239900,18.603239990234375,-0.02714252471923828,0.00947621464729309,0.013769648969173431
1700856744177232100,18.620232177734376,-0.012785911560058594,-0.03297257423400879,-0.005920741707086563
1700856744194226700,18.637226806640626,-0.012790679931640625,-0.04244193434715271,-0.01539385411888361
1700856744211218400,18.654218505859376,-0.017579078674316406,-0.004101455211639404,-0.014793219044804573
1700856744228212500,18.67121240234375,-0.008007049560546875,0.01978534460067749,-0.0051952856592834
1700856744245201000,18.688200927734375,-0.012786865234375,0.014889389276504517,0.009182206355035305
1700856744262201300,18.705201416015626,-0.012784004211425781,0.0004756152629852295,0.009187121875584126
1700856744279189200,18.722189208984375,-0.008000373840332031,-0.023412644863128662,0.008545957505702972
1700856744296177700,18.739177734375,-0.017576217651367188,-0.023312360048294067,-0.00993937999010086
1700856744313178000,18.75617822265625,-0.008004188537597656,-0.0041817426681518555,-0.00986221432685852
1700856744330172200,18.773172119140625,-0.022359848022460938,0.010159611701965332,0.004490300081670284
1700856744347164400,18.790164306640627,-0.017568588256835938,0.029166460037231445,0.01402873545885086
1700856744364158000,18.807157958984376,-0.012777328491210938,0.019468456506729126,0.009247713722288609
1700856744381150700,18.824150634765626,-0.007994651794433594,-0.023544788360595703,0.009190483950078487
1700856744398145000,18.84114501953125,-0.017571449279785156,-0.04256772994995117,-0.0009829038754105568
1700856744415137300,18.85813720703125,-0.02235889434814453,-0.028159767389297485,-0.005695057567209005
1700856744432131000,18.875131103515624,-0.017571449279785156,0.01008579134941101,-0.009803559631109238
1700856744449123600,18.89212353515625,-0.01337432861328125,0.052959173917770386,-0.009617417119443417
1700856744466117600,18.90911767578125,-0.02234363555908203,0.03850656747817993,0.000004542991518974304
1700856744483106800,18.92610693359375,-0.0127716064453125,0.00019940733909606934,-0.0005861883983016014
1700856744500100600,18.9431005859375,-0.01756572723388672,-0.04745259881019592,-0.005363264586776495
1700856744517096700,18.9600966796875,-0.012787818908691406,-0.04730582237243652,-0.0006334413774311543
1700856744534090800,18.9770908203125,-0.012785911560058594,-0.004272431135177612,0.009501190856099129
1700856744551080200,18.994080078125,-0.00799560546875,0.04349055886268616,-0.0049046059139072895
1700856744568079000,19.0110791015625,-0.017557144165039062,0.04805237054824829,-0.004893696866929531
1700856744585069300,19.0280693359375,-0.012767791748046875,0.019255101680755615,-0.00485808402299881
1700856744602063400,19.0450634765625,-0.012770652770996094,-0.023758232593536377,-0.005377992056310177
1700856744619055400,19.062055419921876,-0.012176513671875,-0.03802046179771423,0.008995864540338516
1700856744636036000,19.0790361328125,-0.01756572723388672,-0.028313487768173218,0.00955250021070242
1700856744653031000,19.096031005859373,-0.017568588256835938,-0.004320263862609863,0.014234796166419983
1700856744670039000,19.1130390625,-0.012777328491210938,0.029052168130874634,0.0000017657876014709473
1700856744687020000,19.13002001953125,-0.012773513793945312,0.028958827257156372,-0.004724602680653334
1700856744704022300,19.147022216796874,-0.012774467468261719,-0.009321987628936768,-0.00520953768864274
1700856744721018000,19.16401806640625,-0.017556190490722656,-0.023739635944366455,-0.0051847598515450954
1700856744738006000,19.181006103515625,-0.012780189514160156,-0.03311502933502197,0.004363343119621277
1700856744755001300,19.19800146484375,-0.007994651794433594,-0.009163647890090942,0.00906277820467949
1700856744771995400,19.214995361328125,0.034515380859375,0.20534276962280273,0.042906127870082855
1700856744788988200,19.23198828125,-0.03664970397949219,0.13725244998931885,0.028937537223100662
1700856744805982000,19.24898193359375,0.0010423660278320312,-0.03930315375328064,-0.02980654127895832
1700856744822974000,19.265973876953126,-0.018085479736328125,0.15178975462913513,-0.014365840703248978
1700856744839968300,19.28296826171875,-0.037154197692871094,0.4797457754611969,0.08228683471679688
1700856744856960800,19.299960693359374,-0.02686786651611328,0.7015376091003418,0.1828293800354004
1700856744873954600,19.31695458984375,-0.028514862060546875,0.9190447926521301,0.1300715059041977
1700856744890946800,19.33394677734375,-0.04391670227050781,0.9588499069213867,0.0652029812335968
1700856744907940900,19.35094091796875,-0.07069587707519531,0.7985106706619263,-0.15105269849300385
1700856744924923400,19.36792333984375,0.02748394012451172,0.48708683252334595,-0.3943769633769989
1700856744941927400,19.384927490234375,0.0897073745727539,-0.06755980849266052,-0.5170992016792297
1700856744958920000,19.401919921875,0.012472152709960938,-0.47346433997154236,-0.40230998396873474
1700856744975914000,19.4189140625,-0.008008003234863281,-0.7102409601211548,-0.22767220437526703
1700856744992906500,19.435906494140625,0.03366279602050781,-1.2753010988235474,-0.13374347984790802
1700856745009900300,19.452900390625,0.051344871520996094,-1.7540677785873413,0.27138715982437134
1700856745026883800,19.4698837890625,0.010380744934082031,-1.567725419998169,0.7535825967788696
1700856745043886800,19.486886962890626,-0.08796215057373047,-1.493615746498108,0.007089708000421524
1700856745060879400,19.50387939453125,0.0063266754150390625,-1.4495322704315186,-0.0457686111330986
1700856745077873200,19.520873046875,0.039063453674316406,-1.0533642768859863,0.017314476892352104
1700856745094865700,19.53786572265625,0.12987899780273438,-0.5673815608024597,0.15767838060855865
1700856745111859500,19.554859375,0.03952789306640625,-0.21823641657829285,0.27627652883529663
1700856745128835000,19.5718349609375,0.08443832397460938,0.25927281379699707,0.21975137293338776
1700856745145846300,19.58884619140625,0.039649009704589844,0.5398242473602295,0.20485936105251312
1700856745162838300,19.60583837890625,-0.06609916687011719,0.7802255153656006,0.2020786702632904
1700856745179832600,19.62283251953125,-0.07072734832763672,1.01167631149292,-0.028841618448495865
1700856745196822500,19.639822509765626,-0.03886985778808594,0.7223073244094849,-0.22929459810256958
1700856745213821400,19.656821533203125,-0.05675983428955078,0.18507587909698486,-0.29225078225135803
1700856745230811400,19.673811279296874,0.0395050048828125,-0.27384135127067566,-0.06755579262971878
1700856745247805200,19.69080517578125,-0.03469276428222656,-0.24053536355495453,0.09449764341115952
1700856745264797700,19.707797607421874,-0.04422283172607422,0.3130708932876587,0.24486897885799408
1700856745281792500,19.72479248046875,-0.032196044921875,0.41277292370796204,0.10704831779003143
1700856745298783200,19.741783203125,-0.0189666748046875,0.2347566783428192,0.0059430659748613834
1700856745315777800,19.75877783203125,-0.018365859985351562,-0.06200671195983887,-0.04796060174703598
1700856745332768800,19.775768798828125,0.012108802795410156,-0.23831304907798767,0.013632451184093952
1700856745349770200,19.792770263671876,-0.044734954833984375,-0.1907128244638443,0.048165977001190186
1700856745366753500,19.80975341796875,0.04976844787597656,0.08294609189033508,0.07206545770168304
1700856745383751000,19.8267509765625,-0.0028314590454101562,0.1914454996585846,0.09643013775348663
1700856745400733000,19.84373291015625,-0.04764842987060547,0.3817799389362335,0.009752682410180569
1700856745417734700,19.860734619140626,-0.02005481719970703,0.41898173093795776,-0.023059770464897156
1700856745434729700,19.877729736328124,-0.02956390380859375,0.3266713321208954,-0.07048164308071136
1700856745451723800,19.894723876953126,-0.003814697265625,0.1250857710838318,0.019520586356520653
1700856745468716500,19.911716552734376,-0.025925636291503906,0.10484406352043152,0.0955272763967514
1700856745485710300,19.92871044921875,-0.02767181396484375,0.2855973541736603,0.05775683373212814
1700856745502695400,19.9456953125,-0.02101612091064453,0.46160218119621277,-0.10910450667142868
1700856745519700200,19.9627001953125,-0.014959335327148438,0.4079464077949524,-0.3284201920032501
1700856745536689200,19.979689208984375,-0.01316070556640625,-0.11434566974639893,-0.047395139932632446
1700856745553683200,19.99668310546875,-0.017350196838378906,-0.018593311309814453,-0.003657386638224125
1700856745570675200,20.01367529296875,-0.0018062591552734375,-0.1481994092464447,0.06259651482105255
1700856745587661300,20.030661376953127,-0.019792556762695312,-0.22869181632995605,0.09032268077135086
1700856745604659500,20.047659423828126,-0.015649795532226562,-0.2659858465194702,0.06123018637299538
1700856745621658600,20.06465869140625,-0.011502265930175781,-0.2454116940498352,0.022528333589434624
1700856745638635500,20.081635498046875,-0.012120246887207031,-0.12054282426834106,0.0036004548892378807
1700856745655634700,20.098634765625,-0.008550643920898438,-0.12009814381599426,-0.06356815248727798
1700856745672624400,20.115624267578124,0.006390571594238281,-0.13416066765785217,-0.020854312926530838
1700856745689629200,20.132629150390624,-0.012174606323242188,-0.20069999992847443,-0.002102179452776909
