time,seconds_elapsed,z,y,x
1700856800569397000,0.14539697265625,-0.012278556823730469,-0.0057541728019714355,-0.03483554720878601
1700856800586379300,0.162379150390625,-0.017663002014160156,-0.01052844524383545,-0.04917139559984207
1700856800603389700,0.1793896484375,-0.0074939727783203125,-0.015302538871765137,-0.039576202630996704
1700856800620371700,0.196371826171875,-0.012278556823730469,-0.0009850561618804932,-0.02042490616440773
1700856800637367000,0.213366943359375,-0.0068950653076171875,-0.0009737908840179443,-0.001314705703407526
1700856800654356000,0.23035595703125,-0.011678695678710938,-0.011182337999343872,0.017830872908234596
1700856800671351800,0.247351806640625,-0.006888389587402344,-0.020244359970092773,0.003434375859797001
1700856800688346600,0.2643466796875,-0.016460418701171875,-0.010660558938980103,-0.006273246370255947
1700856800705336300,0.28133642578125,-0.012269020080566406,-0.0011790990829467773,-0.03502940014004707
1700856800722342400,0.29834228515625,-0.012866973876953125,0.0036174356937408447,-0.04453675448894501
1700856800739327000,0.315326904296875,-0.01226806640625,-0.0059927403926849365,-0.03017505072057247
1700856800756315600,0.332315673828125,-0.016458511352539062,-0.025667667388916016,0.0033917101100087166
1700856800773312800,0.349312744140625,-0.015860557556152344,-0.035222530364990234,0.022550808265805244
1700856800790304800,0.3663046875,-0.006289482116699219,-0.016065001487731934,0.027294263243675232
1700856800807292000,0.3832919921875,-0.011674880981445312,-0.0016955733299255371,0.008711954578757286
1700856800824289000,0.4002890625,-0.007485389709472656,0.018003225326538086,-0.034885577857494354
1700856800841285000,0.41728515625,-0.012866973876953125,0.003604292869567871,-0.06835326552391052
1700856800858279700,0.43427978515625,-0.0032958984375,-0.005955040454864502,-0.06836506724357605
1700856800875269600,0.45126953125,-0.012270927429199219,-0.020296096801757812,-0.030150748789310455
1700856800892264700,0.4682646484375,-0.021244049072265625,-0.016094118356704712,0.012841488234698772
1700856800909260500,0.485260498046875,-0.01107025146484375,-0.01139676570892334,0.041545968502759933
1700856800926246100,0.50224609375,-0.006878852844238281,-0.006699115037918091,0.031870558857917786
1700856800943248400,0.519248291015625,-0.017045974731445312,-0.0013537704944610596,-0.011240757070481777
1700856800960226000,0.53622607421875,-0.012856483459472656,0.008175969123840332,-0.044770535081624985
1700856800977233400,0.5532333984375,-0.012857437133789062,-0.010953426361083984,-0.06402532756328583
1700856800994222600,0.57022265625,-0.008069992065429688,-0.03969624638557434,-0.05920880287885666
1700856801011218200,0.58721826171875,-0.011658668518066406,-0.03972223401069641,-0.011384946294128895
1700856801028213000,0.604212890625,-0.011656761169433594,-0.021208226680755615,0.017233744263648987
1700856801045202700,0.62120263671875,-0.011059761047363281,-0.002052992582321167,0.03627587854862213
1700856801062197800,0.63819775390625,-0.011652946472167969,-0.002144724130630493,0.026602501049637794
1700856801079193600,0.655193603515625,-0.04575157165527344,-0.0021329522132873535,-0.011071152985095978
1700856801096182300,0.672182373046875,-0.05053520202636719,0.007395505905151367,-0.04459137097001076
1700856801113179400,0.689179443359375,0.029623985290527344,0.03192147612571716,-0.06893231719732285
1700856801130171600,0.706171630859375,-0.06549072265625,0.02175280451774597,-0.049299322068691254
1700856801147166200,0.723166259765625,0.006892204284667969,0.012785226106643677,-0.03077945113182068
1700856801164148200,0.740148193359375,0.0021066665649414062,0.01757347583770752,-0.011664113961160183
1700856801181150200,0.757150146484375,-0.035579681396484375,0.016977161169052124,0.007987027987837791
1700856801198147600,0.774147705078125,0.007488250732421875,-0.0062934160232543945,0.016913626343011856
1700856801215136000,0.791135986328125,-0.030796051025390625,-0.040415436029434204,0.012187184765934944
1700856801232131000,0.808131103515625,-0.006865501403808594,-0.04945424199104309,-0.01167056430131197
1700856801249116000,0.825115966796875,-0.012248039245605469,-0.05425059795379639,-0.030738521367311478
1700856801266115300,0.842115234375,-0.03138542175292969,-0.030442148447036743,-0.04037643224000931
1700856801283112200,0.8591123046875,0.011683464050292969,-0.025627970695495605,-0.030768251046538353
1700856801300105000,0.87610498046875,-0.01643085479736328,-0.03522184491157532,-0.0164346843957901
1700856801317102300,0.893102294921875,-0.02122020721435547,-0.04052168130874634,-0.0021084840409457684
1700856801334086100,0.910086181640625,-0.006867408752441406,-0.030267715454101562,-0.006919802166521549
1700856801351084800,0.927084716796875,-0.02600860595703125,-0.016537606716156006,-0.006993403658270836
1700856801368078800,0.944078857421875,-0.017032623291015625,0.01272958517074585,-0.011903539299964905
1700856801385062400,0.9610625,-0.017024993896484375,0.031711429357528687,-0.02150965854525566
1700856801402064400,0.978064453125,-0.021808624267578125,-0.006615549325942993,-0.03114726021885872
1700856801419061800,0.995061767578125,-0.007451057434082031,-0.04491874575614929,-0.031127342954277992
1700856801436041500,1.01204150390625,-0.021207809448242188,-0.055140137672424316,-0.011952747590839863
1700856801453061400,1.029061279296875,-0.011631011962890625,-0.021759331226348877,0.0023676063865423203
1700856801470030000,1.046030029296875,-0.040340423583984375,0.07866156101226807,0.012535877525806427
1700856801487032600,1.063032470703125,-0.008027076721191406,0.1364513337612152,-0.011375738307833672
1700856801504023800,1.08002392578125,-0.031948089599609375,0.08842253684997559,-0.0446893684566021
1700856801521022200,1.097022216796875,-0.10791969299316406,-0.031803667545318604,-0.03518230468034744
1700856801538015700,1.114015625,0.06914520263671875,-0.1076926589012146,-0.04576532915234566
1700856801555002600,1.131002685546875,-0.03554725646972656,-0.1033606231212616,-0.01159296091645956
1700856801571997400,1.14799755859375,-0.040332794189453125,-0.03157758712768555,0.0079580657184124
1700856801588993000,1.164992919921875,0.026663780212402344,0.007322251796722412,0.0314231738448143
1700856801605981700,1.181981689453125,-0.054688453674316406,0.03537234663963318,0.008052406832575798
1700856801622978600,1.198978515625,0.0069293975830078125,0.031116187572479248,-0.03070223331451416
1700856801639969500,1.215969482421875,-0.008022308349609375,-0.016780614852905273,-0.06414828449487686
1700856801656967400,1.232967529296875,-0.03135204315185547,-0.06946465373039246,-0.04495939984917641
1700856801673954600,1.24995458984375,0.016510009765625,-0.055193305015563965,-0.025729767978191376
1700856801690949400,1.266949462890625,-0.02117919921875,0.01600828766822815,0.008416835218667984
1700856801707945000,1.283945068359375,-0.011606216430664062,0.0494767427444458,0.017939776182174683
1700856801724938200,1.300938232421875,-0.0020351409912109375,0.0022123754024505615,0.007777807302772999
1700856801741930800,1.3179306640625,-0.016394615173339844,-0.05994623899459839,-0.011287370696663857
1700856801758926000,1.334926025390625,-0.012209892272949219,-0.06466096639633179,-0.04478929936885834
1700856801775915000,1.3519150390625,-0.01759052276611328,-0.01208484172821045,-0.04957251623272896
1700856801792912100,1.368912109375,-0.016991615295410156,0.026192694902420044,-0.0345592126250267
1700856801809894100,1.38589404296875,-0.012206077575683594,0.03574031591415405,-0.015378860756754875
1700856801826899700,1.402899658203125,-0.021773338317871094,0.02549836039543152,-0.0009495299309492111
1700856801843888400,1.419888427734375,-0.011603355407714844,-0.021776020526885986,-0.006399692036211491
1700856801860878300,1.43687841796875,-0.01160430908203125,-0.06480935215950012,-0.006364041939377785
1700856801877879300,1.45387939453125,-0.0068187713623046875,-0.04567718505859375,-0.006273300386965275
1700856801894868500,1.470868408203125,-0.012202262878417969,0.02130141854286194,-0.02056933380663395
1700856801911863800,1.48786376953125,-0.012200355529785156,0.054776787757873535,-0.024742264300584793
1700856801928859600,1.504859619140625,-0.007415771484375,0.006933391094207764,-0.011023752391338348
1700856801945848300,1.521848388671875,-0.0020351409912109375,-0.04564225673675537,-0.015753064304590225
1700856801962845400,1.538845458984375,-0.0068225860595703125,-0.059960246086120605,-0.0061304280534386635
1700856801979837200,1.555837158203125,-0.011608123779296875,-0.04083442687988281,-0.006080726161599159
1700856801996830200,1.572830322265625,-0.012204170227050781,-0.016946136951446533,-0.015596888959407806
1700856802013824300,1.58982421875,-0.0074176788330078125,0.0069668591022491455,-0.015597107820212841
1700856802030817800,1.60681787109375,-0.016983985900878906,0.021230965852737427,-0.010212470777332783
1700856802047809500,1.6238095703125,-0.012197494506835938,0.002054184675216675,-0.020367495715618134
1700856802064798500,1.640798583984375,-0.0169830322265625,-0.03143829107284546,-0.020345184952020645
1700856802081802200,1.65780224609375,-0.011603355407714844,-0.03614369034767151,-0.015494562685489655
1700856802098787000,1.674787109375,-0.011603355407714844,-0.01220521330833435,-0.0010933890007436275
1700856802115784700,1.69178466796875,-0.02176952362060547,0.011044949293136597,-0.010118459351360798
1700856802132768800,1.708768798828125,-0.016983985900878906,0.016441673040390015,-0.014846546575427055
1700856802149779700,1.72577978515625,-0.021768569946289062,-0.007507532835006714,-0.014786392450332642
1700856802166764500,1.7427646484375,-0.007411956787109375,-0.017081886529922485,-0.010496534407138824
1700856802183755000,1.759755126953125,-0.016981124877929688,-0.017129987478256226,-0.010440456680953503
1700856802200751400,1.77675146484375,-0.016381263732910156,-0.012992769479751587,-0.0008762194775044918
1700856802217742800,1.793742919921875,-0.0020189285278320312,-0.01728111505508423,-0.0009340341202914715
1700856802234728200,1.810728271484375,-0.016977310180664062,-0.031574636697769165,-0.020024482160806656
1700856802251726300,1.827726318359375,-0.021765708923339844,-0.03629019856452942,-0.03436550498008728
1700856802268724500,1.844724365234375,-0.012795448303222656,-0.012304037809371948,-0.05341312289237976
1700856802285715500,1.861715576171875,-0.01758098602294922,0.02598586678504944,-0.052705664187669754
1700856802302710500,1.87871044921875,-0.017578125,0.035488516092300415,-0.04782659187912941
1700856802319694300,1.8956943359375,-0.012195587158203125,0.006785273551940918,-0.01973676308989525
1700856802336695600,1.912695556640625,-0.016379356384277344,-0.04114916920661926,-0.0053822947666049
1700856802353692200,1.929692138671875,-0.016381263732910156,-0.04170942306518555,0.004230931401252747
1700856802370684200,1.94668408203125,0.0027589797973632812,-0.01233452558517456,-0.00046271132305264473
1700856802387678700,1.9636787109375,-0.016384124755859375,-0.012936830520629883,0.009644604288041592
1700856802404668700,1.980668701171875,-0.01160430908203125,-0.0032235383987426758,0.009468164294958115
1700856802421663700,1.997663818359375,-0.012201309204101562,0.011704117059707642,-0.004955339711159468
1700856802438659000,2.0146591796875,-0.012202262878417969,-0.0026198625564575195,-0.028813689947128296
1700856802455647700,2.031647705078125,-0.016994476318359375,-0.04078042507171631,-0.034161362797021866
1700856802472644900,2.048644775390625,-0.01700115203857422,-0.045410722494125366,-0.02938816137611866
1700856802489636900,2.065636962890625,-0.017000198364257812,-0.021506786346435547,-0.019807204604148865
1700856802506622000,2.0826220703125,-0.02657318115234375,-0.007701694965362549,-0.009638841263949871
1700856802523620000,2.0996201171875,-0.002044677734375,-0.0023895204067230225,0.004102109931409359
1700856802540620000,2.1166201171875,0.012310028076171875,-0.021474748849868774,0.0089606624096632
1700856802557600000,2.13360009765625,-0.05468940734863281,-0.02205607295036316,0.009391054511070251
1700856802574604800,2.150604736328125,-0.0020494461059570312,-0.03577503561973572,-0.010356384329497814
1700856802591596800,2.1675966796875,-0.012219429016113281,-0.016614705324172974,-0.024743836373090744
1700856802608592400,2.18459228515625,-0.026575088500976562,0.007291078567504883,-0.02890302613377571
1700856802625581000,2.2015810546875,-0.008028030395507812,0.02637067437171936,-0.0382840633392334
1700856802642578200,2.218578125,-0.02657032012939453,0.007183432579040527,-0.033446304500103
1700856802659578000,2.235578125,-0.012217521667480469,-0.031028151512145996,-0.014892993494868279
1700856802676562200,2.252562255859375,-0.016404151916503906,-0.03164607286453247,0.01375093124806881
1700856802693557500,2.2695576171875,-0.01161956787109375,-0.017272531986236572,0.008885269984602928
1700856802710550500,2.286550537109375,-0.00682830810546875,-0.0078088343143463135,0.013630733825266361
1700856802727545000,2.303545166015625,-0.012209892272949219,0.021454542875289917,-0.009607119485735893
1700856802744532200,2.3205322265625,-0.0074214935302734375,0.02617618441581726,-0.01912245899438858
1700856802761531000,2.33753076171875,-0.01220703125,0.007042497396469116,-0.03398660197854042
1700856802778527200,2.35452734375,-0.016994476318359375,-0.031222134828567505,-0.02433738112449646
1700856802795513300,2.371513427734375,-0.012208938598632812,-0.04079115390777588,-0.019486796110868454
1700856802812511200,2.38851123046875,-0.011610031127929688,-0.036011189222335815,-0.014637086540460587
1700856802829504300,2.405504150390625,-0.007420539855957031,-0.01690545678138733,-0.014623802155256271
1700856802846496500,2.42249658203125,-0.00263214111328125,-0.002609461545944214,-0.009727662429213524
1700856802863489000,2.439489013671875,-0.012203216552734375,-0.0026234984397888184,-0.014510147273540497
1700856802880484600,2.456484619140625,-0.01698780059814453,-0.0026374757289886475,-0.02400706708431244
1700856802897477600,2.4734775390625,-0.026556015014648438,-0.007480800151824951,-0.023883910849690437
1700856802914468900,2.49046875,-0.01698780059814453,-0.012213140726089478,-0.0286269448697567
1700856802931464000,2.5074638671875,-0.007416725158691406,0.002134352922439575,-0.018982691690325737
1700856802948471600,2.524471435546875,-0.04091358184814453,0.025416076183319092,-0.0038736406713724136
1700856802965447200,2.541447265625,-0.00263214111328125,0.026091545820236206,0.0003058682195842266
1700856802982443800,2.55844384765625,-0.09775066375732422,-0.022272199392318726,0.010406386107206345
1700856802999438000,2.57543798828125,0.0075244903564453125,-0.05499795079231262,0.0000735144130885601
1700856803016428000,2.592427978515625,0.011708259582519531,-0.04535245895385742,-0.018913768231868744
1700856803033424400,2.60942431640625,-0.06486225128173828,0.006727486848831177,-0.03267507255077362
1700856803050417200,2.626417236328125,0.011113166809082031,0.04551976919174194,-0.03795263171195984
1700856803067411500,2.643411376953125,-0.026572227478027344,0.021565347909927368,-0.032468996942043304
1700856803084401400,2.6604013671875,-0.021783828735351562,-0.01677912473678589,-0.01399206556379795
1700856803101396700,2.677396728515625,0.007523536682128906,-0.05495235323905945,-0.009208539500832558
1700856803118392300,2.694392333984375,-0.03076934814453125,-0.06975144147872925,0.005221797153353691
1700856803135380700,2.711380615234375,-0.016414642333984375,-0.0457896888256073,0.005248200614005327
1700856803152377000,2.728377197265625,-0.002658843994140625,0.00271528959274292,-0.004229004494845867
1700856803169368600,2.74536865234375,-0.026580810546875,0.021149516105651855,-0.013134700246155262
1700856803186364000,2.762364013671875,-0.007434844970703125,0.002517879009246826,-0.018436452373862267
1700856803203357400,2.779357421875,-0.01700878143310547,-0.026123493909835815,-0.023184603080153465
1700856803220350200,2.79635009765625,-0.021793365478515625,-0.02136191725730896,-0.023104002699255943
1700856803237344800,2.8133447265625,-0.007434844970703125,-0.0022754967212677,-0.018237190321087837
1700856803254334500,2.83033447265625,-0.025974273681640625,0.011394977569580078,0.011005507782101631
1700856803271329800,2.847329833984375,0.002147674560546875,0.01663193106651306,-0.003919522278010845
1700856803288325000,2.8643251953125,-0.021775245666503906,0.011151045560836792,-0.0080180112272501
1700856803305314300,2.881314208984375,-0.007422447204589844,-0.026469796895980835,-0.022909801453351974
1700856803322310100,2.89831005859375,-0.007427215576171875,-0.04071855545043945,-0.01819167286157608
1700856803339294200,2.915294189453125,-0.002044677734375,-0.035921335220336914,-0.008613676764070988
1700856803356294400,2.93229443359375,-0.01640033721923828,-0.021576493978500366,-0.008563993498682976
1700856803373290500,2.94929052734375,-0.00742340087890625,0.0070632994174957275,-0.008511259220540524
1700856803390295000,2.966294921875,-0.01699066162109375,0.016531765460968018,-0.01741372048854828
1700856803407278000,2.983278076171875,-0.016991615295410156,-0.007364153861999512,-0.03172978013753891
1700856803424267800,3.000267822265625,-0.007418632507324219,-0.016963571310043335,-0.022786498069763184
1700856803441262800,3.017262939453125,-0.016991615295410156,-0.016941428184509277,-0.013269715011119843
1700856803458248200,3.034248291015625,-0.011603355407714844,-0.002682924270629883,-0.0038200097624212503
1700856803475247000,3.0512470703125,-0.012203216552734375,0.006927996873855591,-0.008669828064739704
1700856803492243500,3.068243408203125,-0.011601448059082031,-0.002705484628677368,-0.003908065147697926
1700856803509235200,3.085235107421875,-0.0026273727416992188,-0.01709461212158203,-0.013375787064433098
1700856803526230300,3.102230224609375,-0.012202262878417969,-0.01702079176902771,-0.0181020088493824
1700856803543223600,3.1192236328125,-0.012204170227050781,-0.03610491752624512,-0.02287479117512703
1700856803560223500,3.136223388671875,0.006932258605957031,-0.02164292335510254,-0.018023911863565445
1700856803577200000,3.1532001953125,-0.025966644287109375,-0.007921695709228516,-0.0031333835795521736
1700856803594204700,3.17020458984375,-0.01699542999267578,0.002292245626449585,-0.008522861637175083
1700856803611196200,3.187196044921875,-0.012211799621582031,-0.007230103015899658,-0.013313166797161102
1700856803628192000,3.20419189453125,-0.03135204315185547,0.0016847848892211914,-0.01749253086745739
1700856803645177900,3.221177734375,0.002147674560546875,0.007047533988952637,-0.02295992337167263
1700856803662178000,3.238177978515625,-0.0026426315307617188,-0.0072043538093566895,-0.013330470770597458
1700856803679170300,3.25517041015625,-0.0068302154541015625,-0.026357591152191162,-0.003718725172802806
1700856803696164900,3.272164794921875,-0.0068302154541015625,-0.026348024606704712,-0.0037936971057206392
1700856803713157000,3.2891572265625,-0.0074310302734375,-0.007130324840545654,-0.00853817444294691
1700856803730133800,3.3061337890625,-0.012218475341796875,0.007264912128448486,-0.017999500036239624
1700856803747144000,3.32314404296875,-0.0026493072509765625,0.0025228559970855713,-0.022759180516004562
1700856803764137700,3.3401376953125,-0.0026483535766601562,-0.011870712041854858,-0.027461357414722443
1700856803781130500,3.357130615234375,-0.0122222900390625,-0.016575604677200317,-0.013042934238910675
1700856803798136000,3.374135986328125,-0.006842613220214844,-0.0069391727447509766,0.0012903385795652866
1700856803815113000,3.391113037109375,-0.016411781311035156,-0.007578909397125244,0.0013018138706684113
1700856803832111000,3.408111083984375,-0.012227058410644531,-0.0069273412227630615,-0.00827245507389307
1700856803849101000,3.42510107421875,-0.017007827758789062,-0.011800915002822876,-0.027386970818042755
1700856803866100200,3.442100341796875,-0.007439613342285156,-0.006950736045837402,-0.01778741180896759
1700856803883090700,3.459090576171875,-0.021800994873046875,-0.0020614564418792725,-0.012390496209263802
1700856803900087800,3.476087890625,-0.017020225524902344,0.0028120577335357666,-0.012382036074995995
1700856803917077200,3.4930771484375,-0.011636734008789062,-0.00675627589225769,-0.002873237244784832
1700856803934071000,3.510071044921875,-0.011637687683105469,-0.02108880877494812,-0.0034800490830093622
1700856803951063800,3.527063720703125,-0.012235641479492188,-0.025878429412841797,-0.017771093174815178
1700856803968057600,3.5440576171875,-0.012238502502441406,-0.011445701122283936,-0.03208528831601143
1700856803985050400,3.56105029296875,-0.01702117919921875,0.0028514564037323,-0.021838627755641937
1700856804002040000,3.5780400390625,-0.007454872131347656,0.0029448270797729492,-0.00807129219174385
1700856804019041000,3.595041015625,-0.012243270874023438,-0.006572932004928589,-0.008030051365494728
1700856804036031000,3.612031005859375,-0.0164337158203125,-0.007111787796020508,0.006242428440600634
1700856804053019400,3.629019287109375,-0.011644363403320312,-0.006606996059417725,0.0014733565039932728
1700856804070020400,3.646020263671875,-0.012239456176757812,-0.006655752658843994,-0.012834755703806877
1700856804087010300,3.66301025390625,-0.012241363525390625,0.0029578208923339844,-0.01761098951101303
1700856804104004000,3.680004150390625,-0.021814346313476562,-0.0017864704132080078,-0.021716147661209106
1700856804120996900,3.696996826171875,-0.012246131896972656,-0.011287271976470947,-0.012721739709377289
1700856804137991000,3.713990966796875,-0.006867408752441406,-0.030324578285217285,-0.007841515354812145
1700856804154983700,3.730983642578125,-0.026012420654296875,-0.030857503414154053,-0.0030260493513196707
1700856804171977500,3.7479775390625,-0.026010513305664062,0.002594560384750366,-0.002447906881570816
1700856804188970500,3.764970458984375,-0.0026788711547851562,0.017512232065200806,-0.02213204838335514
1700856804205964000,3.781964111328125,-0.03139495849609375,0.002581089735031128,-0.01673586294054985
1700856804222956800,3.798956787109375,-0.017038345336914062,-0.02072322368621826,-0.022046953439712524
1700856804239948300,3.8159482421875,-0.00746917724609375,-0.020680367946624756,-0.02207808941602707
1700856804256946400,3.832946533203125,-0.021228790283203125,-0.006913602352142334,-0.002837585983797908
1700856804273929000,3.849928955078125,-0.007472038269042969,-0.0014760196208953857,-0.007596023380756378
1700856804290930400,3.866930419921875,-0.011660575866699219,-0.015813112258911133,-0.002768132137134671
1700856804307924000,3.883924072265625,-0.017043113708496094,-0.011052608489990234,-0.016462890431284904
1700856804324916700,3.900916748046875,0.0020961761474609375,-0.0014213919639587402,-0.03136977180838585
1700856804341910800,3.917910888671875,-0.0218353271484375,-0.025267094373703003,-0.026533495634794235
1700856804358903600,3.934903564453125,-0.016458511352539062,-0.03469705581665039,-0.0025514198932796717
1700856804375897600,3.951897705078125,-0.006890296936035156,0.003653019666671753,0.002251054160296917
1700856804392890400,3.968890380859375,-0.01705455780029297,0.04662322998046875,-0.011464954353868961
1700856804409884200,3.98588427734375,-0.012266159057617188,0.03220441937446594,-0.021012984216213226
1700856804426864400,4.002864501953125,-0.01705455780029297,-0.020385414361953735,-0.021576344966888428
1700856804443868400,4.019868408203125,-0.011673927307128906,-0.03466185927391052,-0.0071667833253741264
1700856804460863500,4.036863525390625,-0.012273788452148438,-0.010695278644561768,-0.016730070114135742
1700856804477859800,4.05385986328125,-0.02184772491455078,-0.006449371576309204,-0.006570752244442701
1700856804494836200,4.070836181640625,-0.0021066665649414062,-0.015446901321411133,0.002367889042943716
1700856804511843800,4.08784375,-0.016466140747070312,-0.020188361406326294,-0.0024422958958894014
1700856804528836900,4.1048369140625,0.03078746795654297,-0.029644429683685303,-0.016738438978791237
1700856804545830400,4.121830322265625,-0.06433582305908203,-0.039639055728912354,-0.011449696496129036
1700856804562823700,4.13882373046875,-0.0027256011962890625,-0.015008270740509033,-0.01198003813624382
1700856804579817500,4.1558173828125,-0.0027265548706054688,0.028101444244384766,-0.02628047578036785
1700856804596806100,4.17280615234375,-0.04578971862792969,0.046459078788757324,-0.03048424981534481
1700856804613808000,4.18980810546875,0.0020723342895507812,0.003881514072418213,-0.035854194313287735
1700856804630796800,4.206796875,-0.012289047241210938,-0.04867318272590637,-0.01659426838159561
1700856804647790800,4.223790771484375,-0.02126789093017578,-0.04435855150222778,0.002426598686724901
1700856804664783600,4.24078369140625,-0.0021276473999023438,-0.010215312242507935,0.0024426602758467197
1700856804681777400,4.25777734375,-0.02665424346923828,0.01791408658027649,-0.006511402782052755
1700856804698770400,4.2747705078125,-0.012296676635742188,0.02327442169189453,-0.025624528527259827
1700856804715761400,4.291761474609375,-0.007511138916015625,0.008931368589401245,-0.030958877876400948
1700856804732759300,4.30875927734375,-0.012299537658691406,-0.019718170166015625,-0.01652929186820984
1700856804749750800,4.325750732421875,-0.011702537536621094,-0.034055739641189575,0.002584400586783886
1700856804766743300,4.342743408203125,-0.01648998260498047,-0.02983534336090088,0.016925018280744553
1700856804783737300,4.3597373046875,-0.0164947509765625,-0.014783978462219238,-0.0021996547002345324
1700856804800730000,4.376730224609375,-0.012305259704589844,0.009125769138336182,-0.016559971496462822
1700856804817724000,4.393723876953125,-0.007518768310546875,0.0043143630027771,-0.026142902672290802
1700856804834718500,4.410718505859375,-0.007518768310546875,0.004308432340621948,-0.03560400754213333
1700856804851709000,4.427708984375,-0.021875381469726562,0.009074032306671143,-0.020612705498933792
1700856804868703500,4.444703369140625,-0.02187824249267578,-0.0004118680953979492,-0.010973550379276276
1700856804885697000,4.461697021484375,-0.02606487274169922,-0.02017652988433838,-0.006185146514326334
1700856804902689800,4.478689697265625,0.03075885772705078,-0.03380975127220154,-0.0068233683705329895
1700856804919684000,4.49568408203125,0.0020389556884765625,-0.0289095938205719,-0.021113207563757896
1700856804936676900,4.5126767578125,-0.050004005432128906,-0.015175074338912964,-0.010964816436171532
1700856804953670400,4.52967041015625,0.011609077453613281,-0.00016731023788452148,-0.020953871309757233
1700856804970663200,4.5466630859375,-0.021890640258789062,0.013603419065475464,-0.0017192147206515074
1700856804987657200,4.5636572265625,-0.017107009887695312,0.018433868885040283,0.0030483040027320385
1700856805004649700,4.580649658203125,-0.0075397491455078125,-0.004807859659194946,-0.01603121869266033
1700856805021642500,4.597642578125,-0.03147125244140625,-0.029275327920913696,-0.01117590069770813
1700856805038638000,4.61463818359375,-0.012333869934082031,-0.02854710817337036,-0.020652905106544495
1700856805055630600,4.631630615234375,-0.007550239562988281,-0.004592627286911011,-0.011014863848686218
1700856805072623400,4.648623291015625,-0.0165252685546875,-0.005132794380187988,-0.0015401255805045366
1700856805089614600,4.665614501953125,-0.016526222229003906,-0.009904921054840088,0.003128575161099434
1700856805106612700,4.68261279296875,-0.012341499328613281,-0.004464000463485718,-0.01111686136573553
1700856805123604000,4.69960400390625,-0.007557868957519531,0.005131572484970093,-0.01588626205921173
1700856805140596500,4.716596435546875,-0.012338638305664062,0.005046337842941284,-0.01048271358013153
1700856805157590300,4.73359033203125,-0.01712512969970703,0.005069226026535034,-0.015288695693016052
1700856805174583000,4.7505830078125,-0.012343406677246094,0.005149632692337036,-0.020630009472370148
1700856805191577000,4.7675771484375,-0.012342453002929688,0.0003427863121032715,-0.030246851965785027
1700856805208570000,4.784570068359375,-0.017126083374023438,-0.009279519319534302,-0.02062889374792576
1700856805225564000,4.80156396484375,-0.016531944274902344,-0.0283186137676239,-0.01103132776916027
1700856805242556700,4.818556640625,-0.017134666442871094,-0.013864755630493164,-0.011014827527105808
1700856805259550500,4.835550537109375,-0.017137527465820312,-0.0042237043380737305,-0.0062880925834178925
1700856805276543000,4.85254296875,-0.017139434814453125,0.0053765177726745605,-0.005696045234799385
1700856805293540900,4.869540771484375,-0.012355804443359375,-0.0041519105434417725,-0.006196510978043079
1700856805310530000,4.886530029296875,-0.012358665466308594,-0.00887414813041687,-0.02529284358024597
1700856805327523800,4.90352392578125,-0.012364387512207031,-0.00875428318977356,-0.015679307281970978
1700856805344516600,4.9205166015625,-0.012366294860839844,-0.003919690847396851,-0.010871479287743568
1700856805361510100,4.93751025390625,-0.016556739807128906,-0.008642911911010742,-0.0013674499932676554
1700856805378503400,4.95450341796875,-0.012368202209472656,0.010470092296600342,-0.0013827623333781958
1700856805395497000,4.9714970703125,-0.017154693603515625,-0.003851860761642456,-0.006122598424553871
1700856805412489700,4.98848974609375,-0.0028028488159179688,-0.022904157638549805,-0.02523175999522209
1700856805429483800,5.00548388671875,-0.012375831604003906,-0.013293862342834473,-0.039458978921175
1700856805446476300,5.022476318359375,-0.0028057098388671875,-0.008482903242111206,-0.029810156673192978
1700856805463470300,5.03947021484375,-0.017157554626464844,-0.0038016438484191895,-0.015457624569535255
1700856805480463400,5.05646337890625,-0.011774063110351562,-0.0038042068481445312,0.0037162024527788162
1700856805497457200,5.07345703125,-0.011770248413085938,0.010472685098648071,0.0037282253615558147
1700856805514450000,5.090449951171875,-0.012364387512207031,0.000821530818939209,-0.0011266542132943869
1700856805531443700,5.107443603515625,-0.007582664489746094,-0.018244236707687378,-0.020251493901014328
1700856805548445000,5.12444482421875,-0.02673053741455078,-0.027705103158950806,-0.02022346295416355
1700856805565425700,5.14142578125,-0.021944046020507812,-0.013366639614105225,-0.01062158402055502
1700856805582423300,5.15842333984375,-0.0267333984375,0.005262523889541626,-0.0052682482637465
1700856805599417000,5.1754169921875,-0.012376785278320312,0.010638535022735596,-0.010645667091012001
1700856805616409600,5.19240966796875,-0.007592201232910156,-0.003683745861053467,-0.01063152402639389
1700856805633394400,5.20939453125,-0.0075931549072265625,-0.018007934093475342,-0.015330959111452103
1700856805650396400,5.226396484375,-0.012384414672851562,-0.027474582195281982,-0.02479497343301773
1700856805667390500,5.243390380859375,-0.017169952392578125,-0.022686362266540527,-0.010354585945606232
1700856805684372500,5.26037255859375,-0.0076007843017578125,0.0012905597686767578,-0.005543596111238003
1700856805701366800,5.27736669921875,-0.026144027709960938,0.005447208881378174,-0.00012089777737855911
1700856805718370000,5.2943701171875,-0.012380599975585938,0.005963355302810669,-0.00968924630433321
1700856805735361000,5.311361083984375,-0.007597923278808594,-0.0035591423511505127,-0.010269124992191792
1700856805752359400,5.328359375,-0.012386322021484375,-0.01306837797164917,-0.01980385184288025
1700856805769349600,5.345349609375,-0.012388229370117188,-0.003448992967605591,-0.01965957134962082
1700856805786343200,5.36234326171875,-0.0028142929077148438,-0.003509521484375,-0.014798990450799465
1700856805803337200,5.379337158203125,-0.012386322021484375,-0.008291453123092651,-0.005216572433710098
1700856805820329700,5.396329833984375,-0.012387275695800781,-0.013058394193649292,-0.009957614354789257
1700856805837323800,5.41332373046875,-0.012395858764648438,-0.012873440980911255,-0.019540507346391678
1700856805854306000,5.43030615234375,-0.012395858764648438,-0.008070319890975952,-0.033914051949977875
1700856805871310300,5.447310302734375,-0.017181396484375,-0.003288090229034424,-0.02426508627831936
1700856805888303400,5.464303466796875,-0.017182350158691406,0.006301820278167725,-0.004505387507379055
1700856805905297000,5.481296875,-0.011797904968261719,0.0008938312530517578,0.009167790412902832
1700856805922290000,5.4982900390625,-0.016585350036621094,-0.0038355588912963867,0.0192649457603693
1700856805939283500,5.515283447265625,-0.007018089294433594,-0.007959932088851929,0.004211899824440479
1700856805956276200,5.532276123046875,-0.01718616485595703,-0.012763768434524536,-0.02387401834130287
1700856805973269000,5.54926904296875,-0.007617950439453125,-0.007915765047073364,-0.02913779951632023
1700856805990264300,5.566264404296875,-0.017786026000976562,0.006408005952835083,-0.03856639936566353
1700856806007257000,5.583257080078125,-0.021971702575683594,0.011153161525726318,-0.0330493226647377
1700856806024249900,5.600249755859375,0.0019559860229492188,0.0016014575958251953,-0.009639288298785686
1700856806041240800,5.61724072265625,-0.011803627014160156,-0.007959067821502686,-0.00013489322736859322
1700856806058237000,5.63423681640625,-0.01659107208251953,-0.013308405876159668,0.009441915899515152
1700856806075219500,5.651219482421875,-0.021381378173828125,-0.008410155773162842,0.009410376660525799
1700856806092223200,5.66822314453125,-0.011811256408691406,-0.008391082286834717,0.009419932961463928
1700856806109217000,5.685217041015625,-0.012411117553710938,-0.0029601752758026123,-0.009714808315038681
1700856806126209500,5.70220947265625,-0.01241302490234375,-0.0029205381870269775,-0.02401731163263321
1700856806143203600,5.71920361328125,-0.021984100341796875,-0.007704317569732666,-0.023864425718784332
1700856806160196600,5.736196533203125,-0.01720142364501953,-0.007651180028915405,-0.023762647062540054
1700856806177190400,5.7531904296875,-0.01720142364501953,-0.0028561651706695557,-0.009427344426512718
1700856806194183000,5.770182861328125,-0.01241302490234375,0.006637692451477051,-0.00459523219615221
1700856806211177000,5.787177001953125,-0.0171966552734375,0.00661817193031311,-0.008672891184687614
1700856806228159000,5.804158935546875,-0.0028390884399414062,-0.0029999911785125732,-0.00921298936009407
1700856806245163500,5.82116357421875,-0.026767730712890625,0.0018164217472076416,-0.027649300172924995
1700856806262156300,5.83815625,-0.01719951629638672,-0.007700979709625244,-0.0233453381806612
1700856806279150000,5.855150146484375,-0.0028448104858398438,-0.007639080286026001,-0.008907582610845566
1700856806296132600,5.872132568359375,-0.01181793212890625,-0.017228126525878906,0.005476451478898525
1700856806313136600,5.88913671875,-0.016603469848632812,-0.008236110210418701,0.00544467568397522
1700856806330129700,5.906129638671875,-0.0076351165771484375,0.0020186007022857666,-0.004188229329884052
1700856806347123700,5.923123779296875,-0.0076351165771484375,0.0020379722118377686,-0.008963477797806263
1700856806364116200,5.9401162109375,-0.02199268341064453,0.002056598663330078,-0.00829530693590641
1700856806381117000,5.957116943359375,-0.01720714569091797,-0.0027538537979125977,-0.013609612360596657
1700856806398093600,5.974093505859375,-0.012420654296875,-0.007549107074737549,-0.008861992508172989
1700856806415096800,5.991096923828125,-0.01720905303955078,-0.017048239707946777,-0.008791167289018631
1700856806432089300,6.00808935546875,-0.007645606994628906,-0.026473939418792725,-0.01355917938053608
1700856806449083400,6.02508349609375,-0.01721668243408203,-0.0025403201580047607,-0.008700115606188774
1700856806466084600,6.042084716796875,-0.022002220153808594,0.01181909441947937,-0.01280527375638485
1700856806483067600,6.059067626953125,-0.01242828369140625,0.01174914836883545,-0.013260075822472572
1700856806500046600,6.076046630859375,-0.02199840545654297,-0.00800788402557373,-0.0036266776733100414
1700856806517056800,6.093056884765625,-0.02140331268310547,-0.01750779151916504,-0.0035180472768843174
1700856806534049800,6.1100498046875,-0.021409034729003906,-0.026976317167282104,0.006069926079362631
1700856806551043600,6.127043701171875,-0.01662731170654297,-0.022088289260864258,0.0013069570995867252
1700856806568036400,6.144036376953125,-0.0028667449951171875,-0.007177799940109253,-0.0034280549734830856
1700856806585030400,6.161030517578125,-0.0028676986694335938,0.011976242065429688,-0.017753250896930695
1700856806602023200,6.178023193359375,-0.017217636108398438,0.02141818404197693,-0.026668649166822433
1700856806619017000,6.195016845703125,-0.02200031280517578,0.011783063411712646,-0.01232646033167839
1700856806636009700,6.212009765625,0.001926422119140625,-0.007331579923629761,-0.0033924600575119257
1700856806653003800,6.229003662109375,-0.007046699523925781,-0.026495814323425293,0.006103090476244688
1700856806669996300,6.245996337890625,-0.01183319091796875,-0.0222628116607666,0.01088577602058649
1700856806686990000,6.262989990234375,-0.0070476531982421875,-0.016900181770324707,0.001307761063799262
1700856806703983000,6.279983154296875,-0.017218589782714844,0.002283066511154175,-0.017291998490691185
1700856806720977000,6.296976806640625,-0.017221450805664062,0.002351313829421997,-0.021920865401625633
1700856806737969700,6.3139697265625,-0.007648468017578125,0.0070813000202178955,-0.012860656715929508
1700856806754963500,6.33096337890625,-0.01721668243408203,0.00702512264251709,-0.002574326004832983
1700856806771956200,6.347956298828125,-0.0070476531982421875,0.00225028395652771,0.0016043976647779346
1700856806788950300,6.3649501953125,-0.01662158966064453,-0.007861405611038208,0.0016397550934925675
1700856806805942800,6.38194287109375,-0.012434959411621094,-0.016812533140182495,-0.017398253083229065
1700856806822933800,6.398933837890625,-0.022009849548339844,-0.021503984928131104,-0.012746544554829597
1700856806839932400,6.415932373046875,-0.012439727783203125,-0.0023638904094696045,-0.012715572491288185
1700856806856923000,6.4329228515625,-0.012439727783203125,-0.00714382529258728,-0.0030703332740813494
1700856806873913600,6.44991357421875,-0.01722240447998047,0.007172048091888428,-0.0024189362302422523
1700856806890912800,6.466912841796875,-0.012433052062988281,0.00707322359085083,-0.003029311541467905
1700856806907903000,6.483903076171875,-0.0028591156005859375,0.0070188939571380615,0.0017966979648917913
1700856806924894000,6.50089404296875,-0.0076465606689453125,-0.002526015043258667,-0.007821133360266685
1700856806941890000,6.51789013671875,-0.012434959411621094,-0.016817361116409302,-0.017307767644524574
1700856806958885400,6.534885498046875,-0.022009849548339844,-0.01196029782295227,-0.011887535452842712
1700856806975876000,6.5518759765625,-0.012440681457519531,-0.002332746982574463,-0.011846750974655151
1700856806992870100,6.5688701171875,-0.0076503753662109375,0.016702920198440552,-0.011775323189795017
1700856807009852400,6.585852294921875,-0.012436866760253906,0.002363860607147217,-0.012362089939415455
1700856807026856700,6.602856689453125,-0.0124359130859375,-0.007224172353744507,-0.012342045083642006
1700856807043849700,6.619849609375,-0.0172271728515625,-0.011878788471221924,-0.007442269939929247
1700856807060843500,6.636843505859375,-0.012444496154785156,-0.007036298513412476,-0.012142783030867577
1700856807077836300,6.653836181640625,-0.002872467041015625,-0.0022674500942230225,-0.0073354486376047134
1700856807094830000,6.670830078125,-0.01723003387451172,0.002542734146118164,-0.011460195295512676
1700856807111822800,6.68782275390625,-0.007657051086425781,0.002508878707885742,-0.011977105401456356
1700856807128817000,6.70481689453125,-0.017225265502929688,-0.002345442771911621,-0.016075540333986282
1700856807145809700,6.7218095703125,-0.007655143737792969,0.002458512783050537,-0.011818463914096355
1700856807162803200,6.73880322265625,-0.017228126525878906,-0.0022790133953094482,-0.002282621804624796
1700856807179796200,6.755796142578125,-0.016633987426757812,-0.012390345335006714,0.0024394895881414413
1700856807196787500,6.772787353515625,-0.011849403381347656,-0.011743545532226562,-0.0024049931671470404
1700856807213785300,6.789785400390625,-0.016638755798339844,-0.016457825899124146,-0.0024377009831368923
1700856807230776600,6.806776611328125,-0.02680683135986328,-0.002717137336730957,-0.0018426200840622187
1700856807247769300,6.823769287109375,-0.0028772354125976562,0.00741162896156311,-0.016829172149300575
1700856807264763100,6.84076318359375,-0.012448310852050781,0.007412314414978027,-0.01201039832085371
1700856807281751600,6.85775146484375,-0.012449264526367188,-0.002134174108505249,-0.0072053661569952965
1700856807298748700,6.874748779296875,-0.007664680480957031,-0.021247506141662598,-0.007130741141736507
1700856807315744300,6.891744140625,-0.017240524291992188,-0.0163821280002594,-0.007111628074198961
1700856807332736800,6.90873681640625,-0.017243385314941406,-0.011525064706802368,-0.011852158233523369
1700856807349719300,6.92571923828125,-0.02203083038330078,-0.0019153356552124023,-0.006408428307622671
1700856807366718700,6.94271875,-0.012457847595214844,0.002836078405380249,-0.002162790624424815
1700856807383720700,6.959720703125,-0.017241477966308594,0.007570892572402954,-0.011121093295514584
1700856807400710100,6.976710205078125,-0.012449264526367188,-0.0021282434463500977,-0.01641756482422352
1700856807417703000,6.993702880859375,-0.00766754150390625,-0.016420483589172363,-0.016286130994558334
1700856807434697000,7.010697021484375,-0.011858940124511719,-0.011562973260879517,0.002905147382989526
1700856807451689500,7.027689453125,-0.01724529266357422,0.002869635820388794,-0.0019938242621719837
1700856807468683500,7.04468359375,-0.012455940246582031,-0.0019939839839935303,-0.006823616102337837
1700856807485676300,7.06167626953125,-0.007671356201171875,-0.011559486389160156,-0.011544338427484035
1700856807502669800,7.078669921875,-0.017243385314941406,-0.0019404888153076172,-0.016196321696043015
1700856807519662800,7.095662841796875,-0.0076770782470703125,0.002920776605606079,-0.020869042724370956
1700856807536656600,7.11265673828125,-0.007674217224121094,0.0076637864112854,-0.016029510647058487
1700856807553649700,7.129649658203125,-0.007076263427734375,-0.006703227758407593,0.0030543426983058453
1700856807570643500,7.1466435546875,-0.007081031799316406,-0.020963549613952637,0.00786684826016426
1700856807587636200,7.16363623046875,-0.011870384216308594,-0.016081899404525757,0.0030492080841213465
1700856807604630000,7.180630126953125,-0.02144145965576172,0.0024596750736236572,0.0035165639128535986
1700856807621622500,7.19762255859375,-0.007679939270019531,0.017339587211608887,-0.020923951640725136
1700856807638616800,7.214616943359375,-0.017251014709472656,0.022134602069854736,-0.010659455321729183
1700856807655609600,7.231609619140625,-0.012465476989746094,-0.006564080715179443,-0.015905458480119705
1700856807672603400,7.248603271484375,-0.007084846496582031,-0.02565404772758484,0.003186124376952648
1700856807689596200,7.26559619140625,-0.011875152587890625,-0.020748287439346313,0.007942844182252884
1700856807706590200,7.282590087890625,-0.011878013610839844,0.0032359957695007324,0.0031734067015349865
1700856807723583000,7.2995830078125,-0.012473106384277344,0.01750895380973816,-0.010570943355560303
1700856807740574200,7.31657421875,-0.026825904846191406,0.007868140935897827,-0.02003553882241249
1700856807757572000,7.333572021484375,-0.007686614990234375,-0.00644916296005249,-0.02057783305644989
1700856807774552600,7.350552490234375,-0.012472152709960938,-0.006445139646530151,-0.010963472537696362
1700856807791556000,7.36755615234375,-0.011870384216308594,-0.0017226636409759521,0.0033784795086830854
1700856807808550000,7.3845498046875,-0.011869430541992188,-0.011929571628570557,0.012892850674688816
1700856807825545700,7.401545654296875,-0.021436691284179688,-0.01677989959716797,0.0032707080245018005
1700856807842534000,7.418533935546875,-0.017249107360839844,-0.001837402582168579,-0.015920715406537056
1700856807859529500,7.435529541015625,-0.017846107482910156,0.017287015914916992,-0.03432537615299225
1700856807876523500,7.4525234375,-0.02202892303466797,0.002833634614944458,-0.024633891880512238
1700856807893516000,7.46951611328125,-0.01724529266357422,-0.006699055433273315,-0.006048896815627813
1700856807910509800,7.486509765625,-0.0022935867309570312,-0.011420845985412598,0.0035036830231547356
1700856807927502800,7.5035029296875,-0.016651153564453125,-0.01678389310836792,0.013073968701064587
1700856807944496600,7.52049658203125,-0.011867523193359375,-0.016745805740356445,0.017680322751402855
1700856807961492200,7.5374921875,-0.007083892822265625,-0.020896226167678833,0.003284467151388526
1700856807978480600,7.554480712890625,-0.01725292205810547,-0.0065351128578186035,-0.01579350233078003
1700856807995465500,7.571465576171875,-0.007678031921386719,0.02687850594520569,-0.010343102738261223
1700856808012470000,7.588469970703125,-0.02202892303466797,0.041128069162368774,-0.01043479423969984
1700856808029462800,7.605462890625,-0.012450218200683594,0.021809428930282593,-0.015139766037464142
1700856808046456600,7.62245654296875,-0.01723480224609375,-0.00694197416305542,-0.015653369948267937
1700856808063449300,7.639449462890625,-0.0028829574584960938,-0.045121729373931885,-0.020335154607892036
1700856808080443100,7.656443115234375,-0.0076770782470703125,-0.04491901397705078,-0.010731484740972519
1700856808097436400,7.6734365234375,-0.02203083038330078,-0.011468708515167236,-0.005942532327026129
1700856808114430000,7.690429931640625,-0.012459754943847656,0.02201288938522339,0.00365189160220325
1700856808131423000,7.707423095703125,-0.01723957061767578,0.03145015239715576,0.004349646158516407
1700856808148412700,7.72441259765625,-0.022022247314453125,0.01644471287727356,-0.0004530291771516204
1700856808165413600,7.74141357421875,-0.012446403503417969,-0.002194046974182129,-0.0010689226910471916
1700856808182403300,7.7584033203125,-0.01723480224609375,-0.02608466148376465,-0.010630710981786251
1700856808199396400,7.775396240234375,-0.016641616821289062,-0.025963425636291504,-0.005789152346551418
1700856808216387300,7.79238720703125,-0.0316009521484375,-0.012125074863433838,-0.009825039654970169
1700856808233385500,7.809385498046875,-0.026811599731445312,-0.007399827241897583,-0.004971255548298359
1700856808250376400,7.82637646484375,0.016256332397460938,-0.011530548334121704,-0.010234124027192593
1700856808267369200,7.843369140625,-0.031006813049316406,-0.026380956172943115,-0.0007096295012161136
1700856808284363000,7.860363037109375,-0.0028944015502929688,0.0029881298542022705,0.0039939903654158115
1700856808301356300,7.877356201171875,-0.021437644958496094,0.01671963930130005,0.014086979441344738
1700856808318350000,7.89435009765625,-0.02681255340576172,0.02612164616584778,0.004474685061722994
1700856808335342600,7.911342529296875,-0.002880096435546875,0.007466554641723633,-0.010420175269246101
1700856808352337000,7.9283369140625,-0.021425247192382812,-0.02122652530670166,-0.005618175957351923
1700856808369319000,7.94531884765625,-0.012454986572265625,-0.02594047784805298,-0.015106052160263062
1700856808386313500,7.9623134765625,-0.007674217224121094,-0.01148727536201477,-0.015062911435961723
1700856808403316200,7.979316162109375,-0.02681446075439453,0.007617682218551636,-0.009659490548074245
1700856808420310000,7.99631005859375,-0.007670402526855469,0.021923571825027466,-0.00008856493514031172
1700856808437302800,8.013302734375,-0.02202129364013672,0.01643732190132141,0.004722625017166138
1700856808454296600,8.030296630859375,-0.022025108337402344,-0.011622488498687744,-0.009682056494057178
1700856808471289300,8.047289306640625,-0.002887725830078125,-0.035436928272247314,-0.010221132077276707
1700856808488283400,8.064283447265625,-0.017251968383789062,-0.040051817893981934,-0.014986220747232437
1700856808505276000,8.08127587890625,-0.007678985595703125,-0.0018038451671600342,-0.010087523609399796
1700856808522269700,8.098269775390625,-0.012463569641113281,0.01732000708580017,-0.004764903802424669
1700856808539265000,8.11526513671875,-0.012454986572265625,0.01711571216583252,0.004739070311188698
1700856808556252400,8.13225244140625,-0.012452125549316406,0.0027146339416503906,-0.010254716500639915
1700856808573249500,8.14924951171875,-0.012455940246582031,-0.016354769468307495,-0.029219651594758034
1700856808590243000,8.1662431640625,-0.01724720001220703,-0.01623883843421936,-0.02909483201801777
1700856808607231200,8.183231201171875,-0.007679939270019531,-0.011371761560440063,-0.014738226309418678
1700856808624228600,8.200228515625,-0.021437644958496094,-0.007188141345977783,0.009761144407093525
1700856808641222400,8.217222412109376,-0.016651153564453125,0.0023564398288726807,0.014429370872676373
1700856808658216700,8.234216796875,-0.007079124450683594,-0.0018580257892608643,0.013820456340909004
1700856808675209200,8.251209228515625,-0.011866569519042969,-0.011381298303604126,0.004265684634447098
1700856808692203300,8.268203369140625,-0.011865615844726562,-0.01618775725364685,-0.00052710494492203
1700856808709196000,8.285196044921875,-0.012464523315429688,-0.001801133155822754,-0.005255831405520439
1700856808726189800,8.30218994140625,-0.01725006103515625,0.012536078691482544,-0.009367531165480614
1700856808743183000,8.31918310546875,-0.007674217224121094,0.002868860960006714,-0.0003479425795376301
1700856808760176600,8.3361767578125,-0.021436691284179688,-0.01679086685180664,0.004314253106713295
1700856808777169200,8.353169189453125,-0.01665496826171875,-0.01193198561668396,0.00434104073792696
1700856808794163200,8.3701630859375,-0.007678031921386719,-0.0018335580825805664,-0.009959268383681774
1700856808811156000,8.387156005859374,-0.007676124572753906,-0.0018616318702697754,-0.009852081537246704
1700856808828135000,8.404135009765625,-0.017249107360839844,-0.006616264581680298,-0.009237905964255333
1700856808845142800,8.421142822265624,-0.01725006103515625,-0.011381596326828003,-0.014647064730525017
1700856808862134000,8.438134033203125,-0.012463569641113281,-0.0018305480480194092,-0.024218445643782616
1700856808879132000,8.4551318359375,-0.01725292205810547,-0.001757979393005371,-0.024112392216920853
1700856808896113000,8.47211279296875,-0.017251014709472656,-0.0017878711223602295,-0.014396474696695805
1700856808913116200,8.4891162109375,-0.011867523193359375,-0.011362820863723755,0.004650833550840616
1700856808930109700,8.506109619140625,-0.011866569519042969,-0.0023917555809020996,0.014216715469956398
1700856808947102700,8.523102783203125,-0.016653060913085938,-0.007179528474807739,0.01887045055627823
1700856808964096500,8.540096435546875,-0.011867523193359375,-0.011353164911270142,0.009198789484798908
1700856808981089500,8.557089599609375,-0.01725292205810547,-0.006529062986373901,-0.009392930194735527
1700856808998085400,8.57408544921875,-0.007681846618652344,-0.0017548203468322754,-0.024243734776973724
1700856809015074000,8.591073974609374,-0.012467384338378906,-0.006544321775436401,-0.014680740423500538
1700856809032070100,8.608070068359375,-0.017253875732421875,0.0030568838119506836,-0.00931211095303297
1700856809049062700,8.625062744140624,-0.017251968383789062,0.007796525955200195,-0.00041200616396963596
1700856809066056700,8.642056640625,-0.0076770782470703125,0.012512803077697754,-0.005171375814825296
1700856809083049500,8.659049560546874,-0.012463569641113281,-0.0018385350704193115,-0.005138412117958069
1700856809100045000,8.676045166015625,-0.017251968383789062,-0.011346876621246338,-0.014799859374761581
1700856809117034000,8.693033935546875,-0.007681846618652344,-0.020878970623016357,-0.014722803607583046
1700856809134032100,8.7100322265625,-0.017253875732421875,-0.01607269048690796,-0.005142121575772762
1700856809151012400,8.727012451171875,-0.012472152709960938,-0.011231750249862671,-0.0003700524102896452
1700856809168016400,8.744016357421875,-0.017256736755371094,-0.0064418017864227295,-0.00033681467175483704
1700856809185009400,8.761009521484375,-0.0172576904296875,0.007919073104858398,-0.00029599375557154417
1700856809202003200,8.778003173828125,-0.012471199035644531,0.012701094150543213,-0.009853415191173553
1700856809218994000,8.794993896484375,-0.0124664306640625,0.007810413837432861,-0.00501642469316721
1700856809235992000,8.811991943359375,-0.012467384338378906,-0.01132771372795105,-0.005062233656644821
1700856809252982800,8.828982666015625,-0.016655921936035156,-0.01607474684715271,-0.0002802246017381549
1700856809269976600,8.8459765625,-0.0029010772705078125,-0.015993475914001465,-0.009882468730211258
1700856809286969300,8.86296923828125,-0.0076847076416015625,-0.0016917884349822998,-0.009804481640458107
1700856809303963100,8.879963134765624,-0.012467384338378906,0.017388492822647095,-0.014110985212028027
1700856809320956200,8.8969560546875,-0.02203655242919922,0.007173627614974976,0.0003894998226314783
1700856809337950000,8.913949951171874,-0.01725006103515625,-0.0018203258514404297,-0.00494724465534091
1700856809354942700,8.930942626953126,-0.011867523193359375,-0.01615530252456665,0.00464732525870204
1700856809371936500,8.9479365234375,-0.026223182678222656,-0.007193952798843384,0.00525764562189579
1700856809388929500,8.964929443359376,-0.012462615966796875,0.007724106311798096,-0.004273262806236744
1700856809405923000,8.981923095703126,-0.007678985595703125,-0.0018158555030822754,-0.014468267560005188
1700856809422916400,8.998916259765625,-0.007678985595703125,0.002992779016494751,-0.014375241473317146
1700856809439910000,9.015909912109375,-0.01725006103515625,-0.0018138885498046875,-0.004148918204009533
1700856809456902700,9.032902587890625,-0.012463569641113281,-0.0018341243267059326,-0.004703214857727289
1700856809473898800,9.049898681640625,-0.01664447784423828,-0.00736430287361145,0.005486271809786558
1700856809490889500,9.066889404296875,-0.0166473388671875,-0.007305949926376343,0.010314437560737133
1700856809507883000,9.083883056640625,-0.011858940124511719,-0.006768941879272461,0.00016948115080595016
1700856809524860700,9.100860595703125,-0.012454986572265625,-0.0020024776458740234,-0.004623181186616421
1700856809541869800,9.117869873046875,-0.017240524291992188,-0.002030611038208008,-0.004565055947750807
1700856809558862800,9.13486279296875,-0.01723766326904297,0.012263834476470947,-0.01828691177070141
1700856809575856600,9.151856689453124,-0.007663726806640625,0.0026484131813049316,-0.00924733281135559
1700856809592849700,9.168849609375,-0.011854171752929688,-0.006873905658721924,0.005046653561294079
1700856809609843200,9.18584326171875,-0.007664680480957031,-0.01648089289665222,-0.004525861702859402
1700856809626836200,9.202836181640626,-0.01663494110107422,-0.006954014301300049,0.00028997031040489674
1700856809643823000,9.219822998046874,-0.01244354248046875,0.0025303661823272705,-0.004506492521613836
1700856809660822800,9.23682275390625,-0.007657051086425781,0.0024948418140411377,-0.004551059566438198
1700856809677816800,9.25381689453125,-0.0172271728515625,-0.0070955753326416016,-0.009382640942931175
1700856809694809300,9.270809326171875,-0.016626358032226562,-0.007147997617721558,0.00018148613162338734
1700856809711793000,9.28779296875,-0.011839866638183594,0.006585508584976196,0.014537271112203598
1700856809728796000,9.3047958984375,-0.01661968231201172,-0.0031103789806365967,0.014476349577307701
1700856809745787100,9.321787109375,0.0067138671875,0.006982624530792236,0.00017065065912902355
1700856809762785000,9.338784912109375,-0.012427330017089844,0.006947934627532959,-0.014107202179729939
1700856809779776500,9.355776611328125,-0.01721477508544922,-0.007343500852584839,-0.023610007017850876
1700856809796766500,9.372766357421876,-0.017218589782714844,-0.007269531488418579,-0.02831450290977955
1700856809813766400,9.389766357421875,-0.012436866760253906,-0.011974066495895386,-0.018683133646845818
1700856809830755800,9.406755859375,-0.007655143737792969,-0.011900573968887329,-0.004215977154672146
1700856809847739100,9.4237392578125,-0.007660865783691406,-0.01655334234237671,0.0006283780094236135
1700856809864743000,9.440742919921876,-0.016633987426757812,-0.016556382179260254,0.0005472113844007254
1700856809881736700,9.45773681640625,-0.01663684844970703,-0.0069207847118377686,0.001121827051974833
1700856809898729500,9.4747294921875,-0.017236709594726562,-0.002088785171508789,-0.003672004444524646
1700856809915726000,9.49172607421875,-0.01723957061767578,0.002751171588897705,-0.003628954291343689
1700856809932713500,9.50871337890625,-0.007668495178222656,0.007540702819824219,-0.004125016741454601
1700856809949710000,9.5257099609375,-0.02202320098876953,0.002716243267059326,-0.003577316179871559
1700856809966702600,9.54270263671875,-0.022025108337402344,-0.0026291608810424805,0.0011854154290631413
1700856809983696600,9.559696533203125,-0.0118560791015625,-0.011623680591583252,0.0005738893523812294
1700856810000689400,9.576689453125,-0.007672309875488281,-0.016311436891555786,-0.004322396591305733
1700856810017683200,9.59368310546875,-0.007671356201171875,-0.006760716438293457,-0.004379681311547756
1700856810034676200,9.61067626953125,-0.01245880126953125,-0.0019373893737792969,-0.009044434875249863
1700856810051670000,9.627669921875,-0.02202606201171875,0.007546126842498779,-0.008421579375863075
1700856810068662800,9.644662841796874,-0.0076656341552734375,0.002688765525817871,-0.00895661674439907
1700856810085656600,9.661656494140624,-0.022024154663085938,-0.0020596683025360107,-0.00351930083706975
1700856810102649300,9.6786494140625,-0.012452125549316406,0.002714186906814575,-0.008884768933057785
1700856810119643400,9.695643310546876,-0.012449264526367188,0.0026423633098602295,-0.004201121628284454
1700856810136636000,9.712635986328126,-0.012451171875,-0.0068817138671875,0.0005776716861873865
1700856810153630000,9.7296298828125,-0.01723957061767578,-0.01638162136077881,-0.004261658526957035
1700856810170623200,9.746623291015625,-0.017242431640625,-0.016335755586624146,-0.004263650625944138
1700856810187614000,9.763614013671875,-0.017240524291992188,-0.0067948997020721436,-0.00907864049077034
1700856810204611600,9.780611572265625,-0.017243385314941406,-0.001955181360244751,-0.008958224207162857
1700856810221603000,9.79760302734375,-0.007668495178222656,0.007535368204116821,0.0005599837750196457
1700856810238585300,9.81458544921875,-0.021429061889648438,-0.0025953948497772217,0.010734157636761665
1700856810255590000,9.83158984375,-0.007077217102050781,-0.006676733493804932,0.01486977655440569
1700856810272583000,9.8485830078125,-0.007079124450683594,-0.0066210925579071045,0.010034667328000069
1700856810289576700,9.86557666015625,-0.012460708618164062,-0.0018829703330993652,0.00043350132182240486
1700856810306569500,9.882569580078124,-0.011864662170410156,-0.016202986240386963,0.005257190205156803
1700856810323563000,9.89956298828125,-0.01725006103515625,-0.00661158561706543,-0.009184366092085838
1700856810340540000,9.916539794921874,-0.026824951171875,-0.0017220079898834229,-0.013400036841630936
1700856810357549800,9.9335498046875,-0.01725482940673828,0.007868945598602295,-0.013963707722723484
1700856810374540800,9.950540771484375,-0.01725292205810547,0.007828831672668457,-0.0235295332968235
1700856810391538700,9.96753857421875,-0.012468338012695312,0.003062903881072998,-0.018641673028469086
1700856810408529700,9.98452978515625,-0.012469291687011719,-0.0016949772834777832,-0.009052237495779991
1700856810425513000,10.001512939453125,-0.0070896148681640625,-0.015963077545166016,0.005329859908670187
1700856810442516200,10.01851611328125,-0.01666545867919922,-0.011089235544204712,0.00047203805297613144
1700856810459510000,10.035510009765625,0.0018787384033203125,-0.0015229582786560059,0.0052824425511062145
1700856810476502800,10.052502685546875,-0.022049903869628906,-0.0062646567821502686,-0.009084999561309814
1700856810493483800,10.06948388671875,-0.00769805908203125,-0.02053391933441162,-0.018574979156255722
1700856810510478800,10.086478759765624,-0.012490272521972656,-0.025173038244247437,-0.008927160874009132
1700856810527486000,10.10348583984375,-0.022063255310058594,-0.015558123588562012,-0.013589777983725071
1700856810544476200,10.12047607421875,-0.007704734802246094,-0.006027579307556152,-0.008788381703197956
1700856810561467400,10.13746728515625,-0.0166778564453125,0.012518614530563354,0.010916901752352715
1700856810578465300,10.15446533203125,-0.011890411376953125,0.022049665451049805,0.020420730113983154
1700856810595459300,10.171459228515625,-0.011887550354003906,0.013002485036849976,0.010223714634776115
1700856810612446500,10.188446533203125,-0.011885643005371094,-0.0019927024841308594,0.010206008329987526
1700856810629443000,10.205443115234376,-0.017271041870117188,-0.020493030548095703,-0.00891784206032753
1700856810646436000,10.22243603515625,-0.022062301635742188,-0.029926687479019165,-0.013676225207746029
1700856810663430100,10.23943017578125,-0.007710456848144531,-0.010679841041564941,-0.032793041318655014
1700856810680423000,10.2564228515625,-0.007706642150878906,0.017932623624801636,-0.018476031720638275
1700856810697416700,10.273416748046875,-0.017273902893066406,0.008293181657791138,-0.008816905319690704
1700856810714409200,10.2904091796875,-0.0077037811279296875,0.003517061471939087,-0.004024151712656021
1700856810731392800,10.307392822265625,-0.016674041748046875,-0.011486440896987915,0.0103329848498106
1700856810748395800,10.324395751953125,-0.01668262481689453,-0.00652766227722168,0.02464076690375805
1700856810765390000,10.34139013671875,-0.01668834686279297,-0.006415128707885742,0.010269341990351677
1700856810782382800,10.3583828125,-0.02207183837890625,-0.015354275703430176,-0.013701952993869781
1700856810799376600,10.375376708984374,-0.012500762939453125,-0.010584324598312378,-0.018399324268102646
1700856810816369200,10.392369140625,-0.012502670288085938,-0.0009702146053314209,-0.023076757788658142
1700856810833357300,10.409357421875,-0.012506484985351562,0.00867721438407898,-0.017594747245311737
1700856810850356200,10.426356201171876,-0.007720947265625,0.00390857458114624,-0.008602750487625599
1700856810867350000,10.44335009765625,-0.007124900817871094,-0.0008428096771240234,0.005787002854049206
1700856810884342800,10.4603427734375,-0.011913299560546875,-0.010353803634643555,0.005723907612264156
1700856810901336600,10.477336669921876,-0.01670360565185547,-0.015642911195755005,0.005732020363211632
1700856810918326800,10.494326904296875,-0.0077304840087890625,0.004105746746063232,-0.01816117763519287
1700856810935325700,10.51132568359375,0.0066242218017578125,0.013719409704208374,-0.008651337586343288
1700856810952313300,10.528313232421874,-0.007733345031738281,0.01852753758430481,-0.012803437188267708
1700856810969312500,10.5453125,-0.02208709716796875,0.013671934604644775,-0.0031721771229058504
1700856810986302500,10.562302490234375,-0.007733345031738281,0.013721257448196411,-0.003169418079778552
1700856811003296500,10.579296630859375,-0.017303466796875,-0.01498556137084961,-0.003677905537188053
1700856811020292600,10.596292724609375,-0.01192474365234375,-0.024455219507217407,0.0011946626473218203
1700856811037279700,10.61327978515625,-0.011932373046875,-0.02907872200012207,0.006009379401803017
1700856811054275800,10.63027587890625,-0.022106170654296875,-0.014613062143325806,-0.003520249854773283
1700856811071270100,10.647270263671874,-0.00774383544921875,0.004410475492477417,-0.01303007174283266
1700856811088263000,10.664262939453126,-0.017317771911621094,0.009260892868041992,-0.012397951446473598
1700856811105256700,10.681256591796876,-0.012530326843261719,0.009215474128723145,-0.008252411149442196
1700856811122249500,10.69824951171875,-0.016715049743652344,-0.001014411449432373,0.006135405041277409
1700856811139243300,10.7152431640625,-0.011931419372558594,-0.0003833770751953125,0.010879315435886383
1700856811156236300,10.732236328125,-0.016717910766601562,-0.015304803848266602,0.01570282131433487
1700856811173229800,10.749229736328125,-0.021505355834960938,-0.024859130382537842,0.00613176915794611
1700856811190222600,10.76622265625,-0.011936187744140625,-0.01463085412979126,0.010870837606489658
1700856811207213000,10.783213134765624,-0.012530326843261719,0.013987541198730469,-0.013051724061369896
1700856811224213200,10.800213134765626,-0.012520790100097656,0.023360848426818848,-0.017198927700519562
1700856811241203200,10.817203125,-0.022089004516601562,0.023298203945159912,-0.017092397436499596
1700856811258196000,10.834196044921875,-0.012516021728515625,0.008888483047485352,-0.012425487861037254
1700856811275189800,10.851189697265625,-0.0029458999633789062,-0.010228663682937622,-0.003405242459848523
1700856811292182800,10.868182861328124,-0.016707420349121094,-0.014963775873184204,0.0014110642950981855
1700856811309176600,10.885176513671874,-0.012521743774414062,-0.02446642518043518,-0.008258111774921417
1700856811326169300,10.90216943359375,0.0024309158325195312,-0.014843106269836426,0.0060696788132190704
1700856811343154000,10.91915380859375,0.016190528869628906,0.004282206296920776,0.0012919821310788393
1700856811360155000,10.93615478515625,-0.022093772888183594,0.022807210683822632,0.006697778590023518
1700856811377150000,10.95314990234375,-0.007739067077636719,0.013875633478164673,-0.008192459121346474
1700856811394142700,10.970142822265625,-0.007144927978515625,-0.014763116836547852,0.0061980984173715115
1700856811411136500,10.987136474609375,-0.026288986206054688,-0.020087450742721558,-0.0034377858974039555
1700856811428129500,11.004129638671875,-0.012537002563476562,-0.024148106575012207,-0.008215372450649738
1700856811445120800,11.021120849609375,-0.012538909912109375,-0.00017154216766357422,-0.008194231428205967
1700856811462118400,11.038118408203125,-0.012539863586425781,0.009414076805114746,-0.007629190571606159
1700856811479110000,11.05510986328125,-0.021506309509277344,0.0038919448852539062,0.00673901941627264
1700856811496103000,11.07210302734375,-0.00774383544921875,0.009181082248687744,0.0014159067068248987
1700856811513096400,11.089096435546875,-0.011927604675292969,-0.0004585683345794678,0.006095315329730511
1700856811530089200,11.106089111328124,-0.021501541137695312,-0.005792737007141113,0.0017751437844708562
1700856811547083300,11.123083251953124,-0.017314910888671875,-0.014742404222488403,-0.02279742620885372
1700856811564076300,11.140076171875,-0.017312049865722656,-0.005223363637924194,-0.017966192215681076
1700856811581070000,11.157070068359374,-0.012522697448730469,-0.005326032638549805,-0.013088452629745007
1700856811598060300,11.174060302734375,-0.016712188720703125,-0.014832675457000732,0.006060048937797546
1700856811615049000,11.191049072265624,-0.016717910766601562,-0.020114421844482422,0.015522526577115059
1700856811632049400,11.20804931640625,-0.011930465698242188,-0.009970009326934814,0.005851541180163622
1700856811649041400,11.22504150390625,-0.012528419494628906,-0.0004087388515472412,-0.00850406102836132
1700856811666038000,11.2420380859375,-0.022093772888183594,0.013842970132827759,-0.022114142775535583
1700856811683019500,11.25901953125,-0.012523651123046875,0.004269212484359741,-0.017764445394277573
1700856811700016600,11.2760166015625,-0.022089004516601562,-0.005422085523605347,-0.0028574871830642223
1700856811717016600,11.2930166015625,-0.016706466674804688,-0.01555711030960083,0.006688093766570091
1700856811734009600,11.310009521484375,-0.01670551300048828,-0.006018221378326416,0.02097608894109726
1700856811751003400,11.32700341796875,-0.016709327697753906,0.0036381781101226807,0.011362148448824883
1700856811767996200,11.34399609375,-0.012521743774414062,0.009020119905471802,0.0011892721522599459
1700856811784990000,11.360989990234375,-0.0077362060546875,0.009018570184707642,-0.003544808132573962
1700856811801985300,11.3779853515625,-0.017309188842773438,0.004281759262084961,-0.012974577955901623
1700856811818976800,11.394976806640624,-0.01730823516845703,-0.0005139708518981934,-0.0128509271889925
1700856811835969500,11.411969482421876,-0.007737159729003906,-0.005308657884597778,0.001541987294331193
1700856811852976400,11.428976318359375,-0.0125274658203125,0.004354119300842285,0.006354200653731823
1700856811869956000,11.4459560546875,-0.007740974426269531,0.004328399896621704,0.0063943639397621155
1700856811886950100,11.4629501953125,-0.0077419281005859375,-0.00042495131492614746,-0.003190375631675124
1700856811903942700,11.479942626953125,-0.007744789123535156,-0.00992816686630249,-0.003237135009840131
1700856811920936400,11.4969365234375,-0.012533187866210938,-0.005084514617919922,-0.003189169568940997
1700856811937929500,11.513929443359375,-0.012532234191894531,0.00446772575378418,-0.022282524034380913
1700856811954923300,11.53092333984375,-0.017314910888671875,-0.0003796815872192383,-0.00790435541421175
1700856811971916300,11.547916259765625,-0.012526512145996094,-0.005226016044616699,0.0016445692162960768
1700856811988910000,11.56491015625,-0.011926651000976562,-0.005874514579772949,0.011156638152897358
1700856812005902800,11.58190283203125,-0.011929512023925781,-0.00522574782371521,0.006380019709467888
1700856812022894000,11.59889404296875,-0.0220947265625,-0.0005017518997192383,-0.007481914013624191
1700856812039881500,11.615881591796875,-0.017305374145507812,0.004205495119094849,-0.021894635632634163
1700856812056883200,11.63288330078125,-0.012521743774414062,0.0042206645011901855,-0.026643900200724602
1700856812073876200,11.649876220703124,-0.017304420471191406,0.004185199737548828,-0.012191672809422016
1700856812090870000,11.6668701171875,-0.007138252258300781,-0.005344480276107788,0.00643569603562355
1700856812107863000,11.683863037109376,-0.016712188720703125,-0.005882889032363892,0.02132924273610115
1700856812124856800,11.70085693359375,-0.00714111328125,-0.010649830102920532,0.016462484374642372
1700856812141849300,11.717849365234375,-0.007740974426269531,-0.0004380643367767334,-0.002644794760271907
1700856812158843100,11.734843017578125,-0.012528419494628906,-0.009984046220779419,-0.016916433349251747
1700856812175836200,11.751836181640625,-0.012530326843261719,-0.00037226080894470215,-0.02706482633948326
1700856812192819500,11.7688193359375,-0.022101402282714844,0.004427284002304077,-0.0031153850723057985
1700856812209822700,11.78582275390625,-0.00714874267578125,-0.0003262758255004883,0.011243871413171291
1700856812226816500,11.80281640625,-0.011937141418457031,-0.015204459428787231,0.015855707228183746
1700856812243809300,11.819809326171875,-0.007155418395996094,-0.00975295901298523,0.006223204545676708
1700856812260803000,11.836802978515625,-0.01732349395751953,-0.00019282102584838867,-0.008029887452721596
1700856812277796400,11.85379638671875,-0.00296783447265625,0.004616737365722656,-0.01755586266517639
1700856812294788400,11.870788330078126,-0.017320632934570312,0.004528671503067017,-0.01690061017870903
1700856812311784400,11.887784423828125,-0.022104263305664062,0.004482239484786987,-0.01680930145084858
1700856812328776700,11.904776611328124,-0.011929512023925781,-0.00043329596519470215,0.006492962595075369
1700856812345760500,11.921760498046876,-0.016716957092285156,-0.005766779184341431,0.006520005874335766
1700856812362763500,11.938763427734376,-0.02150249481201172,-0.005767375230789185,0.0022581969387829304
1700856812379756300,11.95575634765625,-0.007744789123535156,-0.00034227967262268066,-0.00795889925211668
1700856812396751600,11.972751708984376,-0.012532234191894531,0.004467278718948364,-0.007285593543201685
1700856812413741000,11.989740966796875,-0.017322540283203125,-0.00979006290435791,-0.00785867404192686
1700856812430737000,12.00673681640625,-0.011940956115722656,-0.004964560270309448,0.0017127625178545713
1700856812447729400,12.0237294921875,0.0024175643920898438,-0.004973709583282471,0.006504584103822708
1700856812464722700,12.04072265625,-0.011940956115722656,-0.014520436525344849,0.011289991438388824
1700856812481717000,12.057717041015625,-0.007755279541015625,0.004663288593292236,-0.0030917769763618708
1700856812498709800,12.074709716796875,-0.012539863586425781,0.018990039825439453,-0.021637631580233574
1700856812515702800,12.091702880859375,-0.01253509521484375,0.004528075456619263,-0.01686406508088112
1700856812532696800,12.10869677734375,-0.0077533721923828125,-0.009737133979797363,-0.003039170289412141
1700856812549689600,12.125689697265624,-0.0023736953735351562,-0.02881041169166565,0.020720236003398895
1700856812566683600,12.14268359375,-0.011946678161621094,-0.019785165786743164,0.020727582275867462
1700856812583666000,12.159666015625,-0.012542724609375,0.00949031114578247,0.002196289598941803
1700856812600670000,12.176669921875,-0.00296783447265625,0.023749977350234985,-0.026492822915315628
1700856812617663200,12.193663330078126,-0.008347511291503906,0.014089494943618774,-0.035951316356658936
1700856812634656500,12.210656494140625,-0.012534141540527344,-0.009848684072494507,-0.00793207436800003
1700856812651649500,12.2276494140625,-0.011943817138671875,-0.02464088797569275,0.025435203686356544
1700856812668643600,12.2446435546875,-0.011946678161621094,-0.01023167371749878,0.02587425522506237
1700856812685636000,12.261635986328125,-0.02151966094970703,-0.0006023049354553223,0.006739201955497265
1700856812702630000,12.2786298828125,-0.0029764175415039062,0.009581565856933594,-0.02187824435532093
1700856812719622700,12.29562255859375,-0.008359909057617188,0.009577304124832153,-0.03189988061785698
1700856812736617000,12.312616943359375,-0.007754325866699219,-0.0001417994499206543,-0.007878992706537247
1700856812753609700,12.329609619140625,-0.016732215881347656,-0.02456614375114441,0.015956353396177292
1700856812770603500,12.346603515625,-0.01673603057861328,-0.024497121572494507,0.030131075531244278
1700856812787596300,12.36359619140625,-0.011949539184570312,-0.009569108486175537,0.01091165840625763
1700856812804590300,12.38059033203125,-0.00775909423828125,0.009528189897537231,-0.008126731961965561
1700856812821573400,12.397573486328126,-0.007760047912597656,-0.00003808736801147461,-0.022473838180303574
1700856812838576600,12.41457666015625,-0.017333030700683594,-0.00476759672164917,-0.027163514867424965
1700856812855569700,12.431569580078126,-0.01733112335205078,0.00955134630203247,-0.012115530669689178
1700856812872563500,12.4485634765625,-0.017328262329101562,0.014263808727264404,-0.007266316097229719
1700856812889553400,12.465553466796875,-0.007756233215332031,0.009466469287872314,0.001701689325273037
1700856812906542000,12.4825419921875,-0.016732215881347656,-0.00961923599243164,0.001690013101324439
1700856812923536100,12.4995361328125,-0.011953353881835938,-0.00947582721710205,0.0063803852535784245
1700856812940536600,12.51653662109375,-0.01673603057861328,-0.014929413795471191,0.007059885188937187
1700856812957529900,12.53352978515625,-0.026304244995117188,-0.0006256103515625,0.002353926654905081
1700856812974530800,12.55053076171875,-0.0077571868896484375,0.009489119052886963,-0.007116974331438541
1700856812991516200,12.56751611328125,-0.0029659271240234375,0.01413467526435852,-0.022084156051278114
1700856813008505300,12.58450537109375,-0.01253509521484375,-0.00025901198387145996,-0.02152525633573532
1700856813025503200,12.601503173828124,-0.012537956237792969,-0.028904378414154053,-0.012460954487323761
1700856813042496800,12.618496826171874,-0.01194000244140625,-0.033671945333480835,-0.002891363576054573
1700856813059489800,12.63548974609375,-0.01672840118408203,-0.005522340536117554,0.011420220136642456
1700856813076483600,12.652483642578124,-0.012538909912109375,0.023752361536026,0.007192288525402546
1700856813093476000,12.66947607421875,-0.021511077880859375,0.013563454151153564,0.011920210905373096
1700856813110468600,12.686468505859375,-0.012537002563476562,-0.00500074028968811,-0.0028874531853944063
1700856813127466200,12.70346630859375,-0.01732349395751953,-0.00018405914306640625,-0.01729505881667137
1700856813144455200,12.720455078125,-0.017320632934570312,0.009324610233306885,-0.01186556275933981
1700856813161453600,12.73745361328125,-0.012529373168945312,0.0235326886177063,0.002474671695381403
1700856813178443800,12.75444384765625,-0.02150249481201172,0.008578598499298096,0.026323851197957993
1700856813195436300,12.771436279296875,-0.007145881652832031,-0.014738589525222778,0.016069917008280754
1700856813212430000,12.78843017578125,-0.007151603698730469,-0.028962761163711548,0.006598650943487883
1700856813229422800,12.8054228515625,-0.017328262329101562,-0.038368403911590576,-0.022060567513108253
1700856813246417000,12.8224169921875,-0.008358955383300781,-0.004781246185302734,-0.04107465595006943
1700856813263409700,12.83940966796875,-0.022714614868164062,0.019110828638076782,-0.045121051371097565
1700856813280403500,12.856403564453124,-0.012537956237792969,0.03809782862663269,-0.021190520375967026
1700856813297396500,12.873396484375,-0.021508216857910156,0.008708775043487549,0.0074778152629733086
1700856813314390300,12.890390380859374,-0.002368927001953125,-0.015146046876907349,0.02595105580985546
1700856813331381200,12.90738134765625,-0.016725540161132812,-0.015148788690567017,0.02589992806315422
1700856813348378600,12.924378662109374,-0.011942863464355469,-0.019868969917297363,0.021072091534733772
1700856813365369900,12.941369873046876,-0.0119476318359375,-0.014985322952270508,0.021034888923168182
1700856813382363600,12.95836376953125,-0.0119476318359375,-0.00481337308883667,0.0019699486438184977
1700856813399354400,12.975354248046875,-0.012538909912109375,0.004614442586898804,-0.012358574196696281
1700856813416351700,12.992351806640626,-0.02210521697998047,0.009298086166381836,-0.025933554396033287
1700856813433334000,13.009333984375,-0.027489662170410156,0.009306162595748901,-0.04014188051223755
1700856813450337000,13.0263369140625,-0.007744789123535156,0.004438608884811401,-0.03104446828365326
1700856813467329500,13.04332958984375,0.006611824035644531,-0.009916126728057861,-0.016561690717935562
1700856813484323300,13.0603232421875,-0.02150726318359375,-0.024815142154693604,0.012094330042600632
1700856813501305900,13.077305908203124,-0.0023670196533203125,-0.01997154951095581,0.03117942623794079
1700856813518310100,13.09431005859375,-0.016725540161132812,-0.0007748901844024658,0.03164806216955185
1700856813535303000,13.111302978515624,-0.021506309509277344,0.013473033905029297,0.01728147827088833
1700856813552297000,13.128296875,-0.0023632049560546875,-0.00030809640884399414,0.007171787321567535
1700856813569289700,13.145289794921876,-0.017317771911621094,-0.0003063380718231201,-0.016672879457473755
1700856813586277400,13.16227734375,-0.002964019775390625,-0.0002516210079193115,-0.021532708778977394
1700856813603276300,13.1792763671875,-0.022104263305664062,0.00927668809890747,-0.01201731525361538
1700856813620270300,13.196270263671876,-0.017320632934570312,-0.009813964366912842,0.0023376469034701586
1700856813637263400,13.213263427734375,-0.012537002563476562,-0.014563024044036865,-0.002509394194930792
1700856813654257000,13.2302568359375,-0.022110939025878906,-0.004940122365951538,-0.007332442793995142
1700856813671239200,13.2472392578125,-0.012538909912109375,-0.00016117095947265625,-0.012038694694638252
1700856813688243700,13.26424365234375,-0.017327308654785156,-0.009671598672866821,-0.011946089565753937
1700856813705236500,13.281236572265625,-0.017325401306152344,-0.0001404881477355957,0.0024173336569219828
1700856813722230300,13.298230224609375,-0.0029659271240234375,0.01894316077232361,-0.007197628263384104
1700856813739223000,13.31522314453125,-0.01732158660888672,0.01890823245048523,-0.006576381158083677
1700856813756222000,13.332221923828126,-0.007752418518066406,-0.004983723163604736,-0.007125305477529764
1700856813773213400,13.34921337890625,-0.011945724487304688,-0.02878066897392273,0.011973494663834572
1700856813790187500,13.3661875,-0.0071659088134765625,-0.0286405086517334,0.01196930930018425
1700856813807199000,13.383198974609375,-0.011952400207519531,-0.005290299654006958,0.02146420255303383
1700856813824190500,13.4001904296875,-0.0167388916015625,0.004290521144866943,0.01721132919192314
1700856813841183000,13.417182861328126,-0.007166862487792969,0.009665876626968384,0.00764939421787858
1700856813858176800,13.4341767578125,-0.01255035400390625,0.009664714336395264,-0.016204005107283592
1700856813875170300,13.45117041015625,-0.022113800048828125,-0.004862010478973389,-0.02147374302148819
1700856813892163800,13.468163818359375,-0.0077571868896484375,-0.00963681936264038,-0.021450500935316086
1700856813909156400,13.48515625,-0.022113800048828125,-0.00008213520050048828,-0.011293923482298851
1700856813926150400,13.502150390625,-0.017330169677734375,-0.00004839897155761719,0.002457204507663846
1700856813943143400,13.519143310546875,-0.016729354858398438,0.008866578340530396,0.011948881670832634
1700856813960137000,13.536136962890625,-0.00775909423828125,-0.009615719318389893,0.0023602319415658712
1700856813977130000,13.5531298828125,-0.012547492980957031,-0.009545654058456421,-0.007098864763975143
1700856813994130200,13.570130126953124,-0.0035772323608398438,0.004870355129241943,-0.03565172106027603
1700856814011116300,13.5871162109375,-0.031691551208496094,0.004835247993469238,-0.015924161300063133
1700856814028110300,13.6041103515625,-0.011954307556152344,-0.01900559663772583,-0.0021754815243184566
1700856814045103400,13.621103271484374,-0.007172584533691406,-0.019539564847946167,0.02163117751479149
1700856814062097200,13.63809716796875,-0.016142845153808594,-0.00043645501136779785,0.04116152226924896
1700856814079090000,13.65508984375,-0.016742706298828125,0.013930529356002808,0.02672721818089485
1700856814096083700,13.672083740234376,-0.021528244018554688,0.004375964403152466,0.01707313396036625
1700856814113076500,13.689076416015626,-0.012556076049804688,0.00022241473197937012,-0.01222087163478136
1700856814130070300,13.7060703125,-0.013154983520507812,0.00980040431022644,-0.045609310269355774
1700856814147063300,13.723063232421875,-0.013154983520507812,0.005022168159484863,-0.05021486058831215
1700856814164056800,13.740056884765625,-0.007773399353027344,0.0002703070640563965,-0.030881313607096672
1700856814181049900,13.7570498046875,-0.007775306701660156,-0.009240299463272095,-0.002043005544692278
1700856814198043600,13.774043701171875,-0.02154064178466797,-0.014486938714981079,0.012277549132704735
1700856814215020500,13.7910205078125,-0.016754150390625,-0.00013750791549682617,0.012268193997442722
1700856814232030500,13.808030517578125,-0.01256561279296875,0.005203574895858765,0.002709310734644532
1700856814249023000,13.82502294921875,-0.007777214050292969,0.0003414750099182129,-0.002136926632374525
1700856814266017000,13.84201708984375,-0.017348289489746094,0.0003644227981567383,-0.011673243716359138
1700856814283016400,13.859016357421876,-0.012566566467285156,0.00044855475425720215,-0.010936914943158627
1700856814299982800,13.87598291015625,-0.017354965209960938,-0.009072750806808472,-0.001314534805715084
1700856814316999200,13.892999267578125,-0.021546363830566406,-0.01437041163444519,0.008217762224376202
1700856814333992700,13.90999267578125,-0.011982917785644531,-0.018991678953170776,0.01228688657283783
1700856814350981400,13.9269814453125,-0.011982917785644531,0.0007485151290893555,0.003295748494565487
1700856814367977000,13.94397705078125,-0.007793426513671875,0.010275095701217651,-0.006217453628778458
1700856814384969700,13.9609697265625,-0.012578964233398438,0.0007183253765106201,-0.010956211015582085
1700856814401970000,13.977969970703125,-0.017362594604492188,0.0054669976234436035,-0.0204036682844162
1700856814418956500,13.99495654296875,-0.03650474548339844,0.004832446575164795,-0.010972783900797367
1700856814435950600,14.01195068359375,-0.0030069351196289062,-0.013660967350006104,-0.0018780776299536228
1700856814452940800,14.02894091796875,-0.021552085876464844,-0.01901012659072876,0.01789461448788643
1700856814469939500,14.045939453125,-0.016771316528320312,-0.009360820055007935,0.02254292368888855
1700856814486930000,14.062929931640625,-0.012583732604980469,0.0056092143058776855,0.002920760540291667
1700856814503923700,14.079923828125,-0.017366409301757812,0.010340273380279541,-0.025134552270174026
1700856814520916700,14.096916748046874,-0.0030107498168945312,-0.008802980184555054,-0.025697600096464157
1700856814537910500,14.11391064453125,-0.01736927032470703,-0.003968358039855957,-0.020870676264166832
1700856814554903600,14.130903564453124,-0.0030126571655273438,0.005618363618850708,-0.006472335662692785
1700856814571897300,14.1478974609375,-0.01198577880859375,-0.003971695899963379,0.012475861236453056
1700856814588890000,14.16489013671875,-0.011983871459960938,-0.009379953145980835,0.01718556508421898
1700856814605884200,14.18188427734375,-0.016773223876953125,-0.009302705526351929,0.017060892656445503
1700856814622876700,14.198876708984375,-0.007801055908203125,0.010453104972839355,0.0026782292407006025
1700856814639870700,14.21587060546875,-0.02215290069580078,0.005570113658905029,-0.011006496846675873
1700856814656863200,14.23286328125,-0.017366409301757812,0.000763624906539917,-0.011377154849469662
1700856814673855000,14.24985498046875,-0.007796287536621094,-0.004005759954452515,-0.0017490736208856106
1700856814690852000,14.26685205078125,-0.021554946899414062,-0.004597187042236328,0.008388921618461609
1700856814707851800,14.283851806640625,-0.0072002410888671875,0.0008270144462585449,0.008357638493180275
1700856814724836400,14.30083642578125,-0.011981010437011719,-0.004071265459060669,0.003611261025071144
1700856814741833200,14.317833251953125,-0.0077915191650390625,0.0006866455078125,-0.010667212307453156
1700856814758823200,14.3348232421875,-0.017358779907226562,0.014938026666641235,-0.015364052727818489
1700856814775817500,14.3518173828125,-0.012571334838867188,0.0005525648593902588,-0.01108404528349638
1700856814792810000,14.36881005859375,-0.0125732421875,-0.02334219217300415,-0.001454720739275217
1700856814809804000,14.385803955078124,-0.0024080276489257812,-0.032826006412506104,0.0033671774435788393
1700856814826796800,14.402796875,-0.021553993225097656,-0.009401887655258179,0.017612339928746223
1700856814843790600,14.41979052734375,-0.0024080276489257812,0.014432787895202637,0.027078799903392792
1700856814860783600,14.43678369140625,-0.007785797119140625,0.029281705617904663,0.008515842258930206
1700856814877777400,14.45377734375,-0.01735687255859375,0.029259204864501953,-0.010667541064321995
1700856814894770000,14.47077001953125,-0.008378982543945312,0.014822155237197876,-0.03024093434214592
1700856814911764200,14.48776416015625,-0.013162612915039062,-0.009157896041870117,-0.03973895311355591
1700856814928757000,14.504757080078125,-0.007781982421875,-0.018676966428756714,-0.02519029937684536
1700856814945750800,14.521750732421875,-0.017355918884277344,-0.01861712336540222,-0.0012421929277479649
1700856814962743600,14.53874365234375,-0.01676177978515625,-0.014343887567520142,0.027447376400232315
1700856814979737300,14.5557373046875,-0.0119781494140625,-0.004721492528915405,0.04170980677008629
1700856814996726300,14.572726318359376,-0.021551132202148438,-0.004679739475250244,0.023019123822450638
1700856815013717200,14.58971728515625,-0.012577056884765625,0.0006852149963378906,0.0033001352567225695
1700856815030716700,14.606716552734374,-0.00778961181640625,0.010211676359176636,-0.01997457444667816
1700856815047710700,14.623710693359374,-0.013169288635253906,0.024478822946548462,-0.034276507794857025
1700856815064703700,14.640703857421874,-0.01256561279296875,0.009999901056289673,-0.019831335172057152
1700856815081697300,14.657697265625,-0.011969566345214844,-0.009101837873458862,0.0040529449470341206
1700856815098679600,14.674679443359375,-0.016757965087890625,-0.02399614453315735,0.018409954383969307
1700856815115673300,14.69167333984375,-0.0024023056030273438,-0.013791054487228394,0.017835136502981186
1700856815132677000,14.708677001953125,-0.016760826110839844,-0.00957709550857544,0.013638981617987156
1700856815149671000,14.7256708984375,-0.0077877044677734375,-0.004184991121292114,-0.0007864399813115597
1700856815166663400,14.742663330078125,-0.0030012130737304688,0.010144948959350586,-0.015812205150723457
1700856815183657500,14.759657470703125,-0.012577056884765625,0.005475550889968872,-0.015796564519405365
1700856815200650200,14.776650146484375,-0.012578010559082031,0.005489826202392578,-0.010988644324243069
1700856815217644300,14.793644287109375,-0.016768455505371094,-0.004630744457244873,0.008076260797679424
1700856815234637000,14.810636962890625,-0.011983871459960938,0.00018849968910217285,0.013344282284379005
1700856815251630800,14.827630859375,-0.011988639831542969,-0.004487186670303345,0.013398587703704834
1700856815268623600,14.84462353515625,-0.007203102111816406,-0.0038993358612060547,0.003198065096512437
1700856815285608000,14.86160791015625,-0.007801055908203125,-0.008678615093231201,-0.011108621954917908
1700856815302610400,14.8786103515625,-0.012583732604980469,0.000821530818939209,-0.01103631779551506
1700856815319601400,14.895601318359375,-0.01258087158203125,-0.004034489393234253,-0.020509665831923485
1700856815336599300,14.912599365234374,-0.01736164093017578,0.005448281764984131,-0.010306786745786667
1700856815353590800,14.9295908203125,-0.01676464080810547,-0.004091799259185791,0.003443209221586585
1700856815370583800,14.946583740234376,-0.016767501831054688,0.00013700127601623535,0.008245445787906647
1700856815387577600,14.96357763671875,-0.021553993225097656,-0.004607796669006348,0.018341433256864548
1700856815404570400,14.9805703125,-0.0072002410888671875,-0.0087452232837677,0.012903018854558468
1700856815421564000,14.99756396484375,-0.017370223999023438,-0.008738696575164795,-0.0014777807518839836
1700856815438556700,15.014556640625,-0.017364501953125,-0.0040659308433532715,-0.006203692872077227
1700856815455551000,15.031551025390625,-0.01258087158203125,0.0055367350578308105,-0.02531553991138935
1700856815472543700,15.048543701171875,-0.01736736297607422,0.0007822513580322266,-0.01026881579309702
1700856815489537500,15.06553759765625,-0.0077991485595703125,-0.008722871541976929,-0.0012804009020328522
1700856815506530300,15.0825302734375,0.007159233093261719,0.0007970333099365234,0.008351481519639492
1700856815523524400,15.0995244140625,-0.045482635498046875,0.004955708980560303,0.013619465753436089
1700856815540516900,15.116516845703124,-0.0071926116943359375,0.004862666130065918,0.018310587853193283
1700856815557511000,15.133510986328124,-0.0071964263916015625,-0.008830219507217407,0.003368127392604947
1700856815574503700,15.150503662109376,-0.026937484741210938,-0.004038184881210327,-0.019962696358561516
1700856815591497500,15.16749755859375,0.006560325622558594,0.0007887184619903564,-0.015608832240104675
1700856815608490200,15.184490234375,-0.02215576171875,0.0056462883949279785,-0.010174565948545933
1700856815625484300,15.201484375,-0.026345252990722656,0.00028583407402038574,0.01365295983850956
1700856815642477000,15.21847705078125,-0.0024213790893554688,-0.0038102567195892334,0.017804056406021118
1700856815659470800,15.235470947265625,-0.01677989959716797,0.0004087984561920166,0.017724698409438133
1700856815676463600,15.252463623046875,-0.007811546325683594,-0.008439064025878906,-0.010975761339068413
1700856815693454800,15.269454833984375,-0.012601852416992188,-0.017910748720169067,-0.034853246062994
1700856815710455000,15.286455078125,-0.01739025115966797,-0.0034883618354797363,-0.03413308784365654
1700856815727440000,15.30343994140625,-0.003032684326171875,0.001275777816772461,-0.02502727136015892
1700856815744429800,15.320429931640625,-0.02216815948486328,0.024454951286315918,-0.0005059563554823399
1700856815761420300,15.337420166015624,-0.011990547180175781,0.005115121603012085,0.023342931643128395
1700856815778423800,15.354423828125,-0.011988639831542969,-0.03321114182472229,0.03214938938617706
1700856815795417600,15.37141748046875,-0.0066070556640625,-0.03315642476081848,0.04161524772644043
1700856815812410400,15.388410400390624,-0.016775131225585938,0.014664411544799805,0.022995296865701675
1700856815829404200,15.405404052734376,-0.0030078887939453125,0.053370535373687744,-0.015289701521396637
1700856815846397200,15.422397216796876,-0.013171195983886719,0.03409987688064575,-0.029522603377699852
1700856815863391000,15.439390869140626,-0.017961502075195312,-0.018441855907440186,-0.03954869881272316
1700856815880384000,15.456384033203125,-0.012583732604980469,-0.03746405243873596,-0.03468645364046097
1700856815897377500,15.47337744140625,-0.007800102233886719,-0.013476252555847168,-0.015427714213728905
1700856815914363000,15.49036279296875,-0.040701866149902344,0.014641672372817993,0.018731623888015747
1700856815931372500,15.50737255859375,-0.1549549102783203,-0.0004016757011413574,0.043125927448272705
1700856815948357000,15.524357177734375,0.05501365661621094,-0.008743464946746826,0.03220164775848389
1700856815965360600,15.541360595703125,-0.045485496520996094,-0.014116734266281128,0.02310507744550705
1700856815982343700,15.55834375,-0.03590869903564453,0.0001226961612701416,0.0038359034806489944
1700856815999337700,15.575337646484375,0.011351585388183594,0.015023589134216309,-0.020550066605210304
1700856816016330000,15.592330078125,-0.04607582092285156,0.023998349905014038,-0.02948090434074402
1700856816033325000,15.609324951171875,0.005970954895019531,0.010180145502090454,-0.029960688203573227
1700856816050317000,15.626317138671874,-0.0024023056030273438,-0.009015530347824097,0.003601339878514409
1700856816067311000,15.64331103515625,-0.021547317504882812,-0.019132286310195923,0.013780282810330391
1700856816084303600,15.6603037109375,-0.002410888671875,-0.023189961910247803,0.013071253895759583
1700856816101297700,15.677297607421876,-0.021551132202148438,-0.004688173532485962,0.008874989114701748
1700856816118290700,15.694290771484376,-0.012576103210449219,0.010222464799880981,-0.0012524253688752651
1700856816135284200,15.7112841796875,-0.007788658142089844,0.019777894020080566,-0.010765079408884048
1700856816152266500,15.7282666015625,-0.01735973358154297,0.010189205408096313,-0.014953285455703735
1700856816169271000,15.74527099609375,-0.012577056884765625,-0.004090249538421631,-0.020272597670555115
1700856816186263800,15.762263916015625,-0.01676654815673828,-0.03278180956840515,0.0035538680385798216
1700856816203257600,15.779257568359375,-0.016773223876953125,-0.02844393253326416,0.022627834230661392
1700856816220250600,15.796250732421875,-0.011993408203125,-0.009160280227661133,0.02730782888829708
1700856816237244700,15.81324462890625,-0.02634716033935547,0.019485265016555786,0.013590358197689056
1700856816254237200,15.8302373046875,-0.0125885009765625,0.020080775022506714,-0.005609196610748768
1700856816271231200,15.847231201171875,-0.012584686279296875,0.015208572149276733,-0.024746863171458244
1700856816288224000,15.86422412109375,-0.017368316650390625,0.0008179843425750732,-0.019940001890063286
1700856816305217800,15.8812177734375,-0.01737499237060547,-0.01820439100265503,-0.02047390677034855
1700856816322210600,15.89821044921875,-0.007802009582519531,-0.013449877500534058,-0.0013367896899580956
1700856816339203000,15.915203125,-0.0072078704833984375,-0.008593350648880005,0.003415928455069661
1700856816356188000,15.93218798828125,-0.0072078704833984375,0.010558277368545532,0.008744961582124233
1700856816373191000,15.94919091796875,-0.026943206787109375,0.005669087171554565,-0.010436905547976494
1700856816390184200,15.96618408203125,-0.007800102233886719,-0.0039175450801849365,-0.011010132730007172
1700856816407178000,15.983177978515625,-0.02216053009033203,-0.00863465666770935,-0.0007806839421391487
1700856816424170800,16.000170654296873,-0.021562576293945312,-0.009230852127075195,0.004081267397850752
1700856816441164500,16.01716455078125,-0.016776084899902344,-0.008630335330963135,0.0033951892983168364
1700856816458157300,16.0341572265625,-0.002422332763671875,-0.027726054191589355,0.00814818125218153
1700856816475140900,16.051140869140625,-0.050284385681152344,-0.023408234119415283,0.013531429693102837
1700856816492144000,16.06814404296875,-0.035927772521972656,-0.0042358338832855225,0.003917654976248741
1700856816509138200,16.08513818359375,-0.003017425537109375,0.029655784368515015,-0.010443373583257198
1700856816526130700,16.102130615234376,-0.031719207763671875,0.043130844831466675,-0.005745656322687864
1700856816543124700,16.119124755859374,-0.012571334838867188,0.014904022216796875,-0.019991183653473854
1700856816560106800,16.136106689453126,-0.01735973358154297,-0.013749241828918457,-0.025262804701924324
1700856816577111600,16.153111572265626,-0.012577056884765625,-0.013677209615707397,-0.029964670538902283
1700856816594104000,16.17010400390625,0.0065631866455078125,-0.004060298204421997,-0.02503722906112671
1700856816611097900,16.187097900390626,-0.017362594604492188,-0.008894622325897217,-0.005274937022477388
1700856816628088300,16.20408837890625,-0.011980056762695312,0.004893273115158081,0.02334832213819027
1700856816645087000,16.2210869140625,-0.007193565368652344,0.019226163625717163,0.0327475406229496
1700856816662077400,16.238077392578123,-0.01676464080810547,0.004862964153289795,0.03201057016849518
1700856816679070700,16.25507080078125,-0.0071964263916015625,-0.01362660527229309,0.012774033471941948
1700856816696062700,16.272062744140626,-0.007801055908203125,-0.0421808660030365,-0.006343313027173281
1700856816713060000,16.28906005859375,-0.012590408325195312,-0.022957295179367065,-0.02064862847328186
1700856816730040600,16.30604052734375,-0.012589454650878906,-0.013391256332397461,-0.01103266328573227
1700856816747048700,16.323048583984374,-0.012586593627929688,0.02003931999206543,-0.00628157053142786
1700856816764037600,16.34003759765625,-0.022154808044433594,0.033719927072525024,0.01338166743516922
1700856816781031400,16.357031494140625,-0.011981010437011719,0.028830647468566895,0.017432574182748795
1700856816798024200,16.374024169921874,-0.021549224853515625,-0.004718214273452759,0.013183044269680977
1700856816815015700,16.391015625,-0.011981010437011719,-0.02799201011657715,-0.0017724805511534214
1700856816832013600,16.408013671875,-0.0454864501953125,-0.038045525550842285,-0.005901813507080078
1700856816849004800,16.4250048828125,-0.017370223999023438,-0.01829591393470764,-0.011296774260699749
1700856816865997300,16.441997314453126,0.016127586364746094,0.005658209323883057,-0.015947258099913597
1700856816882994200,16.458994140625,-0.060439109802246094,0.01456981897354126,-0.0154042337089777
1700856816899972600,16.47597265625,0.006565093994140625,0.019829750061035156,-0.006354843266308308
1700856816916978000,16.49297802734375,-0.012575149536132812,0.01977565884590149,0.0037956489250063896
1700856816933971000,16.509970947265625,-0.021539688110351562,0.009430736303329468,0.008594797924160957
1700856816950965000,16.526965087890623,0.011959075927734375,-0.01388499140739441,0.007993522100150585
1700856816967957800,16.543957763671877,-0.026325225830078125,-0.009727448225021362,0.013264685869216919
1700856816984951600,16.56095166015625,-0.01735210418701172,-0.004340380430221558,0.003111946163699031
1700856817001944600,16.577944580078125,-0.021543502807617188,-0.019214719533920288,0.0031364134047180414
1700856817018938400,16.5949384765625,-0.01735687255859375,-0.013809114694595337,-0.006431496702134609
1700856817035931000,16.611930908203124,-0.011972427368164062,-0.018607646226882935,0.0031251392792910337
1700856817052925000,16.628925048828126,-0.026925086975097656,0.023831069469451904,-0.0010775583796203136
1700856817069915100,16.6459150390625,-0.0029897689819335938,0.02903670072555542,-0.015298399142920971
1700856817086914000,16.6629140625,-0.022127151489257812,-0.004554539918899536,-0.005697782151401043
1700856817103904500,16.679904541015624,-0.0029897689819335938,-0.014026552438735962,-0.001423547975718975
1700856817120898300,16.696898193359374,-0.01674938201904297,0.009315550327301025,0.013475569896399975
1700856817137890800,16.713890869140624,-0.007775306701660156,0.01946967840194702,0.0039261882193386555
1700856817154885000,16.730885009765625,-0.0173492431640625,-0.009181171655654907,-0.0015115849673748016
1700856817171877600,16.747877685546875,-0.007778167724609375,0.0003852546215057373,-0.006281442474573851
1700856817188871700,16.76487158203125,-0.012562751770019531,0.01950305700302124,-0.019986707717180252
1700856817205864400,16.781864501953127,-0.0173492431640625,-0.009191274642944336,-0.015791594982147217
1700856817222858200,16.798858154296877,0.0023794174194335938,-0.056783586740493774,0.0033991544041782618
1700856817239840800,16.8158408203125,-0.011989593505859375,-0.07148796319961548,0.022315118461847305
1700856817256835600,16.832835693359375,-0.01678180694580078,-0.02347126603126526,0.026899218559265137
1700856817273837800,16.849837890625,-0.0024328231811523438,-0.0035749971866607666,0.017043258994817734
1700856817290831600,16.86683154296875,-0.10294342041015625,-0.04219388961791992,0.012487372383475304
1700856817307824400,16.883824462890626,0.020883560180664062,0.07809442281723022,-0.006906054448336363
1700856817324816100,16.900816162109376,-0.13643169403076172,0.16333556175231934,0.03198443725705147
1700856817341811200,16.917811279296874,-0.022756576538085938,0.13965663313865662,-0.011950640939176083
1700856817358805200,16.93480517578125,-0.07480430603027344,-0.028359025716781616,-0.031841956079006195
1700856817375798000,16.951798095703126,-0.040142059326171875,-0.22800132632255554,-0.022924328222870827
1700856817392791600,16.96879150390625,0.007672309875488281,-0.2414262741804123,0.0050857942551374435
1700856817409784300,16.985784423828125,-0.050365447998046875,-0.007288515567779541,0.010945224203169346
1700856817426778400,17.0027783203125,0.0011148452758789062,0.22224846482276917,0.0018414719961583614
1700856817443767000,17.01976708984375,-0.022775650024414062,0.21125665307044983,0.0065335435792803764
1700856817460766500,17.036766357421875,-0.0173797607421875,0.03392523527145386,0.010563583113253117
1700856817477744000,17.053744140625,0.0023479461669921875,-0.09917578101158142,-0.018676025792956352
1700856817494747400,17.070747314453126,-0.021604537963867188,-0.13694435358047485,-0.013844260014593601
1700856817511748900,17.087748779296874,-0.016237258911132812,-0.12760671973228455,0.014840814284980297
1700856817528738300,17.10473828125,-0.00727081298828125,-0.03174400329589844,0.029081135988235474
1700856817545731300,17.1217314453125,-0.017423629760742188,0.11145633459091187,0.015313342213630676
1700856817562725000,17.13872509765625,0.0011501312255859375,0.17361795902252197,-0.01813437230885029
1700856817579715600,17.155715576171875,-0.017980575561523438,0.029808759689331055,-0.03701081499457359
1700856817596711700,17.172711669921874,-0.01201629638671875,-0.12296298146247864,-0.018433256074786186
1700856817613707300,17.189707275390624,0.0023174285888671875,-0.12243717908859253,-0.003954168409109116
1700856817630698200,17.2066982421875,-0.02161693572998047,0.006305307149887085,0.0061687882989645
1700856817647690500,17.2236904296875,-0.012036323547363281,0.06832292675971985,0.025279464200139046
1700856817664689000,17.24068896484375,-0.021604537963867188,0.029962629079818726,0.029793379828333855
1700856817681675000,17.257675048828126,-0.012633323669433594,-0.007683306932449341,-0.004401662852615118
1700856817698671900,17.274671875,-0.013231277465820312,-0.012454241514205933,-0.05208076164126396
1700856817715665000,17.291664794921875,-0.022207260131835938,-0.04111585021018982,-0.047126881778240204
1700856817732658400,17.308658447265625,-0.007264137268066406,-0.060007065534591675,-0.008823958225548267
1700856817749651500,17.3256513671875,0.10699844360351562,0.04036903381347656,0.00981230940669775
1700856817766645000,17.34264501953125,-0.07483673095703125,0.1063636839389801,0.02110854536294937
1700856817783637800,17.3596376953125,-0.01680278778076172,0.05834224820137024,0.034856073558330536
1700856817800632000,17.376632080078124,-0.09697723388671875,-0.0992790162563324,0.06806579232215881
1700856817817624600,17.39362451171875,0.03161334991455078,-0.136461079120636,0.028423216193914413
1700856817834608000,17.410608154296874,-0.027017593383789062,-0.02143615484237671,-0.027693621814250946
1700856817851612400,17.4276123046875,-0.08503341674804688,0.07823097705841064,-0.06043592095375061
1700856817868604700,17.444604736328124,-0.03716468811035156,0.07378867268562317,-0.056025270372629166
1700856817885598000,17.461597900390625,-0.0461273193359375,0.05380481481552124,-0.0176000464707613
1700856817902592000,17.478592041015624,-0.0503082275390625,0.03931468725204468,0.011092957109212875
1700856817919584800,17.495584716796873,-0.0784311294555664,-0.05143585801124573,0.049382325261831284
1700856817936578600,17.51257861328125,0.18894195556640625,-0.0832175612449646,0.03733450174331665
1700856817953571300,17.5295712890625,-0.04017829895019531,-0.08424115180969238,0.03877311572432518
1700856817970565400,17.5465654296875,0.04476451873779297,-0.02137976884841919,0.00044081034138798714
1700856817987558100,17.56355810546875,0.05374336242675781,0.045497894287109375,-0.03294850513339043
1700856818004552200,17.58055224609375,-0.0706634521484375,0.10187676548957825,-0.04606376588344574
1700856818021544700,17.597544677734376,0.07232856750488281,0.0972369909286499,-0.04212174564599991
1700856818038528800,17.61452880859375,-0.09396648406982422,0.024729043245315552,-0.026385564357042313
1700856818055531500,17.631531494140624,0.021475791931152344,-0.0940602719783783,0.0005624881014227867
1700856818072525600,17.648525634765626,0.06032752990722656,-0.1795216202735901,0.028653759509325027
1700856818089518300,17.665518310546876,-0.10180950164794922,-0.12216094136238098,0.04439461976289749
1700856818106512100,17.68251220703125,0.030404090881347656,0.06483739614486694,0.014926860108971596
1700856818123505000,17.6995048828125,-0.14184093475341797,0.19739070534706116,0.011916115880012512
1700856818140488700,17.71648876953125,-0.07063102722167969,0.12030360102653503,-0.01729646697640419
1700856818157491700,17.73349169921875,0.025676727294921875,-0.05607929825782776,-0.013426074758172035
1700856818174485200,17.7504853515625,-0.26506900787353516,-0.12867382168769836,-0.00675024650990963
1700856818191478500,17.767478515625,-0.1221170425415039,-0.11329537630081177,-0.01731647364795208
1700856818208472300,17.784472412109373,-0.059906959533691406,-0.04143360257148743,0.021003898233175278
1700856818225465000,17.801465087890627,-0.09279823303222656,0.05885675549507141,0.04509853199124336
1700856818242458000,17.8184580078125,0.06873321533203125,0.140438973903656,0.015071633271872997
1700856818259452400,17.835452392578127,-0.09395885467529297,0.09155398607254028,-0.007724463939666748
1700856818276445400,17.852445556640625,0.08788871765136719,-0.041715025901794434,-0.023950990289449692
1700856818293441300,17.869441162109375,-0.012028694152832031,-0.141821950674057,-0.02305062860250473
1700856818310432000,17.886431884765624,-0.08382225036621094,-0.08959400653839111,0.0014914806233718991
1700856818327425000,17.903425048828126,0.073516845703125,0.044775158166885376,-0.0037522015627473593
1700856818344416500,17.92041650390625,-0.07421493530273438,0.08670350909233093,0.026080697774887085
1700856818361414100,17.9374140625,-0.01678180694580078,0.024356454610824585,0.02066805027425289
1700856818378405600,17.954405517578124,-0.012000083923339844,-0.0186215341091156,0.010493418201804161
1700856818395398400,17.9713984375,-0.06464290618896484,-0.028171151876449585,0.00617511011660099
1700856818412392400,17.988392333984375,0.01670551300048828,-0.03220713138580322,0.000982079654932022
1700856818429385200,18.00538525390625,-0.026365280151367188,-0.018438488245010376,0.0009972825646400452
1700856818446378800,18.022378662109375,-0.026958465576171875,0.034707337617874146,-0.017570480704307556
1700856818463371800,18.039371826171877,0.010737419128417969,0.07277125120162964,-0.03655853122472763
1700856818480365800,18.05636572265625,0.010747909545898438,0.039038509130477905,-0.02734348177909851
1700856818497358600,18.073358642578125,0.09269523620605469,-0.032601356506347656,0.0008937511593103409
1700856818514352400,18.090352294921875,0.07413768768310547,-0.07536250352859497,0.010353176854550838
1700856818531345400,18.107345458984376,0.011913299560546875,-0.0224800705909729,0.01073516346514225
1700856818548348700,18.1243486328125,0.011321067810058594,0.034802019596099854,0.005771635100245476
1700856818565332000,18.14133203125,0.035254478454589844,0.044258683919906616,0.005729480646550655
1700856818582325800,18.15832568359375,-0.05985450744628906,0.033977776765823364,0.0253585297614336
1700856818599318300,18.175318359375,-0.08856201171875,0.014692306518554688,0.0205518901348114
1700856818616312600,18.1923125,0.0017642974853515625,-0.037287890911102295,-0.013390789739787579
1700856818633305300,18.209305419921876,-0.05507850646972656,-0.0950208306312561,-0.022923963144421577
1700856818650299000,18.226298828125,0.006524085998535156,-0.041507840156555176,-0.022740816697478294
1700856818667292000,18.2432919921875,-0.04191398620605469,0.0819673240184784,-0.022030217573046684
1700856818684285700,18.26028564453125,-0.0077991485595703125,0.10131826996803284,0.006724291481077671
1700856818701268000,18.27726806640625,-0.06462478637695312,-0.004642605781555176,0.030470414087176323
1700856818718272300,18.294272216796877,-0.011403083801269531,-0.10474357008934021,0.03449954092502594
1700856818735261400,18.311261474609374,-0.06465625762939453,-0.070956289768219,0.0017140585696324706
1700856818752258800,18.3282587890625,-0.036530494689941406,0.043674081563949585,-0.01707286387681961
1700856818769252000,18.345252197265626,-0.01737499237060547,0.04400971531867981,0.002203507348895073
1700856818786243600,18.36224365234375,0.04482841491699219,-0.02758064866065979,-0.008120482787489891
1700856818803241000,18.379240966796875,-0.016793251037597656,-0.07050144672393799,-0.003383808769285679
1700856818820224300,18.396224365234374,-0.049698829650878906,-0.051854223012924194,0.02088434249162674
1700856818837225500,18.4132255859375,-0.0024356842041015625,-0.004122912883758545,0.03454544022679329
1700856818854219300,18.43021923828125,0.0741434097290039,0.04414069652557373,0.03467873856425285
1700856818871212000,18.4472119140625,-0.032317161560058594,0.0628417432308197,-0.050738170742988586
1700856818888205800,18.464205810546876,0.1148538589477539,0.04404965043067932,-0.09959560632705688
1700856818905198800,18.48119873046875,0.049042701721191406,-0.013792216777801514,-0.05571512505412102
1700856818922192600,18.498192626953124,-0.04069995880126953,-0.05717882513999939,0.011109184473752975
1700856818939185400,18.515185302734373,-0.020374298095703125,-0.05693364143371582,0.09211888909339905
1700856818956190500,18.5321904296875,-0.1346282958984375,-0.0049374401569366455,0.12161747366189957
1700856818973172200,18.549172119140625,0.0029659271240234375,0.01463577151298523,0.05327712744474411
1700856818990166000,18.566166015625,-0.013176918029785156,0.029409945011138916,-0.05119545757770538
1700856819007158800,18.58315869140625,-0.02872180938720703,0.024455219507217407,-0.1464463621377945
1700856819024152800,18.60015283203125,0.009563446044921875,0.010091036558151245,-0.14172805845737457
1700856819041145300,18.617145263671876,-0.01795196533203125,0.02440372109413147,-0.035671819001436234
1700856819058139100,18.63413916015625,-0.0059814453125,0.03323394060134888,0.09315390139818192
1700856819075132000,18.6511318359375,-0.009572982788085938,-0.0002211928367614746,0.16436107456684113
1700856819092115500,18.668115478515624,0.019133567810058594,-0.04790720343589783,0.16335804760456085
1700856819109118700,18.68511865234375,-0.011384010314941406,-0.04294714331626892,0.033918965607881546
1700856819126112800,18.70211279296875,-0.0197601318359375,-0.004023522138595581,-0.1570620983839035
1700856819143102000,18.71910205078125,-0.12085914611816406,0.005596250295639038,-0.23180973529815674
1700856819160099600,18.736099609375,0.018525123596191406,0.006146341562271118,-0.1795743703842163
1700856819177092000,18.753092041015623,-0.07478904724121094,0.028750330209732056,-0.010635383427143097
1700856819194086100,18.770086181640625,-0.05264472961425781,0.008768707513809204,0.17001092433929443
1700856819211068400,18.787068359375,0.010761260986328125,-0.03422459959983826,0.2547280788421631
1700856819228073000,18.804072998046873,0.03408241271972656,-0.05256056785583496,0.1965344399213791
1700856819245065700,18.821065673828127,-0.01198577880859375,-0.037471383810043335,0.00021724565885961056
1700856819262059500,18.8380595703125,-0.014977455139160156,-0.008132010698318481,-0.18109925091266632
1700856819279052300,18.85505224609375,0.0029745101928710938,0.015667349100112915,-0.24719057977199554
1700856819296043300,18.872043212890624,-0.03410816192626953,0.024502307176589966,-0.15989170968532562
1700856819313033200,18.889033203125,0.040073394775390625,0.02918800711631775,0.007276781834661961
1700856819330032600,18.90603271484375,-0.019745826721191406,0.004647403955459595,0.14618219435214996
1700856819347025700,18.923025634765626,0.11483955383300781,-0.023835569620132446,0.19701091945171356
1700856819364019700,18.940019775390624,-0.010190963745117188,-0.03329789638519287,0.12520034611225128
1700856819381012500,18.957012451171874,0.016126632690429688,-0.023043274879455566,-0.03758616000413895
1700856819398005800,18.974005859375,0.004166603088378906,0.0205191969871521,-0.15672434866428375
1700856819414999600,18.99099951171875,-0.043682098388671875,0.024551481008529663,-0.17470641434192657
1700856819431982800,19.00798291015625,0.0005950927734375,0.014785468578338623,-0.0690431147813797
1700856819448985600,19.024985595703125,0.03648948669433594,-0.00021722912788391113,0.0786944255232811
1700856819465980000,19.04197998046875,-0.04785442352294922,-0.024846136569976807,0.15056321024894714
1700856819482975500,19.0589755859375,-0.024530410766601562,-0.052813947200775146,0.13020601868629456
1700856819499966200,19.07596630859375,-0.006594657897949219,-0.02865612506866455,0.034257590770721436
1700856819516959000,19.092958984375,-0.037100791931152344,0.03888750076293945,-0.06544681638479233
1700856819533953000,19.109953125,-0.010172843933105469,0.08176422119140625,-0.13679760694503784
1700856819550946000,19.126946044921876,-0.014346122741699219,0.04796195030212402,-0.13628295063972473
1700856819567939800,19.14393994140625,-0.022124290466308594,-0.02855205535888672,-0.0409834049642086
1700856819584932400,19.160932373046876,-0.0729837417602539,-0.06241288781166077,0.05529821664094925
1700856819601926400,19.177926513671874,0.02272319793701172,-0.023993760347366333,0.0975329801440239
1700856819618911000,19.194910888671874,0.06100273132324219,0.004835695028305054,0.12113665789365768
1700856819635913000,19.211912841796874,-0.0059967041015625,-0.009504586458206177,0.09183325618505478
1700856819652906000,19.228906005859375,0.08313179016113281,0.005505353212356567,-0.004601215943694115
1700856819669897500,19.2458974609375,-0.05205535888671875,0.02449667453765869,-0.08459819853305817
1700856819686894800,19.262894775390624,0.019138336181640625,0.014784276485443115,-0.12782029807567596
1700856819703877000,19.279877197265623,0.10109806060791016,0.0009024143218994141,-0.08483749628067017
1700856819720879000,19.296879150390627,-0.046062469482421875,-0.01460576057434082,-0.021408293396234512
1700856819737873400,19.313873291015625,0.07895565032958984,-0.009074509143829346,0.025231119245290756
1700856819754866200,19.3308662109375,-0.011377334594726562,-0.01916518807411194,0.07343288511037827
1700856819771859700,19.347859619140625,-0.025734901428222656,-0.009569317102432251,0.07368762046098709
1700856819788852700,19.364852783203126,0.02152729034423828,0.019643187522888184,0.02510911226272583
1700856819805846500,19.381846435546876,-0.05144691467285156,0.04284834861755371,-0.036462437361478806
1700856819822839300,19.39883935546875,-0.004185676574707031,0.014658510684967041,-0.07031426578760147
1700856819839833000,19.4158330078125,-0.0035924911499023438,-0.037860095500946045,-0.06517507135868073
1700856819856826000,19.432826171875,-0.03171062469482422,-0.037817299365997314,-0.017226317897439003
1700856819873817900,19.44981787109375,0.0023889541625976562,0.0004394054412841797,0.02582864835858345
1700856819890810400,19.466810302734373,-0.049653053283691406,0.02372458577156067,0.07407479733228683
1700856819907809000,19.48380908203125,0.022134780883789062,0.009281814098358154,0.08285964280366898
1700856819924799500,19.500799560546874,-0.05025005340576172,0.004529595375061035,0.030582351610064507
1700856819941793300,19.517793212890624,0.08255195617675781,0.01469731330871582,-0.03750044107437134
1700856819958786300,19.534786376953125,-0.03709220886230469,-0.013958364725112915,-0.07446421682834625
1700856819975780000,19.551780029296875,0.010761260986328125,-0.04259413480758667,-0.060369282960891724
1700856819992772900,19.56877294921875,-0.01735687255859375,-0.018585532903671265,-0.007072078995406628
1700856820009766700,19.5857666015625,-0.04067802429199219,0.03324621915817261,0.031126946210861206
1700856820026759400,19.602759521484376,-0.007174491882324219,0.028360515832901,0.02150491438806057
1700856820043753500,19.61975341796875,0.06939697265625,-0.004565715789794922,0.020826563239097595
1700856820060746200,19.636746337890624,-0.040673255920410156,-0.01470831036567688,0.002277711872011423
1700856820077740300,19.653740234375,0.0352935791015625,-0.014024585485458374,-0.02702188491821289
1700856820094733000,19.670733154296876,-0.0029964447021484375,-0.02825877070426941,-0.022175446152687073
1700856820111726600,19.6877265625,-0.050262451171875,-0.03348293900489807,0.016684478148818016
1700856820128719600,19.7047197265625,0.016737937927246094,0.01495140790939331,0.016103647649288177
1700856820145713400,19.72171337890625,-0.03649711608886719,0.04772999882698059,0.007168004289269447
1700856820162706400,19.73870654296875,-0.022133827209472656,0.03384312987327576,-0.007219118066132069
1700856820179700200,19.7557001953125,-0.0029954910278320312,-0.013917654752731323,-0.022056255489587784
1700856820196690400,19.7726904296875,-0.02214527130126953,-0.03768560290336609,-0.031515590846538544
1700856820213691100,19.789691162109374,-0.0030107498168945312,-0.013599306344985962,-0.03131831809878349
1700856820230674200,19.806674072265626,0.0017690658569335938,-0.003891199827194214,-0.012231579050421715
1700856820247677400,19.823677490234374,0.040650367736816406,0.0009556412696838379,0.030952682718634605
1700856820264666400,19.840666259765626,-0.13103103637695312,-0.0003288090229034424,0.055880725383758545
1700856820281660200,19.85766015625,0.040656089782714844,0.02474445104598999,0.025851361453533173
1700856820298653200,19.874653076171874,-0.05984687805175781,-0.03798231482505798,-0.0023443209938704967
1700856820315647200,19.891647216796876,-0.05088520050048828,-0.06643739342689514,-0.02152092568576336
1700856820332639700,19.9086396484375,0.015513420104980469,-0.013149559497833252,-0.041005734354257584
1700856820349633800,19.9256337890625,-0.07061100006103516,0.07201781868934631,-0.03492427617311478
1700856820366626600,19.94262646484375,-0.04605865478515625,0.07624855637550354,0.002786364872008562
1700856820383620000,19.9596201171875,-0.026323318481445312,-0.02890738844871521,0.022002365440130234
1700856820400613000,19.976613037109374,-0.05445575714111328,-0.0955653190612793,0.01650509610772133
1700856820417607000,19.99360693359375,0.021503448486328125,-0.08030638098716736,0.0021573335397988558
1700856820434600000,20.010599853515625,0.00176239013671875,0.005837291479110718,-0.012142810970544815
1700856820451593700,20.02759375,-0.046085357666015625,0.07203742861747742,-0.0210905522108078
1700856820468586500,20.04458642578125,0.09211254119873047,0.10588118433952332,-0.021550342440605164
1700856820485580500,20.06158056640625,-0.050850868225097656,0.05724796652793884,-0.020882153883576393
1700856820502560500,20.078560546875,0.04964447021484375,-0.052147239446640015,-0.01239985041320324
1700856820519560000,20.095559814453125,-0.025745391845703125,-0.12419095635414124,0.031180504709482193
