time,seconds_elapsed,z,y,x
1700856926244168000,0.13716796875,-0.006885528564453125,0.02722233533859253,0.00025260262191295624
1700856926261169200,0.154169189453125,-0.0116729736328125,-0.020603835582733154,-0.018914444372057915
1700856926278156800,0.17115673828125,-0.0021009445190429688,-0.0391673743724823,-0.03869321942329407
1700856926295153000,0.18815283203125,-0.02184009552001953,-0.02004396915435791,-0.05727420002222061
1700856926312141300,0.205141357421875,-0.017053604125976562,-0.00570717453956604,-0.06204008683562279
1700856926329137700,0.2221376953125,-0.01645660400390625,-0.020033031702041626,-0.03818434849381447
1700856926346132700,0.2391328125,-0.006880760192871094,-0.01596662402153015,-0.010048016905784607
1700856926363122400,0.256122314453125,-0.011667251586914062,-0.006363570690155029,-0.004654208198189735
1700856926380117800,0.27311767578125,-0.0020952224731445312,0.0031874477863311768,0.00428222119808197
1700856926397113300,0.29011328125,-0.01166534423828125,-0.0159740149974823,-0.01977323554456234
1700856926414102300,0.307102294921875,-0.01645183563232422,-0.015342861413955688,-0.03360869362950325
1700856926431104000,0.32410400390625,-0.0170440673828125,0.013248234987258911,-0.06245295703411102
1700856926448091600,0.341091552734375,-0.012257575988769531,0.0036550164222717285,-0.05763617902994156
1700856926465087200,0.358087158203125,-0.011661529541015625,-0.03040894865989685,-0.024806803092360497
1700856926482077200,0.3750771484375,-0.015850067138671875,-0.05429711937904358,0.008713964372873306
1700856926499072800,0.39207275390625,-0.006278038024902344,-0.011243075132369995,0.00917457789182663
1700856926516067300,0.4090673828125,-0.011660575866699219,0.022232532501220703,0.0044527240097522736
1700856926533057300,0.426057373046875,-0.021228790283203125,0.017371058464050293,-0.01945536769926548
1700856926550053400,0.443053466796875,-0.007468223571777344,-0.0011945068836212158,-0.043408919125795364
1700856926567046000,0.4600458984375,-0.007465362548828125,-0.006049901247024536,-0.07219118624925613
1700856926584043000,0.47704296875,-0.007464408874511719,-0.025207430124282837,-0.06811851263046265
1700856926601024300,0.494024169921875,-0.0020847320556640625,-0.05382728576660156,-0.02990008518099785
1700856926618026500,0.511026611328125,-0.020628929138183594,-0.0305061936378479,0.008950171992182732
1700856926635012000,0.52801220703125,-0.006272315979003906,0.0173797607421875,0.023266524076461792
1700856926652011500,0.545011474609375,-0.01644134521484375,0.017353713512420654,-0.0006476119160652161
1700856926669007400,0.56200732421875,-0.002086639404296875,-0.01551663875579834,-0.020362433046102524
1700856926686003000,0.5790029296875,-0.0122528076171875,-0.03950825333595276,-0.049114570021629333
1700856926702992600,0.59599267578125,-0.007464408874511719,-0.020430922508239746,-0.06758970767259598
1700856926719988000,0.612988037109375,-0.02181720733642578,-0.006145656108856201,-0.048426881432533264
1700856926736983600,0.629983642578125,-0.016429901123046875,0.007536053657531738,-0.02926679700613022
1700856926753972700,0.64697265625,-0.02121257781982422,-0.011680513620376587,-0.010012385435402393
1700856926770970000,0.66397021484375,-0.006855010986328125,-0.006917446851730347,-0.005176236853003502
1700856926787963000,0.680962890625,-0.011636734008789062,0.002578943967819214,-0.014638732187449932
1700856926804954400,0.697954345703125,-0.011633872985839844,-0.016633957624435425,-0.01936318166553974
1700856926821941200,0.714941162109375,-0.011633872985839844,-0.016051024198532104,-0.028713557869195938
1700856926838942700,0.731942626953125,-0.011631011962890625,-0.0017673373222351074,-0.03339154273271561
1700856926855938300,0.748938232421875,-0.011627197265625,0.016694754362106323,-0.014194215647876263
1700856926872928500,0.765928466796875,-0.006241798400878906,-0.012042582035064697,0.00027083978056907654
1700856926889922000,0.782922119140625,-0.02059650421142578,-0.05038228631019592,0.009185414761304855
1700856926906908200,0.799908203125,-0.0062408447265625,-0.03597894310951233,-0.00044308602809906006
1700856926923907300,0.8169072265625,-0.02598094940185547,-0.0024965405464172363,-0.023817820474505424
1700856926940903000,0.83390283203125,-0.01700592041015625,0.012426912784576416,-0.047723062336444855
1700856926957895000,0.85089501953125,-0.017012596130371094,-0.0018014013767242432,-0.052375663071870804
1700856926974891500,0.8678916015625,-0.012226104736328125,0.007743716239929199,-0.05713598430156708
1700856926991882000,0.884882080078125,-0.011625289916992188,-0.0025028586387634277,-0.023618850857019424
1700856927008875500,0.90187548828125,-0.006239891052246094,-0.04079410433769226,0.004553424194455147
1700856927025872100,0.9188720703125,-0.015810012817382812,-0.04084300994873047,0.009378811344504356
1700856927042864600,0.93586474609375,-0.0068302154541015625,-0.0266420841217041,-0.0049833860248327255
1700856927059859000,0.95285888671875,-0.007428169250488281,0.012263059616088867,-0.037925079464912415
1700856927076854300,0.969854248046875,-0.05947303771972656,0.006899803876876831,-0.03785063698887825
1700856927093840600,0.986840576171875,-0.08818626403808594,-0.012263774871826172,-0.03309079259634018
1700856927110838300,1.00383837890625,0.049996376037597656,-0.02119871973991394,-0.03824656456708908
1700856927127833600,1.02083349609375,-0.06426239013671875,-0.0313262939453125,-0.02332332916557789
1700856927144824000,1.037823974609375,-0.0020513534545898438,-0.03127744793891907,-0.00960412248969078
1700856927161820200,1.054820068359375,0.0027379989624023438,-0.011599093675613403,-0.009600486606359482
1700856927178813200,1.071813232421875,-0.04989814758300781,0.016381412744522095,-0.013834391720592976
1700856927195809500,1.0888095703125,0.01171875,0.026507019996643066,-0.03301212936639786
1700856927212788500,1.10578857421875,-0.016991615295410156,-0.0022864937782287598,-0.04250410199165344
1700856927229793300,1.122793212890625,-0.02117919921875,-0.036386638879776,-0.03285083919763565
1700856927246778000,1.139778076171875,0.007534980773925781,-0.026215344667434692,-0.03347625210881233
1700856927263775000,1.15677490234375,-0.03075122833251953,-0.002851635217666626,-0.008939622901380062
1700856927280777200,1.173777099609375,-0.0062236785888671875,-0.007661789655685425,0.004864787682890892
1700856927297767400,1.190767333984375,-0.016394615173339844,-0.007635772228240967,-0.008835962973535061
1700856927314759200,1.20775927734375,-0.021180152893066406,-0.012437760829925537,-0.02796650305390358
1700856927331750000,1.22475,0.006936073303222656,-0.02141699194908142,-0.04762519150972366
1700856927348748000,1.241748046875,-0.006825447082519531,-0.03093963861465454,-0.037371017038822174
1700856927365742800,1.258742919921875,-0.016393661499023438,-0.017241984605789185,-0.03265455365180969
1700856927382732800,1.27573291015625,-0.0020360946655273438,0.011443674564361572,-0.01350546907633543
1700856927399728000,1.29272802734375,-0.011605262756347656,0.0018461346626281738,-0.01823119819164276
1700856927416723700,1.3097236328125,-0.016388893127441406,-0.026927798986434937,-0.00865276250988245
1700856927433713200,1.326713134765625,-0.011598587036132812,-0.04137742519378662,-0.023538412526249886
1700856927450709000,1.343708984375,0.007546424865722656,-0.04081612825393677,-0.023570207878947258
1700856927467704800,1.360704833984375,-0.01697540283203125,-0.007425069808959961,-0.04212556779384613
1700856927484681200,1.37768115234375,-0.04508781433105469,0.006253242492675781,-0.027737639844417572
1700856927501688000,1.39468798828125,-0.11208629608154297,0.011049836874008179,-0.022380612790584564
1700856927518686000,1.41168603515625,-0.045085906982421875,0.01099318265914917,-0.022946365177631378
1700856927535679500,1.428679443359375,-0.063629150390625,-0.027301818132400513,0.0008815620094537735
1700856927552666000,1.445666015625,-0.03970146179199219,-0.04642683267593384,0.0008733775466680527
1700856927569662000,1.462661865234375,-0.006806373596191406,-0.02657449245452881,-0.02343367598950863
1700856927586660000,1.47966015625,-0.021160125732421875,-0.012275636196136475,-0.03705470263957977
1700856927603644400,1.49664453125,0.011743545532226562,-0.0027718544006347656,-0.04234646260738373
1700856927620645400,1.513645263671875,0.002170562744140625,-0.002742946147918701,-0.03273855149745941
1700856927637637400,1.530637451171875,0.0027751922607421875,-0.012429475784301758,-0.023249488323926926
1700856927654628900,1.54762890625,0.00756072998046875,-0.026784449815750122,-0.00882750190794468
1700856927671626800,1.564626708984375,-0.011583328247070312,-0.022592276334762573,-0.017781417816877365
1700856927688619000,1.581618896484375,-0.01696491241455078,0.020443767309188843,-0.03200644627213478
1700856927705613300,1.59861328125,-0.0026063919067382812,0.025767803192138672,-0.050990477204322815
1700856927722604000,1.61560400390625,-0.016363143920898438,-0.00836220383644104,-0.026960507035255432
1700856927739598000,1.63259814453125,0.008166313171386719,-0.06585165858268738,0.0011126752942800522
1700856927756593700,1.64959375,-0.0157623291015625,-0.05149981379508972,0.006527278572320938
1700856927773579500,1.66657958984375,-0.11147594451904297,-0.013164609670639038,-0.007278813980519772
1700856927790582800,1.683582763671875,-0.06421947479248047,0.015561342239379883,-0.03177330642938614
1700856927807563800,1.700563720703125,-0.05045509338378906,0.02980312705039978,-0.03646159544587135
1700856927824564000,1.71756396484375,-0.040877342224121094,0.01051291823387146,-0.036516815423965454
1700856927841560600,1.734560546875,0.0075778961181640625,-0.03673967719078064,-0.02755345031619072
1700856927858553900,1.751553955078125,-0.03968048095703125,-0.061273008584976196,-0.0030660480260849
1700856927875548200,1.768548095703125,0.008179664611816406,-0.02784976363182068,0.015308940783143044
1700856927892537900,1.785537841796875,0.0028009414672851562,0.019919902086257935,0.011192215606570244
1700856927909533700,1.80253369140625,0.09791851043701172,0.0012926459312438965,-0.03788767382502556
1700856927926527000,1.81952685546875,-0.017538070678710938,-0.041701167821884155,-0.09889596700668335
1700856927943509500,1.836509521484375,0.01595783233642578,-0.01771479845046997,-0.10886324942111969
1700856927960512800,1.8535126953125,0.04048442840576172,0.0014146268367767334,-0.03700825572013855
1700856927977511000,1.870510986328125,-0.058216094970703125,0.024686485528945923,0.06890926510095596
1700856927994496300,1.887496337890625,-0.11983489990234375,0.014566481113433838,0.0933244526386261
1700856928011495400,1.904495361328125,-0.024725914001464844,-0.02298334240913391,0.04958392307162285
1700856928028488200,1.92148828125,-0.04028034210205078,-0.04688015580177307,-0.026986271142959595
1700856928045483300,1.938483154296875,-0.060616493225097656,-0.017609834671020508,-0.0892549678683281
1700856928062473200,1.95547314453125,-0.0037775039672851562,0.030037254095077515,-0.11776046454906464
1700856928079468500,1.972468505859375,-0.016925811767578125,0.029756784439086914,-0.06490850448608398
1700856928096461600,1.989461669921875,-0.1018686294555664,-0.03310695290565491,0.002773026004433632
1700856928113455600,2.00645556640625,-0.019919395446777344,-0.08566564321517944,0.044403061270713806
1700856928130445300,2.0234453125,0.07997417449951172,-0.04181176424026489,0.010403227061033249
1700856928147445500,2.040445556640625,-0.09769821166992188,0.015119284391403198,-0.0262288935482502
1700856928164432100,2.05743212890625,0.025537490844726562,0.0634632408618927,-0.06985332071781158
1700856928181430500,2.074430419921875,0.029726028442382812,0.06820991635322571,-0.0983431488275528
1700856928198423600,2.091423583984375,-0.05103111267089844,0.03888466954231262,-0.06962062418460846
1700856928215418000,2.108418212890625,0.04108238220214844,-0.04168140888214111,-0.026998769491910934
1700856928232408000,2.125407958984375,-0.028914451599121094,-0.12347015738487244,0.05907823145389557
1700856928249403600,2.142403564453125,-0.019349098205566406,-0.09941628575325012,0.08770321309566498
1700856928266399200,2.159399169921875,0.008769035339355469,-0.008533269166946411,0.054232291877269745
1700856928283388200,2.17638818359375,-0.040877342224121094,0.058351337909698486,-0.026537060737609863
1700856928300384800,2.193384765625,0.015954017639160156,0.020616501569747925,-0.08859267830848694
1700856928317361200,2.210361083984375,-0.008576393127441406,-0.05584639310836792,-0.13211756944656372
1700856928334371800,2.227371826171875,-0.022342681884765625,-0.07485634088516235,-0.112791046500206
1700856928351362800,2.24436279296875,0.011752128601074219,-0.05087560415267944,-0.045700158923864365
1700856928368374000,2.2613740234375,-0.015165328979492188,-0.013192474842071533,0.045780155807733536
1700856928385343200,2.27834326171875,-0.02413463592529297,-0.0037052035331726074,0.10306498408317566
1700856928402343400,2.295343505859375,-0.0008001327514648438,0.010545074939727783,0.06941978633403778
1700856928419339300,2.31233935546875,-0.03071117401123047,0.00580105185508728,0.002322079613804817
1700856928436333600,2.32933349609375,-0.0079803466796875,-0.0031624138355255127,-0.07899928092956543
1700856928453323500,2.346323486328125,-0.01335906982421875,-0.008080065250396729,-0.11706199496984482
1700856928470319900,2.36331982421875,-0.022333145141601562,0.001500159502029419,-0.09307551383972168
1700856928487314200,2.380314208984375,-0.016945838928222656,0.015791624784469604,-0.030735809355974197
1700856928504303900,2.397303955078125,-0.010966300964355469,0.005663126707077026,0.04099889472126961
1700856928521300700,2.41430078125,-0.009771347045898438,0.0009346902370452881,0.08388423174619675
1700856928538293800,2.431293701171875,-0.010369300842285156,0.0009452998638153076,0.045482806861400604
1700856928555288300,2.448288330078125,0.09311866760253906,0.025485992431640625,-0.03636498749256134
1700856928572280000,2.465280029296875,-0.05105018615722656,-0.0031881332397460938,-0.08824941515922546
1700856928589272000,2.48227197265625,-0.06540393829345703,-0.04634693264961243,-0.11220258474349976
1700856928606269400,2.49926953125,0.059012413024902344,-0.0652657151222229,-0.08448347449302673
1700856928623258600,2.516258544921875,-0.05943489074707031,-0.04666870832443237,-0.02584664896130562
1700856928640254500,2.53325439453125,-0.0014104843139648438,-0.008338570594787598,0.016605505719780922
1700856928657249800,2.550249755859375,-0.001407623291015625,0.015522271394729614,0.041103724390268326
1700856928674239500,2.567239501953125,-0.03969097137451172,0.005935460329055786,0.026526622474193573
1700856928691235600,2.584235595703125,0.012352943420410156,-0.017404943704605103,-0.021867863833904266
1700856928708227800,2.601227783203125,-0.025938034057617188,-0.04180741310119629,-0.040413446724414825
1700856928725226200,2.618226318359375,-0.016965866088867188,-0.02684175968170166,-0.05483574420213699
1700856928742216000,2.6352158203125,-0.0026102066040039062,0.001893758773803711,-0.04035782441496849
1700856928759222500,2.652222412109375,-0.025938987731933594,0.020415782928466797,-0.021071109920740128
1700856928776198400,2.669198486328125,-0.016366004943847656,0.025167316198349,0.002857958897948265
1700856928793189400,2.686189453125,-0.006196022033691406,-0.008326947689056396,0.0029487917199730873
1700856928810188000,2.70318798828125,-0.021155357360839844,-0.032196879386901855,-0.020912833511829376
1700856928827188700,2.720188720703125,-0.0067996978759765625,-0.03635004162788391,-0.03592589497566223
1700856928844176000,2.73717578125,-0.021162033081054688,-0.01769232749938965,-0.030487027019262314
1700856928861171700,2.754171630859375,-0.007401466369628906,0.0020111501216888428,-0.03522048518061638
1700856928878165000,2.7711650390625,-0.011588096618652344,0.01634499430656433,-0.02555953338742256
1700856928895158300,2.788158203125,-0.016373634338378906,0.0013807117938995361,-0.02547423541545868
1700856928912148500,2.8051484375,-0.006804466247558594,-0.032063186168670654,-0.01647304743528366
1700856928929144300,2.822144287109375,-0.0068111419677734375,-0.03193345665931702,-0.016451066359877586
1700856928946139600,2.8391396484375,-0.002033233642578125,-0.016821175813674927,-0.015732189640402794
1700856928963128600,2.856128662109375,-0.0020322799682617188,0.016668856143951416,-0.0204947367310524
1700856928980124700,2.873124755859375,-0.011600494384765625,0.015991121530532837,-0.020418211817741394
1700856928997117400,2.890117431640625,-0.011603355407714844,-0.002494513988494873,-0.034665804356336594
1700856929014112300,2.9071123046875,-0.01639556884765625,-0.026271462440490723,-0.029770616441965103
1700856929031103500,2.924103515625,-0.0068225860595703125,-0.0454731285572052,-0.020703373476862907
1700856929048101400,2.941101318359375,-0.016399383544921875,-0.04114064574241638,-0.011059356853365898
1700856929065094100,2.95809423828125,-0.016399383544921875,-0.007654696702957153,-0.005620323121547699
1700856929082085400,2.97508544921875,-0.006825447082519531,0.020992815494537354,-0.0008475789800286293
1700856929099082500,2.99208251953125,-0.02118206024169922,0.025794297456741333,-0.005638741888105869
1700856929116071200,3.0090712890625,-0.0020399093627929688,0.002453714609146118,-0.0246535986661911
1700856929133065200,3.026065185546875,0.0021448135375976562,-0.026207834482192993,-0.039606016129255295
1700856929150060000,3.04306005859375,-0.02597808837890625,-0.055352985858917236,-0.029433634132146835
1700856929167054800,3.060054931640625,-0.016411781311035156,-0.03610962629318237,-0.024593956768512726
1700856929184044500,3.07704443359375,-0.01641559600830078,-0.0025267601013183594,-0.014945481903851032
1700856929201035000,3.094034912109375,-0.016407012939453125,0.025992542505264282,-0.014919096603989601
1700856929218032400,3.111032470703125,-0.016401290893554688,0.011501908302307129,-0.024459049105644226
1700856929235030500,3.128030517578125,-0.007424354553222656,0.0024752020835876465,-0.038652703166007996
1700856929252012000,3.145011962890625,-0.016394615173339844,-0.007772624492645264,-0.024099793285131454
1700856929269015300,3.162015380859375,0.007531166076660156,-0.02625221014022827,-0.010318934917449951
1700856929286009000,3.179009033203125,-0.01580333709716797,-0.036341965198516846,-0.0008450010791420937
1700856929303002400,3.19600244140625,-0.0062351226806640625,-0.03625115752220154,-0.0008553611114621162
1700856929319996200,3.21299609375,-0.0068340301513671875,-0.006956309080123901,-0.024163473397493362
1700856929336989700,3.22998974609375,-0.017004966735839844,0.012228250503540039,-0.03362637013196945
1700856929353983500,3.2469833984375,-0.012216567993164062,0.007378578186035156,-0.0335531160235405
1700856929370976300,3.263976318359375,-0.01640796661376953,-0.016466468572616577,-0.03353842347860336
1700856929387970300,3.28097021484375,-0.045126914978027344,-0.050474584102630615,-0.014307697303593159
1700856929404963600,3.297963623046875,-0.07324695587158203,-0.05036696791648865,0.00006370991468429565
1700856929421957600,3.31495751953125,0.00272369384765625,-0.021029412746429443,-0.005170744843780994
1700856929438950100,3.3319501953125,-0.03556060791015625,0.007086843252182007,0.0002457955852150917
1700856929455944200,3.348944091796875,-0.016414642333984375,0.01657852530479431,-0.004544271156191826
1700856929472937700,3.365937744140625,-0.0068454742431640625,0.0076361000537872314,-0.018775109201669693
1700856929489920800,3.382920654296875,-0.040340423583984375,-0.012189477682113647,-0.02838604897260666
1700856929506924500,3.399924560546875,-0.006839752197265625,-0.02598881721496582,-0.033741798251867294
1700856929523918000,3.41691796875,-0.02597808837890625,-0.02667352557182312,-0.023526784032583237
1700856929540911600,3.43391162109375,-0.016405105590820312,0.002014458179473877,-0.009110006503760815
1700856929557909500,3.450909423828125,-0.002044677734375,0.025857150554656982,0.00039716530591249466
1700856929574898400,3.4678984375,-0.021183013916015625,0.04490941762924194,0.0003785640001296997
1700856929591892200,3.484892333984375,-0.0068225860595703125,0.040045857429504395,-0.009143353439867496
1700856929608888000,3.50188818359375,-0.0068187713623046875,0.016618847846984863,-0.018692024052143097
1700856929625868800,3.518868896484375,-0.007415771484375,-0.012120723724365234,-0.03771921247243881
1700856929642859300,3.535859375,-0.0026350021362304688,-0.04552340507507324,-0.04291754215955734
1700856929659868700,3.55286865234375,-0.011618614196777344,-0.07879185676574707,-0.03323033079504967
1700856929676857000,3.569857177734375,-0.011029243469238281,-0.06964361667633057,-0.00922207161784172
1700856929693855700,3.586855712890625,-0.006844520568847656,-0.016317665576934814,-0.01812138967216015
1700856929710846500,3.603846435546875,-0.025984764099121094,0.021303445100784302,-0.02283167839050293
1700856929727840300,3.62084033203125,-0.030771255493164062,0.006976127624511719,-0.032299455255270004
1700856929744833800,3.637833740234375,0.09305667877197266,-0.021156251430511475,-0.04770417511463165
1700856929761827600,3.65482763671875,0.012292861938476562,-0.0401492714881897,-0.023031195625662804
1700856929778820600,3.671820556640625,-0.058897972106933594,-0.026303768157958984,0.006072958931326866
1700856929795813400,3.6888134765625,0.05535697937011719,0.01741969585418701,0.00555034726858139
1700856929812809000,3.70580908203125,-0.05471038818359375,0.02155926823616028,0.0018318332731723785
1700856929829801700,3.7228017578125,-0.0026636123657226562,0.041222721338272095,-0.02739640884101391
1700856929846792000,3.7397919921875,0.0069122314453125,0.007626056671142578,-0.04157376289367676
1700856929863787500,3.75678759765625,-0.02598857879638672,-0.026475071907043457,-0.03192368149757385
1700856929880785400,3.773785400390625,0.007506370544433594,-0.020975321531295776,-0.03255313262343407
1700856929897775900,3.79077587890625,-0.021210670471191406,-0.002395451068878174,-0.007946520112454891
1700856929914768400,3.807768310546875,-0.02539539337158203,0.002340763807296753,0.011232350952923298
1700856929931762400,3.824762451171875,0.00750732421875,-0.012047410011291504,0.005868435837328434
1700856929948745500,3.841745361328125,-0.030782699584960938,-0.021507740020751953,-0.0031308522447943687
1700856929965749800,3.858749755859375,-0.006861686706542969,-0.03512042760848999,-0.022790931165218353
1700856929982742800,3.87574267578125,-0.0122528076171875,-0.034975796937942505,-0.04126080870628357
1700856929999736600,3.892736572265625,-0.021226882934570312,-0.006824314594268799,-0.03162572905421257
1700856930016730000,3.909730224609375,-0.007462501525878906,0.0175645649433136,-0.03628019616007805
1700856930033724000,3.926723876953125,-0.02122211456298828,0.007421642541885376,-0.02673947438597679
1700856930050716400,3.94371630859375,-0.021226882934570312,-0.025979667901992798,-0.0028385287150740623
1700856930067710500,3.96071044921875,0.0032930374145507812,-0.06411436200141907,0.010837243869900703
1700856930084704000,3.9777041015625,-0.006278038024902344,-0.03060278296470642,0.015615269541740417
1700856930101700600,3.99470068359375,-0.049945831298828125,0.017195940017700195,-0.007828698493540287
1700856930118688000,4.01168798828125,0.0068912506103515625,0.051140427589416504,-0.03164803981781006
1700856930135684600,4.0286845703125,-0.02181720733642578,0.036678701639175415,-0.05551176145672798
1700856930152678100,4.04567822265625,-0.012248039245605469,-0.011154413223266602,-0.05532139912247658
1700856930169671700,4.062671630859375,-0.01165771484375,-0.049280405044555664,-0.031954340636730194
1700856930186664700,4.079664794921875,-0.030211448669433594,-0.059234946966171265,0.006926543079316616
1700856930203640000,4.09664013671875,-0.006289482116699219,-0.02558046579360962,0.025447877123951912
1700856930220655400,4.1136552734375,-0.015860557556152344,0.012692034244537354,0.011577538214623928
1700856930237646000,4.13064599609375,-0.011669158935546875,0.017383486032485962,-0.0027883704751729965
1700856930254639000,4.14763916015625,-0.01226806640625,-0.00592997670173645,-0.04100426286458969
1700856930271630000,4.164630126953125,-0.017057418823242188,-0.010629445314407349,-0.055286917835474014
1700856930288629000,4.18162890625,-0.007488250732421875,-0.010601282119750977,-0.045496780425310135
1700856930305620000,4.198619873046875,-0.01646137237548828,-0.001617521047592163,-0.011954905465245247
1700856930322613000,4.215613037109375,-0.02064990997314453,-0.0016065537929534912,0.01672397367656231
1700856930339593500,4.232593505859375,-0.011080741882324219,-0.0015507042407989502,0.021392639726400375
1700856930356603000,4.249602783203125,-0.006900787353515625,-0.03010144829750061,-0.0031129810959100723
1700856930373594000,4.266593994140625,-0.021269798278808594,-0.058564990758895874,-0.022278860211372375
1700856930390587400,4.28358740234375,-0.011706352233886719,-0.03864535689353943,-0.03655841201543808
1700856930407581000,4.300580810546875,0.016408920288085938,0.014012813568115234,-0.03642410784959793
1700856930424574500,4.317574462890625,-0.060151100158691406,0.051459670066833496,-0.025584759190678596
1700856930441568000,4.334568115234375,0.02599620819091797,0.04236528277397156,-0.017265338450670242
1700856930458561000,4.35156103515625,0.04034900665283203,-0.02454856038093567,-0.036298029124736786
1700856930475554800,4.368554931640625,-0.05417823791503906,-0.07277774810791016,-0.011838052421808243
1700856930492548400,4.38554833984375,0.04092693328857422,-0.043248772621154785,-0.012379687279462814
1700856930509542100,4.402542236328125,-0.016498565673828125,0.018315225839614868,-0.002229449339210987
1700856930526535200,4.41953515625,-0.016492843627929688,0.05170255899429321,-0.002129443921148777
1700856930543529200,4.436529296875,-0.0021381378173828125,0.023611366748809814,-0.016369692981243134
1700856930560522500,4.4535224609375,-0.011708259582519531,-0.0248565673828125,-0.016334664076566696
1700856930577516300,4.470516357421875,-0.1265726089477539,-0.06298196315765381,-0.03470194339752197
1700856930594509000,4.487509033203125,-0.05000495910644531,-0.043752819299697876,-0.016217336058616638
1700856930611490000,4.504489990234375,-0.05957317352294922,0.008805781602859497,-0.020940907299518585
1700856930628499000,4.5214990234375,-0.02127838134765625,0.03255179524421692,-0.020921209827065468
1700856930645490200,4.538490234375,0.030762672424316406,0.009279489517211914,-0.026253825053572655
1700856930662483200,4.555483154296875,0.0032405853271484375,-0.048646003007888794,0.0023489128798246384
1700856930679477200,4.572477294921875,-0.015308380126953125,-0.04854273796081543,0.03556886315345764
1700856930696470300,4.58947021484375,0.09834957122802734,0.03343391418457031,0.025839220732450485
1700856930713464000,4.606464111328125,-0.12596607208251953,0.046941399574279785,0.007847367785871029
1700856930730453500,4.62345361328125,0.006833076477050781,-0.01940658688545227,-0.0505710169672966
1700856930747451000,4.640450927734375,-0.012318611145019531,-0.08620736002922058,-0.06951167434453964
1700856930764434200,4.65743408203125,-0.03146839141845703,-0.05734989047050476,-0.06936667859554291
1700856930781438500,4.6744384765625,0.030739784240722656,0.01455777883529663,-0.04530833289027214
1700856930798431500,4.691431396484375,-0.04462623596191406,0.04729348421096802,0.01739121414721012
1700856930815425300,4.70842529296875,-0.006337165832519531,0.042428433895111084,0.041204288601875305
1700856930832418600,4.72541845703125,-0.006337165832519531,0.004147559404373169,0.041110530495643616
1700856930849413600,4.74241357421875,-0.0302734375,-0.05789324641227722,0.007504064589738846
1700856930866405400,4.7594052734375,0.007403373718261719,-0.07621446251869202,-0.036011166870594025
1700856930883399200,4.776399169921875,-0.017133712768554688,-0.04728379845619202,-0.06396837532520294
1700856930900392700,4.793392822265625,-0.017731666564941406,0.024492621421813965,-0.06851806491613388
1700856930917375700,4.810375732421875,0.001415252685546875,0.04831087589263916,-0.05395236611366272
1700856930934379500,4.827379638671875,-0.016526222229003906,0.02847406268119812,-0.006044366396963596
1700856930951375400,4.844375244140625,-0.01593017578125,-0.00018808245658874512,0.032179344445466995
1700856930968364300,4.8613642578125,-0.005766868591308594,-0.033555418252944946,0.0457930825650692
1700856930985360600,4.878360595703125,-0.0159454345703125,-0.04772520065307617,0.02648312598466873
1700856931002353700,4.895353759765625,-0.0021924972534179688,-0.028466731309890747,-0.006986187305301428
1700856931019347500,4.912347412109375,-0.012359619140625,0.0008192956447601318,-0.04930721968412399
1700856931036341000,4.929341064453125,-0.012955665588378906,0.02469003200531006,-0.07288429886102676
1700856931053334500,4.94633447265625,-0.017141342163085938,0.005510479211807251,-0.058347269892692566
1700856931070327600,4.96332763671875,-0.011762619018554688,-0.01354268193244934,-0.019932463765144348
1700856931087321300,4.9803212890625,-0.011162757873535156,-0.014181584119796753,0.02312522381544113
1700856931104315000,4.99731494140625,-0.020735740661621094,-0.009348630905151367,0.04218784347176552
1700856931121296100,5.014296142578125,-0.011166572570800781,-0.01409420371055603,0.018186526373028755
1700856931138301700,5.0313017578125,-0.0117645263671875,-0.018875926733016968,-0.01526029221713543
1700856931155295500,5.04829541015625,-0.0075817108154296875,-0.013388723134994507,-0.0588047057390213
1700856931172289000,5.0652890625,-0.0081787109375,0.005706816911697388,-0.07232186943292618
1700856931189282600,5.082282470703125,-0.017145156860351562,0.01992422342300415,-0.04345962777733803
1700856931206275600,5.099275634765625,-0.016542434692382812,0.014439046382904053,-0.01946220174431801
1700856931223269400,5.116269287109375,-0.0063762664794921875,-0.01897531747817993,0.0086466483771801
1700856931240273700,5.133273681640625,-0.015956878662109375,-0.052285611629486084,0.008663294836878777
1700856931257256700,5.150256591796875,-0.011174201965332031,-0.028290987014770508,0.004399457015097141
1700856931274249700,5.167249755859375,-0.01655864715576172,-0.01391690969467163,-0.0051239049062132835
1700856931291243500,5.184243408203125,-0.017154693603515625,0.029700160026550293,-0.029107369482517242
1700856931308236800,5.20123681640625,-0.017147064208984375,0.03911846876144409,-0.03854592889547348
1700856931325230800,5.21823095703125,-0.017139434814453125,0.01981508731842041,-0.04331609606742859
1700856931342224000,5.235223876953125,-0.006969451904296875,-0.013709068298339844,-0.015095308423042297
1700856931359217400,5.252217529296875,-0.025516510009765625,-0.03341075778007507,0.004627791233360767
1700856931376211000,5.2692109375,-0.011165618896484375,-0.03326115012168884,0.027829814702272415
1700856931393205000,5.286205078125,-0.00638580322265625,-0.02833324670791626,0.022911544889211655
1700856931410198000,5.303197998046875,-0.011771202087402344,-0.01396489143371582,-0.00039634760469198227
1700856931427191800,5.32019189453125,-0.01236724853515625,0.0009575188159942627,-0.028996819630265236
1700856931444185300,5.337185302734375,-0.00339508056640625,0.0009620189666748047,-0.06777117401361465
1700856931461178600,5.3541787109375,-0.017151832580566406,0.024850189685821533,-0.05265464633703232
1700856931478172000,5.371171875,-0.0027923583984375,0.019998908042907715,-0.02385149896144867
1700856931495166000,5.388166015625,-0.0165557861328125,-0.009199559688568115,0.000019663944840431213
1700856931512156700,5.40515673828125,-0.1158609390258789,-0.043231964111328125,0.03408467769622803
1700856931529155600,5.422155517578125,-0.020750045776367188,-0.037780702114105225,0.014265795238316059
1700856931546145800,5.439145751953125,-0.040495872497558594,-0.0041405558586120605,-0.01917417161166668
1700856931563135700,5.4561357421875,-0.06023883819580078,0.0006923675537109375,-0.04303548485040665
1700856931580122600,5.47312255859375,0.016332626342773438,0.0012447237968444824,-0.052906278520822525
1700856931597126700,5.490126708984375,-0.03571319580078125,0.0006990730762481689,-0.028387082740664482
1700856931614120400,5.507120361328125,-0.011789321899414062,0.005562543869018555,-0.014084691181778908
1700856931631113700,5.52411376953125,-0.011193275451660156,-0.01832646131515503,0.009860712103545666
1700856931648107300,5.541107177734375,-0.035121917724609375,-0.02308747172355652,0.029030609875917435
1700856931665102000,5.55810205078125,0.06478118896484375,0.010952889919281006,0.004613977856934071
1700856931682093300,5.57509326171875,-0.00341033935546875,0.05392506718635559,-0.07574290782213211
1700856931699088100,5.592088134765625,-0.045281410217285156,-0.008978158235549927,-0.03280484676361084
1700856931716081700,5.60908154296875,0.03246879577636719,-0.11327654123306274,0.028197767212986946
1700856931733075200,5.6260751953125,-0.06803703308105469,-0.07064899802207947,0.043531954288482666
1700856931750068000,5.64306787109375,0.04980754852294922,0.025691837072372437,-0.014608107507228851
1700856931767062000,5.66006201171875,-0.0028324127197265625,0.0400291383266449,-0.028316259384155273
1700856931784053000,5.677052978515625,-0.007611274719238281,0.020721405744552612,-0.04264995455741882
1700856931801046300,5.69404638671875,0.011532783508300781,0.020671695470809937,-0.05204012244939804
1700856931818042400,5.71104248046875,0.0019702911376953125,0.04919767379760742,-0.04225906729698181
1700856931835036200,5.7280361328125,0.0067615509033203125,0.015576004981994629,-0.042053334414958954
1700856931852029700,5.74502978515625,0.03606224060058594,-0.07031556963920593,-0.013821126893162727
1700856931869023200,5.762023193359375,-0.01540374755859375,-0.1326841413974762,0.038664743304252625
1700856931886005800,5.779005859375,-0.044121742248535156,-0.05123424530029297,0.03907201439142227
1700856931903010000,5.796010009765625,0.03603935241699219,0.03068721294403076,0.02400077134370804
1700856931920003600,5.813003662109375,0.0073299407958984375,0.04973915219306946,0.00042964518070220947
1700856931936997400,5.829997314453125,0.01570892333984375,0.0496518611907959,-0.05697808787226677
1700856931953990400,5.846990478515625,0.02468109130859375,0.049656033515930176,-0.09496954083442688
1700856931970984000,5.86398388671875,-0.04171562194824219,0.020859479904174805,-0.09010431170463562
1700856931987967500,5.880967529296875,0.007332801818847656,-0.046040743589401245,-0.03317941352725029
1700856932004970200,5.89797021484375,-0.029767990112304688,-0.06075140833854675,0.03440914303064346
1700856932021966600,5.914966552734375,-0.02976703643798828,0.0014656782150268555,0.06292812526226044
1700856932038957000,5.93195703125,-0.0016422271728515625,0.039547115564346313,0.05327034741640091
1700856932055951600,5.94895166015625,-0.03035259246826172,0.010774672031402588,0.019667571410536766
1700856932072945400,5.9659453125,-0.0070285797119140625,-0.045947492122650146,-0.0238800011575222
1700856932089938700,5.982938720703125,-0.012418746948242188,-0.06016749143600464,-0.062019914388656616
1700856932106932200,5.99993212890625,-0.012424468994140625,-0.026554912328720093,-0.07073338329792023
1700856932123907300,6.0169072265625,-0.002262115478515625,-0.01681429147720337,-0.0281844399869442
1700856932140919800,6.033919921875,-0.01602458953857422,-0.012559324502944946,0.01545181218534708
1700856932157912800,6.050912841796875,-0.01601886749267578,0.02081596851348877,0.034520186483860016
1700856932174906400,6.06790625,-0.011820793151855469,0.03973686695098877,0.015326334163546562
1700856932191900000,6.08489990234375,-0.016599655151367188,0.0012989342212677002,-0.013384011574089527
1700856932208893700,6.101893798828125,-0.0070362091064453125,-0.05057242512702942,-0.028269607573747635
1700856932225886700,6.11888671875,-0.011828422546386719,-0.05521854758262634,-0.04247365519404411
1700856932242876400,6.13587646484375,0.0019283294677734375,-0.002522498369216919,-0.042450595647096634
1700856932259878000,6.1528779296875,-0.007643699645996094,0.040550440549850464,-0.02746201679110527
1700856932276855300,6.169855224609375,-0.1272745132446289,0.04450100660324097,-0.03624972701072693
1700856932293860900,6.18686083984375,0.05937004089355469,0.016312837600708008,-0.02301938273012638
1700856932310852000,6.20385205078125,-0.035141944885253906,-0.003537088632583618,0.02545376867055893
1700856932327850500,6.2208505859375,-0.05846691131591797,0.0155123770236969,0.04918459430336952
1700856932344841700,6.237841796875,0.03664207458496094,-0.03642353415489197,0.010218178853392601
1700856932361834800,6.254834716796875,-0.0782327651977539,-0.12751150131225586,0.0010730400681495667
1700856932378828500,6.27182861328125,0.0025033950805664062,-0.1120980978012085,-0.042561035603284836
1700856932395819300,6.2888193359375,-0.008265495300292969,0.012358486652374268,-0.06562888622283936
1700856932412818700,6.305818603515625,-0.05132484436035156,0.10721474885940552,-0.055285580456256866
1700856932429804800,6.3228046875,-0.00763702392578125,0.10679766535758972,-0.0031110369600355625
1700856932446802400,6.339802490234375,0.08210277557373047,0.06893563270568848,-0.07494150847196579
1700856932463796200,6.356796142578125,-0.1775226593017578,-0.05660313367843628,0.0645485669374466
1700856932480789500,6.37378955078125,0.08148860931396484,-0.10361728072166443,0.11504510790109634
1700856932497785600,6.39078564453125,-0.053114891052246094,-0.04600992798805237,0.08732017874717712
1700856932514766300,6.407766357421875,-0.0878152847290039,-0.012414723634719849,0.01588980294764042
1700856932531770000,6.42477001953125,0.03420543670654297,-0.06893166899681091,-0.1190582737326622
1700856932548764000,6.441763916015625,-0.07587909698486328,-0.07342687249183655,-0.1419549584388733
1700856932565757200,6.458757080078125,0.000690460205078125,0.02708613872528076,-0.1129741221666336
1700856932582751000,6.4757509765625,0.029425621032714844,0.18931877613067627,-0.050415948033332825
1700856932599744300,6.492744140625,0.02048969268798828,0.21241530776023865,-0.021428557112812996
1700856932616738000,6.509738037109375,0.08988475799560547,-0.0077686607837677,0.0871734693646431
1700856932633730800,6.526730712890625,0.07789039611816406,-0.22306492924690247,0.1674516797065735
1700856932650724600,6.543724609375,-0.04776191711425781,-0.18413257598876953,0.10112195461988449
1700856932667718100,6.56071826171875,0.07367229461669922,0.007932692766189575,-0.037635717540979385
1700856932684712200,6.577712158203125,0.019248008728027344,0.09379634261131287,-0.11338083446025848
1700856932701705000,6.594705078125,0.014466285705566406,0.0458531379699707,-0.15611398220062256
1700856932718699000,6.611698974609375,0.02941608428955078,-0.011470556259155273,-0.13709266483783722
1700856932735692300,6.6286923828125,-0.03160572052001953,-0.02096053957939148,-0.045480016618967056
1700856932752686300,6.645686279296875,0.008469581604003906,-0.016660332679748535,0.04945632815361023
1700856932769679000,6.66267919921875,-0.024428367614746094,0.016802489757537842,0.12143372744321823
1700856932786673000,6.6796728515625,-0.02442646026611328,0.031107842922210693,0.10665085911750793
1700856932803666200,6.696666259765625,0.0078887939453125,0.030844777822494507,0.034827493131160736
1700856932820660000,6.713659912109375,-0.02202320098876953,-0.006801694631576538,-0.055903077125549316
1700856932837653200,6.7306533203125,0.024628639221191406,-0.04970291256904602,-0.12792867422103882
1700856932854647000,6.74764697265625,-0.02742481231689453,-0.07343769073486328,-0.1178947165608406
1700856932871627800,6.764627685546875,0.016845703125,-0.0017255842685699463,-0.022027255967259407
1700856932888636700,6.78163671875,-0.007076263427734375,0.05973619222640991,0.02636268176138401
1700856932905627400,6.79862744140625,-0.04415702819824219,0.035662949085235596,0.06441546976566315
1700856932922621000,6.815620849609375,0.007884025573730469,-0.036058396100997925,0.03494745492935181
1700856932939604000,6.83260400390625,-0.016645431518554688,-0.05513182282447815,-0.017710978165268898
1700856932956608500,6.8496083984375,-0.013051986694335938,-0.006776094436645508,-0.06963901966810226
1700856932973601500,6.8666015625,0.04916572570800781,0.03618338704109192,-0.08432845026254654
1700856932990595000,6.883594970703125,-0.050726890563964844,0.01627373695373535,-0.035712841898202896
1700856933007588600,6.900588623046875,-0.02559661865234375,0.006570398807525635,0.012099666520953178
1700856933024582700,6.917582763671875,0.017473220825195312,0.0018200278282165527,0.025771455839276314
1700856933041575200,6.9345751953125,-0.053719520568847656,-0.04588407278060913,0.04527977854013443
1700856933058569000,6.95156884765625,-0.0016841888427734375,-0.06963974237442017,0.015952862799167633
1700856933075562800,6.968562744140625,-0.016643524169921875,-0.03125739097595215,-0.021658992394804955
1700856933092556300,6.985556396484375,-0.017828941345214844,0.05047425627708435,-0.06943608820438385
1700856933109552600,7.002552734375,0.0013265609741210938,0.0501878559589386,-0.06441624462604523
1700856933126543400,7.01954345703125,-0.01662158966064453,-0.0024463534355163574,-0.026001710444688797
1700856933143537000,7.036536865234375,-0.020816802978515625,-0.05071493983268738,0.01228231843560934
1700856933160530400,7.053530517578125,-0.0064640045166015625,-0.021898508071899414,0.026549099013209343
1700856933177523700,7.070523681640625,-0.011250495910644531,0.011584043502807617,0.016959279775619507
1700856933194517200,7.087517333984375,-0.011847496032714844,0.016363471746444702,-0.007067638449370861
1700856933211510800,7.1045107421875,-0.0076580047607421875,0.012133389711380005,-0.04518372565507889
1700856933228504800,7.1215048828125,0.0066967010498046875,0.002604156732559204,-0.045119497925043106
1700856933245497600,7.13849755859375,-0.02680206298828125,0.007382333278656006,-0.04963589459657669
1700856933262488800,7.15548876953125,-0.01663494110107422,-0.02187684178352356,-0.02081909403204918
1700856933279487700,7.17248779296875,0.031813621520996094,-0.04030388593673706,0.03598879277706146
1700856933296476200,7.18947607421875,-0.10098838806152344,-0.02232515811920166,0.08939287066459656
1700856933313471700,7.2064716796875,0.051552772521972656,-0.016326993703842163,0.0594395212829113
1700856933330468000,7.223468017578125,0.026429176330566406,-0.016343891620635986,0.002081264741718769
1700856933347448600,7.240448486328125,-0.032202720642089844,-0.016177833080291748,-0.10741449147462845
1700856933364452900,7.257452880859375,0.038379669189453125,0.008453696966171265,-0.15532419085502625
1700856933381445600,7.274445556640625,-0.06570720672607422,0.041334182024002075,-0.09163662791252136
1700856933398439400,7.291439453125,-0.0070743560791015625,0.06446325778961182,-0.0012715943157672882
1700856933415433000,7.308432861328125,-0.0010843276977539062,0.0499596893787384,0.08464495837688446
1700856933432426800,7.3254267578125,-0.04834556579589844,-0.021767795085906982,0.10816411674022675
1700856933449419800,7.342419677734375,0.0036859512329101562,-0.07890361547470093,0.05955735966563225
1700856933466413800,7.359413818359375,-0.026230812072753906,-0.04526588320732117,-0.025903185829520226
1700856933483404500,7.376404541015625,0.006069183349609375,-0.006334573030471802,-0.093251071870327
1700856933500403500,7.393403564453125,0.005463600158691406,-0.02531471848487854,-0.11200914531946182
1700856933517394000,7.410393798828125,-0.05556964874267578,-0.048885196447372437,-0.08266942948102951
1700856933534389200,7.42738916015625,-0.0023374557495117188,-0.02479878067970276,-0.030462998896837234
1700856933551379500,7.44437939453125,-0.03523826599121094,0.027249634265899658,0.03221810981631279
1700856933568374800,7.461374755859375,-0.02087688446044922,0.08457398414611816,0.0654660165309906
1700856933585367800,7.478367919921875,-0.015483856201171875,0.04132699966430664,0.0700686052441597
1700856933602361900,7.49536181640625,-0.02565479278564453,-0.020874828100204468,0.02685854397714138
1700856933619355100,7.512355224609375,-0.007716178894042969,-0.03447365760803223,-0.04539681598544121
1700856933636349000,7.529348876953125,-0.017884254455566406,-0.024914026260375977,-0.08756181597709656
1700856933653338400,7.54633837890625,-0.0077190399169921875,-0.024838417768478394,-0.05854526162147522
1700856933670339600,7.563339599609375,0.0024442672729492188,-0.024696260690689087,-0.020742038264870644
1700856933687329300,7.580329345703125,-0.016101837158203125,-0.001339346170425415,0.0323234498500824
1700856933704323000,7.597322998046875,-0.016099929809570312,0.027345895767211914,0.041657380759716034
1700856933721302000,7.614302001953125,-0.011312484741210938,0.0033790767192840576,0.04622923955321312
1700856933738310000,7.631309814453125,-0.011316299438476562,-0.020454764366149902,0.012595783919095993
1700856933755299800,7.6482998046875,-0.011918067932128906,-0.010234415531158447,-0.02558951824903488
1700856933772300800,7.66530078125,-0.04661369323730469,0.018494397401809692,-0.06835421919822693
1700856933789290200,7.682290283203125,-0.10344314575195312,0.017883270978927612,-0.05331629142165184
1700856933806284000,7.699283935546875,0.0831918716430664,-0.0005606114864349365,-0.03572455048561096
1700856933823277600,7.716277587890625,-0.054396629333496094,-0.010695576667785645,0.018182571977376938
1700856933840271000,7.73327099609375,-0.030466079711914062,-0.0059393346309661865,0.032351113855838776
1700856933857264000,7.75026416015625,0.04131603240966797,-0.019640296697616577,0.01729874685406685
1700856933874258200,7.767258056640625,-0.07354450225830078,-0.029712826013565063,0.017736099660396576
1700856933891251700,7.784251708984375,0.021564483642578125,-0.019414901733398438,-0.021103158593177795
1700856933908241000,7.801240966796875,-0.022104263305664062,0.00928691029548645,-0.058582063764333725
1700856933925243100,7.8182431640625,-0.031676292419433594,0.014074862003326416,-0.03937457874417305
1700856933942232300,7.835232421875,0.016180038452148438,-0.009844571352005005,-0.025466542690992355
1700856933959222800,7.852222900390625,-0.03586578369140625,-0.019958138465881348,-0.0008262740448117256
1700856933976222000,7.869221923828125,-0.006557464599609375,-0.00551527738571167,0.0181680079549551
1700856933993212200,7.886212158203125,-0.0023660659790039062,0.003945410251617432,0.013371197506785393
1700856934010206200,7.903206298828125,-0.03048229217529297,-0.005609184503555298,0.018103543668985367
1700856934027199700,7.92019970703125,-0.0023670196533203125,0.004560649394989014,-0.015263901092112064
1700856934044193500,7.937193603515625,-0.017320632934570312,0.004542320966720581,-0.03425253555178642
1700856934061186600,7.9541865234375,-0.017319679260253906,-0.009841203689575195,-0.03888288512825966
1700856934078180000,7.97118017578125,-0.0071563720703125,-0.024074137210845947,-0.015480173751711845
1700856934095173600,7.988173583984375,-0.021513938903808594,-0.00549691915512085,0.008981902152299881
1700856934112167700,8.005167724609375,-0.00177001953125,0.027937710285186768,0.023265309631824493
1700856934129160400,8.022160400390625,-0.007153511047363281,0.01834249496459961,0.01357818953692913
1700856934146154200,8.039154296875,-0.021509170532226562,0.0039608776569366455,-0.00556519627571106
1700856934163147800,8.056147705078125,-0.007752418518066406,-0.014542877674102783,-0.029955754056572914
1700856934180131000,8.073131103515625,-0.012542724609375,-0.023990154266357422,-0.04883440583944321
1700856934197134800,8.090134765625,-0.0029764175415039062,-0.01431971788406372,-0.034347571432590485
1700856934214128400,8.10712841796875,-0.0071659088134765625,-0.00950273871421814,-0.009711796417832375
1700856934231121700,8.12412158203125,-0.011948585510253906,0.008965909481048584,0.014190739952027798
1700856934248115500,8.141115478515625,-0.007161140441894531,0.02329149842262268,0.014188747853040695
1700856934265108700,8.158108642578124,-0.011946678161621094,0.013712406158447266,0.00935966894030571
1700856934282093600,8.175093505859374,-0.007159233093261719,-0.033573269844055176,-0.010351059958338737
1700856934299096000,8.192095947265624,-0.016735076904296875,-0.04304823279380798,-0.028814395889639854
1700856934316089600,8.209089599609374,-0.01733112335205078,-0.004809528589248657,-0.03358147665858269
1700856934333083000,8.226082763671876,-0.0071582794189453125,0.028613895177841187,-0.014464275911450386
1700856934350075100,8.2430751953125,-0.007161140441894531,0.008917301893234253,0.009408712387084961
1700856934367069200,8.260069091796876,-0.011351585388183594,-0.010157793760299683,0.014143742620944977
1700856934384065500,8.2770654296875,-0.0065670013427734375,-0.019669950008392334,0.009381047450006008
1700856934401047300,8.29404736328125,-0.016737937927246094,-0.024440079927444458,-0.004974079318344593
1700856934418040300,8.311040283203125,-0.007166862487792969,-0.004701077938079834,-0.014461973682045937
1700856934435044000,8.328044189453125,-0.021516799926757812,-0.0006590485572814941,-0.019144069403409958
1700856934452038000,8.345037841796875,-0.017328262329101562,0.014269590377807617,-0.023856021463871002
1700856934469031000,8.362031005859375,-0.007152557373046875,0.004562824964523315,-0.0141915213316679
1700856934486024400,8.3790244140625,-0.01194000244140625,-0.010366111993789673,0.00017425790429115295
1700856934503025400,8.396025390625,-0.016732215881347656,-0.015007764101028442,0.00022081611678004265
1700856934520012300,8.41301220703125,0.021554946899414062,0.004692167043685913,-0.009890628047287464
1700856934537005000,8.430005126953125,-0.012543678283691406,0.004714518785476685,-0.02349996194243431
1700856934553998600,8.44699853515625,-0.026899337768554688,0.013679951429367065,-0.028129175305366516
1700856934570981600,8.463981689453124,0.011383056640625,0.004724264144897461,-0.03798951953649521
1700856934587986200,8.480986083984375,-0.02151775360107422,0.013705670833587646,-0.018186204135417938
1700856934604979200,8.497979248046875,-0.007159233093261719,0.014261484146118164,-0.00852002389729023
1700856934621972700,8.51497265625,-0.016727447509765625,-0.01990494132041931,0.005978177767246962
1700856934638964000,8.5319638671875,-0.025704383850097656,-0.029384225606918335,0.005894635803997517
1700856934655963000,8.548962890625,-0.0119476318359375,-0.024565666913986206,-0.0036332213785499334
1700856934672950500,8.565950439453125,-0.021518707275390625,-0.019755959510803223,-0.017898155376315117
1700856934689949700,8.58294970703125,-0.016735076904296875,-0.019731998443603516,-0.013014750555157661
1700856934706940400,8.5999404296875,-0.007160186767578125,-0.004853874444961548,-0.017699293792247772
1700856934723934500,8.6169345703125,-0.021511077880859375,0.008786052465438843,-0.003321199445053935
1700856934740927000,8.633927001953126,-0.011941909790039062,-0.0007507503032684326,-0.003308536484837532
1700856934757921000,8.650921142578126,-0.016729354858398438,-0.015074342489242554,0.0015129412058740854
1700856934774914600,8.66791455078125,-0.011945724487304688,-0.0102461576461792,0.006281155161559582
1700856934791908400,8.684908447265625,-0.0119476318359375,0.004750639200210571,-0.013374701142311096
1700856934808901400,8.7019013671875,-0.02152252197265625,-0.0005494654178619385,-0.012730594724416733
1700856934825892600,8.718892578125,-0.011946678161621094,-0.00484052300453186,-0.013280963525176048
1700856934842891000,8.73589111328125,-0.011942863464355469,0.0046617984771728516,-0.013134253211319447
1700856934859882200,8.75288232421875,-0.011942863464355469,-0.00013339519500732422,-0.017218727618455887
1700856934876873000,8.769873046875,-0.007152557373046875,-0.00023564696311950684,-0.012392168864607811
1700856934893861000,8.786861083984375,-0.011941909790039062,-0.000766456127166748,-0.012349868193268776
1700856934910862800,8.80386279296875,-0.016725540161132812,-0.0008089244365692139,-0.01709100231528282
1700856934927856600,8.820856689453125,-0.011939048767089844,-0.0002199113368988037,-0.012207981199026108
1700856934944849700,8.837849609375,-0.011937141418457031,-0.009834647178649902,-0.012051623314619064
1700856934961843500,8.854843505859375,-0.007157325744628906,-0.019296646118164062,-0.017438232898712158
1700856934978836700,8.871836669921874,-0.016730308532714844,-0.010272800922393799,-0.0024637598544359207
1700856934995831000,8.8888310546875,-0.0071620941162109375,-0.0048139095306396484,-0.01677854172885418
1700856935012823000,8.905822998046874,-0.0071620941162109375,0.004748135805130005,-0.011891921050846577
1700856935029817000,8.922817138671874,-0.011949539184570312,-0.0006026625633239746,-0.007124749943614006
1700856935046810600,8.939810546875,-0.01673603057861328,0.004207432270050049,-0.0118697015568614
1700856935063802400,8.95680224609375,-0.0119476318359375,-0.004826277494430542,-0.016590790823101997
1700856935080800000,8.973800048828124,-0.01673412322998047,-0.01018562912940979,0.002523047849535942
1700856935097791500,8.99079150390625,-0.007161140441894531,-0.019799858331680298,0.007291846442967653
1700856935114785000,9.007784912109376,-0.021513938903808594,-0.00551527738571167,0.007261733058840036
1700856935131778600,9.024778564453126,-0.01672840118408203,0.00882062315940857,-0.002322714077308774
1700856935148771600,9.041771484375,-0.011939048767089844,0.01831984519958496,-0.0023203021846711636
1700856935165765400,9.058765380859375,-0.016725540161132812,0.003976225852966309,-0.007150568999350071
1700856935182759000,9.075759033203125,-0.016729354858398438,-0.019257009029388428,-0.02146969921886921
1700856935199753000,9.0927529296875,-0.007166862487792969,-0.04778125882148743,-0.012501529417932034
1700856935216745500,9.109745361328125,-0.016747474670410156,-0.04338788986206055,-0.0077447365038096905
1700856935233738200,9.12673828125,-0.011965751647949219,-0.005014270544052124,0.0023670184891670942
1700856935250734300,9.143734375,-0.01674938201904297,0.03800022602081299,0.0070792268961668015
1700856935267710200,9.160710205078125,-0.011958122253417969,0.047447651624679565,0.011820890009403229
1700856935284709000,9.177709228515624,-0.0071697235107421875,0.01867854595184326,-0.007331503555178642
1700856935301713700,9.194713623046875,-0.016742706298828125,-0.03810665011405945,-0.026517756283283234
1700856935318707000,9.21170703125,-0.016753196716308594,-0.07137590646743774,-0.022343819960951805
1700856935335700700,9.22870068359375,-0.011975288391113281,-0.037714242935180664,-0.017546314746141434
1700856935352694000,9.245694091796874,-0.01676177978515625,0.02869674563407898,-0.007343161851167679
1700856935369687800,9.262687744140624,-0.007180213928222656,0.0763191282749176,0.002103692851960659
1700856935386681300,9.279681396484374,-0.026307106018066406,0.07600736618041992,-0.0026444937102496624
1700856935403675000,9.2966748046875,-0.01673126220703125,0.01845651865005493,-0.012195026502013206
1700856935420668200,9.313668212890626,-0.0071697235107421875,-0.05250701308250427,-0.017582258209586143
1700856935437661400,9.330661376953126,-0.016756057739257812,-0.08089682459831238,-0.0222989059984684
1700856935454655200,9.3476552734375,-0.01198577880859375,-0.056636542081832886,-0.012741155922412872
1700856935471646500,9.364646484375,-0.007203102111816406,0.009842276573181152,0.006979970261454582
1700856935488644900,9.381644775390624,-0.011981010437011719,0.05274558067321777,0.011598567478358746
1700856935505635800,9.3986357421875,-0.021547317504882812,0.03349289298057556,0.006769689731299877
1700856935522629600,9.415629638671875,-0.0071926116943359375,-0.014327824115753174,-0.0034053432755172253
1700856935539623000,9.432622802734375,-0.016768455505371094,-0.05190306901931763,-0.02248448133468628
1700856935556616200,9.4496162109375,-0.0024232864379882812,-0.05642503499984741,-0.02236200124025345
1700856935573609700,9.466609619140625,-0.01200103759765625,-0.0138167142868042,-0.007330717984586954
1700856935590603500,9.483603515625,-0.011999130249023438,0.04355171322822571,0.011770220473408699
1700856935607598800,9.500598876953125,-0.007205963134765625,0.05775526165962219,0.016430899500846863
1700856935624588500,9.517588623046874,-0.02155303955078125,0.033614933490753174,0.0021021943539381027
1700856935641584000,9.534584228515625,-0.011982917785644531,-0.02319645881652832,-0.012824879959225655
1700856935658577400,9.551577392578125,-0.007205009460449219,-0.051748037338256836,-0.022324614226818085
1700856935675559200,9.56855908203125,-0.011997222900390625,-0.03245338797569275,-0.026479987427592278
1700856935692564500,9.585564453125,-0.016782760620117188,0.029169857501983643,-0.01209251768887043
1700856935709558000,9.60255810546875,-0.01677227020263672,0.06244775652885437,0.0022692056372761726
1700856935726551600,9.619551513671874,-0.011981964111328125,0.03839355707168579,0.007072301581501961
1700856935743545600,9.636545654296874,-0.00719451904296875,-0.023859530687332153,0.0016489814734086394
1700856935760538400,9.653538330078124,-0.02155590057373047,-0.05724629759788513,-0.007817717269062996
1700856935777532200,9.6705322265625,-0.0024271011352539062,-0.07071521878242493,-0.0125711839646101
1700856935794525400,9.687525390625,-0.012003898620605469,-0.02332797646522522,0.0018243248341605067
1700856935811519700,9.704519775390626,-0.007214546203613281,0.034006863832473755,0.016653714701533318
1700856935828512800,9.7215126953125,-0.016778945922851562,0.05300477147102356,0.016522299498319626
1700856935845506300,9.73850634765625,-0.016778945922851562,0.014719069004058838,-0.0027039709966629744
1700856935862499600,9.75549951171875,-0.03113842010498047,-0.03306165337562561,-0.026570692658424377
1700856935879490000,9.772489990234375,-0.0030260086059570312,-0.032404422760009766,-0.041353777050971985
1700856935896476400,9.789476318359375,-0.003025054931640625,-0.003707408905029297,-0.03168642893433571
1700856935913477600,9.8064775390625,-0.016786575317382812,-0.004255563020706177,0.00244358042255044
1700856935930476500,9.8234765625,-0.011407852172851562,-0.02328646183013916,0.020864762365818024
1700856935947467800,9.8404677734375,-0.030554771423339844,-0.013606250286102295,0.030956365168094635
1700856935964460500,9.85746044921875,-0.016786575317382812,0.03402787446975708,0.0070676421746611595
1700856935981457400,9.87445751953125,-0.0077972412109375,0.05342736840248108,-0.021546388044953346
1700856935998442500,9.8914423828125,0.00177764892578125,-0.004099607467651367,-0.03091803379356861
1700856936015444500,9.908444580078125,-0.011988639831542969,-0.06135678291320801,-0.021909207105636597
1700856936032434700,9.9254345703125,-0.012002944946289062,-0.07539808750152588,-0.021874725818634033
1700856936049428500,9.942428466796875,-0.016793251037597656,-0.01846688985824585,-0.006988528184592724
1700856936066419500,9.95941943359375,-0.021570205688476562,0.04357466101646423,0.007383775431662798
1700856936083418000,9.976418212890625,-0.011989593505859375,0.08641427755355835,0.02165844850242138
1700856936100408800,9.993408935546874,-0.0024089813232421875,0.043140262365341187,0.007300069089978933
1700856936117402600,10.010402587890624,-0.011982917785644531,-0.047119319438934326,-0.022074170410633087
1700856936134396200,10.027396240234374,-0.011996269226074219,-0.1090414822101593,-0.02687295526266098
1700856936151391500,10.0443916015625,-0.012009620666503906,-0.08004546165466309,-0.017235171049833298
1700856936168381200,10.061381103515625,-0.02217578887939453,0.04372125864028931,-0.011818940751254559
1700856936185364700,10.07836474609375,-0.01258087158203125,0.11019963026046753,0.00267439940944314
1700856936202371800,10.095371826171874,-0.03589820861816406,0.07164725661277771,0.007478226441890001
1700856936219364000,10.112364013671876,-0.08315658569335938,-0.02885696291923523,0.00740455137565732
1700856936236357000,10.129357177734375,0.0358734130859375,-0.09974759817123413,-0.02668924257159233
1700856936253351000,10.146350830078125,-0.0311431884765625,-0.07065099477767944,-0.03562220185995102
1700856936270344200,10.16334423828125,-0.026956558227539062,0.019696325063705444,-0.021225832402706146
1700856936287338200,10.180338134765625,0.011338233947753906,0.08706936240196228,-0.011572498828172684
1700856936304331000,10.1973310546875,-0.040688514709472656,0.09089639782905579,0.01282247994095087
1700856936321324500,10.214324462890625,0.0023899078369140625,0.009374409914016724,0.007296049036085606
1700856936338318300,10.231318359375,-0.011378288269042969,-0.08135354518890381,0.011485973373055458
1700856936355311900,10.248311767578125,-0.020959854125976562,-0.10506278276443481,0.006621299311518669
1700856936372305000,10.265304931640625,0.007143974304199219,-0.04676976799964905,-0.017294391989707947
1700856936389296600,10.282296630859374,-0.022165298461914062,0.029141128063201904,-0.01665516570210457
1700856936406295000,10.299294921875,-0.022157669067382812,0.0576995313167572,-0.016573121771216393
1700856936423275500,10.316275634765624,-0.0030078887939453125,0.0389842689037323,-0.021296346560120583
1700856936440279000,10.333279052734374,-0.01676654815673828,0.00009211897850036621,-0.0021305782720446587
1700856936457272800,10.35027294921875,-0.0024156570434570312,-0.03326800465583801,0.002100642304867506
1700856936474256100,10.367256103515626,-0.0113983154296875,-0.05222925543785095,0.01644367352128029
1700856936491260400,10.384260498046874,0.0029516220092773438,-0.028127282857894897,0.021080944687128067
1700856936508242700,10.40124267578125,-0.00243377685546875,0.015575379133224487,-0.0070393807254731655
1700856936525247000,10.4182470703125,-0.007807731628417969,0.04885992407798767,-0.021292289718985558
1700856936542240800,10.43524072265625,-0.0077991485595703125,0.03912472724914551,-0.021107390522956848
1700856936559223800,10.452223876953125,-0.011986732482910156,-0.003972083330154419,-0.011391106992959976
1700856936576227300,10.469227294921875,-0.025754928588867188,-0.05222025513648987,0.0117964968085289
1700856936593221000,10.48622119140625,-0.0161895751953125,-0.05686628818511963,0.026105649769306183
1700856936610214700,10.503214599609375,-0.01619243621826172,-0.023305416107177734,0.017048219218850136
1700856936627208400,10.52020849609375,-0.007212638854980469,0.024389177560806274,-0.002068396657705307
1700856936644201500,10.537201416015625,-0.012584686279296875,0.058246493339538574,-0.016396114602684975
1700856936661195300,10.5541953125,-0.017364501953125,0.019849061965942383,-0.03052923083305359
1700856936678177800,10.571177734375,-0.0167694091796875,-0.03754395246505737,-0.021428273990750313
1700856936695182600,10.5881826171875,-0.01677989959716797,-0.05226689577102661,-0.00696868309751153
1700856936712173000,10.605173095703124,-0.0072116851806640625,-0.004339843988418579,0.007916073314845562
1700856936729172000,10.622171875,-0.0215606689453125,0.043353527784347534,0.012704751454293728
1700856936746163000,10.639162841796875,-0.0024099349975585938,0.05273810029029846,0.012696821242570877
1700856936763156500,10.656156494140625,-0.007185935974121094,0.019632667303085327,-0.006401924416422844
1700856936780149500,10.6731494140625,-0.016759872436523438,-0.04252716898918152,-0.02606344409286976
1700856936797143600,10.6901435546875,-0.002414703369140625,-0.06140178442001343,-0.016485191881656647
1700856936814136800,10.70713671875,-0.01677989959716797,-0.037302225828170776,-0.021246662363409996
1700856936831130600,10.724130615234374,-0.0215606689453125,0.033772677183151245,-0.011000586673617363
1700856936848125200,10.741125244140624,-0.021544456481933594,0.07170718908309937,0.008097556419670582
1700856936865117700,10.75811767578125,-0.011967658996582031,0.061998188495635986,0.017658686265349388
1700856936882110700,10.77511083984375,-0.0071811676025390625,-0.014576762914657593,0.008180202916264534
1700856936899104500,10.7921044921875,-0.011975288391113281,-0.06642818450927734,-0.01628609374165535
1700856936916097800,10.809097900390626,-0.0072040557861328125,-0.08526811003684998,-0.020961573347449303
1700856936933091600,10.826091552734376,-0.011994361877441406,-0.04206705093383789,-0.02561388537287712
1700856936950084900,10.8430849609375,-0.016776084899902344,0.029025256633758545,-0.010714657604694366
1700856936967078700,10.86007861328125,-0.02155303955078125,0.06232687830924988,0.0036312779411673546
1700856936984071700,10.87707177734375,-0.007187843322753906,0.042996615171432495,0.01314839068800211
1700856937001051400,10.894051513671876,-0.02632904052734375,-0.024034470319747925,0.0035624271258711815
1700856937018059000,10.91105908203125,-0.01676177978515625,-0.05745229125022888,-0.011334278620779514
1700856937035052800,10.928052734375,-0.011983871459960938,-0.042323142290115356,-0.011257698759436607
1700856937052046000,10.945046142578125,-0.016771316528320312,0.0001856982707977295,-0.01058830227702856
1700856937069039600,10.96203955078125,-0.01735973358154297,0.03348112106323242,-0.015388073399662971
1700856937086033200,10.979033203125,-0.022134780883789062,0.04283010959625244,-0.015281196683645248
1700856937103027200,10.996027099609375,-0.002391815185546875,0.024217963218688965,-0.010456977412104607
1700856937120020000,11.01302001953125,-0.02153301239013672,-0.019464761018753052,-0.0008202171302400529
1700856937137013500,11.030013427734374,-0.011972427368164062,-0.04796808958053589,0.003399199340492487
1700856937154007600,11.047007568359374,-0.011977195739746094,-0.028700977563858032,0.003962614107877016
1700856937170998500,11.06399853515625,-0.011979103088378906,0.01918354630470276,0.008593711070716381
1700856937187997000,11.080996826171875,-0.01675891876220703,0.038206636905670166,-0.0010041851783171296
1700856937204988000,11.09798779296875,-0.007777214050292969,0.029063314199447632,-0.015280320309102535
1700856937221981200,11.114981201171876,-0.02212810516357422,0.00021389126777648926,-0.029562266543507576
1700856937238975200,11.131975341796876,-0.0029878616333007812,-0.014105886220932007,-0.02940632775425911
1700856937255968300,11.14896826171875,-0.011962890625,-0.014657676219940186,-0.010274946689605713
1700856937272962000,11.165962158203126,-0.021532058715820312,-0.00033989548683166504,0.008749685250222683
1700856937289955600,11.18295556640625,-0.011958122253417969,0.02353072166442871,0.018283717334270477
1700856937306949400,11.199949462890626,-0.01195526123046875,0.03303492069244385,0.008639683946967125
1700856937323939800,11.21693994140625,-0.011948585510253906,0.0089493989944458,-0.005711678881198168
1700856937340938500,11.2339384765625,-0.007164955139160156,-0.023897260427474976,-0.024734867736697197
1700856937357929700,11.2509296875,-0.01195526123046875,-0.03816390037536621,-0.024600965902209282
1700856937374923500,11.267923583984375,-0.011958122253417969,-0.014155566692352295,-0.010204597376286983
1700856937391916500,11.28491650390625,-0.01195526123046875,0.00910136103630066,-0.0005930528277531266
1700856937408910300,11.301910400390625,-0.01673603057861328,0.028144389390945435,0.018489211797714233
1700856937425903600,11.318903564453125,-0.016732215881347656,0.004125863313674927,0.01840471848845482
1700856937442897400,11.3358974609375,-0.021521568298339844,-0.019729584455490112,-0.0007503429078496993
1700856937459890700,11.352890625,-0.007168769836425781,-0.03338974714279175,-0.019892850890755653
1700856937476884200,11.36988427734375,-0.007170677185058594,-0.023771315813064575,-0.024756228551268578
1700856937493877500,11.38687744140625,-0.007770538330078125,0.009764254093170166,-0.02001231722533703
1700856937510871600,11.40387158203125,-0.026906967163085938,0.03775227069854736,-0.015135838650166988
1700856937527864600,11.420864501953124,-0.007164955139160156,0.01856088638305664,0.004102837760001421
1700856937544858400,11.4378583984375,-0.011948585510253906,-0.01975315809249878,0.004119520541280508
1700856937561852000,11.454851806640624,-0.016742706298828125,-0.03812205791473389,-0.019726533442735672
1700856937578846000,11.471845947265624,-0.0029916763305664062,-0.03316125273704529,-0.029815394431352615
1700856937595836000,11.4888359375,-0.011968612670898438,-0.02351081371307373,-0.024357995018363
1700856937612834800,11.505834716796874,-0.011968612670898438,-0.014517396688461304,-0.0004125931009184569
1700856937629836300,11.522836181640624,-0.007184028625488281,-0.00014826655387878418,0.009015989489853382
1700856937646819600,11.539819580078126,-0.0071811676025390625,0.02370518445968628,0.008955507539212704
1700856937663812900,11.556812744140625,-0.011962890625,0.03320923447608948,-0.0006413654191419482
1700856937680806700,11.573806640625,-0.012556076049804688,0.01934036612510681,-0.019695580005645752
1700856937697800000,11.590800048828125,-0.0215301513671875,0.004395186901092529,-0.019575364887714386
1700856937714794000,11.6077939453125,-0.01674652099609375,-0.029041290283203125,-0.0147837083786726
1700856937731786500,11.624786376953125,-0.007182121276855469,-0.038479000329971313,0.0037020486779510975
1700856937748780500,11.641780517578125,-0.0161590576171875,-0.014477968215942383,0.028089461848139763
1700856937765774300,11.6587744140625,-0.01615428924560547,0.01892152428627014,0.023138269782066345
1700856937782768000,11.67576806640625,-0.011962890625,0.03320148587226868,0.004030386917293072
1700856937799760600,11.6927607421875,-0.01674175262451172,0.018692821264266968,-0.005546769127249718
1700856937816754400,11.70975439453125,-0.011960029602050781,-0.01891481876373291,-0.024576736614108086
1700856937833737500,11.726737548828124,-0.011964797973632812,-0.042752236127853394,-0.025045499205589294
1700856937850735600,11.743735595703125,-0.007183074951171875,-0.02828928828239441,-0.005934420041739941
1700856937867735000,11.760735107421874,-0.0024003982543945312,0.00466647744178772,0.004261699039489031
1700856937884728800,11.777728759765624,-0.011965751647949219,0.028459638357162476,0.004284137859940529
1700856937901722400,11.794722412109374,-0.011962890625,0.023633211851119995,-0.0004878394538536668
1700856937918716000,11.8117158203125,0.002399444580078125,0.00017946958541870117,-0.015468799509108067
1700856937935709000,11.828708984375,-0.016748428344726562,-0.028412282466888428,-0.01964586041867733
1700856937952703000,11.845702880859376,-0.0071868896484375,-0.05693310499191284,-0.020167484879493713
1700856937969696300,11.8626962890625,-0.011979103088378906,-0.03345334529876709,-0.0009572419221512973
1700856937986690000,11.87968994140625,-0.016760826110839844,0.04303160309791565,-0.005145174916833639
1700856938003682800,11.896682861328125,-0.012560844421386719,0.07625532150268555,-0.005145631730556488
1700856938020667000,11.9136669921875,-0.0071697235107421875,0.047379136085510254,-0.005089059937745333
1700856938037670100,11.930670166015625,-0.0023889541625976562,-0.03805801272392273,-0.0008591182995587587
1700856938054654200,11.947654296875,-0.011374473571777344,-0.08623921871185303,0.022945310920476913
1700856938071657200,11.9646572265625,-0.006604194641113281,-0.07153204083442688,0.02284194342792034
1700856938088651000,11.981651123046875,-0.016776084899902344,-0.004486799240112305,0.009069344960153103
1700856938105645000,11.99864501953125,-0.012571334838867188,0.09623885154724121,-0.014740384183824062
1700856938122638000,12.01563818359375,-0.0227203369140625,0.11012664437294006,-0.03795906901359558
1700856938139631000,12.032631103515625,-0.007755279541015625,0.023796170949935913,-0.04312271624803543
1700856938156625200,12.049625244140625,-0.0023832321166992188,-0.07645732164382935,-0.019701242446899414
1700856938173618400,12.066618408203125,-0.020348548889160156,-0.1149367094039917,0.02330884337425232
1700856938190612500,12.083612548828125,-0.0059967041015625,-0.0573543906211853,0.04697217419743538
1700856938207605500,12.10060546875,-0.016165733337402344,0.009595870971679688,0.023453086614608765
1700856938224599600,12.117599609375,-0.021535873413085938,0.06672391295433044,-0.00046397550613619387
1700856938241590000,12.134590087890626,-0.013148307800292969,0.06706246733665466,-0.04814121127128601
1700856938258589000,12.1515888671875,-0.008358001708984375,0.014309495687484741,-0.062238819897174835
1700856938275579400,12.168579345703124,-0.012552261352539062,-0.04774594306945801,-0.052971843630075455
1700856938292573400,12.185573486328124,-0.011965751647949219,-0.057063668966293335,-0.009776471182703972
1700856938309567000,12.20256689453125,-0.020948410034179688,-0.028732985258102417,0.029027393087744713
1700856938326560800,12.219560791015626,-0.011374473571777344,0.03819471597671509,0.04807320237159729
1700856938343553800,12.2365537109375,-0.011965751647949219,0.061963796615600586,0.02889283373951912
1700856938360547600,12.253547607421876,-0.011964797973632812,0.019477367401123047,-0.014134996570646763
1700856938377540900,12.270540771484375,-0.0071849822998046875,-0.047392696142196655,-0.02412726730108261
1700856938394535000,12.287534912109376,-0.007195472717285156,-0.05673989653587341,-0.03348834812641144
1700856938411517200,12.30451708984375,-0.007198333740234375,-0.018378019332885742,-0.01851639710366726
1700856938428511000,12.321510986328125,-0.007195472717285156,0.033594101667404175,0.019761856645345688
1700856938445514800,12.3385146484375,-0.011976242065429688,0.04306641221046448,0.02921205572783947
1700856938462498300,12.355498291015625,-0.0023984909057617188,0.019588232040405273,-0.0044243959710001945
1700856938479502000,12.372502197265625,-0.017355918884277344,-0.009061485528945923,-0.0282298494130373
1700856938496495400,12.389495361328125,-0.007793426513671875,-0.05196070671081543,-0.03348315879702568
1700856938513489000,12.406489013671875,-0.01677227020263672,-0.042252957820892334,-0.01904841884970665
1700856938530482700,12.423482666015625,-0.01198577880859375,0.0241357684135437,-0.004127887077629566
1700856938547476000,12.44047607421875,-0.016757965087890625,0.06690210103988647,0.005462479777634144
1700856938564469500,12.457469482421875,-0.016753196716308594,0.028509914875030518,0.010146530345082283
1700856938581463000,12.474463134765625,-0.011971473693847656,-0.02403891086578369,0.0005969469784758985
1700856938598456800,12.491456787109374,-0.00719451904296875,-0.05675005912780762,-0.009560507722198963
1700856938615449900,12.508449951171874,-0.0167694091796875,-0.03812682628631592,-0.004216472618281841
1700856938632443600,12.525443603515624,-0.02155780792236328,-0.004561305046081543,0.0004338827566243708
1700856938649437200,12.542437255859374,-0.011980056762695312,0.038360923528671265,0.00046900258166715503
1700856938666431000,12.559430908203124,-0.0071868896484375,0.05254200100898743,-0.00427066907286644
1700856938683423700,12.576423828125,-0.021538734436035156,0.014158755540847778,-0.00421612523496151
1700856938700417800,12.593417724609376,-0.016759872436523438,-0.03832906484603882,0.0006109438254497945
1700856938717411300,12.610411376953126,-0.0066013336181640625,-0.05244418978691101,0.004760449752211571
1700856938734405000,12.627405029296876,-0.011988639831542969,-0.018883436918258667,0.005319150164723396
1700856938751398000,12.64439794921875,-0.0072002410888671875,0.014545649290084839,0.0005152869853191078
1700856938768392000,12.661391845703125,-0.016768455505371094,0.024053245782852173,-0.009039118885993958
1700856938785385700,12.6783857421875,-0.017362594604492188,0.019800245761871338,-0.02327394112944603
1700856938802381000,12.695381103515626,-0.017355918884277344,0.010070323944091797,-0.023211630061268806
1700856938819372000,12.7123720703125,-0.0071887969970703125,-0.019191205501556396,0.0007768584764562547
1700856938836366300,12.729366455078125,-0.011383056640625,-0.038195669651031494,0.019843535497784615
1700856938853359600,12.746359619140625,-0.0167694091796875,-0.023769110441207886,0.010159997269511223
1700856938870350600,12.7633505859375,-0.007198333740234375,0.010334670543670654,-0.008983680047094822
1700856938887349200,12.780349365234375,-0.012576103210449219,0.038931190967559814,-0.032732654362916946
1700856938904340000,12.797340087890625,-0.012571334838867188,0.029243528842926025,-0.046904779970645905
1700856938921333500,12.81433349609375,-0.0029993057250976562,0.005285590887069702,-0.02759319730103016
1700856938938327600,12.83132763671875,-0.011976242065429688,-0.014353573322296143,0.0058906422927975655
1700856938955320300,12.8483203125,-0.011384963989257812,-0.02858966588973999,0.024837324395775795
1700856938972311600,12.8653115234375,-0.016175270080566406,-0.028470009565353394,0.02954719215631485
1700856938989310500,12.882310546875,-0.016178131103515625,-0.009260028600692749,0.015100812539458275
1700856939006301700,12.8993017578125,-0.012584686279296875,0.015177100896835327,-0.023219086229801178
1700856939023294500,12.91629443359375,-0.017362594604492188,0.03415903449058533,-0.04218114912509918
1700856939040288300,12.933288330078126,-0.022147178649902344,0.015001803636550903,-0.027808668091893196
1700856939057281500,12.950281494140626,-0.02155017852783203,-0.004725039005279541,0.0009652850567363203
1700856939074277000,12.967277099609374,-0.016175270080566406,-0.02368137240409851,0.02470894157886505
1700856939091267300,12.984267333984375,-0.01617908477783203,-0.018819838762283325,0.024590956047177315
1700856939108254500,13.00125439453125,-0.016185760498046875,-0.013874202966690063,0.0148317851126194
1700856939125255700,13.018255615234375,-0.017381668090820312,-0.0037258267402648926,-0.02812299132347107
1700856939142249500,13.03524951171875,-0.012597084045410156,0.015435874462127686,-0.04233206436038017
1700856939159243000,13.052242919921875,-0.022165298461914062,0.0297410786151886,-0.032586731016635895
1700856939176236300,13.069236328125,-0.00720977783203125,0.005790412425994873,-0.0038398022297769785
1700856939193222700,13.08622265625,-0.011403083801269531,-0.023395270109176636,0.024202773347496986
1700856939210223900,13.103223876953125,-0.011411666870117188,-0.01842474937438965,0.02463669143617153
1700856939227216600,13.120216552734375,-0.021581649780273438,0.0007392764091491699,0.01026351097971201
1700856939244210400,13.13721044921875,-0.012012481689453125,0.0007941722869873047,0.005452466197311878
1700856939261204200,13.154204345703125,-0.012017250061035156,-0.012876659631729126,-0.008832931518554688
1700856939278197800,13.17119775390625,-0.007233619689941406,-0.008045017719268799,-0.008856668137013912
1700856939295180300,13.18818017578125,-0.02637767791748047,0.0057659149169921875,-0.004063659347593784
1700856939312184800,13.205184814453125,-0.0024480819702148438,0.01589488983154297,0.0007185142603702843
1700856939329177900,13.222177734375,-0.0024480819702148438,0.01529797911643982,0.010286497883498669
1700856939346172000,13.239171875,-0.02158832550048828,0.010471761226654053,0.010184044018387794
1700856939363165000,13.2561650390625,-0.007236480712890625,-0.017537444829940796,-0.004195916000753641
1700856939380158700,13.27315869140625,-0.007843017578125,-0.01737380027770996,-0.028147824108600616
1700856939397152500,13.290152587890624,-0.055703163146972656,-0.03701752424240112,-0.047361575067043304
1700856939414146000,13.30714599609375,0.06394004821777344,0.016173869371414185,-0.04272349923849106
1700856939431138800,13.324138916015626,-0.13645362854003906,0.04895073175430298,0.006746855564415455
1700856939448132600,13.341132568359376,0.03583335876464844,0.030332446098327637,0.024062074720859528
1700856939465126700,13.358126708984376,-0.03476238250732422,-0.03231620788574219,0.04359088093042374
1700856939482120200,13.3751201171875,-0.05391979217529297,-0.08461517095565796,0.02908467687666416
1700856939499102500,13.3921025390625,0.02622699737548828,-0.03588956594467163,-0.014501925557851791
1700856939516106800,13.409106689453125,-0.03658294677734375,0.049614667892456055,-0.03768324851989746
1700856939533100500,13.4261005859375,-0.0030727386474609375,0.06433424353599548,-0.03282460197806358
1700856939550092500,13.443092529296875,0.0017156600952148438,0.01642325520515442,-0.018283549696207047
1700856939567088600,13.460088623046875,-0.03059101104736328,-0.027175575494766235,0.01035819947719574
1700856939584081000,13.477080810546875,0.0076923370361328125,-0.017565101385116577,0.02407943271100521
1700856939601063700,13.494063720703124,-0.021623611450195312,-0.017486006021499634,0.010304276831448078
1700856939618068500,13.511068359375,-0.026414871215820312,-0.02213338017463684,-0.004162934143096209
1700856939635061000,13.52806103515625,-0.003082275390625,0.016681790351867676,-0.028042007237672806
1700856939652055000,13.545054931640625,-0.027006149291992188,0.04531225562095642,-0.028059128671884537
1700856939669048800,13.562048828125,-0.02700042724609375,0.03022521734237671,-0.01367717795073986
1700856939686042600,13.579042724609375,-0.012042045593261719,-0.022482365369796753,0.005466828588396311
1700856939703035600,13.59603564453125,-0.006664276123046875,-0.0319291353225708,0.01910441368818283
1700856939720029200,13.613029296875,-0.006667137145996094,-0.012714922428131104,0.01972438022494316
1700856939737022700,13.630022705078124,-0.01684093475341797,-0.007843464612960815,0.005327317863702774
1700856939754016800,13.647016845703124,-0.016843795776367188,-0.012584000825881958,-0.009085293859243393
1700856939771009500,13.664009521484376,-0.012651443481445312,0.007062673568725586,-0.023443162441253662
1700856939788003600,13.681003662109376,-0.017429351806640625,0.02125537395477295,-0.018579237163066864
1700856939804996900,13.697996826171876,-0.012044906616210938,0.0020873844623565674,-0.01374164316803217
1700856939821990400,13.714990478515626,0.00231170654296875,-0.026606380939483643,0.00000879121944308281
1700856939838983400,13.7319833984375,-0.0216217041015625,-0.007957547903060913,0.005314691457897425
1700856939855977500,13.7489775390625,-0.0024747848510742188,0.016476064920425415,0.0005085078882984817
1700856939872970800,13.765970703125,-0.012045860290527344,0.006315290927886963,0.005267529748380184
1700856939889964800,13.78296484375,-0.03119373321533203,-0.022289574146270752,-0.004309461452066898
1700856939906957800,13.799957763671875,-0.007271766662597656,-0.026335150003433228,-0.01911129616200924
1700856939923942000,13.81694189453125,-0.012056350708007812,0.007149308919906616,-0.013670599088072777
1700856939940945000,13.83394482421875,-0.0072650909423828125,0.01178431510925293,-0.004020207095891237
1700856939957938700,13.850938720703125,-0.007264137268066406,0.0015947520732879639,0.015128732658922672
1700856939974932000,13.867931884765625,-0.012050628662109375,-0.007953941822052002,0.005528315901756287
1700856939991925500,13.884925537109375,-0.012045860290527344,0.011696219444274902,-0.01359308697283268
1700856940008919300,13.901919189453125,-0.0030698776245117188,0.016408056020736694,-0.023114530369639397
1700856940025912800,13.918912841796875,-0.00725555419921875,0.002011805772781372,-0.008767571300268173
1700856940042906000,13.935906005859374,-0.01682758331298828,-0.012919574975967407,0.015117824077606201
1700856940059900000,13.95289990234375,-0.011447906494140625,-0.02719166874885559,0.019314948469400406
1700856940076893400,13.9698935546875,-0.02102184295654297,-0.017545044422149658,0.015106312930583954
1700856940093887000,13.986886962890624,-0.02161693572998047,0.006294816732406616,-0.003990660421550274
1700856940110880000,14.0038798828125,0.0017185211181640625,0.016357630491256714,-0.027847515419125557
1700856940127874000,14.0208740234375,-0.01742076873779297,-0.0028568506240844727,-0.027793793007731438
1700856940144867300,14.037867431640626,-0.012635231018066406,-0.007629215717315674,-0.04206225275993347
1700856940161861000,14.054861083984376,-0.01741790771484375,0.030580490827560425,-0.022824471816420555
1700856940178854100,14.071854248046876,-0.012030601501464844,0.034676700830459595,0.005892287008464336
1700856940195839200,14.088839111328125,-0.0114288330078125,0.0058997273445129395,0.024965103715658188
1700856940212839700,14.105839599609375,-0.021007537841796875,-0.03702598810195923,0.03441409766674042
1700856940229835300,14.122835205078125,-0.007251739501953125,-0.04174846410751343,0.005705943331122398
1700856940246828300,14.139828369140625,-0.012037277221679688,-0.013018101453781128,-0.00386642524972558
1700856940263816400,14.15681640625,-0.021610260009765625,0.010939270257949829,-0.01822248287498951
1700856940280815400,14.1738154296875,-0.007847785949707031,0.025810569524765015,-0.018208706751465797
1700856940297809400,14.190809326171875,-0.016819000244140625,0.010817736387252808,0.005722479894757271
1700856940314802400,14.207802490234375,-0.007244110107421875,0.0011767148971557617,0.010566506534814835
1700856940331796200,14.224796142578125,-0.01203155517578125,0.0012175142765045166,0.0057905083522200584
1700856940348789800,14.241789794921875,-0.016817092895507812,-0.0035701990127563477,-0.008623163215816021
1700856940365783300,14.258783203125,-0.017421722412109375,-0.012419402599334717,-0.022913331165909767
1700856940382776300,14.2757763671875,-0.01681995391845703,-0.012481868267059326,-0.018067587167024612
1700856940399770400,14.292770263671875,-0.012037277221679688,-0.017806142568588257,0.0004861067282035947
1700856940416764000,14.309763916015624,-0.011443138122558594,-0.02251535654067993,0.014866888523101807
1700856940433757700,14.3267578125,-0.007252693176269531,0.010930359363555908,0.010628907009959221
1700856940450750700,14.343750732421874,-0.007245063781738281,0.05384176969528198,-0.003904030192643404
1700856940467744300,14.360744140625,-0.017406463623046875,0.05426749587059021,-0.02765740640461445
1700856940484738000,14.377738037109374,-0.007831573486328125,0.01109844446182251,-0.04193277284502983
1700856940501731800,14.39473193359375,-0.007241249084472656,-0.05092746019363403,-0.032834939658641815
1700856940518724900,14.411724853515626,-0.007254600524902344,-0.06500864028930664,-0.008859006687998772
1700856940535718400,14.428718505859376,-0.011446952819824219,-0.03677895665168762,0.024622969329357147
1700856940552714200,14.44571435546875,-0.011442184448242188,0.006196111440658569,0.03937981650233269
1700856940569693000,14.46269287109375,-0.016816139221191406,0.04424586892127991,0.010600493289530277
1700856940586698500,14.479698486328125,-0.022192955017089844,0.0495012104511261,-0.022759677842259407
1700856940603692500,14.496692626953125,-0.04133415222167969,0.020133286714553833,-0.03701907768845558
1700856940620685800,14.513685791015625,0.035231590270996094,-0.022245585918426514,-0.027937304228544235
1700856940637678300,14.53067822265625,-0.030577659606933594,-0.05139508843421936,0.020424602553248405
1700856940654674400,14.54767431640625,-0.01622772216796875,-0.032120704650878906,0.039423104375600815
1700856940671667000,14.5646669921875,0.0023250579833984375,0.020382225513458252,0.024934351444244385
1700856940688668700,14.581668701171875,-0.026383399963378906,0.02982795238494873,-0.003915742971003056
1700856940705654000,14.598654052734375,-0.0030450820922851562,0.0015144050121307373,-0.03258488327264786
1700856940722647000,14.61564697265625,-0.007836341857910156,-0.027072668075561523,-0.04206091910600662
1700856940739640600,14.632640625,-0.016815185546875,-0.017374306917190552,-0.018104754388332367
1700856940756634000,14.649634033203125,-0.007244110107421875,0.0011765658855438232,0.005828478839248419
1700856940773628200,14.666628173828125,-0.0072422027587890625,0.02025628089904785,0.020113622769713402
1700856940790618000,14.6836181640625,-0.02099609375,0.015389293432235718,0.024743568152189255
1700856940807617300,14.7006171875,-0.012022972106933594,0.015386462211608887,-0.0039910078048706055
1700856940824605000,14.71760498046875,-0.007839202880859375,-0.00787857174873352,-0.023028960451483727
1700856940841602000,14.73460205078125,-0.017408370971679688,-0.017493337392807007,-0.02778621017932892
1700856940858593800,14.75159375,-0.012029647827148438,-0.01737537980079651,-0.013272148557007313
1700856940875590400,14.76859033203125,-0.012034416198730469,-0.013095945119857788,0.0011957201641052961
1700856940892572000,14.785572021484375,-0.012033462524414062,0.006027340888977051,0.015495499595999718
1700856940909576200,14.802576171875,-0.012029647827148438,0.02031153440475464,0.010703586973249912
1700856940926569200,14.8195693359375,-0.01202392578125,0.015394628047943115,-0.008487489074468613
1700856940943560400,14.836560546875,-0.0072422027587890625,-0.017432332038879395,-0.013188972137868404
1700856940960559400,14.853559326171874,-0.007245063781738281,-0.026918798685073853,-0.02338823303580284
1700856940977550300,14.87055029296875,-0.0072498321533203125,-0.002899169921875,-0.013165491633117199
1700856940994543400,14.88754345703125,-0.012034416198730469,0.02519485354423523,-0.003627127967774868
1700856941011537200,14.904537109375,-0.007244110107421875,0.025693148374557495,-0.008352802135050297
1700856941028530700,14.92153076171875,-0.012026786804199219,-0.003679901361465454,0.0012099544983357191
1700856941045524500,14.9385244140625,-0.016814231872558594,-0.013200163841247559,0.0012497520074248314
1700856941062517500,14.955517578125,-0.01681995391845703,-0.02265232801437378,-0.003630764316767454
1700856941079512300,14.97251220703125,-0.021608352661132812,-0.013022065162658691,0.0058667599223554134
1700856941096503300,14.98950341796875,-0.021610260009765625,0.010945647954940796,0.010566962882876396
1700856941113498400,15.006498291015625,-0.01682567596435547,0.02053716778755188,0.0010647608432918787
1700856941130491400,15.023491455078124,-0.0072479248046875,0.02576199173927307,-0.008499311283230782
1700856941147485400,15.0404853515625,-0.021604537963867188,-0.013115495443344116,-0.018019402399659157
1700856941164468500,15.057468505859376,-0.01263427734375,-0.022022336721420288,-0.027440456673502922
1700856941181472500,15.074472412109374,-0.012036323547363281,-0.012444078922271729,-0.017790118232369423
1700856941198465500,15.091465576171874,-0.007252693176269531,0.010917127132415771,0.0012110508978366852
1700856941215459300,15.108459228515626,-0.016821861267089844,0.025242924690246582,0.010786964558064938
1700856941232453000,15.125453125,-0.007246971130371094,0.015599429607391357,0.0012242619413882494
1700856941249446700,15.14244677734375,-0.021602630615234375,0.001204371452331543,-0.013064206577837467
1700856941266446800,15.15944677734375,-0.007248878479003906,-0.031639307737350464,-0.027231967076659203
1700856941283433700,15.176433837890626,-0.0072498321533203125,-0.03639841079711914,-0.008054978214204311
1700856941300425700,15.19342578125,-0.025796890258789062,-0.013001739978790283,0.015916388481855392
1700856941317411800,15.210411865234375,-0.021608352661132812,0.025261491537094116,0.020617196336388588
1700856941334422500,15.227422607421875,-0.02160167694091797,0.03947418928146362,0.010976487770676613
1700856941351406800,15.24440673828125,-0.02159595489501953,0.02500090003013611,-0.008109429851174355
1700856941368406500,15.261406494140624,-0.02159881591796875,-0.013225972652435303,-0.01281242910772562
1700856941385392600,15.278392578125,-0.01681995391845703,-0.02744176983833313,-0.012829733081161976
1700856941402388000,15.295387939453125,-0.012040138244628906,-0.017738312482833862,0.0016403642948716879
1700856941419381800,15.3123818359375,-0.012042999267578125,-0.0176660418510437,-0.007910862565040588
1700856941436375000,15.329375,-0.0120391845703125,0.010947734117507935,-0.003180492203682661
1700856941453369000,15.346369140625,-0.012630462646484375,0.025765031576156616,-0.012652179226279259
1700856941470364000,15.363364013671875,-0.02219867706298828,0.015518248081207275,-0.017393531277775764
1700856941487353900,15.380353759765624,-0.012030601501464844,-0.002991795539855957,-0.017336539924144745
1700856941504348400,15.397348388671874,-0.0072479248046875,-0.012516945600509644,-0.002856428502127528
1700856941521343000,15.414343017578124,-0.012029647827148438,0.0011605620384216309,0.006747094914317131
1700856941538333400,15.43133349609375,-0.007245063781738281,0.0018034279346466064,-0.002831778721883893
1700856941555332600,15.44833251953125,-0.02160358428955078,0.010794639587402344,-0.007540971040725708
1700856941572323600,15.465323486328124,-0.007244110107421875,-0.003013134002685547,-0.017014266923069954
1700856941589314800,15.482314697265625,-0.012033462524414062,-0.007720947265625,-0.017042459920048714
1700856941606313000,15.49931298828125,-0.007251739501953125,-0.00763353705406189,-0.0026538956444710493
1700856941623304200,15.51630419921875,-0.00665283203125,-0.003443688154220581,0.021262235939502716
1700856941640297200,15.533297119140625,-0.021013259887695312,0.001395106315612793,0.03549899533390999
1700856941657291300,15.550291259765626,-0.007254600524902344,0.001389622688293457,0.006733500398695469
1700856941674284500,15.567284423828125,-0.016823768615722656,0.006739020347595215,-0.012341692112386227
1700856941691278300,15.5842783203125,-0.01263427734375,0.011490345001220703,-0.021799582988023758
1700856941708271400,15.601271240234375,-0.00785064697265625,0.0019530951976776123,-0.031322088092565536
1700856941725262600,15.6182626953125,-0.007849693298339844,-0.007632642984390259,-0.040748950093984604
1700856941742261200,15.63526123046875,-0.017423629760742188,-0.021929681301116943,-0.026286272332072258
1700856941759252200,15.652252197265625,-0.0072536468505859375,-0.022547364234924316,0.011448870413005352
1700856941776245500,15.66924560546875,-0.011443138122558594,-0.0081443190574646,0.050186678767204285
1700856941793235200,15.686235107421876,-0.01622772216796875,0.001387476921081543,0.045205116271972656
1700856941810232600,15.703232666015625,-0.0072574615478515625,0.006848692893981934,-0.007467350922524929
1700856941827223600,15.7202236328125,-0.02699565887451172,0.030737191438674927,-0.03611898794770241
1700856941844222500,15.737222412109375,-0.013231277465820312,0.049755483865737915,-0.059895109385252
1700856941861213400,15.75421337890625,-0.00365447998046875,0.03047284483909607,-0.05007500201463699
1700856941878206500,15.77120654296875,-0.02160167694091797,-0.013151824474334717,0.0025639869272708893
1700856941895188700,15.788188720703126,-0.006655693054199219,-0.05600973963737488,0.025891229510307312
1700856941912193800,15.80519384765625,-0.001880645751953125,-0.05579647421836853,0.030568227171897888
1700856941929187800,15.822187744140624,-0.016246795654296875,-0.017310887575149536,0.011909776367247105
1700856941946180600,15.8391806640625,0.0022983551025390625,0.021579861640930176,-0.002460334450006485
1700856941963174700,15.856174560546876,-0.012654304504394531,0.04064914584159851,-0.016828104853630066
1700856941980168200,15.873168212890626,-0.007267951965332031,0.03519400954246521,-0.0025044078938663006
1700856941997162000,15.890161865234376,-0.01683807373046875,0.016040802001953125,0.0023232826497405767
1700856942014153700,15.90715380859375,-0.007266998291015625,-0.02225843071937561,0.011771252378821373
1700856942031149600,15.924149658203126,-0.011461257934570312,-0.0460277795791626,0.011185891926288605
1700856942048142000,15.94114208984375,-0.01685333251953125,-0.026702046394348145,-0.0025781739968806505
1700856942065135600,15.958135498046875,-0.012068748474121094,0.0026352107524871826,-0.012070107273757458
1700856942082128600,15.975128662109375,-0.012068748474121094,0.0169963538646698,-0.01200617104768753
1700856942099123000,15.992123046875,-0.012666702270507812,0.02176031470298767,-0.01667732000350952
1700856942116122400,16.009122314453126,-0.02163410186767578,0.02584955096244812,-0.011879085563123226
1700856942133110300,16.0261103515625,-0.012056350708007812,0.011329472064971924,-0.002319434890523553
1700856942150103000,16.04310302734375,-0.016844749450683594,-0.012520849704742432,0.007291178219020367
1700856942167097000,16.06009716796875,-0.011467933654785156,-0.03632506728172302,0.016210760921239853
1700856942184090400,16.07709033203125,-0.016854286193847656,-0.0075508058071136475,0.0024645293597131968
1700856942201073700,16.09407373046875,-0.007877349853515625,0.026475876569747925,-0.01662595570087433
1700856942218077200,16.1110771484375,-0.017446517944335938,0.016866177320480347,-0.026105428114533424
1700856942235071000,16.128071044921874,-0.021635055541992188,-0.01660969853401184,-0.021267905831336975
1700856942252064500,16.145064453125,-0.012068748474121094,-0.031459271907806396,0.0021259766072034836
1700856942269058300,16.162058349609374,-0.016256332397460938,-0.0027618110179901123,0.02180134877562523
1700856942286051000,16.179051025390624,-0.0018930435180664062,0.011467576026916504,0.03131866082549095
1700856942303045000,16.196045166015626,-0.016843795776367188,0.011364966630935669,0.021697979420423508
1700856942320038400,16.213038330078124,-0.01684284210205078,0.0017754733562469482,0.0025876315776258707
1700856942337026300,16.2300263671875,-0.007864952087402344,0.011840790510177612,-0.0213354229927063
1700856942354025500,16.247025390625,-0.012650489807128906,-0.002516835927963257,-0.03074721433222294
1700856942371019300,16.264019287109374,-0.0072689056396484375,-0.016813188791275024,-0.021523574367165565
1700856942388012500,16.281012451171875,-0.021628379821777344,-0.0077880024909973145,-0.0065841106697916985
1700856942405016800,16.298016845703124,-0.0072689056396484375,0.011286765336990356,0.01256923284381628
1700856942421999600,16.31499951171875,-0.016242027282714844,0.011285334825515747,0.02212296426296234
1700856942438993400,16.331993408203125,-0.012056350708007812,-0.017382413148880005,0.0030068769119679928
1700856942455986700,16.348986572265623,-0.016843795776367188,-0.02689880132675171,-0.011341488920152187
1700856942472980500,16.36598046875,-0.00727081298828125,0.007156550884246826,-0.0160615723580122
1700856942489974500,16.382974609375,-0.017436981201171875,0.035797715187072754,-0.015916671603918076
1700856942506956800,16.399956787109375,-0.016831398010253906,0.030241280794143677,0.017502684146165848
1700856942523960800,16.4169609375,-0.011447906494140625,-0.008042007684707642,0.017338687554001808
1700856942540954600,16.43395458984375,-0.0024776458740234375,-0.022325903177261353,0.01196238398551941
1700856942557947600,16.45094775390625,-0.01683807373046875,-0.027022898197174072,-0.0065713198855519295
1700856942574936600,16.4679365234375,-0.012055397033691406,-0.012023776769638062,-0.020906640216708183
1700856942591935000,16.48493505859375,-0.012651443481445312,0.011876523494720459,-0.01615280658006668
1700856942608926500,16.501926513671876,-0.01683807373046875,0.03037470579147339,-0.0017235304694622755
1700856942625924400,16.51892431640625,-0.012042999267578125,0.01583009958267212,0.0031653731130063534
1700856942642915300,16.535915283203124,-0.016828536987304688,-0.0033198893070220947,0.003153514117002487
1700856942659909400,16.552909423828126,-0.011442184448242188,-0.032078564167022705,0.012737194076180458
1700856942676902700,16.569902587890624,-0.001873016357421875,-0.04159921407699585,0.012198611162602901
1700856942693896000,16.58689599609375,-0.006663322448730469,-0.03671196103096008,0.012796707451343536
1700856942710889500,16.603889404296876,-0.012045860290527344,0.0015501976013183594,0.0032352106645703316
1700856942727883300,16.62088330078125,-0.012639999389648438,0.05469280481338501,-0.020601432770490646
1700856942744877000,16.637876953125,-0.027582168579101562,0.10225492715835571,-0.05886627361178398
1700856942761868000,16.654867919921877,-0.03235626220703125,0.06372195482254028,-0.05397236719727516
1700856942778866200,16.6718662109375,-0.012020111083984375,-0.02713555097579956,-0.020864319056272507
1700856942795857000,16.68885693359375,-0.010838508605957031,-0.09441274404525757,0.036530185490846634
1700856942812851500,16.7058515625,-0.020422935485839844,-0.08455595374107361,0.05064649134874344
1700856942829844200,16.72284423828125,-0.0066680908203125,-0.027036994695663452,0.022471914067864418
1700856942846838000,16.739838134765623,-0.031192779541015625,0.015996098518371582,-0.006291823461651802
1700856942863831600,16.75683154296875,-0.012642860412597656,0.03560453653335571,-0.02526666224002838
1700856942880825300,16.773825439453127,-0.017423629760742188,0.04446256160736084,-0.010925752110779285
1700856942897818400,16.790818359375,-0.012030601501464844,0.025140315294265747,-0.006124940235167742
1700856942914812000,16.80781201171875,-0.01203155517578125,0.0012316107749938965,0.00826488621532917
1700856942931805400,16.824805419921876,-0.01681804656982422,-0.003532707691192627,0.013052230700850487
1700856942948799200,16.84179931640625,-0.007246971130371094,-0.003553837537765503,0.00837857834994793
1700856942965779200,16.858779296875,-0.007248878479003906,-0.022639423608779907,0.0030281106010079384
1700856942982788600,16.87578857421875,-0.01682281494140625,-0.041707634925842285,-0.00169447623193264
1700856942999779800,16.89277978515625,-0.007262229919433594,-0.02236303687095642,0.007842297665774822
1700856943016773600,16.909773681640626,-0.007262229919433594,0.016537457704544067,-0.0059663159772753716
1700856943033766700,16.9267666015625,-0.017423629760742188,0.03550651669502258,-0.015560848638415337
1700856943050760200,16.94376025390625,-0.012635231018066406,0.025863975286483765,-0.01549539715051651
1700856943067753500,16.96075341796875,-0.01741790771484375,0.02580118179321289,-0.0154503732919693
1700856943084747300,16.977747314453126,-0.016816139221191406,0.010769933462142944,-0.001070469617843628
1700856943101740800,16.99474072265625,-0.0024623870849609375,-0.0322439968585968,0.007937882095575333
1700856943118734600,17.011734619140626,-0.01623249053955078,-0.060701340436935425,0.017450664192438126
1700856943135727600,17.0287275390625,-0.0018787384033203125,-0.03189471364021301,0.017375508323311806
1700856943152722700,17.04572265625,-0.007262229919433594,0.02071520686149597,0.0035231132060289383
1700856943169714400,17.06271435546875,-0.026391983032226562,0.04915270209312439,-0.006145953666418791
1700856943186697700,17.07969775390625,-0.01741313934326172,0.03945797681808472,-0.010839341208338737
1700856943203702000,17.096701904296875,-0.007839202880859375,0.006497859954833984,-0.02030108869075775
1700856943220695800,17.11369580078125,-0.012030601501464844,-0.027493596076965332,-0.001031640451401472
1700856943237688600,17.1306884765625,-0.012034416198730469,-0.03699761629104614,0.0037373402155935764
1700856943254682400,17.147682373046877,-0.001873016357421875,-0.03203365206718445,0.017934061586856842
1700856943271676200,17.16467626953125,-0.016823768615722656,0.006151825189590454,0.003525524865835905
1700856943288670000,17.181669921875,-0.01681995391845703,0.02520105242729187,0.003513940144330263
1700856943305662700,17.198662841796875,-0.0072422027587890625,0.016109764575958252,-0.010715581476688385
1700856943322656500,17.215656494140624,-0.01681232452392578,0.0017200708389282227,-0.020140033215284348
1700856943339650300,17.232650390625,-0.012020111083984375,0.006371915340423584,-0.010424865409731865
1700856943356636400,17.249636474609375,-0.012015342712402344,-0.01349020004272461,0.003918933216482401
1700856943373637000,17.26663720703125,-0.021587371826171875,-0.013458728790283203,0.008656283840537071
1700856943390630700,17.283630615234376,-0.0072345733642578125,-0.013367623090744019,0.008619208820164204
1700856943407624400,17.30062451171875,-0.012020111083984375,-0.008601635694503784,-0.005783535540103912
1700856943424618200,17.3176181640625,-0.01201629638671875,-0.008084505796432495,-0.015303334221243858
1700856943441611300,17.334611328125,-0.0072307586669921875,0.0014901459217071533,-0.005656578112393618
1700856943458604800,17.351604736328124,-0.012009620666503906,0.015099287033081055,-0.005650109611451626
1700856943475598300,17.368598388671874,-0.012004852294921875,0.02457129955291748,0.008678503334522247
1700856943492592400,17.38559228515625,-0.0072174072265625,0.005978763103485107,-0.0009056692942976952
1700856943509585200,17.402585205078125,-0.01678752899169922,-0.02334323525428772,-0.0008790646679699421
1700856943526579000,17.419578857421875,-0.007222175598144531,-0.022627949714660645,-0.0015213070437312126
1700856943543572500,17.436572509765625,-0.007228851318359375,-0.02309057116508484,0.003301029559224844
1700856943560555800,17.4535556640625,-0.0024480819702148438,0.0015501677989959717,-0.0008422452956438065
1700856943577560800,17.470560791015625,-0.007233619689941406,0.011131763458251953,-0.005608265288174152
1700856943594553300,17.48755322265625,-0.022184371948242188,0.020020127296447754,-0.01513994112610817
1700856943611546400,17.50454638671875,-0.016796112060546875,0.015126317739486694,-0.010374359786510468
1700856943628540700,17.521540771484375,-0.01679229736328125,0.0006882548332214355,-0.0008053346537053585
1700856943645533400,17.538533447265625,-0.012009620666503906,-0.013595253229141235,0.013408216647803783
1700856943662525000,17.55552490234375,-0.0024423599243164062,-0.018313050270080566,0.012813829816877842
1700856943679526100,17.572526123046874,-0.0072269439697265625,-0.003984183073043823,0.003794935531914234
1700856943696501200,17.589501220703124,-0.0072231292724609375,0.006113320589065552,-0.005734145175665617
1700856943713507300,17.60650732421875,-0.012004852294921875,0.006023138761520386,-0.01045768242329359
1700856943730501600,17.623501708984374,-0.012006759643554688,-0.003502368927001953,-0.005590321961790323
1700856943747482000,17.640482177734373,-0.01679229736328125,0.0006725788116455078,-0.005579486023634672
1700856943764492500,17.657492431640627,-0.012004852294921875,0.005419105291366577,0.003931797109544277
1700856943781472500,17.674472412109374,-0.007218360900878906,0.015582621097564697,-0.005593081004917622
1700856943798473000,17.691472900390625,-0.01678943634033203,0.005415976047515869,0.00401104474440217
1700856943815469000,17.708468994140624,-0.007221221923828125,-0.013669848442077637,0.004107816144824028
1700856943832462800,17.725462890625,-0.016798019409179688,-0.023124277591705322,0.008916923776268959
1700856943849455900,17.742455810546875,-0.012011528015136719,-0.008777409791946411,0.013591472059488297
1700856943866449400,17.759449462890625,-0.012014389038085938,-0.0039449334144592285,0.008809864521026611
1700856943883443200,17.776443115234375,-0.01679515838623047,0.015098989009857178,-0.0007264702580869198
1700856943900437000,17.79343701171875,-0.02217578887939453,0.010861247777938843,-0.024675143882632256
1700856943917430000,17.810429931640623,-0.017388343811035156,0.006034255027770996,-0.024595879018306732
1700856943934423800,17.827423828125,-0.0072174072265625,-0.0035923421382904053,-0.010191177017986774
1700856943951417300,17.844417236328123,-0.011408805847167969,-0.008893340826034546,0.018623339012265205
1700856943968411100,17.8614111328125,-0.016196250915527344,-0.018406718969345093,0.028136396780610085
1700856943985404000,17.87840380859375,-0.007220268249511719,-0.013680875301361084,0.008935561403632164
1700856944002398000,17.89539794921875,-0.012607574462890625,0.010925233364105225,-0.019750425592064857
1700856944019391200,17.91239111328125,-0.017389297485351562,0.020401865243911743,-0.024517251178622246
1700856944036385000,17.929385009765625,-0.012602806091308594,0.010814249515533447,-0.014869635924696922
1700856944053378300,17.94637841796875,-0.012003898620605469,-0.008938580751419067,0.008999953977763653
1700856944070369500,17.96336962890625,-0.011410713195800781,-0.013641446828842163,0.023318372666835785
1700856944087368000,17.980367919921875,-0.0072269439697265625,-0.008764177560806274,0.013631269335746765
1700856944104359200,17.997359130859376,-0.02158641815185547,-0.003906041383743286,0.0040661003440618515
1700856944121352200,18.014352294921874,-0.007232666015625,-0.0032538175582885742,-0.015041835606098175
1700856944138346000,18.031345947265624,-0.012610435485839844,0.0014162063598632812,-0.024433068931102753
1700856944155339500,18.048339599609374,-0.012014389038085938,0.011006087064743042,-0.005201390478760004
1700856944172333300,18.065333251953124,-0.016798019409179688,0.0008228123188018799,0.00909879058599472
1700856944189326300,18.082326416015626,-0.012015342712402344,-0.003906846046447754,0.018600445240736008
1700856944206320400,18.0993203125,-0.007232666015625,-0.0032533109188079834,-0.0005786088295280933
1700856944223313400,18.1163134765625,-0.01680278778076172,0.005689024925231934,-0.01018180325627327
1700856944240310000,18.13331005859375,-0.0078277587890625,0.0014783740043640137,-0.01963711902499199
1700856944257297700,18.150297607421876,-0.0024433135986328125,-0.012898832559585571,-0.009979106485843658
1700856944274284000,18.167283935546877,-0.01201629638671875,-0.013457000255584717,0.009148601442575455
1700856944291287800,18.184287841796873,-0.01142120361328125,-0.0038214921951293945,0.023387130349874496
1700856944308281600,18.201281494140623,-0.01680755615234375,-0.003757864236831665,0.008980712853372097
1700856944325274600,18.218274658203125,-0.016806602478027344,0.005785912275314331,-0.0005994760431349277
1700856944342268400,18.235268310546875,-0.012018203735351562,0.006314903497695923,-0.010150502435863018
1700856944359262000,18.252261962890625,-0.007236480712890625,-0.007964551448822021,-0.014860644936561584
1700856944376255500,18.26925537109375,-0.007236480712890625,-0.012748271226882935,-0.010669825598597527
1700856944393261300,18.28626123046875,-0.007236480712890625,-0.012754708528518677,-0.005817979108542204
1700856944410242300,18.3032421875,-0.016808509826660156,0.0064285993576049805,-0.009965548291802406
1700856944427236000,18.320236083984376,-0.0024518966674804688,0.011229723691940308,-0.009989905171096325
1700856944444231200,18.337231201171875,-0.012027740478515625,0.0017414689064025879,-0.009916906245052814
1700856944461219000,18.354218994140624,-0.016814231872558594,-0.00840991735458374,0.0043626269325613976
1700856944478219300,18.37121923828125,-0.016814231872558594,-0.017978370189666748,0.009152693673968315
1700856944495210000,18.3882099609375,-0.012029647827148438,-0.013180583715438843,0.004271008539944887
1700856944512204000,18.4052041015625,-0.0072460174560546875,-0.00835004448890686,-0.0005895541980862617
1700856944529196800,18.42219677734375,-0.021604537963867188,0.010841935873031616,-0.010140543803572655
1700856944546190600,18.439190673828126,-0.0072422027587890625,0.02567499876022339,-0.0052840556018054485
1700856944563184000,18.45618408203125,-0.01680755615234375,0.020170629024505615,-0.005226497072726488
1700856944580178000,18.473177978515626,-0.02159595489501953,0.0010705888271331787,0.004322756547480822
1700856944597171500,18.49017138671875,-0.012030601501464844,-0.02272626757621765,0.009059760719537735
1700856944614164700,18.507164794921874,-0.007244110107421875,-0.022141993045806885,-0.0005795042961835861
1700856944631158300,18.524158203125,-0.01681995391845703,-0.013065725564956665,-0.005419838707894087
1700856944648152000,18.541152099609373,-0.012034416198730469,0.011451005935668945,-0.010242322459816933
1700856944665145300,18.558145263671875,-0.016817092895507812,0.015593945980072021,-0.010224103927612305
1700856944682139000,18.575138916015625,-0.016815185546875,0.015540599822998047,-0.005382526200264692
1700856944699132400,18.59213232421875,-0.016816139221191406,0.0012084543704986572,0.008997103199362755
1700856944716126000,18.6091259765625,-0.016813278198242188,-0.017991751432418823,0.008891817182302475
1700856944733119500,18.626119384765627,-0.016222000122070312,-0.027423828840255737,0.013720056042075157
1700856944750113300,18.64311328125,-0.016823768615722656,-0.017773538827896118,0.004065533634275198
1700856944767106800,18.66010693359375,-0.012041091918945312,0.0020335018634796143,-0.010219993069767952
1700856944784100000,18.67710009765625,-0.007849693298339844,0.01151689887046814,-0.01497188862413168
1700856944801083000,18.694082763671876,-0.016820907592773438,0.010882794857025146,-0.005393435247242451
1700856944818087400,18.71108740234375,-0.01682281494140625,0.0013533532619476318,0.008977405726909637
1700856944835080700,18.728080810546874,-0.01682567596435547,-0.0033642947673797607,0.013754737563431263
1700856944852075000,18.745074951171876,-0.021612167358398438,-0.008124351501464844,0.00414416054263711
1700856944869067000,18.76206689453125,-0.012042045593261719,-0.002724289894104004,-0.010258493945002556
1700856944886071300,18.7790712890625,-0.0030670166015625,0.002008795738220215,-0.01982887089252472
1700856944903054600,18.7960546875,-0.012041091918945312,0.006824791431427002,-0.014989320188760757
1700856944920048600,18.813048583984376,-0.007258415222167969,-0.0032760798931121826,0.008910967037081718
1700856944937041700,18.830041748046874,-0.016834259033203125,-0.012744754552841187,0.013640095479786396
1700856944954019300,18.847019287109376,-0.007262229919433594,-0.00797504186630249,0.013680843636393547
1700856944971029000,18.864029052734374,-0.012042045593261719,0.011038988828659058,-0.0005956939421594143
1700856944988022800,18.881022705078124,-0.012040138244628906,0.011599630117416382,-0.014868227764964104
1700856945005015800,18.898015869140625,-0.012639999389648438,0.002059459686279297,-0.019655920565128326
1700856945022009300,18.91500927734375,-0.007260322570800781,-0.012204200029373169,-0.0004510846920311451
1700856945039003100,18.932003173828125,-0.016836166381835938,-0.017509907484054565,0.009080426767468452
1700856945055996700,18.94899658203125,-0.012052536010742188,-0.017449527978897095,0.009085085242986679
1700856945072990000,18.965989990234377,-0.01683807373046875,0.0064688920974731445,-0.0052828676998615265
1700856945089983500,18.9829833984375,-0.01743602752685547,0.02141818404197693,-0.02909177541732788
1700856945106977500,18.9999775390625,-0.012048721313476562,0.020747452974319458,-0.005130767356604338
1700856945123971000,19.01697119140625,-0.0024776458740234375,-0.002575308084487915,0.004378597252070904
1700856945140964000,19.033964111328125,-0.016837120056152344,-0.017470121383666992,0.013936604373157024
1700856945157958000,19.0509580078125,-0.006670951843261719,-0.026945650577545166,0.01864071749150753
1700856945174951200,19.067951171875,-0.007273674011230469,-0.012510597705841064,0.0043457248248159885
1700856945191945200,19.0849453125,-0.012654304504394531,0.01196107268333435,-0.014761900529265404
1700856945208938200,19.101938232421876,-0.007868766784667969,0.016741633415222168,-0.024253997951745987
1700856945225932000,19.11893212890625,-0.0072650909423828125,0.021402686834335327,-0.005133617669343948
1700856945242923500,19.135923583984376,-0.012051582336425781,0.01123899221420288,0.01879221573472023
1700856945259921200,19.152921142578126,-0.006670951843261719,-0.012612700462341309,0.018712619319558144
1700856945276911900,19.169911865234376,-0.012056350708007812,-0.026924490928649902,0.004307041876018047
1700856945293906200,19.18690625,-0.0072727203369140625,-0.016720294952392578,-0.010139922611415386
1700856945310899700,19.203899658203124,-0.012659072875976562,0.007254421710968018,-0.024436889216303825
1700856945327890700,19.220890625,-0.012057304382324219,0.02572500705718994,-0.005305233411490917
1700856945344889000,19.23788916015625,-0.012053489685058594,0.020858705043792725,0.013687621802091599
1700856945361880300,19.25488037109375,-0.012053489685058594,-0.0030701756477355957,0.013560756109654903
1700856945378873600,19.27187353515625,-0.012055397033691406,-0.017408162355422974,0.008650600910186768
1700856945395864600,19.288864501953125,-0.01684284210205078,-0.017339348793029785,-0.01044163852930069
1700856945412863700,19.30586376953125,-0.012058258056640625,0.0024069249629974365,-0.015179519541561604
1700856945429855500,19.32285546875,-0.007267951965332031,0.016674697399139404,-0.010359394364058971
1700856945446847700,19.33984765625,-0.021623611450195312,0.01603052020072937,0.004086894448846579
1700856945463841800,19.356841796875,-0.021622657775878906,0.0016625523567199707,0.008880323730409145
1700856945480834800,19.373834716796875,-0.012058258056640625,-0.012549906969070435,0.008823953568935394
1700856945497828000,19.390828125,-0.012063980102539062,-0.016610145568847656,-0.010321898385882378
1700856945514821600,19.407821533203126,-0.007275581359863281,0.0072734057903289795,-0.010267958045005798
1700856945531815700,19.424815673828125,-0.016844749450683594,0.012020140886306763,-0.014975359663367271
1700856945548806100,19.44180615234375,-0.021631240844726562,0.011424720287322998,-0.014935087412595749
1700856945565805000,19.45880517578125,-0.0072727203369140625,0.01199328899383545,-0.005301798228174448
1700856945582796000,19.475796142578126,-0.007275581359863281,-0.012490391731262207,0.004249995108693838
1700856945599789800,19.492789794921876,-0.0072784423828125,-0.007611066102981567,0.013823825865983963
1700856945616782800,19.509782958984374,-0.01685047149658203,-0.012397557497024536,-0.0005016447976231575
1700856945633776600,19.526776611328124,-0.012060165405273438,0.006650298833847046,0.004310586955398321
1700856945650770200,19.543770263671874,-0.012058258056640625,0.01199600100517273,-0.010030725970864296
1700856945667761200,19.56076123046875,-0.01684284210205078,0.011359632015228271,-0.005167750641703606
1700856945684757000,19.577757080078126,-0.01206207275390625,-0.0028888583183288574,-0.0003337753005325794
1700856945701762600,19.594762451171874,-0.0072784423828125,-0.012408792972564697,0.009248131886124611
1700856945718747100,19.6117470703125,-0.007283210754394531,-0.007529765367507935,0.004426946397870779
1700856945735735300,19.6287353515625,-0.007281303405761719,0.002603679895401001,-0.00048015639185905457
1700856945752731100,19.645731201171873,-0.012666702270507812,-0.002126842737197876,-0.019567353650927544
1700856945769725000,19.662724853515623,-0.007281303405761719,-0.006958574056625366,-0.014748835936188698
1700856945786718500,19.679718505859373,-0.016852378845214844,0.0020103156566619873,-0.009925750084221363
1700856945803712300,19.696712158203123,-0.012070655822753906,-0.007480353116989136,0.014070505276322365
1700856945820705300,19.713705322265625,-0.0066890716552734375,-0.007400095462799072,0.023662900552153587
1700856945837698800,19.73069873046875,-0.011474609375,-0.0026629269123077393,0.0235072560608387
1700856945854692600,19.747692626953125,-0.007282257080078125,0.007422655820846558,-0.0004040328785777092
1700856945871686100,19.76468603515625,-0.0072803497314453125,0.002588629722595215,-0.01467905193567276
1700856945888679400,19.781679443359376,-0.012664794921875,-0.0021783411502838135,-0.019448034465312958
1700856945905673200,19.798673095703126,-0.0072784423828125,0.0025408565998077393,-0.014522475190460682
1700856945922666500,19.81566650390625,-0.016849517822265625,0.011523425579071045,0.004671341739594936
1700856945939660500,19.83266064453125,-0.016846656799316406,-0.0029079318046569824,0.01897377148270607
1700856945956653600,19.849653564453124,-0.012056350708007812,-0.012568086385726929,0.014226553030312061
1700856945973647000,19.866647216796874,-0.012063026428222656,-0.01243641972541809,-0.0002008788287639618
1700856945990641000,19.883640869140624,-0.01265716552734375,0.002460092306137085,-0.019188417121767998
1700856946007634700,19.900634765625,-0.017444610595703125,0.00248563289642334,-0.028777122497558594
1700856946024627700,19.917627685546876,-0.007274627685546875,-0.007107943296432495,-0.0048154559917747974
1700856946041621200,19.934621337890626,-0.016846656799316406,-0.007694154977798462,0.014343040063977242
1700856946058614800,19.95161474609375,-0.031197547912597656,0.006528526544570923,0.01902078650891781
1700856946075598000,19.96859814453125,-0.016839027404785156,0.011283159255981445,-0.0049731116741895676
1700856946092591000,19.985591064453125,-0.017436981201171875,0.011898338794708252,-0.019283123314380646
1700856946109595600,20.002595703125,-0.021625518798828125,0.006524085998535156,-0.014435168355703354
1700856946126589200,20.019589111328123,-0.012055397033691406,0.0017663240432739258,-0.0000711618922650814
1700856946143582700,20.036582763671873,-0.011463165283203125,-0.02683117985725403,0.014240037649869919
1700856946160575700,20.05357568359375,-0.0210418701171875,-0.026680290699005127,0.02372899278998375
1700856946177556700,20.070556640625,-0.0072841644287109375,-0.002713829278945923,0.014175773598253727
1700856946194555400,20.087555419921873,-0.012066841125488281,0.021752119064331055,-0.009749566204845905
1700856946211556900,20.104556884765625,-0.017447471618652344,0.03126034140586853,-0.014596222899854183
1700856946228550100,20.121550048828126,-0.016846656799316406,0.0066831111907958984,-0.009679637849330902
1700856946245544000,20.1385439453125,-0.021631240844726562,0.006650388240814209,0.00004417449235916138
1700856946262537500,20.155537353515626,-0.012061119079589844,-0.017247706651687622,0.0048584891483187675
