time,seconds_elapsed,z,y,x
1700856868338949000,0.13994921875,-0.029172897338867188,-0.00935065746307373,0.07642245292663574
1700856868355938300,0.156938232421875,-0.011223793029785156,0.00015813112258911133,-0.014537002891302109
1700856868372936700,0.173936767578125,0.0013418197631835938,0.005479633808135986,-0.11501702666282654
1700856868389927200,0.19092724609375,-0.01899433135986328,0.010202497243881226,-0.18682728707790375
1700856868406928400,0.207928466796875,-0.00942230224609375,0.005403697490692139,-0.1964113712310791
1700856868423917600,0.22491748046875,-0.017797470092773438,0.00544053316116333,-0.11511331796646118
1700856868440909300,0.241909423828125,-0.011217117309570312,-0.009527474641799927,-0.019466031342744827
1700856868457901600,0.258901611328125,-0.010020256042480469,-0.019110888242721558,0.05708256736397743
1700856868474890500,0.275890380859375,-0.019590377807617188,-0.019122183322906494,0.06662802398204803
1700856868491890400,0.292890380859375,-0.005833625793457031,-0.014295369386672974,0.014006003737449646
1700856868508884200,0.30988427734375,-0.012415885925292969,0.005484163761138916,-0.08641193062067032
1700856868525870000,0.3268701171875,-0.008829116821289062,0.01030680537223816,-0.17255829274654388
1700856868542871300,0.343871337890625,-0.009429931640625,0.010342180728912354,-0.18690374493598938
1700856868559859500,0.360859375,-0.01780223846435547,0.0007564127445220947,-0.13898733258247375
1700856868576855300,0.377855224609375,-0.016605377197265625,-0.014210790395736694,-0.03864475339651108
1700856868593854700,0.394854736328125,-0.005840301513671875,-0.018955320119857788,0.0379534512758255
1700856868610840800,0.4118408203125,-0.014809608459472656,-0.023800283670425415,0.06668514013290405
1700856868627840000,0.428840087890625,-0.015407562255859375,-0.009452283382415771,0.02836039662361145
1700856868644827100,0.4458271484375,-0.01719951629638672,0.005440056324005127,-0.0673273503780365
1700856868661822700,0.46282275390625,-0.004040718078613281,0.015046030282974243,-0.15341196954250336
1700856868678817300,0.4798173828125,-0.004638671875,0.00545915961265564,-0.18693579733371735
1700856868695804000,0.496803955078125,-0.013611793518066406,-0.008910149335861206,-0.15335778892040253
1700856868712803600,0.513803466796875,-0.00702667236328125,-0.013807713985443115,-0.06715748459100723
1700856868729796400,0.53079638671875,-0.015402793884277344,-0.014363467693328857,0.02375005930662155
1700856868746786600,0.54778662109375,-0.019588470458984375,-0.009588271379470825,0.06667952984571457
1700856868763782000,0.564781982421875,-0.005829811096191406,-0.0048119425773620605,0.03313817083835602
1700856868780778800,0.58177880859375,-0.016599655151367188,0.000014156103134155273,-0.04340425133705139
1700856868797771300,0.598771240234375,-0.00344085693359375,0.0006490945816040039,-0.11996614933013916
1700856868814760700,0.6157607421875,-0.013607978820800781,-0.008983314037322998,-0.17735588550567627
1700856868831756500,0.632756591796875,-0.01779937744140625,-0.008892565965652466,-0.14386293292045593
1700856868848751900,0.649751953125,-0.01720142364501953,-0.0041186511516571045,-0.08157674968242645
1700856868865741000,0.666740966796875,-0.0160064697265625,-0.004678696393966675,-0.0002808608114719391
1700856868882737400,0.6837373046875,-0.019594192504882812,-0.01426050066947937,0.05237512290477753
1700856868899730400,0.70073046875,-0.015406608581542969,-0.01905149221420288,0.04275759309530258
1700856868916722000,0.717721923828125,-0.011220932006835938,-0.019005119800567627,-0.02905338630080223
1700856868933707500,0.73470751953125,-0.017205238342285156,-0.004009276628494263,-0.10556434094905853
1700856868950710500,0.75171044921875,-0.013619422912597656,0.0008139312267303467,-0.16284246742725372
1700856868967705600,0.76870556640625,-0.01840686798095703,0.005637645721435547,-0.16283175349235535
1700856868984695000,0.785695068359375,-0.012423515319824219,0.010406941175460815,-0.09574386477470398
1700856869001691100,0.802691162109375,-0.011224746704101562,0.009740650653839111,-0.019224833697080612
1700856869018675700,0.81967578125,-0.015410423278808594,-0.014197736978530884,0.038171716034412384
1700856869035672600,0.836672607421875,-0.015412330627441406,-0.02371811866760254,0.03812408074736595
1700856869052676900,0.8536767578125,-0.01601409912109375,-0.014098525047302246,-0.01450188085436821
1700856869069663500,0.87066357421875,-0.012424468994140625,0.0008479952812194824,-0.08622679114341736
1700856869086655500,0.887655517578125,-0.018408775329589844,0.010455101728439331,-0.14833155274391174
1700856869103641900,0.904641845703125,-0.0136260986328125,0.0009178221225738525,-0.15777595341205597
1700856869120644900,0.921644775390625,-0.008240699768066406,0.0009005069732666016,-0.10985974967479706
1700856869137637400,0.938637451171875,-0.011824607849121094,0.00018537044525146484,-0.04289178550243378
1700856869154625300,0.955625244140625,-0.015414237976074219,-0.014125466346740723,0.019144486635923386
1700856869171625000,0.972625,-0.010631561279296875,-0.023643463850021362,0.03828440234065056
1700856869188618800,0.98961865234375,-0.016016006469726562,-0.018855929374694824,0.004796288907527924
1700856869205602300,1.006602294921875,-0.007640838623046875,0.0008737742900848389,-0.07171698659658432
1700856869222603800,1.023603759765625,-0.013024330139160156,0.0008606314659118652,-0.138656884431839
1700856869239602000,1.040601806640625,-0.013623237609863281,0.005629390478134155,-0.1577129364013672
1700856869256590300,1.05759033203125,-0.01302337646484375,0.005611419677734375,-0.11929865181446075
1700856869273587200,1.074587158203125,-0.011831283569335938,-0.0038709044456481934,-0.057098500430583954
1700856869290568000,1.09156787109375,-0.011236190795898438,-0.004427045583724976,0.009936351329088211
1700856869307573800,1.10857373046875,-0.020206451416015625,-0.01883569359779358,0.03860146924853325
1700856869324563700,1.125563720703125,-0.020206451416015625,-0.004482746124267578,0.009897705167531967
1700856869341559000,1.14255908203125,-0.0166168212890625,-0.004490196704864502,-0.05231334641575813
1700856869358561000,1.15956103515625,-0.008240699768066406,-0.003905057907104492,-0.11925394833087921
1700856869375543600,1.17654345703125,-0.013625144958496094,0.010434359312057495,-0.15744005143642426
1700856869392539400,1.193539306640625,-0.01781177520751953,0.010412603616714478,-0.1285863071680069
1700856869409534700,1.21053466796875,-0.017210960388183594,0.0007727742195129395,-0.06627598404884338
1700856869426524000,1.22752392578125,-0.02080249786376953,-0.014139741659164429,0.005451031029224396
1700856869443506400,1.24450634765625,-0.005848884582519531,-0.023657798767089844,0.0341232605278492
1700856869460513000,1.261512939453125,-0.020209312438964844,-0.02837851643562317,0.01981912925839424
1700856869477508000,1.278508056640625,-0.016618728637695312,-0.014072239398956299,-0.051917653530836105
1700856869494497800,1.295497802734375,-0.013028144836425781,0.0008693933486938477,-0.10923835635185242
1700856869511493600,1.31249365234375,-0.013628959655761719,0.015249907970428467,-0.14741787314414978
1700856869528486000,1.32948583984375,-0.008243560791015625,0.015222221612930298,-0.13295570015907288
1700856869545480400,1.34648046875,-0.01721668243408203,0.005629450082778931,-0.08502396941184998
1700856869562473700,1.3634736328125,-0.020807266235351562,-0.009284138679504395,-0.01811634749174118
1700856869579467500,1.380467529296875,-0.015421867370605469,-0.028468698263168335,0.02496977150440216
1700856869596458500,1.39745849609375,-0.020208358764648438,-0.02845144271850586,0.020134475082159042
1700856869613454000,1.4144541015625,-0.016022682189941406,-0.004471570253372192,-0.02768542990088463
1700856869630439200,1.431439208984375,-0.0124359130859375,0.01051589846611023,-0.09936602413654327
1700856869647440100,1.448440185546875,-0.02260303497314453,0.010439038276672363,-0.1374950408935547
1700856869664434400,1.465434326171875,-0.008242607116699219,0.010361343622207642,-0.13253767788410187
1700856869681427700,1.482427734375,-0.0076465606689453125,0.0008262097835540771,-0.08937948942184448
1700856869698423000,1.499423095703125,-0.011832237243652344,-0.009400427341461182,-0.03192337229847908
1700856869715412200,1.516412109375,-0.02020740509033203,-0.023751020431518555,0.020686324685811996
1700856869732408000,1.533407958984375,-0.005847930908203125,-0.023789316415786743,0.01590397208929062
1700856869749403000,1.55040283203125,-0.011229515075683594,0.00008234381675720215,-0.02239535003900528
1700856869766392300,1.567392333984375,-0.012425422668457031,0.0006670951843261719,-0.0798264592885971
1700856869783389200,1.58438916015625,-0.013020515441894531,0.010162979364395142,-0.12757635116577148
1700856869800381700,1.601381591796875,-0.013022422790527344,0.0006252825260162354,-0.13217957317829132
1700856869817374000,1.6183740234375,-0.02199840545654297,0.0006592869758605957,-0.09853588789701462
1700856869834363600,1.63536376953125,-0.007040977478027344,-0.004786700010299683,-0.041013963520526886
1700856869851364400,1.6523642578125,-0.020795822143554688,-0.019239813089370728,0.006827831268310547
1700856869868357000,1.669357177734375,-0.015409469604492188,-0.024066627025604248,0.021183155477046967
1700856869885346300,1.68634619140625,-0.006434440612792969,-0.009756147861480713,-0.017016250640153885
1700856869902342100,1.703342041015625,-0.021989822387695312,0.005239695310592651,-0.06957082450389862
1700856869919336700,1.720336669921875,-0.013017654418945312,0.0004374980926513672,-0.11722789704799652
1700856869936327200,1.7373271484375,-0.013020515441894531,-0.004311561584472656,-0.13134759664535522
1700856869953323500,1.754323486328125,-0.008234977722167969,0.0052423179149627686,-0.10729293525218964
1700856869970316000,1.77131591796875,-0.01661205291748047,-0.004890799522399902,-0.05453500524163246
1700856869987310600,1.788310546875,-0.016016006469726562,-0.01919582486152649,0.002835724502801895
1700856870004300500,1.805300537109375,-0.015417098999023438,-0.014402687549591064,0.01710226759314537
1700856870021297400,1.82229736328125,-0.006443977355957031,-0.014393925666809082,-0.0021221227943897247
1700856870038290000,1.8392900390625,-0.012425422668457031,0.0005510449409484863,-0.06434880942106247
1700856870055280600,1.85628076171875,-0.01781177520751953,0.005366712808609009,-0.10726567357778549
1700856870072276500,1.8732763671875,-0.013026237487792969,0.0005638003349304199,-0.12148931622505188
1700856870089283300,1.890283447265625,-0.013029098510742188,0.0006007552146911621,-0.10222256183624268
1700856870106259200,1.90725927734375,-0.007049560546875,0.0006366372108459473,-0.0590212382376194
1700856870123259600,1.924259765625,-0.016019821166992188,-0.014370054006576538,-0.02082519233226776
1700856870140250400,1.94125048828125,-0.010638236999511719,-0.014309406280517578,0.0174715556204319
1700856870157245400,1.958245361328125,-0.011235237121582031,-0.009571254253387451,-0.006533686071634293
1700856870174234600,1.975234619140625,-0.011831283569335938,0.004769176244735718,-0.04957951605319977
1700856870191230500,1.99223046875,-0.0172119140625,0.00529596209526062,-0.09744501113891602
1700856870208225500,2.0092255859375,-0.008241653442382812,0.0005473494529724121,-0.12123674899339676
1700856870225215000,2.026215087890625,-0.0034580230712890625,0.0005871355533599854,-0.11162147670984268
1700856870242211000,2.043211181640625,-0.01242828369140625,0.0005252063274383545,-0.0684046670794487
1700856870259194400,2.0601943359375,-0.011235237121582031,-0.009593307971954346,-0.015790436416864395
1700856870276195300,2.0771953125,-0.00644683837890625,-0.019204437732696533,0.008164267987012863
1700856870293194000,2.094194091796875,-0.016021728515625,-0.009578198194503784,-0.001389920711517334
1700856870310190800,2.11119091796875,-0.007046699523925781,-0.009631693363189697,-0.039499759674072266
1700856870327193000,2.128193115234375,-0.007647514343261719,0.005353182554244995,-0.08716703206300735
1700856870344161800,2.145161865234375,-0.003459930419921875,-0.009010106325149536,-0.11101330816745758
1700856870361162000,2.162161865234375,-0.013034820556640625,-0.008963048458099365,-0.1108190193772316
1700856870378160000,2.17916015625,-0.012438774108886719,0.010211944580078125,-0.07237669080495834
1700856870395153200,2.196153076171875,-0.007054328918457031,0.00003263354301452637,-0.034101709723472595
1700856870412149000,2.21314892578125,-0.020814895629882812,-0.014268428087234497,-0.0006659626960754395
1700856870429141000,2.23014111328125,-0.01602649688720703,-0.01914280652999878,-0.0006492435932159424
1700856870446129400,2.24712939453125,-0.011837959289550781,-0.004783958196640015,-0.034141287207603455
1700856870463127800,2.2641279296875,-0.012438774108886719,0.0006404519081115723,-0.08191421627998352
1700856870480117000,2.281116943359375,-0.008253097534179688,0.000680774450302124,-0.11048810184001923
1700856870497111300,2.298111328125,-0.013039588928222656,0.0006735622882843018,-0.10550065338611603
1700856870514105600,2.315105712890625,-0.0076541900634765625,0.0006041526794433594,-0.07672460377216339
1700856870531099000,2.332098876953125,-0.007058143615722656,0.00482410192489624,-0.043111979961395264
1700856870548094200,2.34909423828125,-0.016031265258789062,-0.00953492522239685,-0.009558591991662979
1700856870565083400,2.36608349609375,-0.011247634887695312,-0.01425933837890625,-0.000014822930097579956
1700856870582079200,2.383079345703125,-0.016632080078125,-0.004690021276473999,-0.02871977537870407
1700856870599074300,2.40007421875,-0.012441635131835938,-0.004148900508880615,-0.0764932706952095
1700856870616063500,2.4170634765625,-0.022611618041992188,0.0006174445152282715,-0.1050180196762085
1700856870633060400,2.434060302734375,-0.013040542602539062,-0.004178851842880249,-0.10476529598236084
1700856870650052900,2.451052978515625,-0.017228126525878906,0.010155320167541504,-0.08550012111663818
1700856870667048200,2.468048095703125,-0.02141571044921875,-0.004814267158508301,-0.047144390642642975
1700856870684039200,2.4850390625,-0.0064601898193359375,-0.014382928609848022,-0.013623092323541641
1700856870701018000,2.50201806640625,-0.01603221893310547,-0.009589821100234985,0.0007641203701496124
1700856870718028300,2.5190283203125,-0.01662921905517578,-0.009633690118789673,-0.02315487712621689
1700856870735014700,2.5360146484375,-0.012442588806152344,0.005358248949050903,-0.06132549047470093
1700856870752003300,2.55300341796875,-0.01723194122314453,0.0006130635738372803,-0.0898694396018982
1700856870769018400,2.570018310546875,-0.012447357177734375,-0.004141122102737427,-0.0945051833987236
1700856870785998000,2.586998046875,-0.017235755920410156,0.0006847679615020752,-0.08474358171224594
1700856870802976300,2.603976318359375,-0.016640663146972656,0.0001220405101776123,-0.04641350731253624
1700856870819987200,2.6209873046875,-0.01604461669921875,-0.009403795003890991,-0.0224611796438694
1700856870836982300,2.637982177734375,-0.011260986328125,-0.014122068881988525,0.0013884566724300385
1700856870853973200,2.65497314453125,-0.01604747772216797,-0.009332984685897827,-0.022539202123880386
1700856870870965800,2.6719658203125,-0.011859893798828125,0.00023278594017028809,-0.05123933404684067
1700856870887962600,2.688962646484375,-0.017246246337890625,-0.0039057135581970215,-0.08944563567638397
1700856870904951300,2.705951416015625,-0.008270263671875,-0.003967165946960449,-0.09880256652832031
1700856870921950000,2.722949951171875,-0.01245880126953125,0.0008032917976379395,-0.0842529833316803
1700856870938943200,2.739943115234375,-0.017246246337890625,0.005615144968032837,-0.06499937921762466
1700856870955933700,2.75693359375,-0.011865615844726562,-0.009285897016525269,-0.021885007619857788
1700856870972930800,2.773930908203125,-0.02084064483642578,-0.01400783658027649,-0.007582869380712509
1700856870989916200,2.790916259765625,-0.006484031677246094,-0.013990283012390137,-0.021932024508714676
1700856871006930700,2.8079306640625,-0.0070819854736328125,-0.0038264095783233643,-0.05069168657064438
1700856871023910700,2.82491064453125,-0.012468338012695312,0.0009942948818206787,-0.07929129898548126
1700856871040900400,2.841900390625,-0.013063430786132812,0.0009226202964782715,-0.1031481921672821
1700856871057897000,2.85889697265625,-0.012468338012695312,-0.0038230717182159424,-0.08858539164066315
1700856871074885600,2.8758857421875,-0.01665496826171875,-0.004432082176208496,-0.05508352071046829
1700856871091882800,2.8928828125,-0.026228904724121094,-0.009167850017547607,-0.026389040052890778
1700856871108874800,2.909874755859375,-0.016057968139648438,-0.009214282035827637,-0.0071463026106357574
1700856871125868000,2.926867919921875,-0.006488800048828125,-0.009148955345153809,-0.011884916573762894
1700856871142860500,2.943860595703125,-0.011876106262207031,-0.0037147104740142822,-0.05012107267975807
1700856871159845000,2.96084521484375,-0.012475967407226562,0.005886703729629517,-0.07388685643672943
1700856871176847400,2.977847412109375,-0.017266273498535156,-0.0035888850688934326,-0.08819261193275452
1700856871193844700,2.9948447265625,-0.01726245880126953,-0.008483171463012695,-0.09276404976844788
1700856871210839300,3.01183935546875,-0.007693290710449219,-0.0036574602127075195,-0.06398577988147736
1700856871227831600,3.02883154296875,-0.016669273376464844,-0.00420573353767395,-0.0304271150380373
1700856871244821200,3.0458212890625,-0.006503105163574219,-0.01371699571609497,-0.0064383335411548615
1700856871261816600,3.062816650390625,-0.011294364929199219,-0.013600558042526245,-0.015960820019245148
1700856871278811400,3.079811279296875,-0.021460533142089844,0.0006990730762481689,-0.03989167511463165
1700856871295802400,3.09680224609375,-0.007702827453613281,-0.008269637823104858,-0.07321956008672714
1700856871312796200,3.113796142578125,-0.01248931884765625,0.0012904703617095947,-0.09214551746845245
1700856871329791000,3.130791015625,-0.012490272521972656,-0.0034918785095214844,-0.08717848360538483
1700856871346784500,3.147784423828125,-0.012490272521972656,0.006062924861907959,-0.06783881038427353
1700856871363777800,3.16477783203125,-0.011895179748535156,0.0007242262363433838,-0.0390370711684227
1700856871380771300,3.181771240234375,-0.011300086975097656,-0.00879061222076416,-0.01508139818906784
1700856871397764900,3.198764892578125,-0.011300086975097656,-0.013555914163589478,-0.019900426268577576
1700856871414758400,3.21575830078125,-0.011896133422851562,-0.004030555486679077,-0.038987092673778534
1700856871431751700,3.232751708984375,-0.01728057861328125,0.0061279237270355225,-0.0627487450838089
1700856871448745200,3.2497451171875,-0.012495994567871094,-0.003450244665145874,-0.08168373256921768
1700856871465738500,3.266738525390625,-0.012495994567871094,0.0013179481029510498,-0.08151628077030182
1700856871482732300,3.283732177734375,-0.012495040893554688,0.0013066530227661133,-0.0671694353222847
1700856871499715300,3.30071533203125,-0.021470069885253906,-0.004027694463729858,-0.047929443418979645
1700856871516718600,3.317718505859375,-0.020873069763183594,-0.008809179067611694,-0.019122857600450516
1700856871533712400,3.33471240234375,-0.02087688446044922,-0.013523280620574951,-0.014371253550052643
1700856871550700800,3.35170068359375,-0.016692161560058594,-0.0039018094539642334,-0.03336120396852493
1700856871567699200,3.36869921875,-0.012501716613769531,0.006205499172210693,-0.06196770817041397
1700856871584692500,3.3856923828125,-0.012502670288085938,-0.0033725202083587646,-0.08095982670783997
1700856871601686000,3.40268603515625,-0.01729106903076172,-0.003329038619995117,-0.07118229568004608
1700856871618679300,3.41967919921875,-0.012509346008300781,-0.008059710264205933,-0.06619571149349213
1700856871635675100,3.436675048828125,-0.016699790954589844,-0.008607417345046997,-0.04211974889039993
1700856871652663800,3.453663818359375,-0.01669788360595703,-0.003872603178024292,-0.022875938564538956
1700856871669659400,3.470659423828125,-0.021484375,-0.008642256259918213,-0.02284182608127594
1700856871686653200,3.487653076171875,-0.016701698303222656,0.0009852349758148193,-0.03719567507505417
1700856871703646500,3.504646484375,-0.0029497146606445312,0.001729339361190796,-0.05623249337077141
1700856871720640000,3.521639892578125,-0.012524604797363281,-0.007787823677062988,-0.07521159201860428
1700856871737633000,3.538633056640625,-0.017313003540039062,-0.0029531121253967285,-0.07499624788761139
1700856871754626600,3.55562646484375,-0.0077419281005859375,0.0018254220485687256,-0.07000160217285156
1700856871771620000,3.5726201171875,-0.011928558349609375,0.010774672031402588,-0.04123040661215782
1700856871788613400,3.58961328125,-0.011933326721191406,-0.008278131484985352,-0.022035181522369385
1700856871805607200,3.606607177734375,-0.016124725341796875,-0.012991875410079956,-0.021999314427375793
1700856871822589700,3.623589599609375,-0.01194000244140625,-0.008144676685333252,-0.026688406243920326
1700856871839591200,3.640591064453125,-0.01672840118408203,0.0020685195922851562,-0.05525244399905205
1700856871856589800,3.65758984375,-0.022108078002929688,-0.00760158896446228,-0.06936328113079071
1700856871873578000,3.674577880859375,-0.007752418518066406,-0.002817988395690918,-0.0834910124540329
1700856871890577000,3.691576904296875,-0.012537956237792969,0.0019598007202148438,-0.06424672156572342
1700856871907567400,3.7085673828125,-0.011938095092773438,-0.007663995027542114,-0.049822233617305756
1700856871924561000,3.725560791015625,-0.016724586486816406,0.0013023912906646729,-0.020999953150749207
1700856871941550800,3.74255078125,-0.016129493713378906,-0.012987256050109863,-0.020911145955324173
1700856871958548000,3.7595478515625,-0.021515846252441406,-0.0033549070358276367,-0.03532479703426361
1700856871975523000,3.776523193359375,-0.0071620941162109375,0.0020791590213775635,-0.0495900996029377
1700856871992524000,3.79352392578125,0.0018091201782226562,0.002122223377227783,-0.0637625902891159
1700856872009524700,3.810524658203125,-0.012553215026855469,-0.0073434412479400635,-0.07327739894390106
1700856872026525200,3.827525146484375,-0.01734161376953125,-0.002503693103790283,-0.06350259482860565
1700856872043515000,3.844514892578125,-0.01674365997314453,-0.002512633800506592,-0.048972759395837784
1700856872060508400,3.86150830078125,-0.01674365997314453,0.001673281192779541,-0.02975762076675892
1700856872077502000,3.878501953125,-0.016747474670410156,-0.007836669683456421,-0.024925285950303078
1700856872094495200,3.8954951171875,-0.00717926025390625,-0.01255449652671814,-0.020101051777601242
1700856872111488800,3.91248876953125,-0.016750335693359375,0.0018009841442108154,-0.044010236859321594
1700856872128482300,3.929482421875,-0.0173492431640625,-0.002389967441558838,-0.06769576668739319
1700856872145475800,3.946475830078125,-0.012563705444335938,0.00238075852394104,-0.06754143536090851
1700856872162469400,3.963469482421875,-0.007781028747558594,0.0024224817752838135,-0.06737861037254333
1700856872179453700,3.98045361328125,-0.016750335693359375,-0.0030592381954193115,-0.04332730174064636
1700856872196454000,3.997453857421875,-0.01675128936767578,-0.00306093692779541,-0.033569976687431335
1700856872213449500,4.014449462890625,-0.011966705322265625,-0.012608498334884644,-0.019179347902536392
1700856872230443000,4.031443115234375,-0.021538734436035156,-0.003032177686691284,-0.028703292831778526
1700856872247435000,4.04843505859375,-0.011967658996582031,-0.003032773733139038,-0.03815202787518501
1700856872264428300,4.06542822265625,-0.01735210418701172,0.0023547112941741943,-0.052290719002485275
1700856872281425700,4.08242578125,-0.012569427490234375,-0.0023892223834991455,-0.07126698642969131
1700856872298416600,4.099416748046875,-0.01735401153564453,-0.007222384214401245,-0.061541564762592316
1700856872315409700,4.11640966796875,-0.011972427368164062,-0.0023884177207946777,-0.047106657177209854
1700856872332403200,4.1334033203125,-0.016755104064941406,0.0017281174659729004,-0.03261704742908478
1700856872349396700,4.150396728515625,-0.007182121276855469,-0.012667864561080933,-0.0182192362844944
1700856872366390300,4.167390380859375,-0.011971473693847656,-0.01259922981262207,-0.018133774399757385
1700856872383390200,4.18439013671875,-0.016759872436523438,-0.007751673460006714,-0.04203309118747711
1700856872400377000,4.201377197265625,-0.012574195861816406,-0.0023258626461029053,-0.05631712079048157
1700856872417370600,4.21837060546875,-0.01735973358154297,0.002444446086883545,-0.06568202376365662
1700856872434364000,4.235364013671875,-0.007788658142089844,0.0024296045303344727,-0.06552250683307648
1700856872451357200,4.252357177734375,-0.016760826110839844,-0.0024158358573913574,-0.04615657776594162
1700856872468361700,4.26936181640625,-0.016760826110839844,-0.0078012943267822266,-0.03171990066766739
1700856872485344300,4.28634423828125,-0.016760826110839844,-0.0030108392238616943,-0.026822427287697792
1700856872502337800,4.303337890625,-0.016765594482421875,-0.012513041496276855,-0.02667105756700039
1700856872519330800,4.320330810546875,-0.016762733459472656,0.0017856359481811523,-0.03617367893457413
1700856872536324400,4.337324462890625,-0.012574195861816406,0.0071416497230529785,-0.055141299962997437
1700856872553318000,4.35431787109375,-0.01735973358154297,0.002340257167816162,-0.06455676257610321
1700856872570311200,4.371311279296875,-0.007786750793457031,-0.0025044679641723633,-0.06439685821533203
1700856872587304700,4.3883046875,-0.01676177978515625,-0.00305938720703125,-0.04518584907054901
1700856872604298200,4.40529833984375,-0.007191658020019531,-0.002462238073348999,-0.040306538343429565
1700856872621291800,4.422291748046875,-0.011977195739746094,0.006503671407699585,-0.016291901469230652
1700856872638285000,4.43928515625,-0.021549224853515625,-0.0030629634857177734,-0.025768155232071877
1700856872655276800,4.45627685546875,-0.021549224853515625,0.001721411943435669,-0.035273972898721695
1700856872672273700,4.473273681640625,-0.012575149536132812,0.007084697484970093,-0.05435006320476532
1700856872689265400,4.490265380859375,-0.012577056884765625,-0.002444237470626831,-0.058939188718795776
1700856872706258700,4.5072587890625,-0.012579917907714844,-0.002402573823928833,-0.05405649542808533
1700856872723252000,4.524251953125,-0.017370223999023438,0.002474963665008545,-0.05386839807033539
1700856872740245500,4.54124560546875,-0.011987686157226562,-0.0029099881649017334,-0.03458612412214279
1700856872757239000,4.558239013671875,-0.016775131225585938,-0.0076496899127960205,-0.025053882971405983
1700856872774230000,4.57522998046875,-0.016768455505371094,-0.007803112268447876,-0.020166495814919472
1700856872791228700,4.592228759765625,-0.021556854248046875,-0.0029802024364471436,-0.029614409431815147
1700856872808219400,4.609219482421875,-0.0024118423461914062,-0.00722464919090271,-0.04868936538696289
1700856872825212700,4.626212646484375,-0.017362594604492188,0.011819034814834595,-0.05333871394395828
1700856872842206000,4.6432060546875,-0.007786750793457031,-0.007439970970153809,-0.06274695694446564
1700856872859188700,4.660188720703125,-0.012568473815917969,0.0020466744899749756,-0.048198599368333817
1700856872876193000,4.677193115234375,-0.011971473693847656,-0.007524609565734863,-0.038628388196229935
1700856872893186600,4.6941865234375,-0.016756057739257812,0.001436471939086914,-0.024259371683001518
1700856872910180000,4.71118017578125,-0.011965751647949219,-0.00345611572265625,-0.024200791493058205
1700856872927173400,4.72817333984375,-0.016754150390625,-0.0034173429012298584,-0.03370235115289688
1700856872944166700,4.745166748046875,-0.012563705444335938,-0.0028892457485198975,-0.05262449383735657
1700856872961160200,4.76216015625,-0.01256561279296875,-0.0028585195541381836,-0.05248818174004555
1700856872978153700,4.77915380859375,-0.017353057861328125,0.0019570887088775635,-0.05722096562385559
1700856872995147300,4.796147216796875,-0.0221405029296875,0.0013894140720367432,-0.047513123601675034
1700856873012140500,4.813140625,-0.021543502807617188,-0.003357917070388794,-0.03789224103093147
1700856873029131800,4.8301318359375,-0.011972427368164062,-0.008155196905136108,-0.02350829727947712
1700856873046126300,4.847126220703125,-0.02154064178466797,-0.003433048725128174,-0.033012982457876205
1700856873063124200,4.864124267578125,-0.007185935974121094,0.0019827187061309814,-0.03770715743303299
1700856873080114400,4.881114501953125,-0.016754150390625,-0.002867281436920166,-0.04711812734603882
1700856873097109800,4.89810986328125,-0.01735210418701172,0.0018981099128723145,-0.05176486447453499
1700856873114098700,4.9150986328125,-0.007778167724609375,0.0018204450607299805,-0.056397877633571625
1700856873131094800,4.9320947265625,-0.012563705444335938,0.001807183027267456,-0.04674088954925537
1700856873148088000,4.949088134765625,-0.007182121276855469,-0.002933204174041748,-0.037055980414152145
1700856873165081300,4.966081298828125,-0.016753196716308594,0.0012356340885162354,-0.02257842756807804
1700856873182075100,4.9830751953125,-0.016753196716308594,-0.003568589687347412,-0.03202010691165924
1700856873199068200,5.000068115234375,-0.011967658996582031,-0.002975642681121826,-0.036614056676626205
1700856873216061400,5.0170615234375,-0.016745567321777344,-0.0037450194358825684,-0.04129370301961899
1700856873233055200,5.03405517578125,-0.012554168701171875,-0.0032605528831481934,-0.050689853727817535
1700856873250048500,5.051048583984375,-0.012554168701171875,0.0015054941177368164,-0.05532129108905792
1700856873267042000,5.0680419921875,-0.011958122253417969,-0.0032410919666290283,-0.04566997289657593
1700856873284035300,5.085035400390625,-0.016742706298828125,0.0009279847145080566,-0.03121240995824337
1700856873301015000,5.10201513671875,-0.01674365997314453,0.005739569664001465,-0.026303404942154884
1700856873318022100,5.119022216796875,-0.011960983276367188,-0.0037912726402282715,-0.026245078071951866
1700856873335010000,5.136010009765625,-0.011962890625,0.0010270774364471436,-0.02612212486565113
1700856873352009000,5.153009033203125,-0.011961936950683594,-0.003178715705871582,-0.040381189435720444
1700856873369002500,5.17000244140625,-0.007777214050292969,-0.0031465888023376465,-0.04977346584200859
1700856873385996000,5.18699609375,-0.012563705444335938,0.0016776025295257568,-0.0544537678360939
1700856873402989300,5.2039892578125,-0.016750335693359375,-0.0031644999980926514,-0.04469216987490654
1700856873419982800,5.22098291015625,-0.02153778076171875,0.0010548532009124756,-0.034966129809617996
1700856873436976400,5.237976318359375,-0.0071773529052734375,0.0015840232372283936,-0.030148783698678017
1700856873453969700,5.2549697265625,-0.01674652099609375,-0.003860950469970703,-0.0252902302891016
1700856873470963200,5.271963134765625,-0.016744613647460938,-0.00869324803352356,-0.030012303963303566
1700856873487956500,5.28895654296875,-0.0023851394653320312,0.006179630756378174,-0.03942440450191498
1700856873504953000,5.305953125,-0.012556076049804688,0.0014334321022033691,-0.04886605218052864
1700856873521943600,5.322943603515625,-0.012556076049804688,-0.003364056348800659,-0.04857504367828369
1700856873538936800,5.339936767578125,-0.007171630859375,-0.008205175399780273,-0.038720306009054184
1700856873555930000,5.35693017578125,-0.007171630859375,0.001355290412902832,-0.029063792899250984
1700856873572914000,5.373913818359375,-0.007171630859375,-0.0034471750259399414,-0.02888435684144497
1700856873589917200,5.390917236328125,-0.011958122253417969,-0.008789986371994019,-0.023980213329195976
1700856873606910700,5.40791064453125,-0.0023832321166992188,-0.008289188146591187,-0.02864045463502407
1700856873623903700,5.42490380859375,-0.0023794174194335938,0.0011716485023498535,-0.033293478190898895
1700856873640897300,5.441897216796875,-0.011949539184570312,0.0011403858661651611,-0.0379757359623909
1700856873657889300,5.45888916015625,-0.017330169677734375,-0.008492618799209595,-0.05212853103876114
1700856873674884000,5.475884033203125,-0.0119476318359375,-0.0037101805210113525,-0.04237974435091019
1700856873691878000,5.4928779296875,-0.016735076904296875,0.0005252659320831299,-0.037479858845472336
1700856873708871200,5.50987109375,-0.01673603057861328,-0.004261970520019531,-0.03260189667344093
1700856873725864700,5.52686474609375,-0.01673412322998047,-0.01387864351272583,-0.022967549040913582
1700856873742857700,5.543857666015625,-0.021516799926757812,-0.0043672919273376465,-0.027682920917868614
1700856873759851300,5.560851318359375,-0.021513938903808594,0.005137413740158081,-0.03711601346731186
1700856873776844800,5.5778447265625,-0.0077571868896484375,-0.003794252872467041,-0.05134246498346329
1700856873793838600,5.594838623046875,-0.012542724609375,-0.0038112998008728027,-0.04642387107014656
1700856873810831600,5.61183154296875,-0.01732635498046875,-0.003873169422149658,-0.05091256648302078
1700856873827825200,5.6288251953125,-0.011944770812988281,-0.004443913698196411,-0.02682860568165779
1700856873844818700,5.645818603515625,-0.016730308532714844,0.00032517313957214355,-0.026644326746463776
1700856873861810400,5.662810546875,-0.011944770812988281,-0.009246855974197388,-0.02184411697089672
1700856873878808300,5.679808349609375,-0.01672649383544922,-0.01412743330001831,-0.026569481939077377
1700856873895787800,5.696787841796875,-0.011940956115722656,-0.008744269609451294,-0.031234070658683777
1700856873912791300,5.713791259765625,-0.02210521697998047,-0.004069656133651733,-0.045527491718530655
1700856873929786000,5.7307861328125,-0.012534141540527344,0.005477815866470337,-0.04533568397164345
1700856873946779400,5.747779296875,-0.011937141418457031,-0.004059344530105591,-0.035595137625932693
1700856873963772700,5.764772705078125,-0.01194000244140625,-0.004614681005477905,-0.030614448711276054
1700856873980754400,5.78175439453125,-0.011942863464355469,-0.004571020603179932,-0.0257579255849123
1700856873997762300,5.79876220703125,-0.016733169555664062,-0.004477143287658691,-0.025740237906575203
1700856874014752800,5.815752685546875,-0.011949539184570312,-0.004434138536453247,-0.025633562356233597
1700856874031746600,5.83274658203125,-0.016733169555664062,-0.004485875368118286,-0.030292723327875137
1700856874048739800,5.84973974609375,-0.02151775360107422,0.00506138801574707,-0.039794597774744034
1700856874065733400,5.8667333984375,-0.007760047912597656,0.005678653717041016,-0.03957075625658035
1700856874082726400,5.883726318359375,-0.0119476318359375,0.0008766353130340576,-0.03945682942867279
1700856874099720400,5.900720458984375,-0.007161140441894531,-0.003917902708053589,-0.03934039920568466
1700856874116713500,5.91771337890625,-0.021515846252441406,-0.004574567079544067,-0.02490920200943947
1700856874133706800,5.934706787109375,-0.02630138397216797,-0.00936177372932434,-0.020057501271367073
1700856874150700500,5.951700439453125,-0.011944770812988281,0.00020247697830200195,-0.029506364837288857
1700856874167693800,5.96869384765625,-0.016730308532714844,-0.003986090421676636,-0.034157708287239075
1700856874184687400,5.985687255859375,-0.012545585632324219,0.0008344650268554688,-0.038794323801994324
1700856874201681000,6.002680908203125,-0.0029764175415039062,0.000854194164276123,-0.03862836956977844
1700856874218674000,6.019673828125,-0.022123336791992188,-0.003832608461380005,-0.03850126639008522
1700856874235673000,6.036673095703125,-0.011954307556152344,-0.0044182538986206055,-0.028847090899944305
1700856874252660700,6.05366064453125,-0.011958122253417969,-0.004340708255767822,-0.024041473865509033
1700856874269654500,6.070654541015625,-0.0071735382080078125,-0.003724396228790283,-0.023976752534508705
1700856874286639400,6.087639404296875,-0.011962890625,-0.004244387149810791,-0.02382976934313774
1700856874303639300,6.104639404296875,-0.016747474670410156,-0.004276543855667114,-0.0237724669277668
1700856874320634600,6.121634521484375,-0.01675128936767578,-0.0089854896068573,-0.03320302069187164
1700856874337630000,6.1386298828125,-0.012558937072753906,0.001084357500076294,-0.04260585829615593
1700856874354621700,6.15562158203125,-0.016748428344726562,-0.004289805889129639,-0.03282640501856804
1700856874371612700,6.17261279296875,-0.016750335693359375,-0.008436858654022217,-0.03268707916140556
1700856874388610600,6.189610595703125,-0.01674938201904297,-0.004274576902389526,-0.023050425574183464
1700856874405591300,6.20659130859375,-0.016748428344726562,0.005284816026687622,-0.0181563887745142
1700856874422595300,6.22359521484375,-0.01674652099609375,0.005214661359786987,-0.027601871639490128
1700856874439588900,6.2405888671875,-0.0646047592163086,-0.009112536907196045,-0.036323562264442444
1700856874456582400,6.25758251953125,0.040088653564453125,-0.008678793907165527,-0.04694022238254547
1700856874473575700,6.27457568359375,-0.007167816162109375,-0.009342074394226074,-0.007728096097707748
1700856874490569000,6.29156884765625,-0.059212684631347656,-0.018895596265792847,0.011388922110199928
1700856874507562800,6.308562744140625,0.055042266845703125,-0.013444215059280396,-0.012979873456060886
1700856874524556000,6.32555615234375,-0.06938362121582031,0.019418656826019287,-0.02600254863500595
1700856874541549300,6.34254931640625,-0.0077610015869140625,0.024623841047286987,-0.05994069576263428
1700856874558542600,6.35954248046875,0.0059986114501953125,0.00544363260269165,-0.07394152134656906
1700856874575536000,6.3765361328125,-0.05561256408691406,-0.014399141073226929,-0.05392633378505707
1700856874592529700,6.39352978515625,0.02155017852783203,-0.03761559724807739,-0.03574848920106888
1700856874609523200,6.410523193359375,-0.03528404235839844,-0.023754537105560303,-0.006408434361219406
1700856874626516700,6.427516845703125,-0.011355400085449219,-0.004624515771865845,0.012703705579042435
1700856874643509800,6.444509765625,0.011981010437011719,0.014979720115661621,0.0031889863312244415
1700856874660503600,6.461503662109375,-0.040653228759765625,0.019000113010406494,-0.030205300077795982
1700856874677502500,6.47850244140625,0.0018243789672851562,0.00989311933517456,-0.053890410810709
1700856874694490400,6.495490478515625,-0.017317771911621094,-0.01405954360961914,-0.058440595865249634
1700856874711484000,6.51248388671875,-0.03107929229736328,-0.009819895029067993,-0.034285932779312134
1700856874728477000,6.529476806640625,0.0024251937866210938,-0.004551231861114502,-0.02937404438853264
1700856874745482800,6.546482666015625,-0.02628612518310547,-0.0004170835018157959,-0.015014586970210075
1700856874762462000,6.5634619140625,-0.0071392059326171875,0.00007033348083496094,-0.01980244368314743
1700856874779459600,6.58045947265625,-0.016709327697753906,-0.019710510969161987,-0.019697541370987892
1700856874796450800,6.597450927734375,-0.016709327697753906,-0.010136008262634277,-0.019597498700022697
1700856874813444400,6.6144443359375,-0.012516975402832031,0.009493976831436157,-0.03372710570693016
1700856874830435000,6.63143505859375,-0.022083282470703125,0.009374022483825684,-0.03830426186323166
1700856874847433500,6.64843359375,-0.01730060577392578,-0.00014832615852355957,-0.03805021941661835
1700856874864424400,6.665424560546875,-0.007126808166503906,0.004534721374511719,-0.028345299884676933
1700856874881418000,6.68241796875,-0.016696929931640625,-0.010447144508361816,-0.02827286720275879
1700856874898411300,6.699411376953125,-0.016701698303222656,-0.029495030641555786,-0.00910605676472187
1700856874915406300,6.71640625,-0.011916160583496094,-0.015125781297683716,-0.008990427479147911
1700856874932397300,6.733397216796875,-0.012509346008300781,0.03798532485961914,-0.02803059108555317
1700856874949391000,6.75039111328125,-0.02207660675048828,0.0379086434841156,-0.05123237520456314
1700856874966385200,6.76738525390625,-0.0029354095458984375,-0.024273455142974854,-0.05653800070285797
1700856874983387400,6.784387451171875,-0.016706466674804688,-0.05753433704376221,-0.04204544425010681
1700856875000372000,6.8013720703125,-0.007144927978515625,-0.038175612688064575,-0.022879622876644135
1700856875017365500,6.818365478515625,-0.007145881652832031,0.009098321199417114,-0.013228537514805794
1700856875034358800,6.83535888671875,-0.011929512023925781,0.028203487396240234,-0.017872333526611328
1700856875051351800,6.852351806640625,-0.017314910888671875,0.018669426441192627,-0.02748592384159565
1700856875068344000,6.869343994140625,-0.01730823516845703,0.019116133451461792,-0.04174400493502617
1700856875085339100,6.886339111328125,-0.007732391357421875,-0.00014510750770568848,-0.04640631005167961
1700856875102332700,6.903332763671875,-0.011923789978027344,-0.028789520263671875,-0.0318901464343071
1700856875119326000,6.920325927734375,-0.01671600341796875,-0.04838082194328308,-0.012700753286480904
1700856875136326400,6.937326416015625,-0.007145881652832031,-0.009478777647018433,-0.026884501799941063
1700856875153312800,6.954312744140625,0.04968833923339844,0.0334719717502594,-0.03144005686044693
1700856875170306300,6.971306396484375,-0.04063892364501953,0.01849764585494995,-0.016388092190027237
1700856875187299800,6.9882998046875,-0.007142066955566406,-0.0197451114654541,0.0021063629537820816
1700856875204290600,7.00529052734375,0.011996269226074219,-0.033395081758499146,0.002131890505552292
1700856875221289200,7.022289306640625,-0.03586387634277344,-0.014779806137084961,-0.012265792116522789
1700856875238292500,7.03929248046875,0.01677703857421875,-0.009364515542984009,-0.026557879522442818
1700856875255273700,7.056273681640625,-0.02689647674560547,-0.014055728912353516,-0.04090907424688339
1700856875272267000,7.07326708984375,-0.017322540283203125,0.00981929898262024,-0.05988200008869171
1700856875289260300,7.09026025390625,-0.002964019775390625,0.019331932067871094,-0.05020567774772644
1700856875306253800,7.10725390625,-0.031080245971679688,0.004400044679641724,-0.021446360275149345
1700856875323247000,7.1242470703125,-0.01194000244140625,-0.019481301307678223,-0.007018126547336578
1700856875340242400,7.141242431640625,-0.01672840118408203,-0.005078643560409546,0.002582930028438568
1700856875357232400,7.158232421875,-0.011942863464355469,0.00927773118019104,-0.006950626149773598
1700856875374226700,7.175226806640625,-0.011939048767089844,0.009193569421768188,-0.021206844598054886
1700856875391221000,7.192220947265625,-0.012539863586425781,-0.023654818534851074,-0.05924220383167267
1700856875408212000,7.2092119140625,-0.0029764175415039062,-0.018724709749221802,-0.0686270222067833
1700856875425210400,7.22621044921875,-0.026906967163085938,-0.013871431350708008,-0.05885109677910805
1700856875442201000,7.243201171875,-0.012552261352539062,0.0005059242248535156,-0.030024118721485138
1700856875459194600,7.260194580078125,-0.011953353881835938,0.009467601776123047,-0.005993528291583061
1700856875476188400,7.2771884765625,-0.011954307556152344,0.014278560876846313,0.008341241627931595
1700856875493181700,7.294181640625,-0.011953353881835938,0.023817986249923706,-0.001207098364830017
1700856875510175200,7.31117529296875,-0.02152538299560547,-0.00007903575897216797,-0.015480108559131622
1700856875527168800,7.328168701171875,-0.01674652099609375,-0.051982223987579346,-0.029810896143317223
1700856875544162000,7.345162109375,-0.0023965835571289062,-0.04706534743309021,-0.034511685371398926
1700856875561155300,7.3621552734375,-0.017351150512695312,0.015159666538238525,-0.04873795062303543
1700856875578148600,7.379148681640625,-0.007770538330078125,0.038868993520736694,-0.034315325319767
1700856875595142400,7.396142333984375,-0.011954307556152344,0.02441045641899109,-0.019820231944322586
1700856875612135400,7.413135498046875,-0.011950492858886719,-0.00496220588684082,-0.014954864978790283
1700856875629129200,7.430129150390625,-0.011954307556152344,-0.019264310598373413,-0.010163316503167152
1700856875646122500,7.44712255859375,-0.016745567321777344,-0.023920774459838867,-0.0005976352840662003
1700856875663116000,7.464115966796875,-0.011964797973632812,-0.033373236656188965,-0.010156044736504555
1700856875680109300,7.481109375,-0.011963844299316406,-0.01367419958114624,-0.024411091580986977
1700856875697102800,7.498102783203125,-0.0077686309814453125,0.029234260320663452,-0.04338366538286209
1700856875714096400,7.515096435546875,-0.0029802322387695312,0.024371564388275146,-0.05276453495025635
1700856875731089700,7.532089599609375,-0.0077648162841796875,0.005218207836151123,-0.042976610362529755
1700856875748083200,7.549083251953125,-0.0071697235107421875,-0.018648266792297363,-0.019055232405662537
1700856875765076500,7.566076416015625,-0.016740798950195312,-0.009687334299087524,0.00012020207941532135
1700856875782070000,7.583070068359375,-0.025716781616210938,-0.019188344478607178,0.004805712029337883
1700856875799063600,7.6000634765625,-0.011960983276367188,-0.009562402963638306,-0.009481294080615044
1700856875816056800,7.617056884765625,-0.012561798095703125,0.0054562389850616455,-0.038139451295137405
1700856875833050000,7.634050048828125,-0.0077724456787109375,0.0005816519260406494,-0.05708375573158264
1700856875850041300,7.651041259765625,-0.017348289489746094,0.01502007246017456,-0.056918080896139145
1700856875867037200,7.668037109375,-0.00717926025390625,-0.008888274431228638,-0.023434186354279518
1700856875884030700,7.68503076171875,-0.016158103942871094,-0.014167308807373047,0.009967334568500519
1700856875901015600,7.702015625,-0.0065860748291015625,0.00022026896476745605,0.014657214283943176
1700856875918017500,7.719017578125,-0.016753196716308594,0.014515012502670288,0.0002596396952867508
1700856875935011000,7.736010986328125,-0.017348289489746094,0.005469799041748047,-0.04268163442611694
1700856875952004600,7.753004638671875,-0.012562751770019531,-0.008901268243789673,-0.052065227180719376
1700856875968987400,7.7699873046875,-0.007778167724609375,0.0102461576461792,-0.04709711670875549
1700856875985990700,7.78699072265625,-0.011965751647949219,0.00967109203338623,-0.008835852146148682
1700856876002976500,7.8039765625,-0.02093791961669922,-0.009492278099060059,0.024645265191793442
1700856876019978000,7.82097802734375,-0.016160964965820312,-0.014105409383773804,0.019792048260569572
1700856876036971800,7.8379716796875,-0.02633380889892578,-0.00921565294265747,-0.009018998593091965
1700856876053966300,7.85496630859375,-0.022150039672851562,0.0010312199592590332,-0.03761310875415802
1700856876070956800,7.871956787109375,-0.012582778930664062,-0.003685593605041504,-0.06615262478590012
1700856876087951600,7.88895166015625,-0.026935577392578125,-0.022913843393325806,-0.07072914391756058
1700856876104944000,7.905944091796875,-0.007798194885253906,-0.022820651531219482,-0.06091298162937164
1700856876121939700,7.922939697265625,-0.016770362854003906,-0.009087324142456055,-0.012950001284480095
1700856876138932000,7.939931884765625,0.007755279541015625,0.01484668254852295,0.025286247953772545
1700856876155925500,7.956925537109375,-0.0065937042236328125,0.03862258791923523,0.04430585354566574
1700856876172919000,7.9739189453125,-0.011976242065429688,0.038597673177719116,0.015370171517133713
1700856876189912300,7.990912353515625,-0.012576103210449219,0.015299052000045776,-0.046878062188625336
1700856876206906400,8.00790625,-0.0227508544921875,-0.02766159176826477,-0.08021051436662674
1700856876223899000,8.02489892578125,-0.008402824401855469,-0.037030577659606934,-0.08008286356925964
1700856876240893000,8.041892822265625,-0.01259613037109375,-0.017753779888153076,-0.03698979690670967
1700856876257886200,8.05888623046875,-0.02096843719482422,0.015074759721755981,0.020326465368270874
1700856876274877400,8.07587744140625,-0.006611824035644531,0.010310202836990356,0.04407865181565285
1700856876291875000,8.092875,-0.01618480682373047,-0.008804529905319214,0.024808859452605247
1700856876308866300,8.1098662109375,-0.011996269226074219,-0.0034276247024536133,-0.027786042541265488
1700856876325860000,8.126860107421875,0.010733604431152344,0.020528018474578857,-0.0754133015871048
1700856876342853000,8.14385302734375,-0.09873580932617188,0.02465653419494629,-0.06035540997982025
1700856876359847000,8.160846923828124,0.044830322265625,0.010967463254928589,-0.04703968018293381
1700856876376840200,8.177840087890624,-0.016791343688964844,-0.018196076154708862,0.0014110114425420761
1700856876393833500,8.19483349609375,-0.05927085876464844,-0.04198050498962402,0.02986263670027256
1700856876410827000,8.211826904296874,0.040618896484375,-0.02677968144416809,0.00524984672665596
1700856876427818200,8.228818359375,-0.045523643493652344,0.00614476203918457,-0.02707798033952713
1700856876444806700,8.245806640625,-0.00843048095703125,0.04014500975608826,-0.07524795830249786
1700856876461790000,8.2627900390625,-0.004235267639160156,0.04954683780670166,-0.08933991938829422
1700856876478801000,8.27980078125,-0.026961326599121094,0.01591390371322632,-0.05087316408753395
1700856876495797500,8.296797607421874,0.011914253234863281,-0.022209376096725464,-0.007666993886232376
1700856876512784100,8.3137841796875,-0.015612602233886719,-0.060883522033691406,0.03522832319140434
1700856876529781200,8.33078125,-0.0060520172119140625,-0.07501375675201416,0.039839647710323334
1700856876546774500,8.3477744140625,-0.00666046142578125,-0.04604977369308472,0.001442696899175644
1700856876563767800,8.364767822265625,-0.02221202850341797,0.021510779857635498,-0.04633691906929016
1700856876580761300,8.38176123046875,-0.008444786071777344,0.05479946732521057,-0.06997528672218323
1700856876597754600,8.398754638671875,-0.0036525726318359375,0.05944347381591797,-0.07448475062847137
1700856876614748400,8.41574853515625,-0.016813278198242188,0.006195545196533203,-0.021696139127016068
1700856876631742200,8.4327421875,-0.00664520263671875,-0.027262121438980103,0.030965184792876244
1700856876648732200,8.449732177734376,-0.015626907348632812,-0.031863272190093994,0.05468352884054184
1700856876665731300,8.4667314453125,-0.011439323425292969,0.006396174430847168,0.044892363250255585
1700856876682722000,8.48372216796875,-0.01681995391845703,0.02547997236251831,0.01133074052631855
1700856876699715600,8.500715576171874,-0.02219676971435547,0.016379714012145996,-0.04602783918380737
1700856876716706800,8.517706787109375,-0.022797584533691406,0.006831735372543335,-0.08881160616874695
1700856876733694000,8.53469384765625,-0.013223648071289062,-0.012371718883514404,-0.10289578139781952
1700856876750695700,8.55169580078125,0.0106964111328125,-0.02176797389984131,-0.07393220067024231
1700856876767689200,8.568689208984376,-0.07903575897216797,-0.017560571432113647,-0.01101607084274292
1700856876784682800,8.585682861328126,0.011893272399902344,0.0015516281127929688,0.01698310673236847
1700856876801676000,8.602676025390625,-0.011437416076660156,0.0015643835067749023,0.026496658101677895
1700856876818667000,8.6196669921875,-0.05451202392578125,-0.007922232151031494,0.02686106413602829
1700856876835665700,8.636665771484376,0.01667022705078125,-0.016802221536636353,-0.02636372484266758
1700856876852656400,8.653656494140625,-0.012642860412597656,0.007139235734939575,-0.05489835888147354
1700856876869647000,8.670647216796874,-0.013237953186035156,0.026221901178359985,-0.06427497416734695
1700856876886646000,8.68764599609375,-0.0030660629272460938,0.02135816216468811,-0.05437397584319115
1700856876903636700,8.70463671875,-0.022210121154785156,-0.002529829740524292,-0.0304015651345253
1700856876920630300,8.72163037109375,-0.007262229919433594,-0.026913106441497803,-0.0016514966264367104
1700856876937623600,8.73862353515625,-0.01624298095703125,-0.03153187036514282,0.026946838945150375
1700856876954617000,8.7556171875,-0.0114593505859375,-0.0266876220703125,0.031586192548274994
1700856876971610600,8.772610595703124,0.002300262451171875,0.012202709913253784,-0.0019606128334999084
1700856876988603600,8.789603759765624,-0.012650489807128906,0.04559856653213501,-0.030631307512521744
1700856877005597200,8.80659716796875,-0.008457183837890625,0.04067528247833252,-0.05441795662045479
1700856877022591000,8.823591064453124,-0.022214889526367188,-0.0024077296257019043,-0.0541469007730484
1700856877039584000,8.840583984375,-0.007269859313964844,-0.03573283553123474,-0.030164260417222977
1700856877056559000,8.85755908203125,-0.012063980102539062,-0.04090026021003723,-0.006308247335255146
1700856877073570800,8.87457080078125,-0.011473655700683594,-0.021581947803497314,0.003161247819662094
1700856877090578000,8.891577880859375,-0.012071609497070312,0.007128864526748657,0.007870804518461227
1700856877107558100,8.90855810546875,-0.02164173126220703,0.0262509286403656,0.0030348384752869606
1700856877124551200,8.92555126953125,-0.022233009338378906,0.016524553298950195,-0.025655701756477356
1700856877141544700,8.942544677734375,-0.007879257202148438,-0.0019728243350982666,-0.03982029855251312
1700856877158526500,8.9595263671875,-0.012667655944824219,-0.0019009113311767578,-0.044386617839336395
1700856877175531800,8.97653173828125,-0.012071609497070312,-0.0066487789154052734,-0.02512459084391594
1700856877192525300,8.993525390625,-0.016862869262695312,0.0024409890174865723,-0.00601606909185648
1700856877209515500,9.010515625,-0.012078285217285156,0.007255345582962036,0.0035857008770108223
1700856877226515200,9.02751513671875,-0.012081146240234375,0.0025061070919036865,-0.005993722006678581
1700856877243505400,9.04450537109375,-0.01207733154296875,0.0030537843704223633,-0.02501753158867359
1700856877260498700,9.061498779296874,-0.017465591430664062,-0.01121869683265686,-0.048903509974479675
1700856877277490000,9.078489990234376,-0.022249221801757812,-0.0017001628875732422,-0.03930223733186722
1700856877294485800,9.09548583984375,-0.016866683959960938,0.002512514591217041,-0.0200752355158329
1700856877311483000,9.11248291015625,-0.012081146240234375,-0.002279937267303467,-0.0009332755580544472
1700856877328469000,9.129468994140625,-0.016869544982910156,-0.01177370548248291,0.003898617811501026
1700856877345466000,9.146466064453126,-0.02165985107421875,-0.006902366876602173,-0.015223133377730846
1700856877362459600,9.163459716796876,-0.012087821960449219,0.008044660091400146,-0.015090949833393097
1700856877379452700,9.18045263671875,-0.016875267028808594,-0.0020818710327148438,-0.01975705660879612
1700856877396446200,9.1974462890625,-0.012686729431152344,0.012829810380935669,-0.03397166728973389
1700856877413439700,9.214439697265625,-0.02225780487060547,-0.0015200376510620117,-0.029079638421535492
1700856877430433000,9.23143310546875,-0.0073032379150390625,-0.0015197396278381348,-0.019345449283719063
1700856877447426800,9.2484267578125,-0.012091636657714844,-0.0068434178829193115,-0.009749563410878181
1700856877464420400,9.26542041015625,-0.016877174377441406,0.0027199387550354004,-0.014498315751552582
1700856877481413600,9.28241357421875,-0.012091636657714844,-0.006245613098144531,-0.01923181116580963
1700856877498407200,9.2994072265625,-0.016880035400390625,-0.006783813238143921,-0.014360376633703709
1700856877515400200,9.316400146484375,-0.016881942749023438,-0.00675007700920105,-0.014268630184233189
1700856877532393700,9.333393798828125,-0.017479896545410156,0.012989073991775513,-0.02849171869456768
1700856877549387300,9.35038720703125,-0.012696266174316406,0.003451049327850342,-0.028444429859519005
1700856877566380800,9.367380859375,-0.0073146820068359375,0.0034921765327453613,-0.01865304633975029
1700856877583374000,9.3843740234375,-0.012096405029296875,0.008191406726837158,-0.01864738203585148
1700856877600367600,9.40136767578125,-0.021668434143066406,-0.0019453465938568115,-0.018624942749738693
1700856877617361200,9.418361083984376,0.002254486083984375,-0.020378828048706055,-0.0042606256902217865
1700856877634354400,9.4353544921875,-0.016893386840820312,-0.016072958707809448,-0.009087931364774704
1700856877651347700,9.45234765625,-0.016892433166503906,0.012623250484466553,-0.01872820220887661
1700856877668341500,9.469341552734376,-0.012704849243164062,0.013218790292739868,-0.028162045404314995
1700856877685334800,9.486334716796875,-0.0079193115234375,-0.0011487305164337158,-0.02334071323275566
1700856877702328300,9.503328369140625,-0.022278785705566406,-0.0010922551155090332,-0.028082486242055893
1700856877719318500,9.520318603515625,-0.017482757568359375,0.017835795879364014,-0.03271891921758652
1700856877736318200,9.537318115234376,-0.012096405029296875,0.017757296562194824,-0.018240435048937798
1700856877753308400,9.554308349609375,-0.0073108673095703125,-0.006180495023727417,-0.013401652686297894
1700856877770302000,9.571302001953125,-0.012098312377929688,-0.016306787729263306,-0.0038461126387119293
1700856877787295200,9.588295166015625,-0.012098312377929688,0.0034338533878326416,-0.01818927191197872
1700856877804289000,9.6052890625,-0.017484664916992188,-0.010857552289962769,-0.032454878091812134
1700856877821282300,9.6222822265625,-0.016887664794921875,-0.02997639775276184,-0.03234853222966194
1700856877838265000,9.63926513671875,-0.012704849243164062,-0.0011795759201049805,-0.02265302836894989
1700856877855269400,9.656269287109374,-0.027060508728027344,0.03649517893791199,-0.027302267029881477
1700856877872262700,9.6732626953125,-0.017484664916992188,0.027408868074417114,-0.022388678044080734
1700856877889256400,9.69025634765625,-0.040813446044921875,-0.021048367023468018,-0.007826011627912521
1700856877906249200,9.707249267578124,-0.1024332046508789,-0.05447953939437866,0.0023126406595110893
1700856877923243500,9.724243408203124,0.050106048583984375,-0.010729998350143433,-0.013074078597128391
1700856877940247600,9.74124755859375,-0.050388336181640625,0.02205568552017212,-0.006967166438698769
1700856877957229800,9.758229736328126,-0.016884803771972656,0.017197400331497192,0.0067292554304003716
1700856877974223400,9.775223388671876,0.007046699523925781,0.01294785737991333,-0.0028009042143821716
1700856877991216400,9.79221630859375,-0.05995368957519531,0.01716563105583191,0.012025854550302029
1700856878008200200,9.8092001953125,0.016615867614746094,0.0034253597259521484,-0.012514264322817326
1700856878025203500,9.826203369140625,-0.026459693908691406,-0.021000981330871582,-0.0172012560069561
1700856878042197000,9.843197021484375,-0.01749134063720703,-0.010730564594268799,-0.03146395832300186
1700856878059203000,9.860203125,0.0016546249389648438,0.013102591037750244,-0.04562709480524063
1700856878076186400,9.877186279296875,-0.027052879333496094,0.03211358189582825,-0.03592340275645256
1700856878093177000,9.894177001953125,-0.007910728454589844,0.0034068822860717773,-0.02629232406616211
1700856878110171000,9.9111708984375,-0.012103080749511719,-0.0066529810428619385,-0.007083433214575052
1700856878127164200,9.9281640625,-0.026458740234375,0.0029001235961914062,0.00250079482793808
1700856878144156200,9.94515625,-0.0025320053100585938,0.0035231411457061768,-0.0022337250411510468
1700856878161152300,9.96215234375,-0.016887664794921875,-0.011466264724731445,0.0025348542258143425
1700856878178144500,9.97914453125,-0.016890525817871094,-0.020977437496185303,-0.0117561724036932
1700856878195138000,9.996137939453124,-0.022268295288085938,0.003402411937713623,-0.03076666034758091
1700856878212131600,10.013131591796874,-0.012101173400878906,-0.006110548973083496,-0.01629703864455223
1700856878229124900,10.030124755859376,-0.0168914794921875,-0.0305519700050354,-0.011413928121328354
1700856878246118400,10.047118408203126,-0.012110710144042969,-0.02024701237678528,-0.01616644486784935
1700856878263112000,10.06411181640625,-0.022281646728515625,0.0031072497367858887,-0.0209103561937809
1700856878280092200,10.081092041015625,-0.022278785705566406,0.022178620100021362,-0.020781461149454117
1700856878297101000,10.09810107421875,-0.012705802917480469,0.022722631692886353,-0.03025784343481064
1700856878314091800,10.115091796875,-0.016893386840820312,0.0221388041973114,-0.011008788831532001
1700856878331083000,10.1320830078125,-0.02167797088623047,0.01733437180519104,-0.0062107727862894535
1700856878348081700,10.14908154296875,-0.016893386840820312,0.0030022263526916504,0.0033408934250473976
1700856878365072400,10.166072265625,-0.016898155212402344,-0.011270374059677124,-0.006224239710718393
1700856878382066000,10.18306591796875,-0.016900062561035156,0.0031279325485229492,-0.01575995422899723
1700856878399059200,10.20005908203125,-0.007924079895019531,0.01325175166130066,-0.03474729135632515
1700856878416052500,10.217052490234375,-0.007925033569335938,-0.005892753601074219,-0.03461521863937378
1700856878433046000,10.2340458984375,-0.016901016235351562,-0.015406638383865356,-0.024896010756492615
1700856878450028800,10.25102880859375,-0.03125953674316406,0.007980406284332275,-0.010460484772920609
1700856878467032800,10.26803271484375,-0.04561424255371094,0.022252529859542847,0.004436093382537365
1700856878484026600,10.285026611328124,0.040523529052734375,0.0038175582885742188,-0.0009196903556585312
1700856878501015600,10.302015625,-0.05041027069091797,-0.025345444679260254,-0.020124927163124084
1700856878518013200,10.31901318359375,0.0022296905517578125,-0.02469542622566223,-0.02010778896510601
1700856878534996000,10.335995849609375,-0.012728691101074219,0.004081636667251587,-0.029582161456346512
1700856878552000000,10.353,-0.036055564880371094,0.013000816106796265,-0.015194473788142204
1700856878568993500,10.36999365234375,-0.0025587081909179688,-0.0007188022136688232,-0.0007806187495589256
1700856878585986800,10.38698681640625,-0.0264892578125,-0.0012606978416442871,0.00875738076865673
1700856878602980400,10.40398046875,-0.007944107055664062,0.028022468090057373,-0.01513015478849411
1700856878619974000,10.420973876953125,-0.012726783752441406,0.027965247631072998,-0.024516507983207703
1700856878636967200,10.43796728515625,-0.022294044494628906,-0.0008298754692077637,-0.02442033961415291
1700856878653960400,10.45496044921875,-0.012127876281738281,-0.02470114827156067,-0.01479240320622921
1700856878670954000,10.4719541015625,-0.016913414001464844,-0.015739530324935913,-0.009983333759009838
1700856878687937000,10.48893701171875,-0.012125968933105469,0.0033715367317199707,-0.005193266551941633
1700856878704941000,10.505941162109375,-0.012125015258789062,0.0033310651779174805,-0.0003674756735563278
1700856878721934600,10.5229345703125,-0.0264739990234375,0.012742221355438232,-0.014654465019702911
1700856878738927900,10.539927978515625,-0.007925033569335938,0.018042296171188354,-0.024165965616703033
1700856878755921200,10.556921142578124,-0.012712478637695312,0.01328316330909729,-0.02404019609093666
1700856878772913000,10.573912841796876,-0.012117385864257812,-0.010592132806777954,-0.014481879770755768
1700856878789907500,10.590907470703126,-0.00733184814453125,-0.02015116810798645,-0.014454873278737068
1700856878806903600,10.607903564453125,-0.00733184814453125,-0.005791217088699341,-0.014419570565223694
1700856878823895000,10.62489501953125,-0.007328987121582031,0.0037055015563964844,-0.014375533908605576
1700856878840878300,10.64187841796875,-0.01689624786376953,-0.0017514228820800781,-0.01427236758172512
1700856878857882000,10.658882080078126,-0.01210784912109375,-0.0012270212173461914,-0.01900346949696541
1700856878874875400,10.67587548828125,-0.012106895446777344,0.008303910493850708,-0.014216581359505653
1700856878891869000,10.692868896484375,-0.00731658935546875,0.00821414589881897,-0.014177313074469566
1700856878908862500,10.709862548828125,-0.01688861846923828,-0.006712168455123901,-0.009308144450187683
1700856878925855700,10.726855712890625,-0.012106895446777344,-0.015604943037033081,-0.009354648180305958
1700856878942849300,10.743849365234375,-0.016897201538085938,-0.001740485429763794,-0.009357096627354622
1700856878959839700,10.76083984375,-0.021678924560546875,0.0029724836349487305,-0.009450049139559269
1700856878976838400,10.77783837890625,-0.012106895446777344,0.0035399198532104492,-0.01893121935427189
1700856878993829600,10.79482958984375,-0.007917404174804688,0.008285194635391235,-0.01893003284931183
1700856879010823000,10.811822998046875,-0.01270294189453125,0.0082874596118927,-0.01882125437259674
1700856879027812600,10.8288125,-0.007917404174804688,0.008281469345092773,-0.018699578940868378
1700856879044813800,10.845813720703125,-0.01688861846923828,-0.011497676372528076,-0.009160465560853481
1700856879061803000,10.862802978515624,-0.026459693908691406,-0.011500746011734009,0.00038637593388557434
1700856879078796800,10.879796875,0.0016613006591796875,0.012885868549346924,-0.013905564323067665
1700856879095793400,10.89679345703125,-0.012096405029296875,0.012256771326065063,-0.00437514903023839
1700856879112780300,10.9137802734375,-0.007304191589355469,-0.001632601022720337,-0.004331587348133326
1700856879129777000,10.93077685546875,-0.02644824981689453,-0.016557365655899048,-0.013727973215281963
1700856879146770700,10.947770751953126,-0.012685775756835938,0.007888764142990112,-0.027914060279726982
1700856879163761700,10.96476171875,0.0016727447509765625,0.022198647260665894,-0.02777906134724617
1700856879180759600,10.981759521484374,-0.02704620361328125,-0.0016173124313354492,-0.02773880772292614
1700856879197750500,10.99875048828125,-0.0073089599609375,-0.01112431287765503,-0.013396454975008965
1700856879214744000,11.015744140625,-0.016880035400390625,-0.030850231647491455,-0.0038677938282489777
1700856879231727000,11.03272705078125,-0.02166748046875,-0.021231085062026978,0.0009133201092481613
1700856879248731100,11.049731201171875,-0.0025234222412109375,0.012820452451705933,0.0008316598832607269
1700856879265724400,11.066724365234375,-0.017477989196777344,0.012815266847610474,-0.0231085903942585
1700856879282717700,11.0837177734375,-0.007902145385742188,0.0031541287899017334,-0.04216961935162544
1700856879299711200,11.100711181640625,-0.01268768310546875,-0.0016445517539978027,-0.03720581904053688
1700856879316704800,11.117704833984375,-0.007298469543457031,0.0030174851417541504,-0.008398810401558876
1700856879333698000,11.134697998046875,-0.007293701171875,0.016655325889587402,0.01542491465806961
1700856879350691600,11.151691650390624,-0.02104663848876953,0.006979048252105713,0.020165152847766876
1700856879367691800,11.16869189453125,-0.02643108367919922,-0.007362157106399536,0.0010270299389958382
1700856879384678700,11.1856787109375,0.0016841888427734375,-0.01633530855178833,-0.0275871641933918
1700856879401672000,11.202671875,-0.012674331665039062,-0.011509954929351807,-0.04660063236951828
1700856879418665500,11.21966552734375,-0.017459869384765625,0.002844005823135376,-0.04162701591849327
1700856879435648800,11.236648681640625,-0.012670516967773438,0.007540673017501831,-0.017679842188954353
1700856879452652500,11.253652587890626,-0.02163982391357422,0.011656224727630615,0.0014119776897132397
1700856879469643000,11.27064306640625,-0.012066841125488281,0.006817758083343506,-0.0034351912327110767
1700856879486641700,11.2876416015625,-0.02641773223876953,-0.0028743743896484375,-0.00821378268301487
1700856879503632600,11.304632568359375,-0.016844749450683594,-0.0029177963733673096,-0.008092306554317474
1700856879520626200,11.321626220703125,-0.007277488708496094,-0.011815875768661499,-0.007982159964740276
1700856879537619500,11.338619384765625,-0.01744556427001953,0.0025219619274139404,-0.02224142849445343
1700856879554610400,11.3556103515625,-0.012658119201660156,0.007270455360412598,-0.02213532105088234
1700856879571608800,11.37260888671875,-0.021631240844726562,-0.007686316967010498,-0.01724383980035782
1700856879588599800,11.389599853515625,-0.012061119079589844,0.006694972515106201,-0.007661385927349329
1700856879605593000,11.406593017578125,-0.016843795776367188,0.016185998916625977,0.011448872275650501
1700856879622586600,11.423586669921875,-0.007266998291015625,0.011273384094238281,0.006662221625447273
1700856879639577600,11.44057763671875,-0.0216217041015625,0.0016674399375915527,-0.002868504263460636
1700856879656576300,11.457576171875,-0.012647628784179688,-0.012116283178329468,-0.021973608061671257
1700856879673567000,11.47456689453125,-0.012646675109863281,-0.01692783832550049,-0.03143595904111862
1700856879690560500,11.491560546875,-0.007863044738769531,-0.016876161098480225,-0.03121509775519371
1700856879707554000,11.508553955078124,-0.01683330535888672,-0.00797852873802185,-0.01206754706799984
1700856879724547300,11.52554736328125,-0.012044906616210938,0.015889614820480347,0.011827022768557072
1700856879741540600,11.54254052734375,-0.007252693176269531,0.02053108811378479,0.016549022868275642
1700856879758534400,11.559534423828126,-0.021605491638183594,0.01088249683380127,0.006929037161171436
1700856879775527700,11.576527587890626,-0.021608352661132812,-0.008208304643630981,-0.012130477465689182
1700856879792521200,11.593521240234375,-0.040747642517089844,-0.017827272415161133,-0.02641022950410843
1700856879809514800,11.6105146484375,0.020868301391601562,0.001873791217803955,-0.03577730804681778
1700856879826508000,11.627508056640625,-0.03655433654785156,0.015510648488998413,-0.021451745182275772
1700856879843501600,11.64450146484375,-0.007839202880859375,0.011315792798995972,-0.026266643777489662
1700856879860494800,11.661494873046875,-0.007839202880859375,0.0017185509204864502,-0.01661159284412861
1700856879877488000,11.678488037109375,-0.0215911865234375,0.000995337963104248,-0.011808204464614391
1700856879894482000,11.69548193359375,-0.012018203735351562,0.006328612565994263,-0.01166953332722187
1700856879911475500,11.712475341796875,-0.02158641815185547,-0.008692920207977295,0.00273138377815485
1700856879928468500,11.729468505859375,-0.012017250061035156,-0.027779459953308105,0.007433286402374506
1700856879945460700,11.746460693359374,-0.0024499893188476562,-0.02291172742843628,0.00738099031150341
1700856879962456800,11.763456787109375,-0.021593093872070312,-0.018121689558029175,0.0025607547722756863
1700856879979448800,11.78044873046875,-0.0024509429931640625,-0.003164619207382202,-0.01172332838177681
1700856879996442000,11.797442138671874,-0.026973724365234375,0.02069389820098877,-0.025957617908716202
1700856880013435600,11.814435546875,-0.01739501953125,0.030102699995040894,-0.021049894392490387
1700856880030429200,11.83142919921875,-0.007819175720214844,0.015643537044525146,-0.020978905260562897
1700856880047422500,11.84842236328125,-0.012002944946289062,-0.0035739243030548096,-0.016144143417477608
1700856880064414500,11.86541455078125,-0.016793251037597656,-0.023216038942337036,0.0029287822544574738
1700856880081409800,11.882409912109376,-0.007227897644042969,-0.023090630769729614,0.00772453285753727
1700856880098402800,11.89940283203125,-0.012011528015136719,-0.003994405269622803,-0.0018036351539194584
1700856880115396400,11.916396240234375,-0.012010574340820312,0.0013653934001922607,-0.011297139339148998
1700856880132390000,11.933389892578125,-0.012612342834472656,0.01580747961997986,-0.016049619764089584
1700856880149383400,11.950383544921875,-0.017393112182617188,0.0013664960861206055,-0.02077587880194187
1700856880166377000,11.967376953125,-0.02158355712890625,-0.008153021335601807,-0.020659154281020164
1700856880183370000,11.984369873046875,-0.016801834106445312,-0.008689254522323608,-0.0014439765363931656
1700856880200363800,12.00136376953125,0.0023374557495117188,-0.0031998753547668457,-0.0013625724241137505
1700856880217357000,12.018357177734375,-0.01680278778076172,0.0009132027626037598,0.008234409615397453
1700856880234336500,12.03533642578125,-0.012018203735351562,0.0009420216083526611,-0.0013527418486773968
1700856880251344100,12.05234423828125,-0.012020111083984375,-0.003209739923477173,-0.010949522256851196
1700856880268337200,12.069337158203124,-0.026372909545898438,-0.003907650709152222,-0.015674740076065063
1700856880285330700,12.08633056640625,0.0017461776733398438,0.010989099740982056,-0.020385047420859337
1700856880302313700,12.103313720703126,-0.08379364013671875,0.01988077163696289,-0.0005189115181565285
1700856880319317800,12.12031787109375,-0.08319759368896484,0.0007962882518768311,0.01371364388614893
1700856880336308000,12.137307861328125,0.06934070587158203,-0.02246701717376709,-0.006542738527059555
1700856880353307600,12.1543076171875,-0.09816360473632812,-0.0372786819934845,-0.005407997407019138
1700856880370298000,12.171298095703126,0.011302947998046875,-0.012651443481445312,-0.02036646381020546
1700856880387291400,12.18829150390625,-0.02219676971435547,0.011316686868667603,-0.020260263234376907
1700856880404284700,12.20528466796875,-0.05090522766113281,0.03450644016265869,-0.014906435273587704
1700856880421280500,12.222280517578126,0.011316299438476562,0.030136585235595703,-0.020187851041555405
1700856880438266000,12.23926611328125,-0.021581649780273438,0.005556732416152954,-0.0057579344138503075
1700856880455265300,12.256265380859375,-0.01679706573486328,-0.018368422985076904,-0.0009700413793325424
1700856880472258800,12.2732587890625,-0.002445220947265625,-0.03679114580154419,-0.005696355830878019
1700856880489253000,12.290253173828125,-0.021593093872070312,-0.027100026607513428,-0.019956957548856735
1700856880506244400,12.307244384765625,-0.017408370971679688,-0.012685269117355347,-0.02465144172310829
1700856880523239000,12.324239013671875,-0.012620925903320312,0.011222302913665771,-0.02461758255958557
1700856880540232400,12.341232421875,-0.03175830841064453,0.03441086411476135,-0.00957670621573925
1700856880557226000,12.35822607421875,-0.01679229736328125,0.029400557279586792,-0.000501350499689579
1700856880574219500,12.375219482421874,-0.0072174072265625,0.0005930960178375244,0.00908622145652771
1700856880591212500,12.392212646484374,-0.012009620666503906,-0.03275987505912781,0.013815734535455704
1700856880608206000,12.4092060546875,-0.016800880432128906,-0.02785232663154602,0.004210108425468206
1700856880625199900,12.426199951171874,-0.021587371826171875,0.0008866190910339355,-0.010093563236296177
1700856880642193000,12.44319287109375,-0.007826805114746094,0.015795648097991943,-0.014845367521047592
1700856880659186700,12.460186767578126,-0.017395973205566406,0.006195038557052612,-0.02439284883439541
1700856880676180000,12.477179931640626,-0.007824897766113281,0.0014079511165618896,-0.02898699790239334
1700856880693172700,12.4941728515625,-0.012011528015136719,0.006173640489578247,-0.014567350968718529
1700856880710156000,12.511156005859375,-0.0024356842041015625,0.0012770295143127441,-0.00966331735253334
1700856880727160000,12.52816015625,-0.021575927734375,0.0006358027458190918,0.00477663055062294
1700856880744153900,12.54515380859375,-0.016790390014648438,-0.013719290494918823,0.004841899964958429
1700856880761147100,12.562147216796875,-0.012006759643554688,-0.008310109376907349,-0.009459414519369602
1700856880778130000,12.5791298828125,-0.016793251037597656,-0.023245960474014282,-0.004567678552120924
1700856880795144200,12.596144287109375,0.03524208068847656,-0.017664611339569092,-0.01937212608754635
1700856880812127200,12.613127197265625,-0.09816169738769531,-0.003826826810836792,0.000780248548835516
1700856880829121000,12.63012109375,0.02088642120361328,0.025377213954925537,-0.00931902602314949
1700856880846114300,12.6471142578125,-0.02158355712890625,0.024737298488616943,-0.0043821390718221664
1700856880863098600,12.6640986328125,-0.045513153076171875,0.005602031946182251,0.000839287182316184
1700856880880101400,12.681101318359374,0.020887374877929688,-0.012907683849334717,-0.013983890414237976
1700856880897091000,12.698091064453125,-0.035950660705566406,-0.013321876525878906,-0.01877262257039547
1700856880914091800,12.715091796875,-0.0030546188354492188,-0.012612104415893555,-0.018714187666773796
1700856880931064800,12.73206494140625,-0.0030574798583984375,0.0018013417720794678,-0.013792796060442924
1700856880948075000,12.749074951171876,-0.031167984008789062,0.02500706911087036,-0.0035729403607547283
1700856880965068500,12.766068603515626,0.0023345947265625,0.0207575261592865,-0.008994633331894875
1700856880982062000,12.78306201171875,-0.021590232849121094,0.0009470582008361816,-0.008887647651135921
1700856880999055400,12.800055419921875,-0.01680278778076172,-0.018246591091156006,-0.008913741447031498
1700856881016048600,12.817048583984375,0.007122993469238281,-0.02235656976699829,-0.008785522542893887
1700856881033042200,12.834042236328125,-0.021596908569335938,-0.013264685869216919,-0.008752375841140747
1700856881050035500,12.851035400390625,-0.0024566650390625,0.0017149746417999268,-0.0039051342755556107
1700856881067029000,12.868029052734375,-0.016809463500976562,0.010617583990097046,0.0007611182518303394
1700856881084022300,12.885022216796875,-0.0215911865234375,0.015306830406188965,-0.004019885789602995
1700856881101016000,12.90201611328125,-0.007832527160644531,0.015901029109954834,-0.01356614287942648
1700856881118007000,12.919007080078124,-0.007235527038574219,0.0015750229358673096,-0.013563931919634342
1700856881135005200,12.936005126953125,-0.012024879455566406,-0.00792163610458374,-0.018405089154839516
1700856881151996200,12.95299609375,-0.007241249084472656,-0.012648075819015503,-0.004034558776766062
1700856881168989700,12.96998974609375,-0.012026786804199219,-0.013254672288894653,0.0007913592271506786
1700856881185972500,12.986972412109376,-0.007237434387207031,-0.007939398288726807,-0.004066608380526304
1700856881202976500,13.0039765625,-0.01680755615234375,-0.013349056243896484,-0.008794348686933517
1700856881219970000,13.020969970703124,-0.017408370971679688,0.0016629397869110107,-0.0182601697742939
1700856881236963600,13.037963623046876,-0.017403602600097656,0.011145144701004028,-0.02297155372798443
1700856881253956900,13.054956787109376,-0.01739978790283203,0.015833139419555664,-0.022895321249961853
1700856881270950400,13.071950439453126,-0.01201629638671875,0.0008683204650878906,-0.003680930007249117
1700856881287943700,13.088943603515625,-0.01680469512939453,-0.008635282516479492,0.00596237275749445
1700856881304937200,13.105937255859375,-0.01680755615234375,-0.0037835538387298584,0.006038295105099678
1700856881321943800,13.12294384765625,-0.012022972106933594,-0.007947146892547607,-0.01303318701684475
1700856881338924300,13.13992431640625,-0.007245063781738281,-0.017357856035232544,-0.017785923555493355
1700856881355917800,13.156917724609375,-0.007843971252441406,-0.002985835075378418,-0.01773550920188427
1700856881372910800,13.173910888671875,-0.012032508850097656,0.016169190406799316,-0.008199796080589294
1700856881389914600,13.19091455078125,-0.021600723266601562,0.010747075080871582,0.001422292087227106
1700856881406898000,13.20789794921875,-0.012030601501464844,-0.00837928056716919,-0.003363280091434717
1700856881423891500,13.224891357421875,-0.007245063781738281,-0.013182640075683594,0.006294074468314648
1700856881440885000,13.241885009765625,-0.012036323547363281,-0.012442737817764282,-0.008006234653294086
1700856881457876200,13.258876220703126,-0.012635231018066406,0.001927107572555542,-0.017585035413503647
1700856881474871800,13.275871826171874,-0.012632369995117188,0.0018805861473083496,-0.027192341163754463
1700856881491865000,13.292864990234374,-0.012036323547363281,0.011489927768707275,-0.007966766133904457
1700856881508856600,13.309856689453126,-0.021605491638183594,0.006067633628845215,-0.007949900813400745
1700856881525857300,13.326857177734375,-0.012036323547363281,0.0019186735153198242,-0.00789122749119997
1700856881542854100,13.343854248046876,-0.01681804656982422,-0.008338361978530884,-0.0030425600707530975
1700856881559838700,13.360838623046876,-0.016820907592773438,-0.017850667238235474,-0.0078096590004861355
1700856881576821800,13.37782177734375,-0.016821861267089844,-0.007650703191757202,-0.012517298571765423
1700856881593825500,13.394825439453125,-0.012034416198730469,0.006651639938354492,-0.007651601452380419
1700856881610819300,13.4118193359375,-0.012035369873046875,0.001904129981994629,-0.007583042606711388
1700856881627812600,13.4288125,-0.012035369873046875,0.006660103797912598,-0.007525721564888954
1700856881644806100,13.44580615234375,-0.007848739624023438,0.011475801467895508,-0.012282916344702244
1700856881661799700,13.462799560546875,-0.01682281494140625,-0.003455817699432373,-0.00743156298995018
1700856881678793000,13.47979296875,-0.021610260009765625,-0.012978851795196533,-0.0073572490364313126
1700856881695783700,13.49678369140625,-0.021615982055664062,-0.012870550155639648,-0.0025151229929178953
1700856881712779800,13.51377978515625,-0.0168304443359375,0.0014829039573669434,-0.007193691097199917
1700856881729776000,13.530776123046875,0.0023164749145507812,0.011579960584640503,-0.007056117057800293
1700856881746766800,13.547766845703125,-0.026398658752441406,0.001440197229385376,0.0025419609155505896
1700856881763749600,13.56474951171875,-0.007250785827636719,-0.0034735798835754395,0.0120255621150136
1700856881780753700,13.581753662109374,-0.007260322570800781,-0.01762831211090088,0.002426478546112776
1700856881797747000,13.598746826171874,-0.017429351806640625,0.0021257400512695312,-0.016678515821695328
1700856881814740500,13.615740478515624,-0.003070831298828125,0.002070009708404541,-0.02617490664124489
1700856881831733800,13.632733642578126,-0.01682758331298828,0.01160043478012085,-0.011822576634585857
1700856881848727800,13.649727783203126,-0.007258415222167969,0.00685805082321167,-0.002172530861571431
1700856881865721000,13.66672119140625,-0.007256507873535156,-0.002757251262664795,0.002532550599426031
1700856881882714400,13.68371435546875,-0.03118419647216797,-0.0033480823040008545,0.012087633833289146
1700856881899707600,13.700707763671875,-0.007259368896484375,0.0014964044094085693,0.01684839278459549
1700856881916701200,13.717701171875,-0.016826629638671875,0.006203413009643555,0.002499440684914589
1700856881933694700,13.73469482421875,-0.012635231018066406,0.011490732431411743,-0.016498714685440063
1700856881950686500,13.7516865234375,-0.007846832275390625,-0.002919107675552368,-0.02591070346534252
1700856881967690000,13.76868994140625,-0.01203155517578125,-0.012558311223983765,-0.016352789476513863
1700856881984672300,13.78567236328125,-0.012029647827148438,-0.00779879093170166,-0.006874012760818005
1700856882001671200,13.802671142578125,-0.02160167694091797,-0.008380025625228882,-0.0020524985156953335
1700856882018662000,13.819661865234375,-0.012032508850097656,0.006001979112625122,0.0027490071952342987
1700856882035655400,13.836655517578125,-0.016816139221191406,0.005967140197753906,-0.002007292117923498
1700856882052648400,13.8536484375,-0.01681804656982422,0.0012238025665283203,0.0027589108794927597
1700856882069642000,13.87064208984375,-0.016816139221191406,0.005983233451843262,-0.0019865529611706734
1700856882086635500,13.887635498046874,-0.01262664794921875,-0.0030504465103149414,-0.021060867235064507
1700856882103629000,13.904629150390624,0.0017347335815429688,-0.00792914628982544,-0.03049798309803009
1700856882120618500,13.921618408203125,0.020872116088867188,-0.022165030241012573,-0.020751111209392548
1700856882137622300,13.938622314453125,-0.016820907592773438,-0.013081520795822144,0.01277195941656828
1700856882154604500,13.9556044921875,-0.01681995391845703,0.0012661218643188477,0.012713907286524773
1700856882171605200,13.972605224609374,-0.016819000244140625,0.02038806676864624,0.0031971049029380083
1700856882188596200,13.98959619140625,-0.026389122009277344,-0.003550201654434204,-0.0016624161507934332
1700856882205589800,14.00658984375,-0.0120391845703125,-0.012387663125991821,-0.011274509131908417
1700856882222580700,14.023580810546875,-0.012639999389648438,-0.007536977529525757,-0.02552913688123226
1700856882239579100,14.0405791015625,-0.017426490783691406,-0.012298882007598877,-0.025462204590439796
1700856882256570000,14.057570068359375,-0.0072650909423828125,-0.03128799796104431,-0.015907779335975647
1700856882273563400,14.0745634765625,-0.012053489685058594,-0.0168459415435791,-0.0015123803168535233
1700856882290557000,14.091556884765625,-0.016837120056152344,0.020795613527297974,0.008011072874069214
1700856882307550200,14.10855029296875,-0.007857322692871094,0.045171499252319336,-0.006252472288906574
1700856882324543700,14.125543701171875,-0.01742076873779297,0.021084964275360107,-0.011028889566659927
1700856882341537000,14.142537109375,-0.01682567596435547,-0.008168727159500122,-0.006234162952750921
1700856882358530300,14.1595302734375,-0.0168304443359375,-0.017032772302627563,-0.015880024060606956
1700856882375523800,14.17652392578125,-0.012049674987792969,-0.012146592140197754,-0.011012115515768528
1700856882392517600,14.193517578125,-0.012050628662109375,-0.0031672418117523193,-0.0013787896605208516
1700856882409511200,14.21051123046875,-0.01683807373046875,0.0016582310199737549,-0.006080472841858864
1700856882426504400,14.22750439453125,-0.02221393585205078,0.02063518762588501,-0.0107493931427598
1700856882443498000,14.244498046875,-0.017426490783691406,0.00684770941734314,-0.020336726680397987
1700856882460491300,14.2614912109375,-0.012047767639160156,-0.012808412313461304,-0.0010910335695371032
1700856882477484500,14.278484619140626,-0.02162456512451172,-0.022251874208450317,0.008375902660191059
1700856882494478000,14.29547802734375,-0.016841888427734375,-0.0030257999897003174,0.013037842698395252
1700856882511471600,14.3124716796875,-0.016843795776367188,-0.0030017495155334473,0.003356277011334896
1700856882528465000,14.32946484375,-0.017442703247070312,-0.0071669816970825195,-0.015819193795323372
1700856882545460200,14.346460205078126,-0.0174407958984375,-0.007205367088317871,-0.03491322323679924
1700856882562451700,14.36345166015625,-0.012650489807128906,0.0070371925830841064,-0.044339120388031006
1700856882579445500,14.380445556640625,-0.022216796875,0.0207136869430542,-0.0107277762144804
1700856882596438800,14.397438720703125,-0.007258415222167969,0.006270349025726318,0.013268844224512577
1700856882613432000,14.41443212890625,-0.011450767517089844,-0.007977515459060669,0.027515195310115814
1700856882630415000,14.4314150390625,-0.016241073608398438,-0.02703326940536499,0.032164398580789566
1700856882647419100,14.448419189453125,-0.012056350708007812,-0.003029465675354004,0.008165859617292881
1700856882664412700,14.46541259765625,-0.017438888549804688,0.007127165794372559,-0.020514992997050285
1700856882681406000,14.482406005859374,-0.012652397155761719,0.021451860666275024,-0.04426487907767296
1700856882698399500,14.4993994140625,-0.017436981201171875,0.01664149761199951,-0.04410901665687561
1700856882715392800,14.516392822265624,-0.007870674133300781,0.011943995952606201,-0.020094120875000954
1700856882732386600,14.533386474609374,-0.007277488708496094,-0.007688760757446289,0.01342412456870079
1700856882749379800,14.5503798828125,-0.0210418701171875,-0.026695460081100464,0.037221282720565796
1700856882766373000,14.567373046875,-0.016263961791992188,-0.031319767236709595,0.037106238305568695
1700856882783366400,14.584366455078126,-0.007292747497558594,-0.011512905359268188,0.0035335938446223736
1700856882800352800,14.601352783203126,-0.017459869384765625,0.01716044545173645,-0.02038191445171833
1700856882817353700,14.618353759765625,-0.012669563293457031,0.017042934894561768,-0.03453001379966736
1700856882834347300,14.63534716796875,-0.012669563293457031,0.007473617792129517,-0.03914545103907585
1700856882851340300,14.65234033203125,-0.05993080139160156,-0.0074118077754974365,-0.019281798973679543
1700856882868323300,14.6693232421875,-0.044976234436035156,-0.02174803614616394,0.018835457041859627
1700856882885327400,14.686327392578125,0.05970287322998047,-0.025792360305786133,0.022459115833044052
1700856882902321000,14.70332080078125,-0.09762954711914062,-0.007170736789703369,0.033041227608919144
1700856882919314200,14.720314208984375,0.030984878540039062,0.022138983011245728,-0.0011610721703618765
1700856882936307500,14.737307373046875,-0.0126800537109375,0.031637042760849,-0.02504456788301468
1700856882953301200,14.75430126953125,-0.036606788635253906,0.02201583981513977,-0.03867140784859657
1700856882970298000,14.771298095703125,0.020819664001464844,-0.006651401519775391,-0.0391523577272892
1700856882987284500,14.788284423828125,-0.03182506561279297,-0.012006819248199463,-0.01989043690264225
1700856883004281300,14.80528125,-0.00251007080078125,-0.0066922008991241455,-0.0007520046783611178
1700856883021275100,14.822275146484374,-0.011479377746582031,-0.016924560070037842,0.023141484707593918
1700856883038268400,14.839268310546874,-0.03540515899658203,-0.002613753080368042,0.03253043442964554
1700856883055262000,14.856261962890626,-0.00250244140625,0.0027244985103607178,0.0037490089889615774
1700856883072255200,14.873255126953126,-0.022233963012695312,0.0073261260986328125,-0.020162735134363174
1700856883089248800,14.890248779296876,-0.017447471618652344,0.0025109946727752686,-0.029561223462224007
1700856883106242000,14.907241943359375,-0.0030927658081054688,-0.002228468656539917,-0.029430774971842766
1700856883123236400,14.924236328125,-0.012068748474121094,-0.002173393964767456,-0.01030617393553257
1700856883140229000,14.94122900390625,-0.00249481201171875,-0.0022279322147369385,0.004037331789731979
1700856883157219800,14.9582197265625,-0.016849517822265625,-0.007639080286026001,-0.0007833968847990036
1700856883174218800,14.97521875,-0.021635055541992188,-0.01721087098121643,0.008728891611099243
1700856883191209500,14.99220947265625,-0.007279396057128906,-0.0022417306900024414,-0.01037593837827444
1700856883208202800,15.00920263671875,-0.022231101989746094,0.00247037410736084,-0.015199060551822186
1700856883225196300,15.0261962890625,0.001697540283203125,0.01203685998916626,-0.01505317259579897
1700856883242189600,15.043189453125,-0.027011871337890625,0.006561994552612305,-0.014965043403208256
1700856883259182800,15.060182861328125,0.04477405548095703,-0.002460867166519165,-0.015536516904830933
1700856883276176600,15.0771767578125,-0.0024843215942382812,-0.026377767324447632,-0.000384123413823545
1700856883293158000,15.094157958984376,-0.05034160614013672,-0.022171378135681152,0.01437826082110405
1700856883310163500,15.11116357421875,0.026223182678222656,-0.01188686490058899,0.009080071933567524
1700856883327154400,15.128154541015626,-0.035984039306640625,0.016124457120895386,0.00489705428481102
1700856883344152800,15.14515283203125,0.011278152465820312,0.0357377827167511,-0.014719716273248196
1700856883361143800,15.162143798828126,-0.012648582458496094,0.007013142108917236,-0.014684980735182762
1700856883378137000,15.17913720703125,-0.026407241821289062,-0.007940411567687988,-0.014746321365237236
1700856883395130600,15.196130615234376,0.006488800048828125,-0.016807645559310913,-0.019445445388555527
1700856883412124000,15.2131240234375,-0.016844749450683594,-0.012524396181106567,0.004522796720266342
1700856883429117400,15.230117431640625,-0.007279396057128906,-0.002849489450454712,0.009211615659296513
1700856883446123300,15.247123291015624,-0.016849517822265625,0.0066872239112854,0.004377877339720726
1700856883463104500,15.2641044921875,-0.01684856414794922,0.011463701725006104,-0.0004885144880972803
1700856883480098000,15.28109814453125,-0.0024900436401367188,0.012018352746963501,-0.005213641095906496
1700856883497091300,15.29809130859375,-0.027011871337890625,-0.002417147159576416,-0.02429155446588993
1700856883514084600,15.315084716796875,-0.012653350830078125,0.011904627084732056,-0.009909878484904766
1700856883531078100,15.332078125,-0.012055397033691406,0.0023249387741088867,-0.0051326025277376175
1700856883548071700,15.34907177734375,-0.026414871215820312,-0.012569636106491089,0.009291082620620728
1700856883565065200,15.366065185546875,-0.00727081298828125,-0.017401069402694702,0.018781263381242752
1700856883582058500,15.38305859375,-0.012054443359375,-0.007860541343688965,0.004407204687595367
1700856883599058700,15.40005859375,-0.012655258178710938,-0.002415478229522705,-0.01472826860845089
1700856883616045300,15.41704541015625,-0.027013778686523438,-0.002375572919845581,-0.024237176403403282
1700856883633042400,15.43404248046875,0.016056060791015625,-0.0071427226066589355,-0.028813200071454048
1700856883650028800,15.45102880859375,-0.10777854919433594,-0.01716989278793335,-0.009127960540354252
1700856883667015200,15.46801513671875,0.026215553283691406,-0.0021394193172454834,-0.00020249420776963234
1700856883684019200,15.485019287109376,-0.01685810089111328,0.011681586503982544,0.018853001296520233
1700856883701007600,15.502007568359375,-0.04975700378417969,0.011630028486251831,0.023982973769307137
1700856883718003500,15.51900341796875,0.01604747772216797,0.021771639585494995,-0.005216619465500116
1700856883735001900,15.536001953125,-0.045569419860839844,0.021176010370254517,-0.0045149000361561775
1700856883751993000,15.5529931640625,-0.007878303527832031,0.002556324005126953,-0.019364096224308014
1700856883768986000,15.569986083984375,-0.007879257202148438,-0.011784583330154419,-0.01924159750342369
1700856883785980200,15.586980224609375,-0.035991668701171875,-0.007639169692993164,-0.009646699763834476
1700856883802973200,15.60397314453125,0.006476402282714844,-0.006971776485443115,-0.014455001801252365
1700856883819966500,15.620966552734375,-0.01685047149658203,-0.007628351449966431,0.014062275178730488
1700856883836949500,15.637949462890624,-0.0072803497314453125,-0.007616311311721802,0.018757984042167664
1700856883853953500,15.65495361328125,-0.016851425170898438,-0.0028387904167175293,0.004344346933066845
1700856883870944500,15.671944580078126,-0.021636009216308594,-0.0028468966484069824,-0.0005045029683969915
1700856883887943000,15.68894287109375,-0.007878303527832031,-0.0070167481899261475,-0.014728432521224022
1700856883904934000,15.705933837890624,-0.012659072875976562,-0.002324998378753662,-0.01946287788450718
1700856883921927400,15.722927490234374,-0.017444610595703125,0.0024518370628356934,-0.014529170468449593
1700856883938921000,15.7399208984375,-0.0072765350341796875,0.0072615742683410645,-0.00011292216368019581
1700856883955914200,15.756914306640626,-0.016844749450683594,-0.0029746592044830322,0.004588870331645012
1700856883972907500,15.773907470703126,-0.012061119079589844,-0.01729479432106018,0.009420745074748993
1700856883989901300,15.7909013671875,-0.016847610473632812,-0.01247328519821167,0.00465459655970335
1700856884006894800,15.807894775390626,-0.012057304382324219,0.0023720860481262207,-0.009696089662611485
1700856884023885300,15.82488525390625,-0.012654304504394531,0.0071311891078948975,-0.01923251524567604
1700856884040873500,15.84187353515625,-0.022223472595214844,0.0023099780082702637,-0.014352584257721901
1700856884057864400,15.858864501953125,-0.02162456512451172,0.0016946494579315186,-0.009481844492256641
1700856884074868500,15.875868408203125,0.035205841064453125,0.0022627413272857666,-0.010064938105642796
1700856884091859200,15.892859130859375,0.0070819854736328125,-0.016686171293258667,0.005004899576306343
1700856884108855000,15.90985498046875,-0.05931854248046875,-0.022091031074523926,0.019676195457577705
1700856884125851100,15.92685107421875,0.035793304443359375,0.007275611162185669,-0.000009974697604775429
1700856884142842000,15.943842041015625,-0.046158790588378906,0.020995259284973145,-0.018614502623677254
1700856884159835400,15.96083544921875,-0.007871627807617188,0.016764581203460693,-0.04307805746793747
1700856884176829000,15.977828857421875,0.001697540283203125,-0.007113248109817505,-0.02381385676562786
1700856884193822700,15.99482275390625,-0.031203269958496094,-0.022056788206100464,0.00006472354289144278
1700856884210816000,16.01181591796875,-0.0024881362915039062,-0.01730787754058838,0.019243650138378143
1700856884227809300,16.028809326171874,-0.025821685791015625,-0.0076589882373809814,0.033579882234334946
1700856884244803000,16.045802978515624,-0.016843795776367188,-0.0029901862144470215,0.023943832144141197
1700856884261796400,16.06279638671875,-0.0030879974365234375,0.01201474666595459,-0.009576423093676567
1700856884278790000,16.079789794921876,-0.02701854705810547,0.002517908811569214,-0.0286912489682436
1700856884295781400,16.096781494140625,-0.00308990478515625,0.007268667221069336,-0.038140274584293365
1700856884312778500,16.113778564453124,-0.012656211853027344,0.0023958981037139893,-0.033298734575510025
1700856884329770200,16.130770263671874,-0.012055397033691406,0.0017225146293640137,0.00012239173520356417
1700856884346763500,16.147763427734375,-0.012056350708007812,0.0017483532428741455,0.009705724194645882
1700856884363757000,16.164757080078125,-0.02162647247314453,-0.00304490327835083,0.014479346573352814
1700856884380750300,16.181750244140623,-0.0072727203369140625,-0.012577861547470093,0.00966828316450119
1700856884397743900,16.198743896484373,-0.012061119079589844,-0.01189267635345459,-0.004713868722319603
1700856884414737200,16.215737060546875,-0.017444610595703125,0.0024558603763580322,-0.014270887710154057
1700856884431730400,16.23273046875,-0.007874488830566406,0.012044012546539307,-0.019004857167601585
1700856884448724200,16.24972412109375,-0.012660980224609375,0.002497076988220215,-0.014178739860653877
1700856884465717800,16.2667177734375,-0.017442703247070312,0.007205486297607422,-0.009370436891913414
1700856884482710800,16.283710693359374,-0.012061119079589844,0.0018645823001861572,0.005024670623242855
1700856884499701200,16.300701171875,-0.016847610473632812,-0.012472867965698242,0.014541509561240673
1700856884516701200,16.317701171875,-0.0072784423828125,-0.01722896099090576,0.014427817426621914
1700856884533688800,16.334688720703124,-0.02642059326171875,-0.012440413236618042,-0.009563066065311432
1700856884550677000,16.351677001953124,-0.01744556427001953,-0.0023137331008911133,-0.019144058227539062
1700856884567678000,16.368677978515624,-0.012063026428222656,0.0072820186614990234,-0.004779010079801083
1700856884584671700,16.385671630859374,-0.012061119079589844,0.007238835096359253,-0.004788658116012812
1700856884601665000,16.4026650390625,-0.016844749450683594,0.006607472896575928,0.004746763501316309
1700856884618658300,16.419658203125,-0.012061119079589844,0.0018570125102996826,0.009531878866255283
1700856884635651800,16.43665185546875,-0.012057304382324219,-0.007787913084030151,-0.000020280363969504833
1700856884652645600,16.453645751953125,-0.02641773223876953,-0.0029420554637908936,-0.009541486389935017
1700856884669638700,16.470638671875,-0.01743793487548828,0.007099270820617676,-0.01907416619360447
1700856884686632200,16.487632080078125,-0.012651443481445312,0.002278566360473633,-0.02374844066798687
1700856884703625700,16.504625732421875,-0.0072689056396484375,0.00230368971824646,-0.009302353486418724
1700856884720619300,16.521619384765625,-0.007273674011230469,-0.0023786425590515137,0.00026064179837703705
1700856884737612800,16.53861279296875,-0.007273674011230469,-0.007145792245864868,0.00023683265317231417
1700856884754603800,16.555603759765624,-0.012061119079589844,0.0018636882305145264,0.005026607308536768
1700856884771602200,16.572602294921875,-0.021635055541992188,-0.0028590261936187744,0.0050411890260875225
1700856884788593200,16.58959326171875,-0.012064933776855469,-0.0070265233516693115,-0.009263506159186363
1700856884805586200,16.606586181640626,-0.012663841247558594,-0.0022389590740203857,-0.023615306243300438
1700856884822579700,16.623579833984376,-0.02163982391357422,-0.0027756989002227783,-0.00921548530459404
1700856884839573500,16.640573486328126,-0.012065887451171875,0.0019527673721313477,0.0051287692040205
1700856884856566500,16.65756640625,-0.012061119079589844,0.011423766613006592,0.005208930931985378
1700856884873560300,16.674560302734374,-0.016845703125,-0.0077238380908966064,0.00987368542701006
1700856884890553900,16.691553955078124,-0.0024929046630859375,-0.007063180208206177,-0.004554842598736286
1700856884907544800,16.708544921875,-0.0072803497314453125,-0.011802852153778076,-0.004549178294837475
1700856884924543000,16.72554296875,-0.017444610595703125,0.0024532675743103027,-0.014134903438389301
1700856884941534000,16.742533935546874,-0.012659072875976562,0.016801029443740845,-0.023594969883561134
1700856884958527500,16.759527587890624,-0.01265716552734375,0.002418696880340576,-0.01874259114265442
1700856884975520800,16.776520751953125,-0.007869720458984375,-0.011977553367614746,-0.013866023160517216
1700856884992514300,16.793514404296875,-0.026413917541503906,0.0017833709716796875,0.014896380715072155
1700856885009502500,16.81050244140625,-0.0024852752685546875,0.006531774997711182,0.014757600612938404
1700856885026501400,16.82750146484375,0.0022993087768554688,-0.007182419300079346,0.005078922025859356
1700856885043494700,16.84449462890625,-0.02641773223876953,-0.02208229899406433,0.00023034587502479553
1700856885060488200,16.86148828125,-0.007877349853515625,-0.021394044160842896,-0.01881641335785389
1700856885077481500,16.8784814453125,-0.012664794921875,0.012148886919021606,-0.018718527629971504
1700856885094475000,16.89547509765625,-0.012659072875976562,0.04072445631027222,-0.01855294033885002
1700856885111458000,16.9124580078125,-0.007269859313964844,0.01670151948928833,-0.004182758741080761
1700856885128462000,16.929462158203126,-0.02641582489013672,-0.02210134267807007,0.009977509267628193
1700856885145455400,16.946455322265624,-0.012063980102539062,-0.0411507785320282,0.0004308870993554592
1700856885162448600,16.96344873046875,-0.007282257080078125,-0.01654207706451416,-0.009133167564868927
1700856885179442200,16.980442138671876,-0.007875442504882812,0.016855478286743164,-0.01865784451365471
1700856885196433200,16.99743310546875,-0.017444610595703125,0.021613627672195435,-0.01856483705341816
1700856885213431600,17.014431640625,-0.007871627807617188,0.011991769075393677,-0.008900942280888557
1700856885230422800,17.0314228515625,-0.012655258178710938,-0.0071916282176971436,-0.018371129408478737
1700856885247416000,17.048416015625,-0.007269859313964844,-0.026380091905593872,0.000839242129586637
1700856885264409600,17.06540966796875,-0.02581787109375,-0.022101610898971558,0.029514942318201065
1700856885281403000,17.08240283203125,-0.01624774932861328,0.006616801023483276,0.02939533069729805
1700856885298394000,17.09939404296875,-0.007271766662597656,0.03048565983772278,0.014959749765694141
1700856885315381500,17.116381591796873,-0.03179740905761719,0.02568104863166809,-0.008521494455635548
1700856885332371200,17.13337109375,-0.012647628784179688,0.0022077560424804688,-0.028193503618240356
1700856885349389600,17.1503896484375,-0.012652397155761719,-0.01683822274208069,-0.032919690012931824
1700856885366367700,17.16736767578125,-0.007866859436035156,-0.002470076084136963,-0.023218628019094467
1700856885383366000,17.184365966796875,-0.021627426147460938,-0.0030235648155212402,-0.00400160439312458
1700856885400346400,17.201346435546874,-0.00727081298828125,-0.0173833966255188,0.015138272196054459
1700856885417350700,17.2183505859375,-0.006670951843261719,-0.022186726331710815,0.02942398190498352
1700856885434341400,17.23534130859375,-0.012056350708007812,-0.0030219554901123047,0.01974618062376976
1700856885451339800,17.25233984375,-0.02162456512451172,0.01125180721282959,0.005358437076210976
1700856885468330800,17.269330810546876,-0.017434120178222656,0.021361738443374634,-0.01847056858241558
1700856885485324500,17.286324462890626,-0.007857322692871094,0.016457170248031616,-0.023043029010295868
1700856885502318000,17.303318115234376,-0.007852554321289062,0.02112478017807007,-0.027737312018871307
1700856885519311400,17.320311279296874,-0.007854461669921875,-0.007533550262451172,-0.013322433456778526
1700856885536304600,17.3373046875,-0.00726318359375,-0.026532739400863647,0.0057502733543515205
1700856885553298400,17.35429833984375,-0.026409149169921875,-0.022253841161727905,0.02003972977399826
1700856885570283500,17.371283447265625,0.031020164489746094,0.021378695964813232,0.01991078071296215
1700856885587285000,17.388284912109373,0.0023069381713867188,0.030935227870941162,0.010352717712521553
1700856885604276000,17.40527587890625,-0.06947612762451172,0.006383240222930908,0.010845144279301167
1700856885621274000,17.422274169921874,0.02084827423095703,-0.012069851160049438,-0.01839914172887802
1700856885638265000,17.43926513671875,-0.02222156524658203,-0.007308632135391235,-0.032712843269109726
1700856885655270000,17.456269775390624,-0.012651443481445312,0.007085204124450684,-0.037310246378183365
1700856885672252400,17.47325244140625,-0.00786590576171875,-0.007269620895385742,-0.022874044254422188
1700856885689245700,17.49024560546875,-0.02641582489013672,-0.02689477801322937,0.005787384696304798
1700856885706239200,17.5072392578125,-0.0072784423828125,-0.017215967178344727,0.015359370037913322
1700856885723232500,17.524232421875,-0.012061119079589844,-0.007716447114944458,0.005786453373730183
1700856885740215300,17.54121533203125,-0.026419639587402344,-0.02201750874519348,0.0009289785521104932
1700856885757219300,17.55821923828125,-0.016855239868164062,-0.021885603666305542,-0.0038116981741040945
1700856885774212900,17.575212890625,-0.012666702270507812,0.016972512006759644,-0.0229602362960577
1700856885791206100,17.5922060546875,-0.007874488830566406,0.04076090455055237,-0.01806815154850483
1700856885808199700,17.60919970703125,-0.012058258056640625,0.011970341205596924,-0.003637980902567506
1700856885825193500,17.626193359375,-0.026419639587402344,-0.017252624034881592,0.0011766446987167
1700856885842186500,17.6431865234375,-0.01685333251953125,-0.02192312479019165,0.020299382507801056
1700856885859180000,17.660179931640624,-0.016854286193847656,-0.0027691423892974854,0.015505002811551094
1700856885876173600,17.677173583984374,-0.026426315307617188,0.002052128314971924,0.005938590504229069
1700856885893158100,17.694158203125,-0.012072563171386719,0.007503807544708252,-0.0036457832902669907
1700856885910160400,17.711160400390625,-0.012671470642089844,0.012306272983551025,-0.017967544496059418
1700856885927154000,17.72815380859375,-0.01745319366455078,0.002649068832397461,-0.02283729799091816
1700856885944147500,17.7451474609375,-0.007880210876464844,-0.0021867752075195312,-0.017951974645256996
1700856885961140700,17.762140625,-0.06949615478515625,-0.007552236318588257,-0.012584863230586052
1700856885978134000,17.779134033203125,0.021432876586914062,-0.002213001251220703,0.0011095114750787616
1700856885995127800,17.7961279296875,-0.021638870239257812,-0.007555186748504639,0.010728182271122932
1700856886012121300,17.813121337890625,-0.04556846618652344,-0.007543653249740601,-0.0031878924928605556
1700856886029114600,17.830114501953126,0.01604461669921875,-0.01645258069038391,-0.013332829810678959
1700856886046108000,17.84710791015625,-0.036597251892089844,0.006859838962554932,-0.027021486312150955
1700856886063100700,17.8641005859375,-0.007878303527832031,0.016919255256652832,-0.0322488471865654
1700856886080096000,17.881095947265624,-0.012661933898925781,-0.0022586286067962646,-0.022529715672135353
1700856886097088500,17.898088623046874,-0.022226333618164062,-0.002409696578979492,-0.01291294489055872
1700856886114081800,17.915081787109376,0.0022993087768554688,-0.0071742236614227295,0.001489032176323235
1700856886131083800,17.932083740234376,-0.021630287170410156,-0.01731431484222412,0.015794184058904648
1700856886148066300,17.94906640625,-0.016252517700195312,-0.017206519842147827,0.03479931876063347
1700856886165059600,17.9660595703125,-0.006682395935058594,-0.017140835523605347,0.025095442309975624
1700856886182055700,17.9830556640625,-0.01685619354248047,0.006841331720352173,0.02025231346487999
1700856886199048000,18.0000478515625,-0.012065887451171875,0.006749629974365234,0.0010350689990445971
1700856886216043500,18.01704345703125,-0.0120697021484375,0.002638190984725952,-0.008510786108672619
1700856886233025500,18.034025634765626,-0.01745128631591797,0.012176305055618286,-0.018036942929029465
1700856886250025000,18.05102490234375,-0.012662887573242188,0.01690155267715454,-0.02746841311454773
1700856886267027200,18.068027099609374,-0.017444610595703125,0.002460777759552002,-0.017803821712732315
1700856886284016400,18.085016357421875,-0.012060165405273438,-0.016694486141204834,-0.012975893914699554
1700856886301016800,18.102016845703126,-0.0072803497314453125,-0.021952688694000244,0.010967772454023361
1700856886318003200,18.119003173828126,-0.02163410186767578,-0.002882927656173706,0.010914672166109085
1700856886334996700,18.135996826171876,-0.021627426147460938,0.011322975158691406,0.0013635546201840043
1700856886351990000,18.152989990234374,-0.007266998291015625,0.011853992938995361,-0.008155823685228825
1700856886368986400,18.169986328125,-0.027007102966308594,0.016024470329284668,-0.012269716709852219
1700856886385974500,18.186974609375,-0.0024862289428710938,-0.011968404054641724,-0.008003247901797295
1700856886402970400,18.203970458984376,-0.012659072875976562,-0.011889606714248657,-0.017478130757808685
1700856886419964200,18.220964111328126,-0.01684856414794922,-0.011853218078613281,-0.007890341803431511
1700856886436957400,18.23795751953125,-0.007277488708496094,0.002497553825378418,0.0017641620943322778
1700856886453952800,18.254952880859374,-0.02162933349609375,0.011370033025741577,0.0018907360499724746
1700856886470946300,18.2719462890625,-0.0072727203369140625,0.00719258189201355,0.001977110281586647
1700856886487937500,18.2889375,-0.0030832290649414062,-0.01197996735572815,-0.01231150422245264
1700856886504931300,18.305931396484375,-0.016849517822265625,-0.03097286820411682,-0.00755045423284173
1700856886521923000,18.322923095703125,-0.016852378845214844,-0.012381643056869507,0.011455192230641842
1700856886538918100,18.339918212890623,-0.016852378845214844,0.011573374271392822,0.006634755991399288
1700856886555911400,18.356911376953125,-0.02641773223876953,0.02579432725906372,0.002457604045048356
1700856886572905000,18.373905029296875,-0.012056350708007812,0.011328339576721191,0.0018311491003260016
1700856886589898200,18.390898193359376,-0.02222442626953125,0.002330183982849121,-0.012492110021412373
1700856886606892000,18.40789208984375,-0.017441749572753906,-0.007171303033828735,-0.017178243026137352
1700856886623885000,18.424885009765624,-0.0072727203369140625,-0.007160782814025879,-0.0026933266781270504
1700856886640876500,18.44187646484375,-0.02163219451904297,0.0018572509288787842,0.011634409427642822
1700856886657874200,18.458874267578125,-0.012061119079589844,0.016224980354309082,0.016391294077038765
1700856886674864400,18.475864501953126,-0.007279396057128906,-0.007614463567733765,0.011592309921979904
1700856886691860200,18.492860107421876,-0.02642822265625,-0.026625216007232666,0.0019347911002114415
1700856886708852500,18.5098525390625,-0.021650314331054688,-0.03542414307594299,-0.017216505482792854
1700856886725846000,18.526845947265624,-0.017467498779296875,-0.011392533779144287,-0.03148719295859337
1700856886742839600,18.543839599609374,-0.022245407104492188,0.03630661964416504,-0.026071697473526
1700856886759833000,18.5608330078125,-0.012661933898925781,0.02646198868751526,-0.012246819213032722
1700856886776826000,18.577826171875,-0.016841888427734375,-0.012588471174240112,0.006938409525901079
1700856886793819600,18.594819580078124,-0.012058258056640625,-0.02212652564048767,0.016441013664007187
1700856886810802400,18.611802490234375,-0.012060165405273438,-0.01729947328567505,0.011639452539384365
1700856886827806700,18.628806640625,-0.02162933349609375,0.01138216257095337,-0.002772775711491704
1700856886844797200,18.645797119140624,-0.007871627807617188,0.026362359523773193,-0.01231775339692831
1700856886861796000,18.662796142578124,-0.02222442626953125,0.020883768796920776,-0.007516741286963224
1700856886878786800,18.679786865234377,-0.01684093475341797,0.011313438415527344,-0.0026741039473563433
1700856886895779300,18.696779296875,-0.016844749450683594,-0.012543171644210815,0.006907693110406399
1700856886912772000,18.713772216796876,-0.011466026306152344,-0.02677476406097412,0.021235577762126923
1700856886929769700,18.730769775390623,-0.012068748474121094,-0.007534027099609375,0.006917999126017094
1700856886946770400,18.7477705078125,-0.012070655822753906,0.002678513526916504,-0.007393273524940014
1700856886963754200,18.764754150390626,-0.017446517944335938,0.016873061656951904,-0.02163432538509369
1700856886980747800,18.781747802734376,-0.022230148315429688,-0.0023280680179595947,-0.026277536526322365
1700856886997742600,18.79874267578125,-0.021628379821777344,-0.011972874402999878,-0.011765703558921814
1700856887014733300,18.8157333984375,-0.0072727203369140625,-0.007158875465393066,0.0026350864209234715
1700856887031727900,18.832727783203126,-0.016844749450683594,-0.0029592514038085938,0.012201881967484951
1700856887048708000,18.8497080078125,-0.021631240844726562,0.0018541216850280762,0.01696309819817543
1700856887065715000,18.86671484375,-0.021630287170410156,0.006616741418838501,0.0026148222386837006
1700856887082708500,18.88370849609375,-0.012654304504394531,0.002356499433517456,-0.021280530840158463
1700856887099701800,18.90070166015625,0.001705169677734375,-0.0024869143962860107,-0.025932002812623978
1700856887116695300,18.9176953125,-0.03179168701171875,-0.00794309377670288,-0.016343990340828896
1700856887133688600,18.9346884765625,-0.002483367919921875,-0.012041181325912476,0.002883611246943474
1700856887150682000,18.95168212890625,-0.016839981079101562,-0.0030566751956939697,0.007626042235642672
1700856887167675600,18.968675537109377,-0.016836166381835938,0.006432384252548218,0.002930005546659231
1700856887184669200,18.985669189453127,-0.0030794143676757812,-0.002504497766494751,-0.01140628196299076
1700856887201662500,19.002662353515625,-0.012651443481445312,-0.007270753383636475,-0.016124792397022247
1700856887218656000,19.019656005859375,-0.012653350830078125,-0.012009352445602417,-0.020786533132195473
1700856887235648000,19.03664794921875,-0.007266998291015625,0.0022900402545928955,-0.0016327877528965473
1700856887252644400,19.053644287109375,-0.01683807373046875,0.020819544792175293,0.02221187949180603
1700856887269636000,19.070635986328124,-0.0066680908203125,0.011251896619796753,0.041304413229227066
1700856887286630000,19.0876298828125,-0.016242027282714844,-0.007836371660232544,0.041122015565633774
1700856887303623200,19.104623046875,-0.012059211730957031,-0.012531846761703491,0.002807140816003084
1700856887320617500,19.121617431640626,-0.012659072875976562,-0.011879384517669678,-0.025861451402306557
1700856887337610000,19.13860986328125,-0.027022361755371094,-0.011732935905456543,-0.0400957427918911
1700856887354603800,19.155603759765626,-0.01326751708984375,-0.0020917654037475586,-0.049514200538396835
1700856887371594200,19.17259423828125,-0.017455101013183594,0.017049193382263184,-0.03508232906460762
1700856887388592600,19.189592529296874,-0.012663841247558594,0.026515066623687744,-0.015820665284991264
1700856887405579000,19.2065791015625,-0.01685333251953125,-0.0027608871459960938,0.017636805772781372
1700856887422578200,19.223578125,-0.0066852569580078125,-0.012301921844482422,0.03670194745063782
1700856887439570000,19.24056982421875,-0.030617713928222656,-0.012204945087432861,0.03179493546485901
1700856887456564000,19.25756396484375,-0.012076377868652344,0.00698244571685791,0.007847213186323643
1700856887473557800,19.274557861328127,-0.016860008239746094,0.002778381109237671,-0.006460606120526791
1700856887490550800,19.29155078125,-0.022245407104492188,0.002819269895553589,-0.020662864670157433
1700856887507544600,19.308544677734375,-0.0031003952026367188,0.0027441680431365967,-0.02050255984067917
1700856887524538000,19.3255380859375,-0.007887840270996094,-0.00677528977394104,-0.011007210239768028
1700856887541521200,19.342521240234376,-0.0072956085205078125,-0.03117746114730835,0.017598014324903488
1700856887558524700,19.359524658203124,-0.0067043304443359375,-0.03579559922218323,0.02213643118739128
1700856887575518200,19.376518310546874,-0.016875267028808594,-0.011855602264404297,-0.001872633583843708
1700856887592511700,19.39351171875,-0.0126800537109375,0.022079050540924072,-0.016204699873924255
1700856887609505300,19.41050537109375,-0.012674331665039062,0.012386083602905273,-0.03519198298454285
1700856887626495200,19.4274951171875,-0.007290840148925781,-0.021128356456756592,-0.011199289932847023
1700856887643495700,19.44449560546875,0.011854171752929688,-0.00679287314414978,0.0031490386463701725
1700856887660485600,19.461485595703124,-0.021645545959472656,0.021312952041625977,0.026970241218805313
1700856887677479000,19.47847900390625,-0.026422500610351562,0.035472363233566284,0.03215954452753067
1700856887694469600,19.4954697265625,-0.0024919509887695312,0.0019239485263824463,0.017098844051361084
1700856887711468500,19.512468505859374,-0.012067794799804688,-0.03567156195640564,-0.016451964154839516
1700856887728459300,19.529459228515623,-0.022241592407226562,-0.02599334716796875,-0.04505850374698639
1700856887745452800,19.546452880859373,-0.02283954620361328,0.012273460626602173,-0.04968603700399399
1700856887762446300,19.5634462890625,-0.0270233154296875,0.01698926091194153,-0.0160974208265543
1700856887779439600,19.580439697265625,-0.04557037353515625,0.011654406785964966,0.018050769343972206
1700856887796433000,19.597432861328127,-0.03539562225341797,0.016324937343597412,0.04117058217525482
1700856887813426400,19.614426513671877,0.045958518981933594,-0.006958186626434326,0.04535246640443802
1700856887830420000,19.631419921875,-0.064117431640625,-0.03613129258155823,0.04569162428379059
1700856887847413500,19.64841357421875,0.011852264404296875,-0.03067868947982788,0.007262801751494408
1700856887864406800,19.66540673828125,-0.007892608642578125,0.0028877854347229004,-0.040436141192913055
1700856887881400300,19.682400390625,-0.04198741912841797,0.017184197902679443,-0.04935559630393982
1700856887898394000,19.69939404296875,0.02022838592529297,0.017116457223892212,-0.04501190781593323
1700856887915387400,19.716387451171876,-0.031213760375976562,-0.0026750266551971436,-0.006749659776687622
1700856887932380700,19.733380615234374,-0.016852378845214844,-0.002781420946121216,0.012242374010384083
1700856887949374000,19.7503740234375,-0.001895904541015625,0.00676766037940979,0.03604033589363098
1700856887966367700,19.76736767578125,-0.035396575927734375,-0.017139405012130737,0.035881783813238144
1700856887983350800,19.784350830078125,-0.007285118103027344,-0.012263387441635132,0.011894593015313148
1700856888000354600,19.8013544921875,-0.012665748596191406,0.012187480926513672,-0.026358995586633682
1700856888017348000,19.81834814453125,-0.01744842529296875,0.012127965688705444,-0.04060061275959015
1700856888034341400,19.83534130859375,-0.012663841247558594,0.0025822222232818604,-0.03086119517683983
1700856888051334700,19.852334716796875,-0.017449378967285156,0.002566039562225342,-0.030777908861637115
1700856888068328200,19.869328125,-0.007281303405761719,0.006782084703445435,0.007535063195973635
1700856888085329400,19.886329345703125,-0.016852378845214844,-0.007579892873764038,0.021794315427541733
1700856888102315000,19.90331494140625,-0.016256332397460938,-0.03146719932556152,0.03590438887476921
1700856888119314700,19.920314697265624,-0.011475563049316406,-0.026581168174743652,0.030987052246928215
1700856888136302000,19.937302001953125,-0.012071609497070312,0.017063826322555542,-0.002571046818047762
1700856888153293000,19.95429296875,-0.017450332641601562,0.03608474135398865,-0.031166967004537582
1700856888170291700,19.971291748046873,-0.0030918121337890625,0.016907185316085815,-0.031036045402288437
1700856888187280100,19.988280029296874,-0.012661933898925781,-0.0022510290145874023,-0.01657513901591301
1700856888204278300,20.0052783203125,-0.007277488708496094,-0.012449383735656738,0.0072844550013542175
1700856888221269500,20.02226953125,-0.011467933654785156,-0.021963834762573242,0.02155350148677826
1700856888238262800,20.0392626953125,-0.006686210632324219,-0.01228436827659607,0.030944861471652985
1700856888255256300,20.05625634765625,-0.0025033950805664062,-0.0068206787109375,0.011761494912207127
1700856888272236800,20.07323681640625,-0.0174560546875,0.007502555847167969,-0.012068405747413635
1700856888289235500,20.0902353515625,-0.007883071899414062,0.012237131595611572,-0.03112177923321724
