time,seconds_elapsed,z,y,x
1700856615250698500,0.146698486328125,-0.00878143310546875,-0.0043049156665802,-0.0028751082718372345
1700856615267678700,0.1636787109375,-0.012370109558105469,-0.033056169748306274,0.07839878648519516
1700856615284685300,0.180685302734375,-0.01655864715576172,-0.009714573621749878,0.12610605359077454
1700856615301673200,0.197673095703125,-0.021346092224121094,0.01422533392906189,0.14515486359596252
1700856615318669600,0.214669677734375,-0.016561508178710938,-0.03361713886260986,0.13549527525901794
1700856615335664400,0.231664306640625,-0.0123748779296875,-0.056930720806121826,0.06791067123413086
1700856615352651000,0.248651123046875,-0.013568878173828125,-0.009113013744354248,0.006341550499200821
1700856615369645000,0.26564501953125,-0.018950462341308594,0.029130667448043823,-0.022412899881601334
1700856615386640400,0.282640380859375,-0.013566017150878906,0.005163669586181641,0.0062248073518276215
1700856615403633200,0.299633056640625,-0.017157554626464844,-0.023484647274017334,0.06366459280252457
1700856615420627200,0.316627197265625,-0.016561508178710938,-0.00014227628707885742,0.10662752389907837
1700856615437619500,0.333619384765625,-0.03091907501220703,0.02857944369316101,0.12087633460760117
1700856615454622000,0.3506220703125,-0.021348953247070312,-0.009693145751953125,0.10168896615505219
1700856615471607800,0.36760791015625,-0.017162322998046875,-0.03779113292694092,0.07287487387657166
1700856615488600600,0.3846005859375,-0.013574600219726562,-0.018633008003234863,0.020129993557929993
1700856615505592800,0.4015927734375,-0.018365859985351562,0.014977604150772095,0.005777731537818909
1700856615522582300,0.418582275390625,-0.008795738220214844,-0.004152357578277588,0.02473526820540428
1700856615539577000,0.4355771484375,-0.01777172088623047,-0.013662487268447876,0.06298232823610306
1700856615556569900,0.45256982421875,-0.026744842529296875,0.010276883840560913,0.07727953791618347
1700856615573563100,0.469563232421875,-0.022559165954589844,0.05813312530517578,0.06286484003067017
1700856615590554400,0.486554443359375,-0.012989997863769531,0.03424966335296631,0.04841504245996475
1700856615607550000,0.503550048828125,-0.012990951538085938,-0.037517249584198,0.03401487320661545
1700856615624541200,0.520541259765625,-0.008207321166992188,-0.08055335283279419,0.03810039162635803
1700856615641540900,0.537540771484375,-0.012996673583984375,-0.04697313904762268,0.04343254864215851
1700856615658513700,0.554513671875,-0.026749610900878906,-0.02795979380607605,0.0721457451581955
1700856615675522300,0.571522216796875,-0.017177581787109375,0.0007180869579315186,0.09606266021728516
1700856615692511700,0.58851171875,-0.021963119506835938,0.06292572617530823,0.08651980012655258
1700856615709506300,0.60550634765625,-0.017767906188964844,0.07711166143417358,0.04817039147019386
1700856615726502000,0.622501953125,-0.01776599884033203,-0.004291176795959473,0.038555391132831573
1700856615743489500,0.639489501953125,-0.017171859741210938,-0.09990954399108887,0.04747563600540161
1700856615760487200,0.656487060546875,-0.017177581787109375,-0.09502053260803223,0.0521392747759819
1700856615777478400,0.673478515625,-0.01777935028076172,-0.004018932580947876,0.05745463818311691
1700856615794463000,0.690462890625,-0.01777935028076172,0.029480665922164917,0.07175220549106598
1700856615811464400,0.70746435546875,-0.008209228515625,0.03426435589790344,0.07168418169021606
1700856615828457700,0.724457763671875,-0.01777935028076172,0.04382634162902832,0.052580609917640686
1700856615845441300,0.741441162109375,-0.023163795471191406,0.01989540457725525,0.028697170317173004
1700856615862426000,0.758426025390625,-0.0034275054931640625,-0.046981871128082275,0.03767445683479309
1700856615879438300,0.775438232421875,-0.012406349182128906,-0.08994829654693604,0.06154148653149605
1700856615896431400,0.792431396484375,-0.021976470947265625,-0.03253591060638428,0.081245057284832
1700856615913419300,0.809419189453125,-0.008217811584472656,0.05838221311569214,0.07164593040943146
1700856615930416600,0.826416748046875,-0.012997627258300781,0.0534747838973999,0.07167626917362213
1700856615947407400,0.843407470703125,-0.01778411865234375,-0.018297910690307617,0.05251879245042801
1700856615964399600,0.860399658203125,-0.01300048828125,-0.042191505432128906,0.03335969150066376
1700856615981391600,0.8773916015625,-0.00881195068359375,-0.013505429029464722,0.023731175810098648
1700856615998390300,0.894390380859375,-0.017786026000976562,-0.01348346471786499,0.04287298768758774
1700856616015380500,0.91138037109375,-0.01718616485595703,-0.003946840763092041,0.07629925012588501
1700856616032363800,0.92836376953125,-0.012399673461914062,0.024716049432754517,0.08577083051204681
1700856616049362400,0.945362548828125,-0.021968841552734375,0.029441654682159424,0.07605850696563721
1700856616066364000,0.962364013671875,-0.012393951416015625,-0.028066396713256836,0.06168055906891823
1700856616083348500,0.979348388671875,-0.021965980529785156,-0.07113242149353027,0.056875526905059814
1700856616100345600,0.996345703125,-0.012989997863769531,-0.013773798942565918,0.03766009211540222
1700856616117340200,1.013340087890625,-0.01836872100830078,0.05789220333099365,0.0328630656003952
1700856616134327000,1.0303271484375,-0.022554397583007812,0.053077369928359985,0.052047837525606155
1700856616151325000,1.047324951171875,-0.012383460998535156,-0.01396229863166809,0.06637731194496155
1700856616168315400,1.0643154296875,-0.012380599975585938,-0.05230712890625,0.06633628904819489
1700856616185310200,1.081310302734375,-0.012377738952636719,-0.057143211364746094,0.061015985906124115
1700856616202301200,1.09830126953125,-0.021948814392089844,-0.04279080033302307,0.06148489937186241
1700856616219296800,1.115296875,-0.007592201232910156,-0.01888170838356018,0.0662393867969513
1700856616236290300,1.132290283203125,-0.01775836944580078,0.04805314540863037,0.05184910446405411
1700856616253279200,1.149279296875,-0.008780479431152344,0.07188871502876282,0.03746757656335831
1700856616270263800,1.166263916015625,-0.03211021423339844,0.019179046154022217,0.05175251513719559
1700856616287256300,1.18325634765625,-0.017152786254882812,-0.0670105516910553,0.04684572294354439
1700856616304259600,1.200259521484375,-0.017151832580566406,-0.07182222604751587,0.05627322942018509
1700856616321253400,1.21725341796875,-0.012967109680175781,-0.009573638439178467,0.0561353974044323
1700856616338247000,1.234246826171875,-0.022536277770996094,0.0286543071269989,0.06567275524139404
1700856616355239700,1.25123974609375,-0.012964248657226562,0.02864140272140503,0.06085009127855301
1700856616372230700,1.268230712890625,-0.012961387634277344,0.01901102066040039,0.06080305948853493
1700856616389223700,1.2852236328125,-0.01774311065673828,0.004552483558654785,0.046362560242414474
1700856616406220000,1.302219970703125,-0.017740249633789062,-0.03858402371406555,0.04638953134417534
1700856616423207400,1.31920751953125,-0.017144203186035156,-0.06249362230300903,0.05109545215964317
1700856616440204300,1.336204345703125,-0.021927833557128906,-0.009864747524261475,0.07018809765577316
1700856616457206500,1.35320654296875,-0.01773548126220703,0.042658478021621704,0.05095769464969635
1700856616474189300,1.370189208984375,-0.012948989868164062,0.04741090536117554,0.060489263385534286
1700856616491182300,1.387182373046875,-0.0033779144287109375,-0.014840424060821533,0.06034719571471214
1700856616508166000,1.404165771484375,-0.008165359497070312,-0.03872236609458923,0.05551115423440933
1700856616525169400,1.42116943359375,-0.00337982177734375,-0.029162198305130005,0.05546000599861145
1700856616542160100,1.43816015625,-0.01773548126220703,-0.01482468843460083,0.050639133900403976
1700856616559153400,1.4551533203125,-0.01294708251953125,-0.005330383777618408,0.05060320720076561
1700856616576149500,1.4721494140625,-0.008156776428222656,0.018494725227355957,0.045771971344947815
1700856616593137200,1.48913720703125,-0.017724990844726562,0.023210525512695312,0.04089935123920441
1700856616610134000,1.506134033203125,-0.027297019958496094,-0.039018601179122925,0.04555326700210571
1700856616627127000,1.523126953125,0.0020151138305664062,-0.0342346727848053,0.05992504209280014
1700856616644117200,1.5401171875,-0.04105567932128906,-0.010923117399215698,0.0694371685385704
1700856616661112300,1.5571123046875,-0.01233673095703125,0.018286019563674927,0.07887780666351318
1700856616678105900,1.57410595703125,-0.007549285888671875,0.00865781307220459,0.06924298405647278
1700856616695101700,1.591101806640625,-0.0177154541015625,-0.02491474151611328,0.03565504401922226
1700856616712080000,1.608079833984375,-0.0033597946166992188,-0.03448578715324402,0.02123870700597763
1700856616729085200,1.625085205078125,-0.012928009033203125,-0.020191580057144165,0.03063925914466381
1700856616746079500,1.64207958984375,-0.008144378662109375,-0.010593831539154053,0.04012938588857651
1700856616763066600,1.659066650390625,-0.017116546630859375,-0.0010577142238616943,0.06873296201229095
1700856616780063200,1.676063232421875,-0.02190399169921875,0.007922083139419556,0.09246467053890228
1700856616797054200,1.69305419921875,-0.012332916259765625,-0.0010470151901245117,0.07801715284585953
1700856616814049300,1.71004931640625,-0.021904945373535156,-0.010597676038742065,0.06358890235424042
1700856616831050200,1.72705029296875,-0.01293182373046875,-0.015401452779769897,0.030049310997128487
1700856616848035300,1.744035400390625,-0.008740425109863281,-0.0011221766471862793,0.02055957168340683
1700856616865028400,1.7610283203125,-0.018310546875,0.008405178785324097,0.025380920618772507
1700856616882011600,1.77801171875,-0.003353118896484375,0.013135164976119995,0.03965957462787628
1700856616899012600,1.7950126953125,-0.012323379516601562,-0.006051003932952881,0.06353457272052765
1700856616916008400,1.812008544921875,-0.021894454956054688,-0.025206834077835083,0.07308154553174973
1700856616932996600,1.82899658203125,-0.01710987091064453,-0.029993951320648193,0.07299233973026276
1700856616949993000,1.845992919921875,-0.017108917236328125,-0.015647023916244507,0.07295858860015869
1700856616966975700,1.862975830078125,-0.017704010009765625,-0.006154924631118774,0.044244587421417236
1700856616983975400,1.879975341796875,-0.013514518737792969,0.02249908447265625,0.02034423127770424
1700856617000961000,1.8969609375,-0.013505935668945312,0.027109473943710327,0.029902948066592216
1700856617017964800,1.91396484375,-0.012906074523925781,-0.0016284584999084473,0.04419717192649841
1700856617034957800,1.930957763671875,0.025976181030273438,-0.025550752878189087,0.06269636005163193
1700856617051938000,1.94793798828125,-0.02188396453857422,-0.035043805837631226,0.07763057947158813
1700856617068942300,1.9649423828125,-0.012311935424804688,-0.015942752361297607,0.07272835820913315
1700856617085938200,1.981938232421875,-0.0033359527587890625,-0.0016502737998962402,0.06305333226919174
1700856617102917400,1.99891748046875,-0.032052040100097656,0.007943660020828247,0.05343829467892647
1700856617119922400,2.01592236328125,0.00623321533203125,0.007967621088027954,0.03911066800355911
1700856617136916200,2.032916259765625,-0.022484779357910156,-0.0063062310218811035,0.039080627262592316
1700856617153916200,2.049916259765625,-0.008130073547363281,-0.006262272596359253,0.04862014204263687
1700856617170898200,2.066898193359375,-0.00753021240234375,-0.020667344331741333,0.06292398273944855
1700856617187896600,2.083896484375,-0.02667236328125,-0.011093229055404663,0.05804077908396721
1700856617204887600,2.100887451171875,-0.0033388137817382812,-0.006416201591491699,0.05799005180597305
1700856617221870800,2.117870849609375,-0.008119583129882812,-0.0113142728805542,0.04837680980563164
1700856617238872600,2.13487255859375,-0.02247905731201172,-0.016044944524765015,0.0387822762131691
1700856617255874300,2.151874267578125,0.0014486312866210938,-0.011261969804763794,0.02914726920425892
1700856617272849200,2.16884912109375,-0.01768970489501953,0.0078051090240478516,0.043482497334480286
1700856617289850000,2.18585009765625,-0.00273895263671875,-0.001685112714767456,0.06257133930921555
1700856617306850000,2.20285009765625,-0.017096519470214844,-0.016041278839111328,0.07206253707408905
1700856617323838000,2.219837890625,-0.021884918212890625,-0.015982449054718018,0.08154557645320892
1700856617340820000,2.236820068359375,-0.007533073425292969,-0.011094719171524048,0.06242959946393967
1700856617357811500,2.2538115234375,-0.022490501403808594,-0.0014865994453430176,0.03851502388715744
1700856617374817000,2.270817138671875,-0.003345489501953125,0.00805652141571045,0.028983453288674355
1700856617391804700,2.2878046875,-0.02248668670654297,0.012800723314285278,0.028926534578204155
1700856617408803800,2.304803955078125,-0.017702102661132812,-0.0063048601150512695,0.03853311389684677
1700856617425795800,2.3217958984375,-0.012322425842285156,-0.020601093769073486,0.05757492035627365
1700856617442787300,2.338787353515625,-0.021897315979003906,-0.025310546159744263,0.07180718332529068
1700856617459779000,2.355779052734375,-0.01711559295654297,-0.01567932963371277,0.0764525830745697
1700856617476775200,2.372775146484375,-0.012928009033203125,0.003444582223892212,0.05718916654586792
1700856617493765400,2.389765380859375,-0.022498130798339844,0.008195936679840088,0.04279584810137749
1700856617510759700,2.406759765625,-0.022500038146972656,0.008216023445129395,0.0331975519657135
1700856617527753200,2.423753173828125,-0.012928009033203125,0.008237212896347046,0.037956394255161285
1700856617544747000,2.4407470703125,-0.008143424987792969,-0.010918408632278442,0.05216827988624573
1700856617561738200,2.45773828125,-0.017119407653808594,-0.0204240083694458,0.06641265749931335
1700856617578730800,2.474730712890625,-0.0075511932373046875,-0.02040046453475952,0.066231869161129
1700856617595726600,2.4917265625,-0.021910667419433594,-0.0059941112995147705,0.06133291870355606
1700856617612721400,2.508721435546875,-0.0272979736328125,0.017995685338974,0.04681892693042755
1700856617629711000,2.525711181640625,-0.022513389587402344,0.008431613445281982,0.04677187651395798
1700856617646704400,2.542704345703125,-0.017726898193359375,-0.02027946710586548,0.04672025516629219
1700856617663687400,2.5596875,-0.00815582275390625,-0.034653931856155396,0.05145850032567978
1700856617680689700,2.576689697265625,-0.012946128845214844,-0.020221620798110962,0.05135082080960274
1700856617697683000,2.593682861328125,-0.017732620239257812,0.013296961784362793,0.04168212041258812
1700856617714676000,2.610676025390625,-0.01772785186767578,0.01798805594444275,0.041549187153577805
1700856617731666700,2.627666748046875,-0.008158683776855469,0.0036468505859375,0.03668336570262909
1700856617748660700,2.64466064453125,-0.008154869079589844,-0.010812520980834961,0.050982192158699036
1700856617765656600,2.661656494140625,-0.017124176025390625,-0.020472556352615356,0.06053248792886734
1700856617782644000,2.67864404296875,-0.012338638305664062,-0.0108928382396698,0.06528104096651077
1700856617799640600,2.695640625,-0.026697158813476562,-0.0012893974781036377,0.055632494390010834
1700856617816635400,2.712635498046875,-0.01772308349609375,0.003468930721282959,0.05555695295333862
1700856617833622000,2.7296220703125,-0.017721176147460938,-0.006171107292175293,0.03148709982633591
1700856617850621000,2.746620849609375,-0.012932777404785156,-0.01579222083091736,0.026679357513785362
1700856617867611100,2.763611083984375,-0.022508621215820312,-0.025280922651290894,0.03632286190986633
1700856617884625400,2.78062548828125,-0.0027704238891601562,-0.010862946510314941,0.06017809361219406
1700856617901590300,2.79759033203125,-0.017124176025390625,0.003420114517211914,0.07443398237228394
1700856617918590200,2.814590087890625,-0.017121315002441406,0.00812309980392456,0.06948923319578171
1700856617935586000,2.8315859375,-0.012335777282714844,-0.015817910432815552,0.055002931505441666
1700856617952573000,2.848572998046875,-0.022508621215820312,-0.03492739796638489,0.03098439984023571
1700856617969568000,2.865568115234375,-0.0033636093139648438,-0.020596235990524292,0.021456819027662277
1700856617986559000,2.88255908203125,-0.008151054382324219,-0.006231874227523804,0.030808234587311745
1700856618003557400,2.899557373046875,-0.012936592102050781,-0.006239414215087891,0.0401894710958004
1700856618020542500,2.91654248046875,-0.021912574768066406,-0.006201565265655518,0.06398871541023254
1700856618037542000,2.9335419921875,-0.012339591979980469,-0.01104593276977539,0.06383809447288513
1700856618054536000,2.950535888671875,-0.017122268676757812,0.012804627418518066,0.06373333185911179
1700856618071531300,2.96753125,-0.008148193359375,0.0032060444355010986,0.03963455185294151
1700856618088520700,2.984520751953125,-0.012936592102050781,-0.006331413984298706,0.020320922136306763
1700856618105516000,3.00151611328125,-0.012935638427734375,-0.020726710557937622,0.020210430026054382
1700856618122503200,3.018503173828125,-0.017722129821777344,-0.011148393154144287,0.0391579307615757
1700856618139499800,3.035499755859375,-0.021907806396484375,-0.001640230417251587,0.058177266269922256
1700856618156493300,3.052493408203125,-0.021907806396484375,-0.007040739059448242,0.08676682412624359
1700856618173483500,3.0694833984375,-0.012340545654296875,-0.020730942487716675,0.07697891443967819
1700856618190478000,3.08647802734375,-0.02191448211669922,-0.030255496501922607,0.052950941026210785
1700856618207471900,3.103471923828125,-0.008160591125488281,-0.0206010639667511,0.028873207047581673
1700856618224455700,3.12045556640625,-0.013545989990234375,0.0033605992794036865,0.019298940896987915
1700856618241458700,3.137458740234375,-0.01773357391357422,0.017720580101013184,0.02407616190612316
1700856618258446800,3.15444677734375,0.00140380859375,0.0130404531955719,0.03839406743645668
1700856618275444500,3.171444580078125,-0.017141342163085938,-0.0012998878955841064,0.05741144344210625
1700856618292436200,3.188436279296875,-0.0027904510498046875,-0.03470894694328308,0.05249736085534096
1700856618309430500,3.205430419921875,-0.012366294860839844,-0.029819071292877197,0.05714687705039978
1700856618326422000,3.222422119140625,-0.03151416778564453,-0.015377998352050781,0.0569603331387043
1700856618343416300,3.239416259765625,-0.0033998489379882812,0.00857195258140564,0.04726100340485573
1700856618360408300,3.256408203125,-0.017754554748535156,0.013307571411132812,0.04241295903921127
1700856618377402600,3.273402587890625,-0.008187294006347656,-0.005755722522735596,0.0375855416059494
1700856618394393900,3.290393798828125,-0.012975692749023438,-0.02004992961883545,0.047035593539476395
1700856618411388400,3.307388427734375,-0.021951675415039062,-0.015246421098709106,0.05159829556941986
1700856618428379600,3.324379638671875,-0.021950721740722656,-0.043991804122924805,0.05146351829171181
1700856618445374500,3.34137451171875,-0.022553443908691406,-0.005649268627166748,0.04161088541150093
1700856618462365700,3.35836572265625,-0.02254772186279297,0.03251373767852783,0.04150477796792984
1700856618479360300,3.3753603515625,-0.0034008026123046875,0.03720122575759888,0.036613769829273224
1700856618496351700,3.392351806640625,-0.022542953491210938,0.008437156677246094,0.03169787675142288
1700856618513346000,3.409345947265625,-0.008189201354980469,-0.024991124868392944,0.03167160600423813
1700856618530337500,3.426337646484375,-0.017162322998046875,-0.06327727437019348,0.04119180515408516
1700856618547331600,3.44333154296875,-0.012379646301269531,-0.04408961534500122,0.0601365864276886
1700856618564323600,3.460323486328125,-0.01716327667236328,0.0037127435207366943,0.06001152843236923
1700856618581319700,3.477319580078125,-0.022543907165527344,0.0371222198009491,0.05511931702494621
1700856618598303700,3.4943037109375,-0.017757415771484375,0.027513206005096436,0.031035883352160454
1700856618615303700,3.5113037109375,-0.012972831726074219,-0.010739266872406006,0.026217037811875343
1700856618632295700,3.528295654296875,-0.017763137817382812,-0.03456908464431763,0.02132093347609043
1700856618649286100,3.5452861328125,-0.01297760009765625,-0.03456598520278931,0.03564126789569855
1700856618666284500,3.562284423828125,-0.021955490112304688,-0.02012374997138977,0.0594901368021965
1700856618683281400,3.579281494140625,-0.026739120483398438,0.013302117586135864,0.06882273405790329
1700856618700267300,3.596267333984375,-0.026737213134765625,0.012665808200836182,0.07347027957439423
1700856618717261600,3.613261474609375,-0.01716327667236328,0.0036151111125946045,0.054265934973955154
1700856618734252800,3.630252685546875,-0.012978553771972656,-0.020238935947418213,0.030326304957270622
1700856618751247400,3.647247314453125,-0.017767906188964844,-0.024961799383163452,0.02072974480688572
1700856618768239000,3.664239013671875,-0.017769813537597656,-0.015350341796875,0.020696325227618217
1700856618785233400,3.6812333984375,-0.01776885986328125,0.008561700582504272,0.0445672832429409
1700856618802217500,3.698217529296875,-0.02673816680908203,0.01803058385848999,0.05881643295288086
1700856618819216600,3.715216552734375,-0.021953582763671875,-0.0011167824268341064,0.06826962530612946
1700856618836213800,3.7322138671875,-0.012387275695800781,-0.020173221826553345,0.0633404478430748
1700856618853205200,3.749205322265625,-0.01717090606689453,-0.025002360343933105,0.05365530401468277
1700856618870194200,3.766194091796875,-0.008203506469726562,-0.02967163920402527,0.03444388881325722
1700856618887193300,3.783193359375,-0.01299285888671875,-0.010442674160003662,0.0200160164386034
1700856618904182800,3.800182861328125,-0.023161888122558594,0.018241971731185913,0.010335825383663177
1700856618921177000,3.817177001953125,-0.012989044189453125,0.027743786573410034,0.02942780964076519
1700856618938168600,3.83416845703125,-0.008202552795410156,0.00377616286277771,0.04843853414058685
1700856618955162600,3.85116259765625,-0.012392997741699219,-0.0296800434589386,0.0673561841249466
1700856618972151800,3.86815185546875,-0.01717853546142578,-0.044044286012649536,0.0672566145658493
1700856618989151700,3.88515185546875,-0.017177581787109375,-0.020164191722869873,0.06238669157028198
1700856619006140400,3.902140380859375,-0.008204460144042969,0.0037480592727661133,0.03841762989759445
1700856619023134500,3.919134521484375,-0.02255535125732422,0.0036118626594543457,0.028845643624663353
1700856619040126500,3.93612646484375,0.0061588287353515625,-0.025076180696487427,0.024022666737437248
1700856619057120800,3.953120849609375,0.039658546447753906,-0.010733932256698608,0.023483794182538986
1700856619074112000,3.970112060546875,-0.05545520782470703,-0.006588637828826904,0.04305945336818695
1700856619091106600,3.9871064453125,0.030684471130371094,-0.015528351068496704,0.06148763373494148
1700856619108098600,4.0040986328125,-0.0746002197265625,-0.011374861001968384,0.07199589908123016
1700856619125092600,4.021092529296875,-0.012388229370117188,0.008389979600906372,0.06163004785776138
1700856619142073300,4.0380732421875,-0.036910057067871094,0.022628366947174072,0.042975910007953644
1700856619159078100,4.055078125,-0.09912109375,0.007633328437805176,0.014090200886130333
1700856619176070100,4.072070068359375,0.039061546325683594,-0.030001342296600342,0.0033874399960041046
1700856619193064200,4.089064208984375,-0.06563282012939453,-0.04898416996002197,0.02300751768052578
1700856619210056200,4.10605615234375,0.02528858184814453,-0.029706478118896484,0.046219825744628906
1700856619227050200,4.12305029296875,-0.0028276443481445312,0.008577555418014526,0.07542990893125534
1700856619244040000,4.1400400390625,-0.07401180267333984,0.022268563508987427,0.09018631279468536
1700856619261036500,4.15703662109375,0.059393882751464844,0.03229472041130066,0.08409665524959564
1700856619278027500,4.174027587890625,-0.04110527038574219,-0.010800957679748535,0.04617251828312874
1700856619295021800,4.191021728515625,0.039051055908203125,-0.053782135248184204,-0.011818621307611465
1700856619312003300,4.20800341796875,0.015116691589355469,-0.0775737464427948,-0.04052397608757019
1700856619329008400,4.22500830078125,-0.0040283203125,-0.02965986728668213,-0.011178500950336456
1700856619345999600,4.24199951171875,-0.046497344970703125,0.036670178174972534,0.046835534274578094
1700856619362992400,4.258992431640625,-0.05964851379394531,0.07948148250579834,0.10390413552522659
1700856619379987200,4.2759873046875,0.026497840881347656,0.02731582522392273,0.11738267540931702
1700856619396977700,4.292977783203125,-0.05486297607421875,-0.04978194832801819,0.09793458878993988
1700856619413973800,4.309973876953125,0.02110004425048828,-0.0824827253818512,0.044608116149902344
1700856619430965500,4.326965576171875,0.0013523101806640625,-0.05361059308052063,-0.002603098750114441
1700856619447957800,4.343957763671875,-0.03753089904785156,-0.0009861588478088379,-0.03127184137701988
1700856619464952000,4.3609521484375,0.01930999755859375,0.05621477961540222,-0.012055106461048126
1700856619481943300,4.377943359375,-0.04169464111328125,0.05594015121459961,0.03153043985366821
1700856619498937600,4.3949375,0.006763458251953125,0.003195136785507202,0.06421816349029541
1700856619515929600,4.4119296875,-0.021360397338867188,-0.05945330858230591,0.09272362291812897
1700856619532923600,4.428923583984375,-0.039913177490234375,-0.0832233726978302,0.10205051302909851
1700856619549915400,4.445915283203125,0.0019588470458984375,-0.03474503755569458,0.0683547705411911
1700856619566909400,4.462909423828125,-0.03213691711425781,0.032202571630477905,0.025753233581781387
1700856619583901200,4.479901123046875,-0.008794784545898438,0.06065678596496582,-0.013181261718273163
1700856619600894700,4.496894775390625,-0.0141754150390625,0.031872719526290894,-0.022671915590763092
1700856619617887200,4.51388720703125,-0.023149490356445312,-0.020752757787704468,-0.0035183876752853394
1700856619634881300,4.53088134765625,-0.0076045989990234375,-0.06363880634307861,0.034613776952028275
1700856619651873300,4.547873291015625,-0.03094482421875,-0.05924105644226074,0.08701853454113007
1700856619668867300,4.564867431640625,-0.007019996643066406,-0.020929723978042603,0.11067771911621094
1700856619685858800,4.58185888671875,-0.011806488037109375,0.02691534161567688,0.09601149708032608
1700856619702853000,4.59885302734375,-0.06085014343261719,0.045882731676101685,0.039114318788051605
1700856619719845000,4.61584521484375,0.010343551635742188,0.027168840169906616,-0.01882714405655861
1700856619736839400,4.63283935546875,0.005547523498535156,-0.05874481797218323,-0.038392677903175354
1700856619753820000,4.64981982421875,0.005542755126953125,-0.07774969935417175,-0.028656568378210068
1700856619770825000,4.666824951171875,-0.0411224365234375,-0.048939526081085205,0.02935158461332321
1700856619787816700,4.683816650390625,-0.02616405487060547,0.007805198431015015,0.10570874065160751
1700856619804811000,4.70081103515625,-0.035134315490722656,0.03642231225967407,0.1299077868461609
1700856619821814300,4.717814208984375,-0.026159286499023438,0.03157830238342285,0.1152789369225502
1700856619838796800,4.734796875,-0.026760101318359375,-0.010854601860046387,0.05228598415851593
1700856619855788800,4.751788818359375,0.029462814331054688,-0.02503812313079834,-0.029618561267852783
1700856619872779800,4.76877978515625,-0.028564453125,-0.03933918476104736,-0.057611603289842606
1700856619889777700,4.785777587890625,0.028860092163085938,-0.020123571157455444,-0.03417269140481949
1700856619906768400,4.802768310546875,-0.01779460906982422,0.02284899353981018,0.023859506472945213
1700856619923760400,4.819760498046875,-0.0411224365234375,0.0317244827747345,0.08640086650848389
1700856619940752100,4.836752197265625,0.012118339538574219,-0.0018098950386047363,0.11895793676376343
1700856619957748700,4.853748779296875,-0.04471302032470703,-0.04484793543815613,0.11390189826488495
1700856619974748200,4.870748046875,-0.002849578857421875,-0.053609102964401245,0.05145882070064545
1700856619991732700,4.887732666015625,-0.013619422912597656,-0.020078271627426147,-0.0059712789952754974
1700856620008726800,4.904726806640625,-0.04292583465576172,0.027680516242980957,-0.03875286504626274
1700856620025718300,4.92171826171875,0.009722709655761719,0.046689361333847046,-0.03432854637503624
1700856620042712600,4.938712646484375,-0.03214740753173828,0.02744552493095398,0.013540336862206459
1700856620059704600,4.95570458984375,-0.01719188690185547,-0.015614300966262817,0.06606192886829376
1700856620076698400,4.972698486328125,-0.006428718566894531,-0.05920618772506714,0.10886074602603912
1700856620093690000,4.989690185546875,-0.025579452514648438,-0.06386628746986389,0.11334021389484406
1700856620110684400,5.006684326171875,-0.007633209228515625,-0.024991929531097412,0.07004193961620331
1700856620127676200,5.02367626953125,-0.022583961486816406,0.03231695294380188,0.01726730726659298
1700856620144670500,5.04067041015625,-0.014202117919921875,0.051319897174835205,-0.025777757167816162
1700856620161662000,5.057661865234375,-0.014201164245605469,0.01302337646484375,-0.044759590178728104
1700856620178656000,5.074656005859375,-0.013601303100585938,-0.03008478879928589,-0.011160161346197128
1700856620195648000,5.09164794921875,-0.0076274871826171875,-0.044270873069763184,0.041384726762771606
1700856620212631300,5.10863134765625,-0.021387100219726562,-0.03050166368484497,0.10327330231666565
1700856620229633800,5.1256337890625,-0.016005516052246094,-0.011344701051712036,0.12215089797973633
1700856620246627800,5.1426279296875,-0.05009746551513672,0.022008627653121948,0.10340742766857147
1700856620263619600,5.15961962890625,-0.04172325134277344,0.01302558183670044,0.040329817682504654
1700856620280614400,5.176614501953125,0.052791595458984375,-0.010251641273498535,-0.0319519117474556
1700856620297605600,5.193605712890625,-0.1338510513305664,-0.06822916865348816,-0.08335182070732117
1700856620314599700,5.210599609375,0.02407073974609375,-0.04836606979370117,-0.07000115513801575
1700856620331591700,5.227591796875,-0.017806053161621094,0.008531808853149414,0.03122010827064514
1700856620348586000,5.2445859375,-0.09257316589355469,0.041226357221603394,0.12712958455085754
1700856620365577500,5.261577392578125,0.022286415100097656,0.03627622127532959,0.1642262041568756
1700856620382571800,5.27857177734375,-0.06864166259765625,-0.002033412456512451,0.14045864343643188
1700856620399563800,5.295563720703125,-0.017198562622070312,-0.0492326021194458,0.053457483649253845
1700856620416557800,5.312557861328125,-0.004046440124511719,-0.06340643763542175,-0.04754364863038063
1700856620433549600,5.329549560546875,-0.057892799377441406,-0.029730498790740967,-0.08983653783798218
1700856620450543400,5.34654345703125,0.01868152618408203,0.02826067805290222,-0.07036672532558441
1700856620467535600,5.36353564453125,-0.02797222137451172,0.05621623992919922,-0.0027289316058158875
1700856620484529700,5.38052978515625,-0.0166015625,0.02201467752456665,0.09220830351114273
1700856620501519000,5.39751904296875,0.003734588623046875,-0.040169090032577515,0.1540774554014206
1700856620518505000,5.4145048828125,-0.03934288024902344,-0.07833987474441528,0.1489025056362152
1700856620535505000,5.4315048828125,0.0073108673095703125,-0.06326940655708313,0.07634624093770981
1700856620552504000,5.448504150390625,-0.051910400390625,-0.0010973811149597168,-0.013889841735363007
1700856620569492700,5.46549267578125,-0.014811515808105469,0.051389217376708984,-0.08537586033344269
1700856620586478000,5.48247802734375,-0.04351520538330078,0.0703268051147461,-0.08448706567287445
1700856620603477200,5.499477294921875,-0.056671142578125,0.022357255220413208,-0.027022264897823334
1700856620620473600,5.5164736328125,0.006731986999511719,-0.039730846881866455,0.06256947666406631
1700856620637465000,5.533465087890625,-0.0680551528930664,-0.08318173885345459,0.14884290099143982
1700856620654459100,5.550459228515625,0.008505821228027344,-0.07342547178268433,0.15739859640598297
1700856620671451100,5.567451171875,-0.02559661865234375,-0.025505155324935913,0.11942985653877258
1700856620688445200,5.584445068359375,-0.02738475799560547,0.04195156693458557,0.024134699255228043
1700856620705436700,5.601436767578125,0.004328727722167969,0.06090381741523743,-0.06712713092565536
1700856620722431000,5.618430908203125,-0.03395271301269531,0.027345329523086548,-0.09504367411136627
1700856620739419600,5.635419677734375,-0.05190849304199219,-0.063357412815094,-0.05232842266559601
1700856620756420400,5.65242041015625,-0.0124359130859375,-0.06793627142906189,0.04337774217128754
1700856620773408500,5.669408447265625,-0.020813941955566406,-0.04456186294555664,0.13394257426261902
1700856620790403000,5.686403076171875,-0.015436172485351562,-0.0013874173164367676,0.16692672669887543
1700856620807394800,5.703394775390625,0.021656036376953125,0.032592326402664185,0.10921920835971832
1700856620824389000,5.72038916015625,-0.032181739807128906,0.04213622212409973,0.018734581768512726
1700856620841377800,5.737377685546875,0.009099006652832031,0.0037563443183898926,-0.07260742783546448
1700856620858374700,5.754374755859375,-0.005257606506347656,-0.06260102987289429,-0.09616830945014954
1700856620875366700,5.77136669921875,-0.009455680847167969,-0.05338531732559204,-0.05301252752542496
1700856620892361000,5.78836083984375,0.0013093948364257812,0.004085153341293335,0.03784851357340813
1700856620909352400,5.8053525390625,-0.030394554138183594,0.03216204047203064,0.12431386113166809
1700856620926344000,5.822343994140625,-0.016036033630371094,0.012953698635101318,0.1519961804151535
1700856620943341000,5.839341064453125,-0.03040313720703125,-0.015572160482406616,0.11812359094619751
1700856620960333000,5.8563330078125,-0.03161048889160156,-0.029107093811035156,0.027070850133895874
1700856620977313500,5.8733134765625,0.0006885528564453125,-0.03378307819366455,-0.035003867000341415
1700856620994318300,5.890318359375,-0.0190582275390625,-0.02883845567703247,-0.06345722824335098
1700856621011310000,5.90731005859375,-0.08545875549316406,0.004669129848480225,-0.024432942271232605
1700856621028306000,5.924305908203125,0.010256767272949219,0.07636299729347229,0.02277306467294693
1700856621045296000,5.941296142578125,-0.03640270233154297,0.04224035143852234,0.07575109601020813
1700856621062290400,5.95829052734375,0.0072574615478515625,-0.04791179299354553,0.09389480948448181
1700856621079282200,5.9752822265625,-0.00232696533203125,-0.09552374482154846,0.08352691680192947
1700856621096276500,5.9922763671875,0.030562400817871094,-0.05697318911552429,0.03067830391228199
1700856621113268000,6.00926806640625,-0.02327728271484375,0.014841139316558838,-0.0021190382540225983
1700856621130261800,6.02626171875,-0.042418479919433594,0.04353749752044678,0.0031824391335248947
1700856621147256300,6.04325634765625,-0.00891876220703125,0.03394266963005066,0.007278187200427055
1700856621164246500,6.06024658203125,-0.041820526123046875,-0.004357039928436279,0.026266656816005707
1700856621181239800,6.07723974609375,-0.026872634887695312,-0.047253310680389404,0.05481872707605362
1700856621198224000,6.094223876953125,-0.01671123504638672,-0.061462998390197754,0.06422381103038788
1700856621215226000,6.11122607421875,-0.017312049865722656,0.005598694086074829,0.04021798074245453
1700856621232215800,6.1282158203125,-0.013714790344238281,0.06283816695213318,0.011491572484374046
1700856621249216000,6.145216064453125,-0.05199241638183594,0.05309233069419861,-0.002283915877342224
1700856621266205700,6.162205810546875,-0.013700485229492188,0.0003013312816619873,-0.0028838887810707092
1700856621283198000,6.179197998046875,-0.02268218994140625,-0.0569455623626709,0.016240162774920464
1700856621300182000,6.19618212890625,-0.04602622985839844,-0.06202012300491333,0.04481695592403412
1700856621317180000,6.213179931640625,-0.007746696472167969,-0.037390440702438354,0.054248109459877014
1700856621334181600,6.230181640625,-0.03586006164550781,0.009832561016082764,0.07797430455684662
1700856621351169500,6.24716943359375,-0.026885032653808594,0.039089322090148926,0.044286832213401794
1700856621368164000,6.2641640625,-0.0041446685791015625,0.038900136947631836,0.0060778651386499405
1700856621385157600,6.28115771484375,-0.013715744018554688,0.0005864500999450684,-0.012989673763513565
1700856621402136800,6.29813671875,-0.0035486221313476562,-0.028055846691131592,-0.008129820227622986
1700856621419141600,6.3151416015625,-0.02210235595703125,-0.03262469172477722,0.025308609008789062
1700856621436136000,6.332135986328125,-0.007748603820800781,-0.008649230003356934,0.058730997145175934
1700856621453127400,6.34912744140625,-0.01194000244140625,0.01475304365158081,0.08243191242218018
1700856621470121700,6.366121826171875,-0.022110939025878906,0.0052106380462646484,0.07264374196529388
1700856621487110400,6.3831103515625,-0.003574371337890625,-0.022756755352020264,0.029466994106769562
1700856621504107500,6.400107421875,-0.01853466033935547,-0.04178500175476074,-0.018289707601070404
1700856621521099300,6.417099365234375,-0.013752937316894531,-0.027327924966812134,-0.03251873701810837
1700856621538093600,6.434093505859375,-0.008966445922851562,0.010963112115859985,-0.008396819233894348
1700856621555085600,6.45108544921875,-0.017937660217285156,0.030071288347244263,0.03941316530108452
1700856621572079400,6.468079345703125,-0.007770538330078125,0.02053925395011902,0.07750246673822403
1700856621589071000,6.485071044921875,-0.01674652099609375,-0.003935694694519043,0.07731431722640991
1700856621606065400,6.5020654296875,-0.026922225952148438,-0.027154922485351562,0.04360871762037277
1700856621623057200,6.51905712890625,-0.017953872680664062,-0.027048945426940918,0.01484101451933384
1700856621640051200,6.53605126953125,-0.013772964477539062,-0.0125732421875,-0.013823136687278748
1700856621657042700,6.553042724609375,-0.013776779174804688,0.025807857513427734,-0.01369718462228775
1700856621674034700,6.57003466796875,-0.013174057006835938,0.04486650228500366,0.014970583841204643
1700856621691031600,6.587031494140625,-0.012577056884765625,0.011396944522857666,0.04354947805404663
1700856621708023300,6.604023193359375,-0.01677417755126953,-0.03626719117164612,0.06253325194120407
1700856621725014500,6.6210146484375,-0.017386436462402344,-0.05990976095199585,0.05274806171655655
1700856621742008800,6.6380087890625,-0.02218151092529297,-0.04055723547935486,0.03350553289055824
1700856621759000800,6.655000732421875,-0.017995834350585938,0.0025475621223449707,0.009609026834368706
1700856621775987000,6.671987060546875,-0.018590927124023438,0.031185954809188843,-0.004765305668115616
1700856621792986600,6.688986572265625,-0.013804435729980469,0.031180918216705322,0.00010452046990394592
1700856621809980700,6.705980712890625,-0.013207435607910156,0.007260411977767944,0.00963367335498333
1700856621826962700,6.722962646484375,-0.012614250183105469,-0.03089967370033264,0.038244929164648056
1700856621843963100,6.739963134765625,-0.02219676971435547,-0.04022616147994995,0.0524139478802681
1700856621860962800,6.756962890625,-0.012630462646484375,-0.011440157890319824,0.05693763867020607
1700856621877952500,6.773952392578125,-0.017416954040527344,0.017286032438278198,0.047235991805791855
1700856621894944500,6.790944580078125,-0.018013954162597656,0.02203768491744995,0.01846439763903618
1700856621911938800,6.807938720703125,-0.013225555419921875,0.01242077350616455,0.00888608954846859
1700856621928930300,6.824930419921875,-0.008444786071777344,-0.020986169576644897,-0.005483562126755714
1700856621945924900,6.8419248046875,-0.022806167602539062,-0.025692373514175415,0.013665542006492615
1700856621962916600,6.85891650390625,-0.007849693298339844,-0.020928114652633667,0.04224260523915291
1700856621979900200,6.875900146484375,-0.01263427734375,0.002958357334136963,0.05633649230003357
1700856621996898000,6.89289794921875,-0.012628555297851562,0.026758432388305664,0.06561927497386932
1700856622013899000,6.90989892578125,-0.01741313934326172,0.026715397834777832,0.04162584990262985
1700856622030888400,6.926888427734375,-0.01801586151123047,0.0028823018074035645,0.022420760244131088
1700856622047883000,6.943883056640625,-0.013232231140136719,-0.03535664081573486,-0.0014825034886598587
1700856622064874200,6.960874267578125,-0.009051322937011719,-0.020852267742156982,-0.010983554646372795
1700856622081868300,6.977868408203125,-0.013240814208984375,-0.0064553022384643555,-0.00628097727894783
1700856622098860300,6.9948603515625,-0.01323699951171875,0.00783643126487732,0.003271454945206642
1700856622115854600,7.0118544921875,-0.017421722412109375,0.007755011320114136,0.04135512560606003
1700856622132845800,7.028845703125,-0.012637138366699219,-0.006592273712158203,0.05074191838502884
1700856622149840100,7.045840087890625,-0.016829490661621094,-0.02625933289527893,0.0696491152048111
1700856622166821400,7.0628212890625,-0.012653350830078125,-0.03978767991065979,0.05028894543647766
1700856622183826400,7.079826416015625,-0.022823333740234375,-0.020658761262893677,0.016683224588632584
1700856622200817000,7.09681689453125,-0.02341938018798828,0.008046478033065796,-0.011986499652266502
1700856622217813800,7.113813720703125,-0.013844490051269531,0.027109354734420776,-0.01191847026348114
1700856622234808000,7.13080810546875,-0.008458137512207031,0.01747569441795349,0.0024119149893522263
1700856622251798300,7.14779833984375,0.0011129379272460938,0.017479121685028076,0.0024640094488859177
1700856622268786000,7.164785888671875,-0.05093097686767578,-0.007030844688415527,0.04065879434347153
1700856622285788200,7.1817880859375,0.01606273651123047,-0.039830923080444336,0.058995649218559265
1700856622302775800,7.19877587890625,-0.016849517822265625,-0.05455765128135681,0.07861649990081787
1700856622319770400,7.215770263671875,-0.027024269104003906,-0.020960211753845215,0.059226229786872864
1700856622336751600,7.232751708984375,0.005879402160644531,0.032214730978012085,0.006646368652582169
1700856622353756000,7.249755859375,-0.042563438415527344,0.04154592752456665,-0.026172002777457237
1700856622370747600,7.26674755859375,-0.0000858306884765625,0.012719482183456421,-0.04102235287427902
1700856622387742200,7.2837421875,-0.008460044860839844,-0.006415903568267822,-0.002613464370369911
1700856622404733700,7.300733642578125,-0.022222518920898438,-0.00634881854057312,0.04033738374710083
1700856622421727700,7.317727783203125,-0.007269859313964844,-0.011706322431564331,0.07840956002473831
1700856622438719500,7.334719482421875,-0.031200408935546875,-0.03557947278022766,0.08299762010574341
1700856622455713800,7.3517138671875,-0.00787353515625,-0.030132770538330078,0.035005535930395126
1700856622472695300,7.3686953125,-0.009066581726074219,0.027218759059906006,-0.022315187379717827
1700856622489699800,7.385699951171875,-0.004872322082519531,0.05101025104522705,-0.06519034504890442
1700856622506691800,7.40269189453125,-0.032982826232910156,0.022183507680892944,-0.03636784851551056
1700856622523685600,7.419685546875,0.006495475769042969,-0.030391722917556763,0.030629286542534828
1700856622540677000,7.436677001953125,-0.031197547912597656,-0.04042327404022217,0.08781873434782028
1700856622557659100,7.4536591796875,-0.021035194396972656,-0.030727535486221313,0.111345574259758
1700856622574663400,7.470663330078125,-0.003093719482421875,-0.001339644193649292,0.06797390431165695
1700856622591657700,7.48765771484375,-0.018042564392089844,0.012884020805358887,-0.003880959004163742
1700856622608649200,7.504649169921875,-0.00009250640869140625,0.01279345154762268,-0.0468638613820076
1700856622625643300,7.521643310546875,-0.01922893524169922,0.02704504132270813,-0.046628840267658234
1700856622642635500,7.538635498046875,-0.013841629028320312,0.026959151029586792,-0.0035368502140045166
1700856622659629600,7.555629638671875,-0.007860183715820312,-0.0017513632774353027,0.05367077887058258
1700856622676618200,7.5726181640625,-0.02640533447265625,-0.011918991804122925,0.08214209973812103
1700856622693618000,7.589617919921875,-0.007260322570800781,-0.020958155393600464,0.07232457399368286
1700856622710596600,7.6065966796875,-0.01803302764892578,-0.030421048402786255,0.019571887329220772
1700856622727601700,7.6236015625,-0.01803874969482422,-0.05420947074890137,-0.009202355518937111
1700856622744593200,7.64059326171875,-0.013850212097167969,-0.01596042513847351,-0.03290259838104248
1700856622761587500,7.65758740234375,-0.0048618316650390625,0.0794324278831482,-0.03754160553216934
1700856622778579000,7.674578857421875,-0.02758026123046875,0.0791139006614685,0.034760791808366776
1700856622795569200,7.691569091796875,-0.025781631469726562,-0.01251181960105896,0.11522829532623291
1700856622812569300,7.7085693359375,0.0041141510009765625,-0.09358307719230652,0.16192330420017242
1700856622829558300,7.725558349609375,-0.04016304016113281,-0.06945058703422546,0.09990814328193665
1700856622846549200,7.74254931640625,0.0100860595703125,0.007713139057159424,-0.02448282390832901
1700856622863547600,7.759547607421875,-0.015028953552246094,0.031459957361221313,-0.09586821496486664
1700856622880545300,7.776545166015625,-0.02459239959716797,0.01694786548614502,-0.1050913855433464
1700856622897531100,7.79353125,-0.0000591278076171875,0.02639949321746826,-0.061699554324150085
1700856622914522600,7.810522705078125,-0.027570724487304688,0.026270627975463867,0.024506673216819763
1700856622931517400,7.827517333984375,-0.011423110961914062,-0.022127211093902588,0.10559825599193573
1700856622948508400,7.84450830078125,-0.015618324279785156,-0.06026002764701843,0.14337867498397827
1700856622965503000,7.8615029296875,-0.02100849151611328,-0.026649415493011475,0.10947303473949432
1700856622982495000,7.878494873046875,-0.007844924926757812,-0.0021866261959075928,0.032732777297496796
1700856622999489300,7.8954892578125,-0.023397445678710938,-0.006995022296905518,-0.039008744060993195
1700856623016480500,7.91248046875,-0.010236740112304688,0.016939014196395874,-0.08659318834543228
1700856623033474800,7.929474853515625,-0.0144195556640625,0.03600320219993591,-0.07190574705600739
1700856623050467000,7.946467041015625,-0.01800060272216797,0.021467596292495728,0.004655556753277779
1700856623067460600,7.963460693359375,-0.007237434387207031,-0.03169122338294983,0.08094140887260437
1700856623084452400,7.980452392578125,-0.016219139099121094,-0.041099727153778076,0.11891940236091614
1700856623101431800,7.997431884765625,-0.0024614334106445312,-0.007603973150253296,0.08982551097869873
1700856623118438700,8.014438720703126,-0.013227462768554688,0.02646508812904358,0.02742084488272667
1700856623135430100,8.03143017578125,-0.013825416564941406,0.0073108673095703125,-0.03475336730480194
1700856623152426800,8.0484267578125,-0.01442718505859375,-0.02610236406326294,-0.058480650186538696
1700856623169408300,8.065408203125,-0.013830184936523438,-0.011726319789886475,-0.0344441793859005
1700856623186410500,8.082410400390625,-0.013234138488769531,0.007479995489120483,0.013322793878614902
1700856623203404800,8.09940478515625,-0.026988983154296875,0.006775945425033569,0.06101859360933304
1700856623220396000,8.11639599609375,-0.016823768615722656,-0.01226872205734253,0.08940112590789795
1700856623237390000,8.13339013671875,-0.012042999267578125,-0.00741991400718689,0.07956454157829285
1700856623254382300,8.15038232421875,-0.017429351806640625,-0.016323864459991455,0.022021498531103134
1700856623271376600,8.167376708984374,-0.022817611694335938,-0.016247212886810303,-0.016267118975520134
1700856623288365600,8.184365478515625,-0.009059906005859375,-0.0018375515937805176,-0.044872887432575226
1700856623305364700,8.20136474609375,-0.009055137634277344,0.022001951932907104,-0.03992310166358948
1700856623322344000,8.218343994140625,-0.018022537231445312,0.017102211713790894,0.012750900350511074
1700856623339348500,8.235348388671875,-0.012638092041015625,-0.006856143474578857,0.05563656985759735
1700856623356341500,8.252341552734375,-0.016831398010253906,-0.04085841774940491,0.08410169184207916
1700856623373332200,8.269332275390624,-0.01683807373046875,-0.02577468752861023,0.059948116540908813
1700856623390326000,8.286325927734374,-0.008463859558105469,0.0029589831829071045,0.012044045142829418
1700856623407320600,8.303320556640625,-0.00905609130859375,0.012421965599060059,-0.030975107103586197
1700856623424311800,8.320311767578126,-0.013841629028320312,-0.0067498087882995605,-0.02138207107782364
1700856623441305900,8.337305908203126,0.0011119842529296875,-0.02586430311203003,0.007249044254422188
1700856623458297900,8.3542978515625,-0.022223472595214844,-0.02574518322944641,0.05014048516750336
1700856623475281700,8.37128173828125,-0.02162456512451172,-0.012009024620056152,0.07385729998350143
1700856623492268800,8.388268798828125,-0.007860183715820312,0.02673444151878357,0.06889040768146515
1700856623509278000,8.40527783203125,-0.02221202850341797,0.045755207538604736,0.04479290544986725
1700856623526267400,8.422267333984376,-0.004260063171386719,0.03607136011123657,-0.003128431737422943
1700856623543266600,8.4392666015625,-0.01861286163330078,-0.007097333669662476,-0.03649980574846268
1700856623560255500,8.45625537109375,-0.013238906860351562,-0.06431129574775696,-0.01728166453540325
1700856623577239000,8.473239013671876,-0.008458137512207031,-0.05461224913597107,0.006684422492980957
1700856623594241800,8.49024169921875,-0.027004241943359375,-0.006720840930938721,0.025724440813064575
1700856623611236000,8.507236083984376,-0.008455276489257812,0.05537131428718567,0.035098589956760406
1700856623628227600,8.5242275390625,0.0059070587158203125,0.05524328351020813,0.025440741330385208
1700856623645221600,8.5412216796875,-0.036561012268066406,0.012066006660461426,0.02999158203601837
1700856623662213600,8.558213623046875,0.011285781860351562,-0.04039359092712402,0.04365736246109009
1700856623679208000,8.5752080078125,-0.0264129638671875,-0.069451242685318,0.058322809636592865
1700856623696196600,8.592196533203126,-0.012663841247558594,-0.044712185859680176,0.04364946484565735
1700856623713185500,8.609185546875,-0.008473396301269531,0.027013659477233887,0.005324378609657288
1700856623730185500,8.626185546875,-0.028799057006835938,0.06978380680084229,-0.04658553749322891
1700856623747179500,8.643179443359376,-0.000080108642578125,0.03137785196304321,-0.0613519586622715
1700856623764171000,8.6601708984375,-0.023412704467773438,-0.025979846715927124,-0.022932076826691628
1700856623781161500,8.677161376953125,-0.01684093475341797,-0.04971933364868164,0.058318350464105606
1700856623798157600,8.694157470703125,-0.006676673889160156,-0.035855233669281006,0.11535045504570007
1700856623815151600,8.711151611328125,-0.02103137969970703,0.011911243200302124,0.1148819699883461
1700856623832143000,8.72814306640625,-0.007866859436035156,0.02677839994430542,0.04284742847084999
1700856623849137200,8.74513720703125,-0.01863574981689453,-0.006710022687911987,-0.038461215794086456
1700856623866129400,8.76212939453125,-0.0144500732421875,-0.01143375039100647,-0.08612034469842911
1700856623883122200,8.7791220703125,-0.015048980712890625,-0.0018348991870880127,-0.09059488028287888
1700856623900104000,8.79610400390625,-0.013853073120117188,-0.0018230676651000977,-0.013921862468123436
1700856623917109500,8.813109619140626,-0.007277488708496094,-0.016697943210601807,0.08634106069803238
1700856623934103000,8.83010302734375,-0.006084442138671875,-0.01183229684829712,0.15752911567687988
1700856623951095300,8.84709521484375,-0.021036148071289062,0.021535009145736694,0.1377825289964676
1700856623968087000,8.864087158203125,-0.007870674133300781,0.012454599142074585,0.061089299619197845
1700856623985081300,8.881081298828125,-0.01864147186279297,-0.025760650634765625,-0.029810680076479912
1700856624002073000,8.898072998046874,-0.0150604248046875,-0.03512802720069885,-0.11554555594921112
1700856624019067400,8.9150673828125,-0.010272026062011719,0.013300448656082153,-0.12465733289718628
1700856624036058600,8.93205859375,-0.014453887939453125,0.050846099853515625,-0.06696262955665588
1700856624053053000,8.949052978515626,-0.012653350830078125,0.02680334448814392,0.04774365946650505
1700856624070045200,8.966045166015626,-0.011460304260253906,-0.016826659440994263,0.12390543520450592
1700856624087039200,8.983039306640626,-0.01565265655517578,-0.05978342890739441,0.1472357213497162
1700856624104030700,9.00003076171875,-0.016264915466308594,-0.06909754872322083,0.0894910991191864
1700856624121024800,9.017024658203125,-0.01806640625,-0.03005412220954895,-0.011097665876150131
1700856624137999600,9.03399951171875,-0.024641990661621094,0.03207463026046753,-0.08745095133781433
1700856624155011000,9.051010986328125,-0.010273933410644531,0.06532275676727295,-0.11107666790485382
1700856624172002600,9.06800244140625,-0.01923370361328125,0.06027767062187195,-0.06302382051944733
1700856624188997000,9.0849970703125,-0.008464813232421875,-0.00197407603263855,0.018228208646178246
1700856624205988900,9.10198876953125,-0.02103710174560547,-0.06936439871788025,0.09923715889453888
1700856624222983000,9.11898291015625,-0.0246429443359375,-0.08817341923713684,0.1657138466835022
1700856624239964000,9.1359638671875,-0.011490821838378906,-0.0162508487701416,0.12685082852840424
1700856624256968700,9.15296875,-0.022251129150390625,0.041630446910858154,0.03572168946266174
1700856624273960400,9.16996044921875,-0.009678840637207031,0.05576080083847046,-0.0646091103553772
1700856624290955000,9.186955078125,-0.019847869873046875,0.007913768291473389,-0.11690570414066315
1700856624307946500,9.203946533203125,-0.009677886962890625,-0.01599562168121338,-0.09254443645477295
1700856624324940500,9.2209404296875,-0.018054962158203125,-0.020736902952194214,-0.015910372138023376
1700856624341932300,9.237932373046876,-0.021645545959472656,-0.016522496938705444,0.08927535265684128
1700856624358923300,9.25492333984375,-0.0060939788818359375,-0.006938457489013672,0.14136441051959991
1700856624375918000,9.27191796875,-0.011477470397949219,0.01695883274078369,0.11699415743350983
1700856624392912600,9.28891259765625,-0.022240638732910156,0.012680202722549438,0.030571581795811653
1700856624409904600,9.305904541015625,-0.004296302795410156,-0.02557772397994995,-0.06024078279733658
1700856624426888700,9.322888671875,-0.010282516479492188,-0.03983122110366821,-0.1029447689652443
1700856624443890000,9.339889892578125,-0.009683609008789062,-0.011124521493911743,-0.08345593512058258
1700856624460884500,9.356884521484375,-0.008481025695800781,0.02224123477935791,-0.006807664409279823
1700856624477876200,9.373876220703124,-0.016851425170898438,0.01675879955291748,0.07437752932310104
1700856624494870500,9.39087060546875,-0.016254425048828125,-0.00237157940864563,0.12174742668867111
1700856624511859500,9.407859375,-0.0210418701171875,-0.0167083740234375,0.11177939921617508
1700856624528849400,9.424849365234374,-0.007885932922363281,-0.020807772874832153,0.03979913145303726
1700856624545848600,9.4418486328125,-0.009087562561035156,-0.01588386297225952,-0.02708420343697071
1700856624562842400,9.45884228515625,-0.009685516357421875,-0.006319552659988403,-0.06508840620517731
1700856624579833900,9.475833740234375,-0.019258499145507812,0.02723020315170288,-0.05528534948825836
1700856624596825600,9.49282568359375,-0.02762889862060547,0.03669890761375427,0.0021629538387060165
1700856624613822700,9.50982275390625,-0.017461776733398438,-0.0063194334506988525,0.054746486246585846
1700856624630814200,9.526814208984375,-0.0072994232177734375,-0.0354917049407959,0.08791963756084442
1700856624647805700,9.5438056640625,-0.012094497680664062,-0.030507951974868774,0.07324957847595215
1700856624664794400,9.56079443359375,-0.017480850219726562,-0.0011451542377471924,0.030037017539143562
1700856624681792000,9.5777919921875,-0.013891220092773438,0.013194382190704346,-0.022452669218182564
1700856624698786300,9.594786376953126,-0.013890266418457031,0.008391857147216797,-0.051034849137067795
1700856624715777800,9.61177783203125,-0.018672943115234375,-0.0012139678001403809,-0.046056248247623444
1700856624732771800,9.628771728515625,-0.008504867553710938,-0.0011793673038482666,-0.012489905580878258
1700856624749764000,9.64576416015625,-0.022268295288085938,-0.025014519691467285,0.04485027492046356
1700856624766740700,9.66274072265625,-0.016887664794921875,-0.025551021099090576,0.07811731100082397
1700856624783749600,9.67974951171875,-0.012103080749511719,-0.006397843360900879,0.06829903274774551
1700856624800744000,9.696743896484374,-0.022268295288085938,0.01804235577583313,0.039426498115062714
1700856624817730000,9.71372998046875,-0.008505821228027344,0.013172030448913574,0.0011223871260881424
1700856624834730000,9.73072998046875,-0.013886451721191406,-0.006047099828720093,-0.032261431217193604
1700856624851721500,9.747721435546875,-0.013887405395507812,-0.015600413084030151,-0.04172555357217789
1700856624868715500,9.764715576171875,-0.027647972106933594,-0.005978316068649292,-0.012915601953864098
1700856624885707500,9.78170751953125,-0.013287544250488281,-0.006037026643753052,0.015841996297240257
1700856624902702000,9.7987021484375,-0.017477035522460938,-0.0012265145778656006,0.04924587160348892
1700856624919693300,9.815693359375,-0.017479896545410156,0.003609299659729004,0.05380696803331375
1700856624936687900,9.83268798828125,-0.003124237060546875,-0.0011585354804992676,0.03459964692592621
1700856624953677000,9.849677001953125,-0.01807689666748047,-0.020334988832473755,0.005752275697886944
1700856624970676200,9.86667626953125,-0.013296127319335938,-0.020240992307662964,-0.013340163975954056
1700856624987665200,9.8836650390625,-0.018079757690429688,-0.005926847457885742,-0.003934934735298157
1700856625004649500,9.9006494140625,-0.018075942993164062,0.013147473335266113,0.0008185878396034241
1700856625021651500,9.9176513671875,-0.013286590576171875,0.017831355333328247,0.019809799268841743
1700856625038646000,9.93464599609375,-0.017472267150878906,0.0034150779247283936,0.03407051041722298
1700856625055637200,9.95163720703125,-0.017472267150878906,-0.015717893838882446,0.029252303764224052
1700856625072631300,9.96863134765625,-0.012690544128417969,-0.015631258487701416,0.024341288954019547
1700856625089623300,9.985623291015624,-0.01807689666748047,-0.02037489414215088,0.0003693383187055588
1700856625106617900,10.002617919921875,-0.018073081970214844,-0.010886996984481812,-0.0044952258467674255
1700856625123609000,10.019609130859376,-0.013285636901855469,0.008213162422180176,-0.01406695507466793
1700856625140604000,10.03660400390625,-0.018068313598632812,0.022527366876602173,0.00033401697874069214
1700856625157587700,10.053587646484376,-0.013280868530273438,0.0033339858055114746,0.009908542037010193
1700856625174592300,10.07059228515625,-0.0126800537109375,-0.015882879495620728,0.0289919376373291
1700856625191568100,10.087568115234374,-0.007899284362792969,-0.02534422278404236,0.024089787155389786
1700856625208578000,10.104578125,-0.012684822082519531,-0.006197512149810791,0.019221842288970947
1700856625225567200,10.121567138671875,-0.022850990295410156,0.0032888948917388916,0.014445899054408073
1700856625242561500,10.1385615234375,-0.022851943969726562,0.0033065974712371826,0.00009707733988761902
1700856625259552800,10.155552734375,-0.013278961181640625,0.003273487091064453,-0.004652462899684906
1700856625276547000,10.172547119140624,-0.013278961181640625,0.008060306310653687,0.004732302390038967
1700856625293539000,10.1895390625,-0.013280868530273438,0.003326505422592163,0.014291003346443176
1700856625310533400,10.206533447265626,-0.02704143524169922,-0.001433640718460083,0.028518039733171463
1700856625327524900,10.22352490234375,-0.02225971221923828,0.003427267074584961,0.03314383700489998
1700856625344519000,10.240518798828125,-0.017472267150878906,-0.0013922154903411865,0.028258277103304863
1700856625361511200,10.25751123046875,-0.013284683227539062,-0.006194084882736206,-0.0004517938941717148
1700856625378505500,10.27450537109375,-0.018070220947265625,-0.015747040510177612,-0.009870180860161781
1700856625395496400,10.291496337890624,-0.013284683227539062,-0.010951489210128784,-0.009815381839871407
1700856625412490800,10.30849072265625,-0.01807117462158203,-0.006174176931381226,-0.0003652181476354599
1700856625429483000,10.32548291015625,-0.013288497924804688,0.00826755166053772,0.01398245245218277
1700856625446477300,10.342477294921874,-0.017477035522460938,-0.0012955665588378906,0.028265293687582016
1700856625463468800,10.35946875,-0.017477989196777344,-0.0012701749801635742,0.033012911677360535
1700856625480460800,10.376460693359375,-0.0132904052734375,-0.010840833187103271,0.013813851401209831
1700856625497457200,10.39345703125,-0.013292312622070312,-0.006012082099914551,0.004280294291675091
1700856625514449000,10.410448974609375,-0.01807880401611328,0.003575354814529419,0.004180398769676685
1700856625531440400,10.4274404296875,-0.013288497924804688,0.003448307514190674,-0.000654071569442749
1700856625548434700,10.4444345703125,-0.022855758666992188,0.017710953950881958,0.008860006928443909
1700856625565426700,10.4614267578125,-0.02285003662109375,0.008020460605621338,0.01837010495364666
1700856625582421000,10.4784208984375,-0.013278007507324219,-0.011128902435302734,0.018373867496848106
1700856625599412500,10.49541259765625,-0.012685775756835938,-0.011007428169250488,0.02314608171582222
1700856625616406500,10.512406494140626,-0.017470359802246094,-0.006262421607971191,0.023113209754228592
1700856625633398500,10.5293984375,-0.02763652801513672,-0.0015360713005065918,-0.000723598524928093
1700856625650392600,10.546392578125,-0.04199409484863281,-0.0015263259410858154,-0.005476370453834534
1700856625667373600,10.56337353515625,0.005864143371582031,0.0032181739807128906,-0.005393048748373985
1700856625684378600,10.580378662109375,-0.03720664978027344,-0.0015512406826019287,0.008953196927905083
1700856625701370400,10.597370361328124,-0.008493423461914062,0.003254145383834839,0.018452074378728867
1700856625718365000,10.614364990234375,-0.01746368408203125,-0.006384849548339844,0.028047557920217514
1700856625735356200,10.631356201171876,-0.02703571319580078,0.0032050013542175293,0.027957016602158546
1700856625752350500,10.6483505859375,-0.00849151611328125,-0.006381720304489136,0.01361248828470707
1700856625769342500,10.665342529296876,-0.022848129272460938,-0.006388276815414429,0.008750993758440018
1700856625786336800,10.682336669921876,-0.013277053833007812,-0.011162877082824707,0.0039242347702383995
1700856625803328300,10.699328369140625,-0.013277053833007812,-0.011153459548950195,-0.0008325744420289993
1700856625820322300,10.716322265625,-0.027635574340820312,-0.0015568435192108154,0.013507513329386711
1700856625837320200,10.7333203125,-0.01328277587890625,-0.0014713704586029053,0.008703356608748436
1700856625854308600,10.75030859375,-0.022255897521972656,-0.011032819747924805,0.01821926422417164
1700856625871297500,10.767297607421876,-0.013287544250488281,-0.0013670027256011963,0.013497097417712212
1700856625888296700,10.784296630859375,-0.013284683227539062,0.008161753416061401,0.013465339317917824
1700856625905286100,10.8012861328125,-0.013284683227539062,0.008153408765792847,0.013497518375515938
1700856625922280700,10.81828076171875,-0.008494377136230469,0.008043348789215088,0.008688811212778091
1700856625939267600,10.835267578125,-0.02285289764404297,-0.006287604570388794,0.013502141460776329
1700856625956266000,10.852265869140625,-0.007897377014160156,-0.0062940120697021484,0.02297583594918251
1700856625973258000,10.869258056640625,-0.012684822082519531,-0.011027723550796509,0.02763604186475277
1700856625990252300,10.886252197265625,-0.03661537170410156,-0.011018902063369751,0.022793404757976532
1700856626007241000,10.903240966796876,-0.02285480499267578,0.0033036768436431885,0.0035865409299731255
1700856626024241200,10.9202412109375,-0.02285289764404297,0.012848973274230957,0.003590560518205166
1700856626041229800,10.937229736328124,-0.02763843536376953,0.0032769441604614258,-0.0012133941054344177
1700856626058224000,10.95422412109375,-0.018065452575683594,-0.001538604497909546,0.003484579734504223
1700856626075215600,10.971215576171875,-0.013280868530273438,-0.01586759090423584,0.003497169353067875
1700856626092207600,10.98820751953125,-0.012690544128417969,-0.025292903184890747,0.017812352627515793
1700856626109204500,11.00520458984375,-0.017479896545410156,-0.010858029127120972,0.0176650770008564
1700856626126196000,11.022196044921875,-0.018079757690429688,-0.006020784378051758,0.012832049280405045
1700856626143177000,11.039177001953124,-0.0132904052734375,0.008243143558502197,0.01751505769789219
1700856626160182000,11.05618212890625,-0.01807117462158203,0.0225050151348114,0.0031037433072924614
1700856626177174000,11.073174072265624,-0.02285480499267578,0.008080482482910156,0.007771164644509554
1700856626194168300,11.090168212890624,-0.01807117462158203,-0.00623282790184021,0.012393070384860039
1700856626211159300,11.1071591796875,-0.018075942993164062,-0.020485758781433105,0.007594013120979071
1700856626228153900,11.12415380859375,-0.01807689666748047,-0.010878920555114746,-0.0018631108105182648
1700856626245145900,11.141145751953125,-0.013291358947753906,-0.001315087080001831,0.0124691566452384
1700856626262135600,11.158135498046875,-0.018074989318847656,0.008222103118896484,0.01720649003982544
1700856626279135700,11.1751357421875,-0.012692451477050781,0.0034537315368652344,0.026646729558706284
1700856626296115000,11.192114990234375,-0.008504867553710938,0.008239597082138062,0.017030104994773865
1700856626313117700,11.20911767578125,-0.018075942993164062,0.008239299058914185,0.012093217112123966
1700856626330108000,11.22610791015625,-0.008500099182128906,-0.006225675344467163,0.0026197582483291626
1700856626347103200,11.243103271484374,-0.01807403564453125,-0.006164669990539551,0.002630794420838356
1700856626364097500,11.26009765625,-0.01807880401611328,-0.001285642385482788,0.007520338054746389
1700856626381089500,11.277089599609376,-0.0037212371826171875,-0.0060700178146362305,0.012295238673686981
1700856626398084000,11.294083984375,-0.008507728576660156,-0.010836362838745117,0.01225843746215105
1700856626415075300,11.311075439453125,-0.0126953125,-0.006067723035812378,0.026488743722438812
1700856626432069400,11.3280693359375,-0.007909774780273438,-0.00606575608253479,0.031065024435520172
1700856626449061600,11.3450615234375,-0.017477989196777344,-0.001356273889541626,0.02122485265135765
1700856626466055700,11.3620556640625,-0.02286243438720703,-0.0061501264572143555,0.0020583709701895714
1700856626483047200,11.379047119140624,-0.0132904052734375,-0.010917335748672485,-0.0074801575392484665
1700856626500032500,11.396032470703124,-0.013293266296386719,-0.0013024508953094482,-0.012306240387260914
1700856626517031000,11.413031005859375,-0.022867202758789062,-0.001259922981262207,-0.012238577008247375
1700856626534033700,11.43003369140625,-0.008507728576660156,0.008277714252471924,0.006870895158499479
1700856626551019000,11.44701904296875,-0.012698173522949219,0.00833737850189209,0.02117135003209114
1700856626568013300,11.464013427734375,-0.012698173522949219,0.008328229188919067,0.03065621107816696
1700856626585005000,11.481005126953125,-0.012698173522949219,0.0035594701766967773,0.025835098698735237
1700856626601999600,11.49799951171875,-0.01270294189453125,-0.010694801807403564,0.020980875939130783
1700856626618991000,11.5149912109375,-0.017498016357421875,-0.020071059465408325,0.02082616463303566
1700856626635985200,11.531985107421875,-0.008528709411621094,-0.015199661254882812,0.0064577157609164715
1700856626652977200,11.54897705078125,-0.01331329345703125,-0.0008524954319000244,0.006406425032764673
1700856626669971500,11.565971435546874,-0.008527755737304688,0.023056775331497192,0.01112354826182127
1700856626686952400,11.582952392578125,-0.01331329345703125,0.027838945388793945,0.0015056263655424118
1700856626703957000,11.59995703125,-0.0037403106689453125,0.003859221935272217,0.015768349170684814
1700856626720938500,11.6169384765625,-0.0175018310546875,-0.01999261975288391,0.010793966241180897
1700856626737943600,11.633943603515625,-0.012724876403808594,-0.04374957084655762,0.0106080062687397
1700856626754935000,11.65093505859375,-0.012728691101074219,-0.03407454490661621,0.010537145659327507
1700856626771929000,11.66792919921875,-0.018117904663085938,0.004310697317123413,0.0056410240940749645
1700856626788921000,11.684921142578125,-0.013334274291992188,0.03306207060813904,0.0006946539506316185
1700856626805915400,11.701915283203125,-0.01811504364013672,0.04252594709396362,-0.008906987495720387
1700856626822906600,11.71890673828125,-0.01810932159423828,0.018473565578460693,-0.004191143438220024
1700856626839901000,11.73590087890625,-0.01751422882080078,-0.029307186603546143,0.010125172324478626
1700856626856892700,11.752892578125,-0.022309303283691406,-0.053038835525512695,0.019658803939819336
1700856626873887200,11.76988720703125,-0.022315025329589844,-0.05290982127189636,0.0004887767136096954
1700856626890878500,11.78687841796875,-0.022319793701171875,-0.0049536824226379395,0.029136648401618004
1700856626907872800,11.803872802734375,-0.0175323486328125,0.0428617000579834,0.02899189293384552
1700856626924854500,11.8208544921875,-0.022907257080078125,0.04744315147399902,0.01935768872499466
1700856626941859300,11.837859375,-0.008547782897949219,0.013888150453567505,-0.004610041156411171
1700856626958850600,11.8548505859375,-0.008549690246582031,-0.024355322122573853,-0.004587876610457897
1700856626975844900,11.871844970703124,-0.012743949890136719,-0.052914053201675415,0.00018022675067186356
1700856626992834300,11.888834228515625,-0.013350486755371094,-0.03359296917915344,0.004919989500194788
1700856627009833700,11.905833740234375,-0.022317886352539062,0.009363234043121338,0.019130507484078407
1700856627026822400,11.922822509765625,-0.022315025329589844,0.03321617841720581,0.023807594552636147
1700856627043816700,11.939816650390625,-0.018125534057617188,0.018802940845489502,0.009404356591403484
1700856627060806100,11.95680615234375,-0.018125534057617188,-0.005112200975418091,0.009375687688589096
1700856627077808400,11.973808349609374,-0.013341903686523438,-0.024213552474975586,-0.00019580405205488205
1700856627094794200,11.990794189453124,-0.017530441284179688,-0.024197906255722046,0.004593750927597284
1700856627111778300,12.0077783203125,-0.018128395080566406,-0.005040884017944336,0.009270875714719296
1700856627128780800,12.02478076171875,-0.013339042663574219,0.01877307891845703,0.014085464179515839
1700856627145777200,12.041777099609375,-0.008548736572265625,0.033047378063201904,0.009276778437197208
1700856627162766300,12.058766357421876,-0.01811981201171875,0.004330337047576904,0.004544342402368784
1700856627179760600,12.0757607421875,0.005803108215332031,-0.02428111433982849,0.004442764911800623
1700856627196750800,12.092750732421875,-0.022317886352539062,-0.028941601514816284,0.013974897563457489
1700856627213748200,12.109748291015626,-0.02232074737548828,-0.014526575803756714,0.014039563946425915
1700856627230738200,12.12673828125,0.0010099411010742188,0.014158844947814941,0.013991580344736576
1700856627247732500,12.143732421875,-0.027701377868652344,0.023680508136749268,0.013959347270429134
1700856627264723500,12.160723388671874,-0.0037689208984375,0.01879832148551941,0.0042718625627458096
1700856627281719600,12.177719482421875,-0.013339042663574219,-0.00037413835525512695,-0.010155240073800087
1700856627298710300,12.194710205078126,-0.027696609497070312,-0.0290718674659729,-0.0053225066512823105
1700856627315704300,12.211704345703126,-0.008559226989746094,-0.02893650531768799,-0.0053396644070744514
1700856627332696600,12.228696533203125,-0.017534255981445312,-0.009761661291122437,0.013786470517516136
1700856627349690400,12.2456904296875,-0.007964134216308594,0.023759037256240845,0.023397138342261314
1700856627366682000,12.26268212890625,-0.02231311798095703,0.023599833250045776,0.032862357795238495
1700856627383676400,12.279676513671875,-0.017523765563964844,-0.0004247128963470459,0.01838630437850952
1700856627400668200,12.296668212890625,-0.0037708282470703125,-0.029019176959991455,-0.0007764697074890137
1700856627417662500,12.313662353515625,-0.00377655029296875,-0.043255507946014404,-0.015092511661350727
1700856627434654000,12.330654052734374,0.010569572448730469,-0.014285743236541748,-0.014919324778020382
1700856627451648500,12.3476484375,0.005791664123535156,0.033405154943466187,-0.010093643330037594
1700856627468640000,12.364639892578126,0.039302825927734375,0.04749941825866699,0.013761747628450394
1700856627485634300,12.38163427734375,-0.05102062225341797,0.01805970072746277,0.02853798307478428
1700856627502622000,12.3986220703125,0.020757675170898438,-0.03863844275474548,0.027206391096115112
1700856627519626800,12.415626708984375,-0.0223236083984375,-0.05754292011260986,0.022783547639846802
1700856627536612000,12.432612060546875,0.03450298309326172,-0.009636759757995605,0.007701630238443613
1700856627553603800,12.449603759765624,0.02972412109375,0.04764968156814575,-0.0011277403682470322
1700856627570600200,12.46660009765625,-0.12340736389160156,0.022915303707122803,0.0000035474076867103577
1700856627587581400,12.48358154296875,0.02913665771484375,-0.029166072607040405,-0.03527113050222397
1700856627604584200,12.500584228515624,-0.03726387023925781,-0.0339428186416626,-0.020210441201925278
1700856627621578500,12.51757861328125,-0.13238143920898438,-0.02012750506401062,-0.005254862830042839
1700856627638569500,12.534569580078125,0.006400108337402344,-0.00513806939125061,0.022886421531438828
1700856627655563800,12.551563720703125,-0.12699413299560547,0.018037408590316772,0.06677941977977753
1700856627672556000,12.56855615234375,0.015982627868652344,0.028122305870056152,0.05588516220450401
1700856627689552000,12.5855517578125,-0.022301673889160156,0.004175454378128052,0.022396806627511978
1700856627706540000,12.6025400390625,-0.037262916564941406,-0.03877541422843933,-0.006434774957597256
1700856627723536000,12.619535888671875,0.06263160705566406,-0.04282641410827637,-0.04511047527194023
1700856627740527600,12.636527587890624,-0.046843528747558594,-0.0002855360507965088,-0.030111826956272125
1700856627757522000,12.65352197265625,0.03391838073730469,0.03315162658691406,-0.015705611556768417
1700856627774511000,12.670510986328125,-0.007954597473144531,0.0283108651638031,0.02749239280819893
1700856627791510500,12.687510498046874,-0.0456390380859375,-0.0010561048984527588,0.05118963494896889
1700856627808499700,12.704499755859375,0.03990364074707031,-0.029170870780944824,0.0504751056432724
1700856627825494000,12.721493896484375,-0.051026344299316406,-0.024911314249038696,0.03182188421487808
1700856627842485500,12.738485595703125,-0.0037717819213867188,-0.019434869289398193,-0.0017162086442112923
1700856627859479600,12.7554794921875,-0.008558273315429688,0.004511415958404541,-0.020670654252171516
1700856627876471600,12.772471435546874,-0.028291702270507812,0.03305792808532715,-0.029610391706228256
1700856627893466000,12.789466064453125,0.010001182556152344,0.03288885951042175,-0.015705281868577003
1700856627910457300,12.806457275390626,-0.0037584304809570312,-0.0006083548069000244,-0.006118969991803169
1700856627927451600,12.82345166015625,-0.03187370300292969,-0.03410744667053223,0.02251022681593895
1700856627944443600,12.840443603515626,0.00640869140625,-0.019683152437210083,0.03203621879220009
1700856627961437700,12.857437744140626,-0.036663055419921875,0.008443564176559448,0.036708392202854156
1700856627978429400,12.874429443359375,-0.04144573211669922,0.0035850107669830322,0.031796298921108246
1700856627995423500,12.891423583984375,-0.04622840881347656,-0.005435198545455933,0.007909132167696953
1700856628012415500,12.90841552734375,-0.11861419677734375,-0.015551596879959106,-0.010590402409434319
1700856628029409800,12.925409912109375,-0.018118858337402344,-0.005288511514663696,-0.011093280278146267
1700856628046401000,12.942401123046874,-0.032470703125,0.013726979494094849,-0.001367294229567051
1700856628063395600,12.9593955078125,-0.051011085510253906,0.013039737939834595,0.02308972179889679
1700856628080387600,12.9763876953125,0.010610580444335938,0.013506561517715454,0.017810005694627762
1700856628097381600,12.993381591796876,-0.036647796630859375,-0.0008563399314880371,0.02252562902867794
1700856628114372900,13.010372802734375,0.011201858520507812,-0.03902098536491394,0.01716100238263607
1700856628131367200,13.0273671875,-0.007948875427246094,-0.05317482352256775,0.0033581978641450405
1700856628148359400,13.044359375,-0.022907257080078125,-0.019599318504333496,-0.015719881281256676
1700856628165353500,13.061353515625,0.02016448974609375,0.02344164252281189,-0.010811754502356052
1700856628182345000,13.078344970703125,-0.03247261047363281,0.03291797637939453,-0.010744365863502026
1700856628199339300,13.09533935546875,-0.02289867401123047,0.008908301591873169,0.003580849152058363
1700856628216331300,13.112331298828124,-0.007946014404296875,-0.019732773303985596,0.01794407144188881
1700856628233325300,13.1293251953125,-0.01752185821533203,-0.02440863847732544,0.032177265733480453
1700856628250317000,13.146317138671876,0.025547027587890625,-0.005218923091888428,0.0274193212389946
1700856628267311400,13.163311279296876,-0.08930397033691406,0.008430182933807373,0.018356919288635254
1700856628284303000,13.18030322265625,-0.013324737548828125,0.008867651224136353,-0.006231127306818962
1700856628301297400,13.19729736328125,-0.0420379638671875,-0.015078097581863403,-0.030156008899211884
1700856628318291000,13.214291015625,-0.0037508010864257812,-0.02470618486404419,-0.030056972056627274
1700856628335281200,13.23128125,0.02017498016357422,-0.015065610408782959,-0.01078271958976984
1700856628352275000,13.24827490234375,-0.04144001007080078,0.013045817613601685,0.036819834262132645
1700856628369254100,13.265254150390625,-0.0025548934936523438,0.008199840784072876,0.06991572678089142
1700856628386260700,13.2822607421875,-0.050406455993652344,0.00808146595954895,0.07970632612705231
1700856628403253500,13.29925341796875,-0.0934762954711914,0.008061438798904419,0.046014584600925446
1700856628420238600,13.316238525390625,-0.009124755859375,-0.015355050563812256,-0.031069235876202583
1700856628437241300,13.333241455078126,-0.05219841003417969,-0.024867117404937744,-0.06913983821868896
1700856628454232800,13.35023291015625,0.014201164245605469,-0.015259027481079102,-0.07361917942762375
1700856628471224600,13.367224609375,-0.027673721313476562,0.008671998977661133,-0.020815134048461914
1700856628488221400,13.384221435546875,-0.012712478637695312,0.018104493618011475,0.0412253737449646
1700856628505202400,13.401202392578124,0.011814117431640625,0.018100112676620483,0.07922375202178955
1700856628522204700,13.41820458984375,-0.03604316711425781,-0.0064108967781066895,0.07890398800373077
1700856628539198700,13.43519873046875,0.015995025634765625,-0.03440457582473755,0.0351286381483078
1700856628556191000,13.45219091796875,-0.018105506896972656,-0.024767249822616577,-0.016933269798755646
1700856628573185000,13.46918505859375,-0.013919830322265625,0.003987431526184082,-0.05506141856312752
1700856628590176800,13.4861767578125,-0.004944801330566406,0.01830342411994934,-0.06912964582443237
1700856628607171000,13.503171142578125,-0.03305339813232422,0.027739375829696655,-0.03065296821296215
1700856628624162800,13.520162841796875,-0.0037355422973632812,0.013243049383163452,0.007671552710235119
1700856628641156900,13.537156982421875,-0.03125286102294922,-0.02084788680076599,0.06019740179181099
1700856628658139100,13.55413916015625,-0.021091461181640625,-0.03984197974205017,0.08375712484121323
1700856628675142700,13.571142578125,-0.012124061584472656,-0.024759232997894287,0.050043985247612
1700856628692135000,13.588135009765624,-0.03246021270751953,0.01346924901008606,0.007517769932746887
1700856628709129000,13.60512890625,-0.009125709533691406,0.03252112865447998,-0.04546964168548584
1700856628726120400,13.622120361328125,-0.014499664306640625,0.017936527729034424,-0.06903810054063797
1700856628743114800,13.63911474609375,-0.009110450744628906,-0.0060863494873046875,-0.049614544957876205
1700856628760106800,13.656106689453125,-0.007914543151855469,-0.0443689227104187,0.0030901036225259304
1700856628777101000,13.67310107421875,-0.016892433166503906,-0.035290688276290894,0.0603763647377491
1700856628794092300,13.69009228515625,-0.016298294067382812,-0.0017228126525878906,0.09352631121873856
1700856628811086600,13.707086669921875,-0.0073223114013671875,0.02213647961616516,0.07884532958269119
1700856628828078600,13.72407861328125,-0.027051925659179688,0.02251717448234558,0.016645239666104317
1700856628845073000,13.741072998046874,-0.004317283630371094,0.008081912994384766,-0.040519051253795624
1700856628862063900,13.75806396484375,-0.0192718505859375,-0.01584729552268982,-0.07851822674274445
1700856628879049700,13.7750498046875,-0.004317283630371094,-0.02060571312904358,-0.06383906304836273
1700856628896050400,13.792050537109375,-0.013288497924804688,-0.01584431529045105,-0.0015196138992905617
1700856628913045000,13.809044921875,-0.017475128173828125,0.003263622522354126,0.046229854226112366
1700856628930036000,13.826035888671875,-0.012086868286132812,0.007340669631958008,0.07466572523117065
1700856628947030300,13.8430302734375,-0.02643871307373047,0.0024443864822387695,0.0600493960082531
1700856628964011800,13.86001171875,-0.017462730407714844,-0.01137310266494751,0.012081440538167953
1700856628981016600,13.8770166015625,-0.009090423583984375,-0.011312872171401978,-0.030876442790031433
1700856628998008300,13.89400830078125,-0.018657684326171875,-0.0018506944179534912,-0.05465532839298248
1700856629015002400,13.91100244140625,-0.013871192932128906,0.0029145777225494385,-0.03528667986392975
1700856629031994000,13.927994140625,-0.027627944946289062,0.007657289505004883,0.0030509638600051403
1700856629048985900,13.94498583984375,-0.012671470642089844,-0.0019379854202270508,0.03646470606327057
1700856629065980000,13.96197998046875,-0.016861915588378906,-0.012035638093948364,0.055382922291755676
1700856629082977300,13.978977294921876,-0.017462730407714844,-0.03051641583442688,0.0408729687333107
1700856629099966200,13.99596630859375,-0.013277053833007812,-0.020923376083374023,0.0025384551845490932
1700856629116960500,14.01296044921875,-0.013279914855957031,-0.006505012512207031,-0.026099365204572678
1700856629133952000,14.029951904296874,-0.01865863800048828,0.01731213927268982,-0.03558199852705002
1700856629150946600,14.046946533203124,-0.01805591583251953,0.00767284631729126,-0.02109898254275322
1700856629167938300,14.063938232421876,-0.013266563415527344,-0.00679132342338562,0.0028139683417975903
1700856629184930000,14.080929931640625,-0.022243499755859375,-0.016265869140625,0.03146693855524063
1700856629201926400,14.097926513671876,-0.017462730407714844,-0.016168683767318726,0.04096696525812149
1700856629218918100,14.114918212890625,-0.007893562316894531,-0.0017826855182647705,0.05032823234796524
1700856629235910400,14.131910400390625,-0.01746082305908203,0.0029355883598327637,0.016707219183444977
1700856629252906000,14.148906005859375,-0.013270378112792969,0.007637470960617065,-0.016737807542085648
1700856629269894400,14.165894287109374,-0.023436546325683594,0.0075533390045166016,-0.035854533314704895
1700856629286880000,14.1828798828125,-0.022840499877929688,-0.011527776718139648,-0.026215506717562675
1700856629303882200,14.19988232421875,-0.013272285461425781,-0.011448144912719727,-0.00228828564286232
1700856629320877800,14.2168779296875,-0.017461776733398438,-0.011411458253860474,0.026321634650230408
1700856629337867800,14.23386767578125,-0.012677192687988281,0.0029722750186920166,0.03574780374765396
1700856629354862000,14.250862060546876,-0.022246360778808594,0.01249241828918457,0.03553035855293274
1700856629371854000,14.26785400390625,-0.017459869384765625,-0.0018884241580963135,0.0258258618414402
1700856629388848400,14.284848388671875,-0.017464637756347656,-0.025710880756378174,0.001879418734461069
1700856629405840000,14.30183984375,-0.0324249267578125,-0.016035407781600952,-0.022086940705776215
1700856629422834000,14.318833984375,-0.01807403564453125,-0.011102825403213501,-0.02200371026992798
1700856629439826000,14.335825927734374,-0.013287544250488281,0.008013755083084106,-0.0075417617335915565
1700856629456811000,14.35281103515625,-0.013280868530273438,0.02222546935081482,0.011590822599828243
1700856629473811700,14.369811767578126,-0.012677192687988281,0.007749229669570923,0.030657701194286346
1700856629490806000,14.386805908203126,-0.017467498779296875,-0.04001742601394653,0.030540958046913147
1700856629507798000,14.403798095703126,-0.012692451477050781,-0.0350060760974884,0.016119830310344696
1700856629524792000,14.4207919921875,-0.013288497924804688,0.017600953578948975,-0.012521626427769661
1700856629541783800,14.43778369140625,-0.0186614990234375,0.05085060000419617,-0.040511760860681534
1700856629558777600,14.454777587890625,0.0100555419921875,0.012521475553512573,-0.03139328211545944
1700856629575769900,14.471769775390625,-0.04618263244628906,-0.044749945402145386,0.00682456512004137
1700856629592764200,14.48876416015625,0.0016641616821289062,-0.05413374304771423,0.03539220243692398
1700856629609740000,14.505739990234375,-0.021671295166015625,-0.021102845668792725,0.04972901940345764
1700856629626741200,14.5227412109375,-0.04619884490966797,0.012403339147567749,0.045341916382312775
1700856629643741700,14.53974169921875,-0.008508682250976562,0.0320817232131958,0.01117641944438219
1700856629660733400,14.5567333984375,-0.022859573364257812,0.036717623472213745,-0.01753935217857361
1700856629677729800,14.573729736328126,0.00047588348388671875,0.0174732506275177,-0.031766679137945175
1700856629694721500,14.590721435546875,-0.0084991455078125,-0.04470136761665344,-0.01735929399728775
1700856629711703000,14.607703125,-0.02227020263671875,-0.07312703132629395,0.011370017193257809
1700856629728707800,14.624707763671875,-0.012704849243164062,-0.029949098825454712,0.016111407428979874
1700856629745699300,14.64169921875,-0.02765369415283203,0.036910295486450195,0.011887568980455399
1700856629762693400,14.658693359375,0.00525665283203125,0.08458858728408813,-0.01750088855624199
1700856629779686000,14.675685791015624,-0.04198932647705078,0.04123741388320923,-0.016924481838941574
1700856629796677400,14.692677490234376,-0.008490562438964844,-0.025739312171936035,0.0016621402464807034
1700856629813673700,14.709673828125,-0.012094497680664062,-0.0828694999217987,0.04944683611392975
1700856629830665500,14.72666552734375,-0.036034584045410156,-0.06406021118164062,0.058828532695770264
1700856629847657700,14.74365771484375,0.011220932006835938,0.008369088172912598,0.02993098460137844
1700856629864651800,14.76065185546875,-0.02346515655517578,0.056030601263046265,-0.017384056001901627
1700856629881643300,14.777643310546875,-0.014479637145996094,0.046191900968551636,-0.07046016305685043
1700856629898637300,14.79463720703125,-0.004904747009277344,0.007819771766662598,-0.0749792829155922
1700856629915621600,14.81162158203125,-0.02764129638671875,-0.03992977738380432,-0.008010891266167164
1700856629932613400,14.82861328125,-0.0025262832641601562,-0.04989621043205261,0.06838898360729218
1700856629949615400,14.845615478515626,-0.010901451110839844,-0.030746906995773315,0.12062855064868927
1700856629966609700,14.862609619140626,-0.011501312255859375,0.0027733147144317627,0.09148005396127701
1700856629983601400,14.879601318359375,-0.018082618713378906,0.01775979995727539,0.0052459631115198135
1700856630000595700,14.896595703125,-0.014492034912109375,0.022500067949295044,-0.08063610643148422
1700856630017587000,14.9135869140625,-0.015082359313964844,-0.0015721321105957031,-0.12802754342556
1700856630034581200,14.930581298828125,-0.024053573608398438,-0.015953153371810913,-0.0750884935259819
1700856630051573500,14.947573486328125,-0.007904052734375,-0.01591634750366211,0.020510826259851456
1700856630068557800,14.964557861328124,-0.021068572998046875,-0.002095460891723633,0.1016354113817215
1700856630085559000,14.98155908203125,-0.010899543762207031,-0.0020927488803863525,0.13461168110370636
1700856630102554000,14.99855419921875,-0.011499404907226562,-0.0020562708377838135,0.09593478590250015
1700856630119545000,15.015545166015626,-0.013293266296386719,-0.011019527912139893,0.00012150825932621956
1700856630136539600,15.03253955078125,-0.014494895935058594,-0.01571834087371826,-0.08093398809432983
1700856630153531100,15.04953125,-0.014495849609375,-0.030038684606552124,-0.1092408075928688
1700856630170525200,15.066525146484375,-0.024068832397460938,0.01785898208618164,-0.08501045405864716
1700856630187517000,15.083516845703125,-0.018674850463867188,0.06550449132919312,-0.0267481729388237
1700856630204518000,15.100517822265624,-0.012681961059570312,0.03654709458351135,0.030046723783016205
1700856630221509400,15.11750927734375,-0.0067043304443359375,-0.04051300883293152,0.08249109238386154
1700856630238486500,15.134486572265626,-0.011508941650390625,-0.10234701633453369,0.09169992804527283
1700856630255489300,15.1514892578125,-0.01690387725830078,-0.044646769762039185,0.05318738520145416
1700856630272483600,15.168483642578124,-0.013311386108398438,0.03723689913749695,-0.008971041068434715
1700856630289474800,15.185474853515625,-0.013898849487304688,0.07049056887626648,-0.042261794209480286
1700856630306469400,15.202469482421876,-0.009706497192382812,0.04645386338233948,-0.05645512044429779
1700856630323462400,15.21946240234375,-0.004319190979003906,-0.0014539361000061035,-0.037235554307699203
1700856630340454100,15.2364541015625,-0.017485618591308594,-0.04440084099769592,0.010596979409456253
1700856630357446700,15.25344677734375,-0.016900062561035156,-0.0585055947303772,0.04392745718359947
1700856630374441000,15.27044091796875,-0.0073375701904296875,-0.025420725345611572,0.0581338107585907
1700856630391433200,15.28743310546875,-0.012719154357910156,0.03734457492828369,0.038721926510334015
1700856630408427500,15.304427490234374,-0.013312339782714844,0.051608890295028687,-0.0044060368090868
1700856630425416200,15.321416259765625,-0.01390838623046875,0.022830098867416382,-0.04253217577934265
1700856630442415600,15.33841552734375,-0.013906478881835938,-0.010711103677749634,-0.06150127202272415
1700856630459405000,15.355405029296875,-0.008527755737304688,-0.024938374757766724,-0.027901550754904747
1700856630476399000,15.372399169921875,-0.007930755615234375,-0.02012425661087036,0.015174738131463528
1700856630493390600,15.389390625,-0.00733184814453125,-0.005791425704956055,0.05321260169148445
1700856630510388200,15.40638818359375,-0.007327079772949219,0.013239562511444092,0.05302329733967781
1700856630527363600,15.423363525390625,-0.0127105712890625,0.01322069764137268,0.028815938159823418
1700856630544371200,15.44037109375,-0.008524894714355469,-0.005879908800125122,0.004867301322519779
1700856630561362700,15.45736279296875,-0.013913154602050781,-0.01057976484298706,-0.03350039944052696
1700856630578357000,15.47435693359375,-0.00434112548828125,-0.0009999275207519531,-0.04294038191437721
1700856630595348700,15.4913486328125,-0.018697738647460938,0.018122196197509766,-0.03331511467695236
1700856630612328700,15.50832861328125,-0.013306617736816406,0.017983078956604004,0.004997712559998035
1700856630629334500,15.52533447265625,-0.017498016357421875,-0.01544862985610962,0.03840162605047226
1700856630646328800,15.542328857421875,-0.021691322326660156,-0.030265092849731445,0.047869130969047546
1700856630663320800,15.55932080078125,-0.012723922729492188,-0.01519787311553955,0.009420848451554775
1700856630680315100,15.576315185546875,-0.013321876525878906,-0.005619555711746216,-0.004960097372531891
1700856630697306600,15.593306640625,-0.027680397033691406,0.008750289678573608,-0.028775764629244804
1700856630714300700,15.61030078125,-0.0037517547607421875,0.008756190538406372,-0.019052740186452866
1700856630731292700,15.627292724609376,-0.02289295196533203,0.008718043565750122,0.009629739448428154
1700856630748286700,15.64428662109375,-0.012721061706542969,0.008682012557983398,0.028527196496725082
1700856630765278500,15.661278564453125,-0.0031518936157226562,-0.0008561909198760986,0.04761110246181488
1700856630782272800,15.678272705078125,-0.04144001007080078,-0.0061914920806884766,0.02835015207529068
1700856630799264500,15.695264404296875,-0.008535385131835938,0.003917098045349121,-0.00997608620673418
1700856630816257500,15.712257568359375,-0.009130477905273438,0.013433903455734253,-0.05284101888537407
1700856630833251600,15.72925146484375,-0.0145111083984375,0.013372570276260376,-0.07654231041669846
1700856630850244900,15.746244873046875,-0.009135246276855469,-0.034313201904296875,-0.06191902235150337
1700856630867236400,15.763236328125,-0.017520904541015625,-0.04844510555267334,0.014588736928999424
1700856630884234000,15.78023388671875,-0.016332626342773438,-0.0249423086643219,0.08126754313707352
1700856630901222100,15.79722216796875,-0.01154327392578125,0.01803228259086609,0.11433785408735275
1700856630918216700,15.814216796875,-0.021109580993652344,0.017943471670150757,0.09954890608787537
1700856630935208000,15.8312080078125,-0.01273345947265625,0.023279041051864624,0.022761208936572075
1700856630952203300,15.848203369140625,-0.014521598815917969,0.03748428821563721,-0.08712922781705856
1700856630969204000,15.865203857421875,-0.015116691589355469,0.02309545874595642,-0.12495644390583038
1700856630986188500,15.8821884765625,-0.009737014770507812,-0.01989951729774475,-0.09583157300949097
1700856631003180500,15.8991806640625,-0.012737274169921875,-0.06752243638038635,-0.009537508711218834
1700856631020174600,15.916174560546875,-0.006763458251953125,-0.06317397952079773,0.07640813291072845
1700856631037166300,15.933166259765626,-0.02649688720703125,0.04194509983062744,0.06710376590490341
1700856631054160400,15.950160400390626,-0.022294998168945312,0.07093188166618347,0.028662849217653275
1700856631071152400,15.96715234375,-0.008530616760253906,0.008601546287536621,0.004184309393167496
1700856631088146700,15.984146728515626,-0.027083396911621094,-0.07257109880447388,-0.0005661058239638805
1700856631105138200,16.00113818359375,0.0016222000122070312,-0.053251445293426514,-0.000511671882122755
1700856631122132200,16.01813232421875,-0.01751995086669922,0.013744175434112549,0.013822459615767002
1700856631139124200,16.035124267578126,-0.017511367797851562,0.05662921071052551,0.028657257556915283
1700856631156118500,16.052118408203125,-0.008524894714355469,0.07067057490348816,0.004136435687541962
1700856631173107000,16.06910693359375,-0.033043861389160156,0.041794389486312866,-0.03821982443332672
1700856631190107600,16.086107666015625,-0.009116172790527344,-0.01559951901435852,-0.07204952836036682
1700856631207093500,16.103093505859373,-0.01390838623046875,-0.06809946894645691,-0.05743376165628433
1700856631224093400,16.120093505859376,-0.01751232147216797,-0.07734784483909607,0.00003129662945866585
1700856631241081900,16.137081787109373,-0.002567291259765625,-0.029292672872543335,0.05723227933049202
1700856631258076400,16.154076416015624,-0.025893211364746094,0.013110548257827759,0.10958214849233627
1700856631275069700,16.171069580078125,-0.021101951599121094,0.012988626956939697,0.1043422594666481
1700856631292062500,16.1880625,-0.0031499862670898438,0.003870636224746704,0.0370514877140522
1700856631309054000,16.205053955078125,-0.018703460693359375,0.013446986675262451,-0.04898696392774582
1700856631326048500,16.222048583984375,-0.0055408477783203125,0.02775728702545166,-0.10606153309345245
1700856631343040300,16.239040283203124,-0.004942893981933594,0.022976964712142944,-0.0962131917476654
1700856631360039400,16.256039306640623,-0.013911247253417969,-0.010623812675476074,-0.038667209446430206
1700856631377011000,16.273010986328124,-0.022289276123046875,-0.03446546196937561,0.0330326110124588
1700856631394020000,16.29002001953125,-0.02588176727294922,-0.030215203762054443,0.07581625133752823
1700856631411012400,16.307012451171875,-0.01631450653076172,-0.025357872247695923,0.08026780188083649
1700856631428006100,16.324006103515625,-0.012127876281738281,-0.015187084674835205,0.04653870686888695
1700856631444998000,16.340997802734375,-0.022893905639648438,0.008729815483093262,-0.0013529038988053799
1700856631461992000,16.357991943359377,-0.009128570556640625,0.0420871376991272,-0.05386526882648468
1700856631478984200,16.374984130859374,-0.02407550811767578,0.03713268041610718,-0.0673566684126854
1700856631495975000,16.391974853515624,-0.013907432556152344,-0.005913913249969482,-0.03431986644864082
1700856631512972300,16.40897216796875,-0.012719154357910156,-0.039239734411239624,0.018377888947725296
1700856631529964000,16.425964111328124,-0.007346153259277344,-0.034220755100250244,0.05173268914222717
1700856631546956000,16.4429560546875,-0.012137413024902344,-0.015555262565612793,0.05631892383098602
1700856631563950300,16.459950439453124,-0.01273345947265625,-0.00542023777961731,0.04180283471941948
1700856631580940800,16.47694091796875,-0.008545875549316406,0.01849544048309326,-0.006121993996202946
1700856631597937000,16.49393701171875,-0.013927459716796875,0.03756296634674072,-0.049034234136343
1700856631614928000,16.510927978515625,-0.013921737670898438,0.0230904221534729,-0.06319145113229752
1700856631631922200,16.527922119140626,-0.013922691345214844,-0.024732351303100586,-0.03917843848466873
1700856631648913700,16.54491357421875,-0.01273345947265625,-0.05805763602256775,0.0038845667149871588
1700856631665897500,16.5618974609375,-0.007953643798828125,-0.029214024543762207,0.03733213618397713
1700856631682900000,16.57889990234375,-0.012143135070800781,-0.0010822415351867676,0.056299611926078796
1700856631699895800,16.595895751953126,-0.012735366821289062,0.023321092128753662,0.04646581783890724
1700856631716888300,16.612888427734376,-0.018114089965820312,0.02322179079055786,0.003459766274318099
1700856631733880000,16.629880126953125,-0.013919830322265625,0.03260892629623413,-0.029903143644332886
1700856631750872000,16.6468720703125,-0.01869964599609375,0.0037900209426879883,-0.048867788165807724
1700856631767866400,16.663866455078125,-0.00913238525390625,-0.02482086420059204,-0.03917655721306801
1700856631784857600,16.680857666015626,-0.013325691223144531,-0.03904762864112854,-0.005612372886389494
1700856631801852000,16.697851806640625,-0.017515182495117188,-0.005506455898284912,0.032604996114969254
1700856631818844000,16.714843994140626,-0.007940292358398438,0.02312701940536499,0.03736085817217827
1700856631835838200,16.731838134765624,-0.017510414123535156,0.01830291748046875,0.03727852180600166
1700856631852829700,16.74882958984375,-0.012726783752441406,0.013563781976699829,0.013433199375867844
1700856631869823700,16.76582373046875,-0.01332855224609375,0.004075050354003906,-0.010452451184391975
1700856631886816000,16.78281591796875,-0.018713951110839844,-0.0006707310676574707,-0.03907545655965805
1700856631903810000,16.79981005859375,-0.027692794799804688,-0.0244901180267334,-0.029519110918045044
1700856631920801300,16.81680126953125,-0.008553504943847656,-0.024403393268585205,-0.005625711753964424
1700856631937795800,16.8337958984375,-0.022312164306640625,-0.00046139955520629883,0.008716478012502193
1700856631954778600,16.850778564453126,-0.0031671524047851562,0.02339419722557068,0.032570645213127136
1700856631971782000,16.867781982421874,-0.007951736450195312,0.009024888277053833,0.03246166557073593
1700856631988763100,16.88476318359375,-0.022905349731445312,0.013754516839981079,0.008435793220996857
1700856632005768000,16.901767822265626,-0.018115997314453125,0.023267894983291626,-0.024993810802698135
1700856632022759700,16.918759765625,-0.009139060974121094,0.018383115530014038,-0.048733413219451904
1700856632039754000,16.93575390625,-0.018711090087890625,-0.019886553287506104,-0.05330006033182144
1700856632056734700,16.952734619140625,-0.018110275268554688,-0.043846070766448975,-0.01972997561097145
1700856632073739500,16.969739501953125,-0.01751232147216797,-0.039065420627593994,0.023365043103694916
1700856632090731500,16.9867314453125,-0.021697044372558594,-0.01100832223892212,0.05202588811516762
1700856632107726000,17.00372607421875,-0.016904830932617188,0.012766033411026001,0.06154455244541168
1700856632124717300,17.02071728515625,-0.012109756469726562,0.017321139574050903,0.05680979788303375
1700856632141711000,17.037711181640624,-0.012697219848632812,0.012919992208480835,0.018527284264564514
1700856632158704000,17.0547041015625,-0.003726959228515625,-0.010945737361907959,-0.005379927810281515
1700856632175698000,17.071697998046876,-0.02287578582763672,-0.03951278328895569,-0.014930004253983498
1700856632192679200,17.08867919921875,-0.008525848388671875,-0.04414832592010498,-0.010196306742727757
1700856632209683700,17.10568359375,-0.013310432434082031,0.003683149814605713,-0.0005665444768965244
1700856632226675700,17.12267578125,-0.018091201782226562,0.04664537310600281,0.004222316667437553
1700856632243669800,17.139669677734375,-0.027655601501464844,0.03212884068489075,0.004272053949534893
1700856632260661200,17.1566611328125,-0.01807880401611328,-0.011051833629608154,-0.010088608600199223
1700856632277655800,17.17365576171875,-0.01868724822998047,-0.020408660173416138,-0.03871811553835869
1700856632294647600,17.1906474609375,-0.022882461547851562,-0.02022889256477356,-0.033936306834220886
1700856632311641900,17.207641845703126,-0.013317108154296875,-0.010522246360778809,-0.005153457634150982
1700856632328633000,17.224633056640624,-0.027078628540039062,0.013469934463500977,0.01875300519168377
1700856632345627600,17.241627685546874,-0.007933616638183594,0.03733360767364502,0.01861662045121193
1700856632362619400,17.258619384765623,-0.02826690673828125,0.03721579909324646,-0.03342738002538681
1700856632379614200,17.2756142578125,-0.012719154357910156,-0.024870634078979492,-0.0004982785321772099
1700856632396604700,17.292604736328126,-0.02647876739501953,-0.03980562090873718,0.047345586121082306
1700856632413599700,17.309599853515625,-0.01690673828125,0.0032244622707366943,0.061655011028051376
1700856632430591200,17.32659130859375,0.0016374588012695312,0.0038291215896606445,0.04240018129348755
1700856632447583200,17.343583251953124,-0.01750469207763672,-0.024883925914764404,0.004033013246953487
1700856632464579600,17.36057958984375,-0.027677536010742188,-0.024807512760162354,-0.029284071177244186
1700856632481571300,17.3775712890625,-0.00913238525390625,0.02783048152923584,-0.052960410714149475
1700856632498563300,17.394563232421874,-0.01869487762451172,0.027613520622253418,-0.0432368740439415
1700856632515557600,17.4115576171875,-0.007921218872070312,-0.0060048699378967285,0.009466949850320816
1700856632532549000,17.428549072265625,-0.022279739379882812,-0.02031084895133972,0.03327103331685066
1700856632549543400,17.44554345703125,-0.0127105712890625,-0.005927443504333496,0.03793114423751831
1700856632566535200,17.46253515625,-0.017498016357421875,-0.0011089146137237549,0.028281010687351227
1700856632583529700,17.47952978515625,-0.018098831176757812,-0.005827128887176514,-0.0003836182877421379
1700856632600521200,17.496521240234376,-0.013312339782714844,-0.0010514557361602783,-0.02422347664833069
1700856632617515300,17.513515380859374,-0.013913154602050781,0.018130213022232056,-0.03847458213567734
1700856632634507300,17.53050732421875,-0.02289104461669922,0.003871619701385498,-0.009727725759148598
1700856632651501800,17.547501708984374,-0.017508506774902344,-0.024781912565231323,0.023703377693891525
1700856632668492800,17.564492919921875,-0.022296905517578125,-0.015747934579849243,0.03790172562003136
1700856632685487400,17.5814873046875,-0.017508506774902344,0.008698880672454834,0.028174351900815964
1700856632702479400,17.598479248046875,-0.01809978485107422,0.018137961626052856,0.004134754650294781
1700856632719473700,17.6154736328125,-0.022887229919433594,-0.000991225242614746,-0.019657615572214127
1700856632736465000,17.63246484375,-0.008531570434570312,-0.000949561595916748,-0.029162010177969933
1700856632753459500,17.64945947265625,-0.037245750427246094,0.013402312994003296,-0.004463962744921446
1700856632770454800,17.666454833984375,0.02556324005126953,-0.0008756518363952637,0.018811294808983803
1700856632787442000,17.68344189453125,-0.0031576156616210938,-0.029461950063705444,0.03308165445923805
1700856632804436700,17.700436767578125,-0.046230316162109375,-0.030015766620635986,0.01844525896012783
1700856632821413000,17.7174130859375,0.01059722900390625,-0.010231852531433105,-0.005574146751314402
1700856632838423300,17.73442333984375,-0.032470703125,0.018423080444335938,-0.0287941861897707
1700856632855417600,17.75141748046875,-0.02349376678466797,0.03270697593688965,-0.024481942877173424
1700856632872408600,17.76840869140625,0.00103759765625,0.027804523706436157,-0.010047860443592072
1700856632889403100,17.785403076171875,-0.027077674865722656,0.0038810670375823975,0.008952285163104534
1700856632906395100,17.80239501953125,-0.0031566619873046875,-0.039051204919815063,0.023211389780044556
1700856632923389400,17.819389404296874,-0.012732505798339844,-0.0341624915599823,0.018321644514799118
1700856632940380700,17.836380615234376,-0.01752185821533203,-0.0005789399147033691,0.0038608124013990164
1700856632957375000,17.853375,-0.008545875549316406,0.018490463495254517,-0.0056241401471197605
1700856632974366700,17.87036669921875,-0.027688026428222656,0.00891295075416565,-0.005630754865705967
1700856632991358700,17.887358642578125,-0.008546829223632812,-0.0006177425384521484,-0.005575681570917368
1700856633008363300,17.90436328125,-0.008548736572265625,-0.019710421562194824,-0.005549240857362747
1700856633025346000,17.921345947265625,-0.017526626586914062,-0.014823675155639648,0.008807329460978508
1700856633042339800,17.93833984375,-0.013341903686523438,-0.009973406791687012,0.004001401364803314
1700856633059333400,17.95533349609375,-0.022312164306640625,0.01868298649787903,0.013499620370566845
1700856633076322300,17.972322265625,-0.013334274291992188,0.03291332721710205,-0.0008354252204298973
1700856633093321500,17.989321533203125,-0.0037603378295898438,0.004136234521865845,-0.010413512587547302
1700856633110311000,18.006310791015625,-0.013335227966308594,-0.0244767963886261,-0.01512870006263256
1700856633127305200,18.02330517578125,-0.013342857360839844,-0.038653552532196045,-0.005562177859246731
1700856633144296700,18.040296630859373,-0.007964134216308594,-0.005072295665740967,0.008789824321866035
1700856633161291300,18.057291259765623,-0.01813220977783203,0.009278863668441772,0.008794081397354603
1700856633178282800,18.07428271484375,-0.013346672058105469,0.009272217750549316,0.008741109631955624
1700856633195277000,18.091277099609375,-0.01753711700439453,-0.009814739227294922,0.00396416150033474
1700856633212259600,18.108259521484374,-0.012754440307617188,-0.009750127792358398,0.013473527505993843
1700856633229262800,18.125262939453126,-0.018138885498046875,-0.004928022623062134,-0.0008434285409748554
1700856633246254800,18.1422548828125,-0.01813983917236328,0.009440362453460693,-0.0008082538843154907
1700856633263249400,18.15924951171875,-0.01813793182373047,0.018979042768478394,-0.0006851884536445141
1700856633280240600,18.17624072265625,-0.012754440307617188,0.009392887353897095,0.018377266824245453
1700856633297234700,18.193234619140625,-0.007973670959472656,-0.0287838876247406,0.013562660664319992
1700856633314227000,18.21022705078125,-0.012767791748046875,-0.04295423626899719,0.0039957184344530106
1700856633331221200,18.22722119140625,-0.013368606567382812,-0.009389042854309082,-0.005489781964570284
1700856633348212500,18.24421240234375,-0.018151283264160156,0.024042993783950806,-0.014989115297794342
1700856633365207000,18.26120703125,-0.018744468688964844,0.04784059524536133,-0.019652079790830612
1700856633382198800,18.27819873046875,-0.022933006286621094,0.014374196529388428,-0.0004732632078230381
1700856633399193000,18.295193115234376,-0.017545700073242188,-0.004833310842514038,0.01869438774883747
1700856633416182000,18.31218212890625,-0.012760162353515625,-0.019192516803741455,0.018538596108555794
1700856633433180200,18.32918017578125,-0.008578300476074219,-0.019066601991653442,-0.005381736438721418
1700856633450172000,18.346171875,-0.0037946701049804688,-0.014222919940948486,-0.0053474754095077515
1700856633467154400,18.363154541015625,-0.013370513916015625,0.005007117986679077,-0.014893531799316406
1700856633484156700,18.38015673828125,-0.018154144287109375,0.019338637590408325,-0.005268190987408161
1700856633501138000,18.397137939453124,-0.017556190490722656,0.00020554661750793457,0.009116044268012047
1700856633518145300,18.414145263671877,-0.007991790771484375,-0.014028459787368774,0.009092873893678188
1700856633535137300,18.43113720703125,-0.01756572723388672,-0.009171754121780396,0.02813042514026165
1700856633552128300,18.448128173828124,-0.017566680908203125,0.009997129440307617,0.013737237080931664
1700856633569123000,18.465123046875,-0.018163681030273438,0.005187541246414185,-0.005417002830654383
1700856633586104000,18.48210400390625,-0.013380050659179688,0.00044652819633483887,-0.010251891799271107
1700856633603106800,18.49910693359375,-0.018164634704589844,-0.004358798265457153,-0.0007149907760322094
1700856633620102700,18.5161025390625,-0.007991790771484375,0.0003483593463897705,0.008802596479654312
1700856633637095000,18.533094970703125,-0.0175628662109375,-0.004456162452697754,0.008740086108446121
1700856633654087000,18.5500869140625,-0.008593559265136719,0.005198091268539429,0.0038876000326126814
1700856633671081000,18.5670810546875,-0.02294635772705078,0.009886622428894043,-0.005650745239108801
1700856633688072400,18.584072509765626,-0.0038042068481445312,0.0003400444984436035,-0.010335288010537624
1700856633705066800,18.601066650390624,-0.013376235961914062,-0.013992935419082642,0.003914844244718552
1700856633722058500,18.61805859375,-0.02235126495361328,-0.01874402165412903,0.0038108916487544775
1700856633739052800,18.635052734375,-0.008593559265136719,-0.009155601263046265,0.003806433407589793
1700856633756044500,18.65204443359375,-0.017564773559570312,-0.00440552830696106,0.008539234288036823
1700856633773038600,18.66903857421875,-0.018161773681640625,0.000360637903213501,-0.001016378402709961
1700856633790030600,18.686030517578125,-0.008591651916503906,0.009946435689926147,-0.0010053780861198902
1700856633807020300,18.703020263671874,-0.022942543029785156,0.024153918027877808,0.008548096753656864
1700856633824021000,18.72002099609375,-0.013368606567382812,0.0049658119678497314,0.0037096801679581404
1700856633841010700,18.7370107421875,-0.01815509796142578,-0.018936902284622192,-0.00583456689491868
1700856633858002400,18.75400244140625,-0.013375282287597656,-0.009229183197021484,0.0036399338860064745
1700856633874996700,18.770996826171874,-0.013376235961914062,-0.004427164793014526,0.0035810593981295824
1700856633891988500,18.787988525390624,-0.007992744445800781,-0.004436403512954712,0.008299370296299458
1700856633908982800,18.804982666015626,-0.01756572723388672,-0.004396229982376099,0.00821887981146574
1700856633925974500,18.821974609375,-0.013380050659179688,0.00043907761573791504,-0.0062358868308365345
1700856633942968800,18.83896875,-0.013380050659179688,0.014792174100875854,-0.015756983309984207
1700856633959960300,18.855960205078127,-0.013378143310546875,0.009961307048797607,-0.0014226320199668407
1700856633976954400,18.872954345703125,-0.01756763458251953,0.0004216432571411133,0.008095156401395798
1700856633993946600,18.889946533203126,-0.022348403930664062,-0.009235531091690063,0.0033068798948079348
1700856634010941000,18.90694091796875,-0.013376235961914062,0.00034371018409729004,0.0032954595517367125
1700856634027932200,18.92393212890625,-0.018157958984375,0.00982770323753357,-0.0015324861742556095
1700856634044926700,18.9409267578125,-0.018158912658691406,0.009841740131378174,-0.001554541289806366
1700856634061916200,18.957916259765625,-0.018156051635742188,0.014573901891708374,-0.0016429438255727291
1700856634078915600,18.97491552734375,-0.0037975311279296875,0.009744644165039062,0.007917492650449276
1700856634095901700,18.991901611328124,-0.027726173400878906,0.0049721598625183105,-0.001699863001704216
1700856634112901000,19.008901123046876,-0.007986068725585938,-0.014161914587020874,0.012688428163528442
1700856634129890600,19.025890625,-0.01756000518798828,-0.0045404136180877686,0.012640115804970264
1700856634146884600,19.042884521484375,-0.0038003921508789062,0.005013614892959595,0.0030514115933328867
1700856634163876400,19.05987646484375,-0.037293434143066406,0.009659141302108765,-0.006499687675386667
1700856634180870700,19.07687060546875,-0.018148422241210938,-0.009525418281555176,-0.02549855411052704
1700856634197852200,19.09385205078125,-0.00379180908203125,0.00004628300666809082,-0.0063671753741800785
1700856634214857000,19.11085693359375,-0.01815032958984375,-0.004688143730163574,-0.0015638787299394608
1700856634231848200,19.12784814453125,-0.027124404907226562,-0.004680216312408447,0.0031535185407847166
1700856634248842200,19.14484228515625,-0.012762069702148438,-0.00960087776184082,0.003133820602670312
1700856634265834000,19.161833984375,-0.018144607543945312,-0.00003039836883544922,-0.006423984654247761
1700856634282828500,19.17882861328125,-0.01813983917236328,0.009436875581741333,-0.006397233344614506
1700856634299803600,19.1958037109375,-0.008563995361328125,0.009334266185760498,-0.0016951304860413074
1700856634316808700,19.21280859375,-0.012755393981933594,-0.009747117757797241,0.003042402910068631
1700856634333806600,19.229806640625,-0.012755393981933594,-0.009720474481582642,0.007758009247481823
1700856634350800600,19.246800537109376,-0.0031881332397460938,-0.00009712576866149902,0.012456257827579975
1700856634367792000,19.263792236328126,-0.022930145263671875,0.0047217607498168945,-0.0019635725766420364
1700856634384786200,19.2807861328125,-0.013355255126953125,-0.00013241171836853027,-0.006842718459665775
1700856634401778700,19.29777880859375,-0.008569717407226562,0.01423153281211853,-0.02118026837706566
1700856634418772500,19.3147724609375,-0.013346672058105469,0.014042377471923828,-0.02109498903155327
1700856634435764200,19.33176416015625,-0.008563995361328125,0.018893688917160034,-0.006725646089762449
1700856634452758300,19.34875830078125,-0.012751579284667969,-0.005050361156463623,0.0027964178007096052
1700856634469750300,19.365750244140624,-0.007968902587890625,-0.019343644380569458,0.017108513042330742
1700856634486744800,19.382744873046875,-0.012759208679199219,-0.01923072338104248,0.012225128710269928
1700856634503731500,19.3997314453125,-0.013362884521484375,0.0048417747020721436,-0.002114357426762581
1700856634520734700,19.416734619140627,-0.008579254150390625,0.004866927862167358,-0.0117412144318223
1700856634537712600,19.433712646484373,-0.013364791870117188,0.014426112174987793,-0.011840361170470715
1700856634554716700,19.450716552734374,-0.013360023498535156,0.019124090671539307,-0.006977204233407974
1700856634571708000,19.4677080078125,-0.012760162353515625,0.014309525489807129,0.012141183950006962
1700856634588702500,19.484702392578125,-0.022333145141601562,-0.00003218650817871094,0.021606622263789177
1700856634605694200,19.501694091796875,-0.012765884399414062,-0.01907995343208313,0.007161831483244896
1700856634622688300,19.518688232421876,-0.018156051635742188,-0.028513073921203613,-0.007225089706480503
1700856634639680000,19.535679931640626,-0.013373374938964844,-0.004508227109909058,-0.016788998618721962
1700856634656663600,19.55266357421875,-0.0037994384765625,0.019349217414855957,-0.016669295728206635
1700856634673666300,19.569666259765626,-0.022937774658203125,0.014441370964050293,-0.007159290369600058
1700856634690660400,19.586660400390624,-0.012765884399414062,0.004834622144699097,0.01201939769089222
1700856634707651800,19.60365185546875,-0.012769699096679688,-0.0142306387424469,0.01675916090607643
1700856634724646400,19.620646484375,-0.027126312255859375,-0.009429097175598145,0.026247182860970497
1700856634741638100,19.63763818359375,-0.007988929748535156,-0.018897831439971924,0.011785252951085567
1700856634758632400,19.654632568359375,-0.013373374938964844,-0.009300261735916138,-0.002561504952609539
1700856634775626500,19.67162646484375,-0.013375282287597656,0.005089014768600464,-0.021685175597667694
1700856634792615700,19.68861572265625,-0.013373374938964844,0.01942494511604309,-0.016759322956204414
1700856634809599500,19.705599609375,-0.008585929870605469,0.009799271821975708,-0.0024059871211647987
1700856634826604300,19.722604248046874,-0.007987022399902344,0.00021907687187194824,0.016704415902495384
1700856634843595800,19.739595703125,-0.017560958862304688,0.0002601742744445801,0.026192639023065567
1700856634860590300,19.75659033203125,-0.017563819885253906,0.005118995904922485,0.01651671901345253
1700856634877582300,19.773582275390623,-0.01756572723388672,-0.009188711643218994,0.006931834854185581
1700856634894576400,19.790576416015625,-0.01816844940185547,-0.009103715419769287,-0.00740176672115922
1700856634911567600,19.807567626953126,-0.013384819030761719,-0.004268825054168701,-0.021790333092212677
1700856634928562200,19.824562255859377,-0.013384819030761719,0.010093599557876587,-0.012149167247116566
1700856634945554000,19.841553955078126,-0.02295398712158203,0.010038405656814575,-0.0073181153275072575
1700856634962548500,19.858548583984376,-0.01757335662841797,0.0005404949188232422,0.011856424622237682
1700856634979540500,19.87554052734375,-0.017576217651367188,0.0006134510040283203,0.02141786739230156
1700856634996533800,19.89253369140625,-0.0271453857421875,-0.0042261481285095215,0.011808166280388832
1700856635013526000,19.909526123046874,-0.008605003356933594,-0.013713210821151733,-0.002547453623265028
1700856635030520600,19.9265205078125,-0.013391494750976562,-0.008894950151443481,-0.0025926781818270683
1700856635047504600,19.943504638671875,-0.01338958740234375,-0.004164010286331177,-0.007282593287527561
1700856635064506400,19.96050634765625,-0.013390541076660156,0.005425542593002319,-0.011995257809758186
1700856635081498000,19.977498046875,-0.013386726379394531,0.01015135645866394,-0.007205264177173376
1700856635098492200,19.9944921875,-0.018171310424804688,0.005323737859725952,0.002337338635697961
1700856635115483600,20.011483642578124,-0.012785911560058594,0.0005147755146026611,0.007065790705382824
1700856635132478200,20.028478271484374,-0.00800323486328125,-0.0042341649532318115,0.00700883474200964
1700856635149469700,20.0454697265625,-0.02714252471923828,-0.004291445016860962,0.002186443889513612
1700856635166464300,20.06246435546875,-0.018169403076171875,0.005297631025314331,-0.007326794788241386
1700856635183455700,20.079455810546875,-0.013386726379394531,0.010152161121368408,-0.012149514630436897
1700856635200437200,20.096437255859374,-0.022962570190429688,0.0006492137908935547,-0.016896842047572136
1700856635217444900,20.11344482421875,-0.01817798614501953,-0.004093557596206665,-0.007318590302020311
1700856635234436400,20.130436279296877,-0.01758289337158203,0.005546450614929199,0.007049710489809513
1700856635251427600,20.147427490234374,-0.013394355773925781,0.0150909423828125,0.007052268832921982
1700856635268422100,20.164422119140625,-0.01279449462890625,0.005469173192977905,0.0070594316348433495
1700856635285414000,20.181413818359374,-0.013392448425292969,-0.013661682605743408,-0.007246431894600391
1700856635302408400,20.198408447265624,-0.013393402099609375,-0.013633757829666138,-0.007193496450781822
1700856635319399700,20.215399658203125,-0.013388633728027344,0.0053827762603759766,-0.007129688747227192
1700856635336393700,20.232393798828124,-0.022957801818847656,0.014893949031829834,-0.007072495762258768
1700856635353385700,20.2493857421875,-0.02295398712158203,0.010039299726486206,0.007286102510988712
