time,seconds_elapsed,z,y,x
1702138072975622100,0.0046220703125,-0.017974853515625,0.008357375860214233,-0.04426989704370499
1702138072992614400,0.021614501953125,-0.013791084289550781,-0.010759681463241577,-0.09658585488796234
1702138073069075000,0.098074951171875,-0.010518074035644531,0.023118555545806885,0.10338831692934036
1702138073086058200,0.115058349609375,-0.006333351135253906,0.009470313787460327,0.06027460843324661
1702138073103060500,0.132060546875,-0.0027446746826171875,-0.0383698046207428,-0.02580871433019638
1702138073120047900,0.1490478515625,-0.013512611389160156,-0.038353532552719116,-0.09763090312480927
1702138073137043000,0.16604296875,-0.008727073669433594,0.01430124044418335,-0.09771080315113068
1702138073154033700,0.18303369140625,-0.008129119873046875,0.03344851732254028,-0.04988602176308632
1702138073171022600,0.200022705078125,-0.021289825439453125,-0.004822075366973877,0.0075018033385276794
1702138073188015900,0.217015869140625,-0.015903472900390625,-0.014429748058319092,0.060053177177906036
1702138073205009200,0.234009033203125,-0.010519981384277344,-0.010228097438812256,0.08877479285001755
1702138073221988000,0.250988037109375,-0.0015468597412109375,-0.019235938787460327,0.050543442368507385
1702138073238988500,0.267988525390625,-0.01710033416748047,-0.028838247060775757,-0.03548721596598625
1702138073255982600,0.284982666015625,-0.013510704040527344,-0.00010898709297180176,-0.08810462802648544
1702138073272986400,0.301986328125,-0.01829814910888672,0.03822141885757446,-0.08328664302825928
1702138073289961700,0.318961669921875,-0.008129119873046875,0.004725277423858643,-0.04507771134376526
1702138073306960100,0.335960205078125,-0.006932258605957031,-0.04790380597114563,-0.0020396560430526733
1702138073323948300,0.3529482421875,-0.00154876708984375,-0.03831079602241516,0.055344097316265106
1702138073340938800,0.369938720703125,-0.0057373046875,-0.0006071031093597412,0.08883757144212723
1702138073357926400,0.386926513671875,-0.016506195068359375,0.0047907233238220215,0.03624085336923599
1702138073374923000,0.403923095703125,-0.012917518615722656,0.000019550323486328125,-0.03553060069680214
1702138073391916000,0.420916015625,-0.00394439697265625,0.004812479019165039,-0.08813895285129547
1702138073408904000,0.437904052734375,-0.018301010131835938,0.009610682725906372,-0.09294025599956512
1702138073425897000,0.45489697265625,-0.0081329345703125,-0.023869574069976807,-0.05467759817838669
1702138073442890500,0.471890380859375,-0.011721611022949219,-0.033415794372558594,0.012231916189193726
1702138073459878100,0.488878173828125,-0.0063381195068359375,-0.004691272974014282,0.07922836393117905
1702138073476872400,0.50587255859375,-0.0015506744384765625,0.03354141116142273,0.08873378485441208
1702138073493862400,0.5228623046875,-0.011720657348632812,0.00483858585357666,0.026563890278339386
1702138073510854400,0.5398544921875,-0.008131980895996094,-0.033421337604522705,-0.054825879633426666
1702138073527847200,0.55684716796875,-0.018301010131835938,-0.019042253494262695,-0.09311619400978088
1702138073544839200,0.573839111328125,-0.008730888366699219,0.00011563301086425781,-0.07397868484258652
1702138073561831700,0.590831787109375,-0.012920379638671875,0.00017267465591430664,-0.03087681531906128
1702138073578818800,0.60781884765625,-0.016509056091308594,-0.009439140558242798,0.02651119977235794
1702138073595812600,0.6248125,-0.006339073181152344,0.0049606263637542725,0.08382654935121536
1702138073612806000,0.641805908203125,-0.0063419342041015625,-0.004554063081741333,0.07912281155586243
1702138073629795300,0.65879541015625,-0.01651287078857422,-0.03318968415260315,0.012064628303050995
1702138073646787000,0.675787109375,-0.0033521652221679688,-0.037991613149642944,-0.0692596510052681
1702138073663780400,0.6927802734375,-0.003947257995605469,0.014562755823135376,-0.08840187638998032
1702138073680765400,0.709765380859375,-0.01830577850341797,0.028919130563735962,-0.06915809959173203
1702138073697762000,0.726761962890625,-0.017108917236328125,-0.004572242498397827,-0.026155084371566772
1702138073714755800,0.743755859375,-0.006938934326171875,-0.023704618215560913,0.031231537461280823
1702138073731746600,0.76074658203125,-0.011128425598144531,-0.018850266933441162,0.06949913501739502
1702138073748733700,0.777733642578125,-0.011128425598144531,-0.014043837785720825,0.06468518078327179
1702138073765730000,0.79472998046875,-0.007542610168457031,-0.013977289199829102,0.007254265248775482
1702138073782721000,0.811720947265625,-0.01771068572998047,0.0003469884395599365,-0.0549754872918129
1702138073799708400,0.82870849609375,-0.008734703063964844,0.024219214916229248,-0.0836779996752739
1702138073816702500,0.845702392578125,-0.00873565673828125,0.005083441734313965,-0.06926538050174713
1702138073833694000,0.86269384765625,-0.017110824584960938,-0.028398603200912476,-0.02625386416912079
1702138073850683600,0.87968359375,-0.0069427490234375,-0.03788954019546509,0.035915009677410126
1702138073867675100,0.896675048828125,-0.011130332946777344,-0.00018996000289916992,0.08369050920009613
1702138073884671000,0.9136708984375,-0.0015611648559570312,0.01960676908493042,0.06451220065355301
1702138073901661400,0.930661376953125,-0.017116546630859375,-0.009090900421142578,-0.007120572030544281
1702138073918648800,0.94764892578125,-0.0039577484130859375,-0.004288822412490845,-0.0692312940955162
1702138073935643000,0.964642822265625,-0.023099899291992188,-0.004272669553756714,-0.08835419267416
1702138073952636400,0.981636474609375,-0.0033597946166992188,-0.00909113883972168,-0.06436114758253098
1702138073969623300,0.998623291015625,-0.017121315002441406,-0.018547356128692627,-0.01656777411699295
1702138073986617000,1.0156171875,-0.011140823364257812,-0.004127532243728638,0.05036783963441849
1702138074003610400,1.0326103515625,-0.00635528564453125,0.01506507396697998,0.08382435888051987
1702138074020597200,1.04959716796875,-0.011140823364257812,-0.018416225910186768,0.045403167605400085
1702138074037593300,1.06659326171875,-0.012338638305664062,-0.027951359748840332,-0.02163437008857727
1702138074054583600,1.08358349609375,-0.0039653778076171875,-0.01835685968399048,-0.08372948318719864
1702138074071574500,1.100574462890625,-0.013536453247070312,0.015098810195922852,-0.0788155123591423
1702138074088566500,1.11756640625,-0.0033693313598632812,0.015142887830734253,-0.054824210703372955
1702138074105549600,1.134549560546875,-0.002765655517578125,-0.004086911678314209,-0.0070898085832595825
1702138074122550800,1.15155078125,-0.01592731475830078,-0.013639003038406372,0.050320953130722046
1702138074139533300,1.168533203125,-0.015929222106933594,-0.009382158517837524,0.07903706282377243
1702138074156532700,1.18553271484375,-0.011740684509277344,-0.02315974235534668,0.03593561798334122
1702138074173525800,1.20252587890625,-0.017127037048339844,-0.023125559091567993,-0.026206329464912415
1702138074190513000,1.219512939453125,-0.018323898315429688,0.010377585887908936,-0.06925635784864426
1702138074207507700,1.2365078125,0.0008192062377929688,0.024723976850509644,-0.07406435906887054
1702138074224498700,1.253498779296875,-0.008149147033691406,0.0006499886512756348,-0.05012344941496849
1702138074241491700,1.27049169921875,-0.007554054260253906,-0.027989596128463745,0.002493642270565033
1702138074258488300,1.28748828125,-0.011142730712890625,-0.01838645339012146,0.0550636351108551
1702138074275473200,1.30447314453125,-0.006359100341796875,-0.003967732191085815,0.06468714773654938
1702138074292465200,1.321465087890625,-0.011743545532226562,0.0008369088172912598,0.02641873061656952
1702138074309454600,1.33845458984375,-0.017728805541992188,-0.0038799047470092773,-0.03576597198843956
1702138074326447900,1.35544775390625,-0.008757591247558594,0.005694180727005005,-0.0691346526145935
1702138074343438000,1.37243798828125,-0.008757591247558594,0.005699515342712402,-0.06426466256380081
1702138074360430800,1.389430908203125,-0.012946128845214844,-0.02298799157142639,-0.04988863691687584
1702138074377420500,1.406420654296875,-0.011752128601074219,-0.02769249677658081,0.01229289174079895
1702138074394429000,1.423428955078125,-0.015939712524414062,-0.0037401318550109863,0.06484463065862656
1702138074411399700,1.440399658203125,-0.011153221130371094,0.01061519980430603,0.06956624239683151
1702138074428395800,1.457395751953125,-0.011751174926757812,-0.008508116006851196,0.026461832225322723
1702138074445392400,1.474392333984375,-0.0081634521484375,-0.02282947301864624,-0.040545713156461716
1702138074462384400,1.49138427734375,-0.01833629608154297,-0.003618001937866211,-0.07395545393228531
1702138074479369000,1.508368896484375,-0.00876617431640625,0.0011823475360870361,-0.06912647932767868
1702138074496362800,1.52536279296875,-0.0033826828002929688,-0.003586322069168091,-0.030829839408397675
1702138074513355500,1.54235546875,-0.0069713592529296875,-0.008351802825927734,0.016983546316623688
1702138074530343200,1.55934326171875,-0.0159454345703125,0.0012361407279968262,0.06957278400659561
1702138074547338000,1.576337890625,-0.011158943176269531,-0.008316904306411743,0.059889599680900574
1702138074564329000,1.593328857421875,-0.007572174072265625,-0.01785832643508911,0.002499125897884369
1702138074581321700,1.61032177734375,-0.008170127868652344,-0.01786842942237854,-0.05481468141078949
1702138074598310700,1.627310546875,-0.013553619384765625,0.020365774631500244,-0.06907510757446289
1702138074615304700,1.6443046875,-0.008168220520019531,0.015514373779296875,-0.05946310609579086
1702138074632295000,1.661294921875,-0.017142295837402344,-0.013189256191253662,-0.030686967074871063
1702138074649283600,1.67828369140625,-0.01654529571533203,-0.027460932731628418,0.03141716867685318
1702138074666275800,1.69527587890625,-0.015949249267578125,-0.01302492618560791,0.06486092507839203
1702138074683262200,1.71226220703125,-0.01595020294189453,-0.012998044490814209,0.05049832910299301
1702138074700262100,1.72926220703125,-0.00757598876953125,-0.01297074556350708,-0.006980523467063904
1702138074717242000,1.7462421875,-0.012960433959960938,0.006189197301864624,-0.04998685047030449
1702138074734243600,1.76324365234375,-0.008772850036621094,0.0061376094818115234,-0.07854848355054855
1702138074751236900,1.78023681640625,-0.008175849914550781,0.0013538897037506104,-0.05930515378713608
1702138074768218600,1.797218505859375,-0.007580757141113281,-0.03205326199531555,-0.01682661473751068
1702138074785216300,1.81421630859375,-0.0069828033447265625,-0.01766681671142578,0.031617239117622375
1702138074802213400,1.83121337890625,-0.01595592498779297,0.0014775395393371582,0.06510146707296371
1702138074819198700,1.84819873046875,-0.011767387390136719,0.006272494792938232,0.04589655250310898
1702138074836194800,1.86519482421875,-0.007582664489746094,-0.008065581321716309,-0.011527955532073975
1702138074853184000,1.88218408203125,-0.012967109680175781,-0.003255695104598999,-0.059252411127090454
1702138074870174200,1.89917431640625,-0.013569831848144531,0.0016329288482666016,-0.06871265918016434
1702138074887170000,1.916170166015625,-0.012971878051757812,-0.00313568115234375,-0.04957525059580803
1702138074904158200,1.933158203125,-0.012375831604003906,-0.012683659791946411,-0.011241286993026733
1702138074921159200,1.9501591796875,-0.011778831481933594,-0.0030476748943328857,0.04621243476867676
1702138074938133800,1.9671337890625,-0.006396293640136719,0.0065653324127197266,0.06532853841781616
1702138074955132700,1.984132568359375,-0.006995201110839844,-0.012508094310760498,0.03645710647106171
1702138074972126200,2.001126220703125,-0.007596015930175781,-0.017254173755645752,-0.026278190314769745
1702138074989106200,2.018106201171875,-0.012982368469238281,-0.002817988395690918,-0.06387616693973541
1702138075006105600,2.035105712890625,-0.00879669189453125,0.006746947765350342,-0.07327784597873688
1702138075023097900,2.052097900390625,-0.012984275817871094,0.006729930639266968,-0.049250345677137375
1702138075040089000,2.069089111328125,-0.012387275695800781,-0.007624000310897827,-0.00618424266576767
1702138075057076500,2.086076416015625,-0.015974998474121094,-0.012405842542648315,0.05120726674795151
1702138075074078700,2.10307861328125,-0.0064029693603515625,-0.01244509220123291,0.05597542226314545
1702138075091064300,2.120064208984375,-0.0022153854370117188,-0.017211169004440308,0.02184394747018814
1702138075108057900,2.137057861328125,-0.007601737976074219,-0.017181068658828735,-0.02054448425769806
1702138075125047800,2.1540478515625,-0.017769813537597656,0.011481612920761108,-0.053999364376068115
1702138075142040800,2.171040771484375,-0.012984275817871094,0.011474430561065674,-0.05872291326522827
1702138075159029800,2.18802978515625,-0.01777172088623047,-0.0028416216373443604,-0.04910020902752876
1702138075176020200,2.205020263671875,-0.016574859619140625,-0.026783913373947144,0.013089172542095184
1702138075193013200,2.22201318359375,-0.011193275451660156,-0.01709085702896118,0.05600722134113312
1702138075210003200,2.239003173828125,-0.00640869140625,-0.002685338258743286,0.05593132972717285
1702138075227000600,2.25600048828125,-0.011792182922363281,-0.0026806294918060303,0.01761718839406967
1702138075243989000,2.272989013671875,-0.00341796875,0.0021137595176696777,-0.030249595642089844
1702138075260978400,2.289978515625,-0.013588905334472656,0.006932973861694336,-0.06363897770643234
1702138075277982500,2.306982421875,-0.012991905212402344,0.0021401047706604004,-0.06346412748098373
1702138075294963200,2.323963134765625,-0.0034236907958984375,-0.02649831771850586,-0.04013073071837425
1702138075311956700,2.340956787109375,-0.012399673461914062,-0.01685425639152527,0.0035678595304489136
1702138075328941300,2.35794140625,-0.020772933959960938,0.0022835135459899902,0.06088123470544815
1702138075345940200,2.374940185546875,-0.020768165588378906,0.0021763741970062256,0.06084887683391571
1702138075362931000,2.391930908203125,-0.011797904968261719,-0.02167510986328125,0.013017579913139343
1702138075379918600,2.408918701171875,-0.017783164978027344,-0.01685670018196106,-0.034730214625597
1702138075396904700,2.42590478515625,-0.0034275054931640625,0.0022974610328674316,-0.06337219476699829
1702138075413904600,2.442904541015625,-0.008213996887207031,0.00707322359085083,-0.06324165314435959
1702138075430895400,2.459895263671875,-0.012404441833496094,-0.011969447135925293,-0.024917885661125183
1702138075447888000,2.476887939453125,-0.007021903991699219,0.0024315714836120605,0.018160685896873474
1702138075464878000,2.493878173828125,-0.011208534240722656,-0.0023477673530578613,0.05632530897855759
1702138075481860900,2.51086083984375,-0.007022857666015625,-0.007076919078826904,0.04672569781541824
1702138075498857500,2.527857421875,-0.007622718811035156,-0.021402567625045776,0.0030463039875030518
1702138075515853300,2.544853271484375,-0.0034341812133789062,-0.0022451281547546387,-0.03944912180304527
1702138075532843000,2.561843017578125,-0.013604164123535156,0.012091130018234253,-0.06330637633800507
1702138075549835500,2.57883544921875,-0.017792701721191406,0.0025024116039276123,-0.05361232906579971
1702138075566828300,2.595828369140625,-0.012411117553710938,-0.016574352979660034,-0.024916231632232666
1702138075583820500,2.612820556640625,-0.00702667236328125,-0.016546189785003662,0.032499514520168304
1702138075600807400,2.629807373046875,-0.006427764892578125,-0.00695490837097168,0.056301429867744446
1702138075617799700,2.646799560546875,-0.007027626037597656,-0.016501784324645996,0.03714720904827118
1702138075634791700,2.663791748046875,-0.017197608947753906,-0.0069103240966796875,0.0036919713020324707
1702138075651786800,2.680786865234375,-0.017797470092773438,0.0074440836906433105,-0.04880599305033684
1702138075668773600,2.697773681640625,-0.008823394775390625,0.016994446516036987,-0.06313352286815643
1702138075685768000,2.714767822265625,-0.017795562744140625,-0.00699007511138916,-0.053484492003917694
1702138075702761000,2.731760986328125,-0.012412071228027344,-0.016579121351242065,-0.015180319547653198
1702138075719748600,2.74874853515625,-0.011810302734375,-0.007087290287017822,0.027822785079479218
1702138075736742000,2.765741943359375,-0.011210441589355469,-0.0022942423820495605,0.05640408396720886
1702138075753735400,2.7827353515625,-0.011808395385742188,0.0024946630001068115,0.032461732625961304
1702138075770723600,2.7997236328125,-0.007622718811035156,-0.007060378789901733,-0.015373162925243378
1702138075787718000,2.8167177734375,-0.017792701721191406,-0.0023128092288970947,-0.05828762799501419
1702138075804707800,2.833707763671875,-0.0082244873046875,0.012069642543792725,-0.053323276340961456
1702138075821701600,2.85070166015625,-0.008225440979003906,-0.0118485689163208,-0.05378931388258934
1702138075838695200,2.867695068359375,-0.007626533508300781,-0.007097184658050537,-0.0059293657541275024
1702138075855681300,2.884681396484375,-0.011810302734375,-0.002352893352508545,0.04244179278612137
1702138075872673300,2.90167333984375,-0.007025718688964844,0.0024747252464294434,0.05191918462514877
1702138075889665000,2.9186650390625,-0.011811256408691406,-0.011869221925735474,0.02315591275691986
1702138075906659800,2.935659912109375,-0.02198314666748047,-0.011793017387390137,-0.015152454376220703
1702138075923650600,2.952650634765625,-0.017798423767089844,-0.00222015380859375,-0.05800679326057434
1702138075940627700,2.969627685546875,-0.01361083984375,0.007338434457778931,-0.06269574165344238
1702138075957638700,2.986638671875,-0.008231163024902344,-0.002148747444152832,-0.03865044191479683
1702138075974620200,3.0036201171875,-0.007634162902832031,-0.011704504489898682,0.004460394382476807
1702138075991628000,3.0206279296875,-0.01600933074951172,-0.006859570741653442,0.04747374355792999
1702138076008603600,3.037603759765625,-0.01122283935546875,-0.006837785243988037,0.05206878483295441
1702138076025597700,3.05459765625,-0.0070323944091796875,-0.01647251844406128,0.018469437956809998
1702138076042591000,3.071591064453125,-0.007634162902832031,-0.006834208965301514,-0.024551965296268463
1702138076059578600,3.08857861328125,-0.008235931396484375,0.007614612579345703,-0.048363786190748215
1702138076076569000,3.105569091796875,-0.008235931396484375,0.002810865640640259,-0.05785071849822998
1702138076093568500,3.122568603515625,-0.0034542083740234375,-0.01148998737335205,-0.03440827876329422
1702138076110556200,3.13955615234375,-0.011828422546386719,-0.01624581217765808,0.009182475507259369
1702138076127548200,3.156548095703125,-0.016613006591796875,-0.0067099034786224365,0.0474010705947876
1702138076144539100,3.1735390625,-0.011828422546386719,-0.006620675325393677,0.046712227165699005
1702138076161530600,3.190530517578125,-0.0028524398803710938,-0.006660908460617065,0.013076841831207275
1702138076178522400,3.2075224609375,-0.007639884948730469,0.002898871898651123,-0.020313628017902374
1702138076195514000,3.22451416015625,-0.01302337646484375,-0.001931905746459961,-0.053085729479789734
1702138076212493300,3.241493408203125,-0.017810821533203125,-0.0018878281116485596,-0.05777115374803543
1702138076229487600,3.258487548828125,-0.013026237487792969,-0.011438637971878052,-0.02895151823759079
1702138076246488300,3.27548828125,-0.007045745849609375,-0.011412352323532104,0.014131076633930206
1702138076263479800,3.292479736328125,-0.01601696014404297,-0.006609857082366943,0.05228479951620102
1702138076280471000,3.309470947265625,-0.011829376220703125,-0.0018301904201507568,0.04267844557762146
1702138076297452000,3.3264521484375,-0.011829376220703125,-0.01615840196609497,0.009102627635002136
1702138076314454300,3.343454345703125,-0.008243560791015625,-0.006557822227478027,-0.03385106101632118
1702138076331445800,3.36044580078125,-0.008246421813964844,0.012615025043487549,-0.05276215076446533
1702138076348426200,3.37742626953125,-0.008248329162597656,-0.006521016359329224,-0.05739863961935043
1702138076365428700,3.3944287109375,-0.0076503753662109375,-0.00651472806930542,-0.014303505420684814
1702138076382410000,3.411409912109375,-0.007052421569824219,-0.0016856491565704346,0.01914062350988388
1702138076399412000,3.428411865234375,-0.016623497009277344,0.00310593843460083,0.04772663116455078
1702138076416403000,3.44540283203125,-0.002262115478515625,-0.01133456826210022,0.03264489024877548
1702138076433394400,3.46239453125,-0.012434005737304688,-0.016073554754257202,-0.004997193813323975
1702138076450386000,3.479385986328125,-0.017818450927734375,-0.0017145872116088867,-0.038405079394578934
1702138076467378000,3.4963779296875,-0.022603988647460938,0.003052741289138794,-0.05264101177453995
1702138076484366300,3.513366455078125,-0.013035774230957031,-0.0017023980617523193,-0.042935810983181
1702138076501363500,3.530363525390625,-0.01722431182861328,-0.016028672456741333,-0.014204233884811401
1702138076518339300,3.54733935546875,-0.007053375244140625,-0.006448805332183838,0.03356247395277023
1702138076535338200,3.564338134765625,0.0025186538696289062,-0.006439179182052612,0.047176145017147064
1702138076552325400,3.581325439453125,-0.011837005615234375,-0.011215955018997192,0.02372681349515915
1702138076569317400,3.5983173828125,-0.0124359130859375,-0.011252552270889282,-0.009720303118228912
1702138076586311200,3.615311279296875,-0.008248329162597656,0.00309792160987854,-0.038402508944272995
1702138076603299000,3.632299072265625,-0.013634681701660156,0.007897555828094482,-0.06691458076238632
1702138076620292900,3.64929296875,-0.022607803344726562,-0.006468653678894043,-0.047639284282922745
1702138076637281500,3.666281494140625,-0.00765228271484375,-0.006505757570266724,-0.009350478649139404
1702138076654275300,3.683275390625,-0.007053375244140625,-0.0017186105251312256,0.02889975905418396
1702138076671265300,3.700265380859375,-0.0022678375244140625,-0.00645032525062561,0.04305849224328995
1702138076688259300,3.71725927734375,-0.011837959289550781,-0.0064344704151153564,0.023794278502464294
1702138076705253000,3.734253173828125,-0.012434959411621094,-0.0064872801303863525,-0.01929214596748352
1702138076722242300,3.7512421875,-0.017818450927734375,-0.001748591661453247,-0.04306451231241226
1702138076739230000,3.76822998046875,-0.0034627914428710938,-0.0017556250095367432,-0.05249723792076111
1702138076756225000,3.78522509765625,-0.008250236511230469,-0.006492882966995239,-0.03807869181036949
1702138076773214200,3.802214111328125,-0.007647514343261719,-0.006635695695877075,0.00019784271717071533
1702138076790209500,3.81920947265625,-0.007048606872558594,-0.0018533170223236084,0.043257251381874084
1702138076807200500,3.836200439453125,-0.0022611618041992188,-0.006641387939453125,0.04789440333843231
1702138076824199000,3.853198974609375,-0.007046699523925781,-0.016189604997634888,0.023848429322242737
1702138076841187300,3.870187255859375,-0.007648468017578125,-0.01133003830909729,-0.014410071074962616
1702138076858174700,3.8871748046875,-0.013033866882324219,0.003019392490386963,-0.03818051889538765
1702138076875173000,3.904173095703125,-0.013031959533691406,0.007734745740890503,-0.05244102329015732
1702138076892164900,3.921164794921875,-0.008246421813964844,-0.006625086069107056,-0.038660917431116104
1702138076909153300,3.9381533203125,-0.017221450805664062,-0.006577581167221069,0.00975712388753891
1702138076926151400,3.9551513671875,-0.011836051940917969,-0.006579667329788208,0.03840368241071701
1702138076943129000,3.972129150390625,-0.01662158966064453,-0.0065746307373046875,0.04309125244617462
1702138076960130800,3.989130859375,-0.007048606872558594,-0.01133030652999878,0.013677626848220825
1702138076977134800,4.006134765625,-0.007649421691894531,-0.0017601549625396729,-0.01500064879655838
1702138076994113800,4.02311376953125,-0.01781749725341797,0.007791489362716675,-0.04305330663919449
1702138077011105800,4.040105712890625,-0.0034627914428710938,-0.0017489790916442871,-0.043579403311014175
1702138077028096500,4.057096435546875,-0.017223358154296875,-0.016031861305236816,-0.02863028645515442
1702138077045088500,4.074088623046875,-0.0028657913208007812,-0.001664280891418457,0.013743110001087189
1702138077062079200,4.091079345703125,-0.007052421569824219,-0.001665353775024414,0.047752268612384796
1702138077079072300,4.108072265625,-0.011836051940917969,-0.006497114896774292,0.038073793053627014
1702138077096053000,4.125052978515625,-0.007647514343261719,-0.01131543517112732,0.009376250207424164
1702138077113052200,4.14205224609375,-0.012434959411621094,-0.0017020702362060547,-0.019286617636680603
1702138077130037500,4.15903759765625,-0.008246421813964844,0.00301244854927063,-0.0478702150285244
1702138077147037700,4.17603759765625,0.010894775390625,-0.011337876319885254,-0.053100984543561935
1702138077164028700,4.193028564453125,-0.0076503753662109375,-0.006541132926940918,-0.02379172295331955
1702138077181020400,4.2100205078125,-0.011835098266601562,-0.0018144845962524414,0.019273169338703156
1702138077198005500,4.227005615234375,-0.011834144592285156,-0.006588786840438843,0.03827369213104248
1702138077215002000,4.244002197265625,0.0025205612182617188,-0.011311054229736328,0.03281356394290924
1702138077231996000,4.260995849609375,-0.012434959411621094,-0.011286348104476929,0.004668787121772766
1702138077248986400,4.277986328125,-0.013033866882324219,-0.006496846675872803,-0.0287068709731102
1702138077265977900,4.294977783203125,-0.008249282836914062,0.0030538439750671387,-0.05244309455156326
1702138077282960100,4.311960205078125,-0.0034646987915039062,0.0030338168144226074,-0.03860841318964958
1702138077299960300,4.328960205078125,-0.0028657913208007812,-0.006545454263687134,-0.01459396630525589
1702138077316942000,4.345942138671875,-0.007053375244140625,-0.0017667710781097412,0.023665428161621094
1702138077333943800,4.36294384765625,-0.011837959289550781,-0.006541609764099121,0.037932559847831726
1702138077350938400,4.3799384765625,-0.011838912963867188,-0.016081690788269043,0.018717437982559204
1702138077367923700,4.396923828125,-0.01722431182861328,-0.0016556382179260254,-0.009390182793140411
1702138077384918000,4.41391796875,-0.008253097534179688,-0.0016561150550842285,-0.03377828001976013
1702138077401909800,4.43090966796875,-0.01782512664794922,0.0031208395957946777,-0.04745151475071907
1702138077418901500,4.447901611328125,-0.013039588928222656,-0.01126965880393982,-0.04312672093510628
1702138077435892500,4.464892578125,-0.007657051086425781,-0.011257588863372803,-0.004784099757671356
1702138077452884700,4.481884765625,-0.011843681335449219,-0.006467849016189575,0.03409808129072189
1702138077469875200,4.498875244140625,-0.011844635009765625,-0.0064115822315216064,0.0435156375169754
1702138077486867200,4.5158671875,-0.0022745132446289062,-0.01113399863243103,0.03326437622308731
1702138077503858400,4.5328583984375,-0.017230987548828125,-0.006292670965194702,-0.014020882546901703
1702138077520846800,4.549846923828125,-0.008260726928710938,0.0033083558082580566,-0.03303585574030876
1702138077537841700,4.566841552734375,-0.013048171997070312,0.003338068723678589,-0.04720276966691017
1702138077554827800,4.583827880859375,-0.013047218322753906,-0.011065632104873657,-0.032779399305582047
1702138077571824400,4.600824462890625,-0.012451171875,-0.01582595705986023,0.0008053407073020935
1702138077588816100,4.617816162109375,-0.011851310729980469,-0.001477569341659546,0.034240998327732086
1702138077605792000,4.6347919921875,-0.011852264404296875,-0.00620722770690918,0.034098438918590546
1702138077622795300,4.651795166015625,-0.011852264404296875,-0.006157517433166504,0.01963070034980774
1702138077639794700,4.668794677734375,-0.012453079223632812,-0.010880619287490845,-0.009120389819145203
1702138077656782000,4.685781982421875,-0.013051033020019531,0.00823923945426941,-0.03773028776049614
1702138077673771000,4.70277099609375,-0.013051986694335938,-0.0061202943325042725,-0.04715745523571968
1702138077690768000,4.719767822265625,-0.01784038543701172,-0.010843396186828613,-0.03273741528391838
1702138077707756300,4.73675634765625,-0.0028848648071289062,-0.0012675821781158447,0.01029888540506363
1702138077724748000,4.753748046875,-0.007071495056152344,-0.0060617923736572266,0.03894294053316116
1702138077741739500,4.770739501953125,-0.011855125427246094,-0.010892748832702637,0.029284924268722534
1702138077758720800,4.787720703125,-0.011855125427246094,-0.0060877203941345215,0.01488068699836731
1702138077775722200,4.80472216796875,-0.012455940246582031,-0.010861217975616455,-0.023842856287956238
1702138077792711200,4.821711181640625,-0.01305389404296875,0.00348055362701416,-0.03750411048531532
1702138077809707800,4.838707763671875,-0.013054847717285156,-0.001314997673034668,-0.03742126747965813
1702138077826697200,4.855697265625,-0.008270263671875,-0.0013105571269989014,-0.02779316157102585
1702138077843688400,4.8726884765625,-0.007671356201171875,-0.0060849785804748535,0.010443255305290222
1702138077860671000,4.8896708984375,-0.007071495056152344,-0.001294463872909546,0.0342545285820961
1702138077877671400,4.90667138671875,-0.01664447784423828,-0.01556849479675293,0.029322810471057892
1702138077894663400,4.923663330078125,-0.007670402526855469,0.0035217702388763428,0.010182619094848633
1702138077911654000,4.94065380859375,-0.012454032897949219,-0.0013166069984436035,-0.018488526344299316
1702138077928646000,4.95764599609375,-0.008268356323242188,0.008239179849624634,-0.04230308532714844
1702138077945637400,4.974637451171875,-0.01305389404296875,0.003443300724029541,-0.04694264754652977
1702138077962626800,4.991626708984375,-0.008270263671875,-0.010895103216171265,-0.027688831090927124
1702138077979625500,5.00862548828125,-0.011858940124511719,-0.0013193488121032715,0.015380367636680603
1702138077996611800,5.02561181640625,-0.0022869110107421875,-0.0013147294521331787,0.029613547027111053
1702138078013600800,5.042600830078125,-0.01664447784423828,-0.006088316440582275,0.02474113553762436
1702138078030597000,5.05959716796875,-0.012455940246582031,-0.010912448167800903,0.005679823458194733
1702138078047585800,5.076585693359375,-0.0034837722778320312,-0.0013295412063598633,-0.027802005410194397
1702138078064578000,5.093578125,-0.01784038543701172,0.008225798606872559,-0.03730277344584465
1702138078081569000,5.110569091796875,-0.008271217346191406,-0.0013334155082702637,-0.03717285767197609
1702138078098558500,5.127558349609375,-0.01245880126953125,-0.010879606008529663,-0.008441746234893799
1702138078115557600,5.1445576171875,-0.0166473388671875,-0.0012971460819244385,0.015427887439727783
1702138078132540700,5.161540771484375,-0.016646385192871094,-0.006071031093597412,0.03438928723335266
1702138078149535200,5.17853515625,-0.011860847473144531,-0.006035804748535156,0.029627643525600433
1702138078166527000,5.19552685546875,-0.01724529266357422,-0.006016135215759277,-0.0038769468665122986
1702138078183518000,5.21251806640625,-0.013057708740234375,-0.0012759566307067871,-0.02768576890230179
1702138078200509700,5.229509765625,-0.008274078369140625,-0.0012770891189575195,-0.05195029452443123
1702138078217499600,5.246499755859375,-0.0130615234375,-0.010829389095306396,-0.03751888498663902
1702138078234494200,5.263494140625,-0.007679939270019531,-0.0012021660804748535,-0.008749149739742279
1702138078251483600,5.280483642578125,-0.007081031799316406,-0.006003141403198242,0.02482420951128006
1702138078268475400,5.297475341796875,-0.011867523193359375,-0.010748505592346191,0.03425551950931549
1702138078285464600,5.314464599609375,-0.007082939147949219,-0.015463531017303467,0.024609021842479706
1702138078302461400,5.33146142578125,-0.0076808929443359375,-0.0011531412601470947,-0.0034443214535713196
1702138078319449600,5.34844970703125,-0.008279800415039062,-0.0011477768421173096,-0.02724049985408783
1702138078336441600,5.365441650390625,-0.008280754089355469,0.003614485263824463,-0.04145568609237671
1702138078353425000,5.3824248046875,-0.013067245483398438,-0.005952000617980957,-0.031758975237607956
1702138078370422300,5.39942236328125,-0.012469291687011719,-0.005954474210739136,-0.0029958710074424744
1702138078387417900,5.41641796875,-0.011872291564941406,-0.00589945912361145,0.01611495018005371
1702138078404407300,5.4334072265625,-0.016660690307617188,-0.01062864065170288,0.030439727008342743
1702138078421399000,5.45039892578125,-0.00708770751953125,-0.005830883979797363,0.02081149071455002
1702138078438390800,5.467390869140625,-0.017256736755371094,-0.0010851025581359863,-0.007893897593021393
1702138078455381800,5.4843818359375,-0.0034990310668945312,-0.0010942816734313965,-0.037058647722005844
1702138078472373500,5.50137353515625,-0.00350189208984375,-0.0010453462600708008,-0.041707683354616165
1702138078489364700,5.51836474609375,-0.007689476013183594,-0.010611265897750854,-0.022549666464328766
1702138078506356700,5.535356689453125,-0.012473106384277344,-0.005909621715545654,0.0020005106925964355
1702138078523339000,5.552339111328125,-0.00708770751953125,-0.005904495716094971,0.030599862337112427
1702138078540328700,5.56932861328125,-0.007090568542480469,-0.00580403208732605,0.04012347012758255
1702138078557344000,5.586343994140625,-0.007091522216796875,-0.005784958600997925,0.016189761459827423
1702138078574322700,5.60332275390625,-0.007691383361816406,-0.005772680044174194,-0.008269920945167542
1702138078591313700,5.620313720703125,-0.013080596923828125,0.003942340612411499,-0.03628361597657204
1702138078608305400,5.637305419921875,-0.008296012878417969,-0.005632072687149048,-0.041534174233675
1702138078625297000,5.654296875,-0.017868995666503906,-0.0007987320423126221,-0.026474907994270325
1702138078642288400,5.671288330078125,-0.0029134750366210938,-0.0007880032062530518,0.011178858578205109
1702138078659279400,5.688279296875,-0.011885643005371094,-0.0055637359619140625,0.03075525164604187
1702138078676271400,5.705271240234375,-0.02145862579345703,-0.010308593511581421,0.035442277789115906
1702138078693262600,5.7222626953125,-0.0076999664306640625,-0.005504518747329712,0.01087583601474762
1702138078710254300,5.73925439453125,-0.0076999664306640625,-0.0007286667823791504,-0.012355908751487732
1702138078727245300,5.756245361328125,-0.0178680419921875,0.004000991582870483,-0.03622957691550255
1702138078744237300,5.7732373046875,-0.008296966552734375,-0.005623877048492432,-0.04141818359494209
1702138078761228800,5.790228759765625,0.00127410888671875,-0.005663871765136719,-0.022217728197574615
1702138078778220300,5.80722021484375,-0.007694244384765625,0.003801673650741577,0.011824898421764374
1702138078795211000,5.8242109375,-0.011880874633789062,-0.005757719278335571,0.040457338094711304
1702138078812202800,5.84120263671875,-0.01187896728515625,-0.010567843914031982,0.025969475507736206
1702138078829194500,5.858194580078125,-0.0076923370361328125,-0.010583966970443726,0.006261743605136871
1702138078846175500,5.875175537109375,0.00128173828125,-0.0010154247283935547,-0.02249304950237274
1702138078863176700,5.8921767578125,-0.008291244506835938,-0.001010507345199585,-0.04087024927139282
1702138078880167400,5.90916748046875,-0.008292198181152344,0.0037650763988494873,-0.03599941357970238
1702138078897154000,5.926154052734375,-0.0076961517333984375,-0.005743831396102905,-0.01204630732536316
1702138078914150400,5.943150390625,-0.017271041870117188,-0.0008148550987243652,0.011817961931228638
1702138078931145700,5.960145751953125,-0.007100105285644531,-0.005574345588684082,0.030833452939987183
1702138078948134000,5.9771337890625,-0.0118865966796875,-0.005548536777496338,0.016415491700172424
1702138078965126100,5.994126220703125,-0.012485504150390625,-0.010314792394638062,0.006836019456386566
1702138078982118100,6.0111181640625,-0.007701873779296875,-0.0007468163967132568,-0.02175777405500412
1702138078999109000,6.028109130859375,-0.013086318969726562,0.004028141498565674,-0.04070674628019333
1702138079016100900,6.045100830078125,-0.008302688598632812,-0.005531370639801025,-0.040571972727775574
1702138079033091300,6.06209130859375,-0.007704734802246094,-0.005563020706176758,-0.006967172026634216
1702138079050084900,6.0790849609375,-0.011890411376953125,-0.0007745921611785889,0.0216648131608963
1702138079067074800,6.09607470703125,-0.011889457702636719,-0.0055641233921051025,0.026375941932201385
1702138079084066600,6.113066650390625,-0.007103919982910156,-0.005545169115066528,0.02087303251028061
1702138079101058300,6.130058349609375,-0.01248931884765625,-0.00554049015045166,-0.007174961268901825
1702138079118039600,6.14703955078125,-0.013086318969726562,-0.0008090734481811523,-0.030962754040956497
1702138079135023000,6.164023193359375,-0.013087272644042969,-0.0008058547973632812,-0.035669002681970596
1702138079152035300,6.181035400390625,-0.013087272644042969,-0.005572676658630371,-0.030915040522813797
1702138079169021400,6.198021484375,-0.0077037811279296875,0.00877922773361206,-0.002248115837574005
1702138079186015700,6.215015625,-0.011892318725585938,-0.0007002055644989014,0.03116171807050705
1702138079203006700,6.2320068359375,-0.0071048736572265625,-0.010309576988220215,0.03108915686607361
1702138079219998500,6.24899853515625,-0.0076999664306640625,-0.005607634782791138,0.011907964944839478
1702138079237001200,6.266001220703125,-0.012485504150390625,-0.0008179545402526855,-0.007280968129634857
1702138079253982000,6.28298193359375,-0.01308441162109375,-0.0008077621459960938,-0.03117363527417183
1702138079270971600,6.2999716796875,-0.008299827575683594,-0.0055886805057525635,-0.031102869659662247
1702138079287965700,6.316965576171875,-0.00351715087890625,-0.005519002676010132,-0.0262543186545372
1702138079304956000,6.333955810546875,-0.017274856567382812,-0.010329991579055786,0.007218636572360992
1702138079321947600,6.35094775390625,-0.016674041748046875,-0.0007995069026947021,0.026255719363689423
1702138079338942500,6.3679423828125,-0.011885643005371094,-0.015172958374023438,0.026125900447368622
1702138079355930400,6.384930419921875,-0.011885643005371094,-0.010410904884338379,0.016554228961467743
1702138079372923600,6.401923583984375,-0.012484550476074219,-0.005626559257507324,-0.012079194188117981
1702138079389911300,6.418911376953125,-0.013083457946777344,-0.005614101886749268,-0.02634439617395401
1702138079406896600,6.435896728515625,-0.0035142898559570312,-0.0008165240287780762,-0.03637387230992317
1702138079423889700,6.4528896484375,-0.0029172897338867188,-0.005589812994003296,-0.01714758574962616
1702138079440875000,6.469875,-0.012487411499023438,-0.005622506141662598,0.0025672614574432373
1702138079457872000,6.486871826171875,-0.026246070861816406,-0.005613237619400024,0.026416517794132233
1702138079474864000,6.503864013671875,-0.016676902770996094,-0.01509508490562439,0.025737114250659943
1702138079491858200,6.520858154296875,-0.012490272521972656,-0.005499303340911865,0.011338353157043457
1702138079508843800,6.53784375,-0.013089179992675781,-0.0007182061672210693,-0.021406464278697968
1702138079525847800,6.554847900390625,-0.013091087341308594,0.008890271186828613,-0.0356467179954052
1702138079542836200,6.571836181640625,-0.008307456970214844,-0.0006855130195617676,-0.04024798423051834
1702138079559826200,6.588826171875,-0.007710456848144531,-0.010231435298919678,-0.016292311251163483
1702138079576819500,6.6058193359375,-0.012495040893554688,-0.0006718039512634277,0.007642000913619995
1702138079593806600,6.622806640625,-0.011895179748535156,-0.005491822957992554,0.031497761607170105
1702138079610806800,6.639806884765625,-0.0071086883544921875,-0.010243862867355347,0.025982022285461426
1702138079627794000,6.6567939453125,-0.012495040893554688,-0.010175853967666626,0.012125790119171143
1702138079644785700,6.67378564453125,-0.0029249191284179688,0.004189670085906982,-0.017089352011680603
1702138079661777400,6.69077734375,-0.01788330078125,0.004241347312927246,-0.02586265653371811
1702138079678770000,6.70777001953125,-0.013098716735839844,-0.005313307046890259,-0.03530817851424217
1702138079695758000,6.724758056640625,-0.0029306411743164062,-0.005295664072036743,-0.007136046886444092
1702138079712758000,6.741758056640625,-0.012503623962402344,-0.005242139101028442,0.01258017122745514
1702138079729747200,6.758747314453125,-0.0023355484008789062,-0.014728397130966187,0.026274003088474274
1702138079746733800,6.77573388671875,-0.007121086120605469,-0.009903371334075928,0.021962620317935944
1702138079763725800,6.792725830078125,-0.0077228546142578125,-0.005063772201538086,0.007726192474365234
1702138079780717300,6.80971728515625,-0.0077190399169921875,0.004362285137176514,-0.016104407608509064
1702138079797706500,6.82670654296875,-0.0083160400390625,-0.00048097968101501465,-0.02617863565683365
1702138079814702800,6.843702880859375,-0.008318901062011719,-0.0004131495952606201,-0.026117652654647827
1702138079831691800,6.86069189453125,-0.012507438659667969,-0.00517648458480835,-0.011149764060974121
1702138079848683000,6.87768310546875,-0.012507438659667969,-0.005203872919082642,0.012760572135448456
1702138079865675000,6.894675048828125,-0.0071239471435546875,-0.005085080862045288,0.031115449965000153
1702138079882655000,6.911655029296875,-0.01669597625732422,-0.00984734296798706,0.02626095712184906
1702138079899652000,6.928652099609375,-0.0077228546142578125,-0.00026807188987731934,-0.002451471984386444
1702138079916640500,6.945640625,-0.013106346130371094,-0.00030982494354248047,-0.021476246416568756
1702138079933638400,6.962638427734375,-0.01789093017578125,-0.005138665437698364,-0.03521544113755226
1702138079950634000,6.979634033203125,-0.013104438781738281,-0.0051832497119903564,-0.026187971234321594
1702138079967623400,6.99662353515625,-0.007721900939941406,-0.0004051029682159424,-0.006981745362281799
1702138079984615000,7.013614990234375,-0.01669788360595703,-0.0050859153270721436,0.022290267050266266
1702138080001606700,7.030606689453125,-0.0071258544921875,-0.009847879409790039,0.026449814438819885
1702138080018587000,7.0475869140625,-0.01190948486328125,-0.005090266466140747,0.02632785588502884
1702138080035582700,7.064582763671875,-0.012508392333984375,-0.00028067827224731445,-0.0024325773119926453
1702138080052578300,7.081578369140625,-0.008322715759277344,-0.0002735555171966553,-0.021411940455436707
1702138080069565700,7.098565673828125,-0.00832366943359375,-0.005051910877227783,-0.030871711671352386
1702138080086558700,7.115558837890625,-0.013111114501953125,-0.005044102668762207,-0.025385186076164246
1702138080103549400,7.132549560546875,-0.007725715637207031,-0.005087494850158691,0.007483534514904022
1702138080120535000,7.14953515625,-0.011912345886230469,-0.00025147199630737305,0.027064286172389984
1702138080137528600,7.166528564453125,-0.011915206909179688,-0.0049104392528533936,0.021548792719841003
1702138080154525000,7.18352490234375,-0.012516021728515625,-0.004849523305892944,0.007202476263046265
1702138080171516400,7.200516357421875,-0.017301559448242188,-0.0000578463077545166,-0.006593689322471619
1702138080188503600,7.217503662109375,-0.012516021728515625,-0.004830002784729004,-0.021518871188163757
1702138080205501200,7.234501220703125,-0.008328437805175781,-0.004874318838119507,-0.035748567432165146
1702138080222491400,7.251491455078125,-0.01251983642578125,-0.00958588719367981,-0.016515009105205536
1702138080239481000,7.268481201171875,-0.007735252380371094,0.00002065300941467285,0.0026450306177139282
1702138080256473900,7.285473876953125,-0.007134437561035156,-0.00003871321678161621,0.021741151809692383
1702138080273459500,7.30245947265625,-0.011919975280761719,-0.009594202041625977,0.026454530656337738
1702138080290459100,7.319459228515625,-0.0077342987060546875,-0.004734158515930176,0.01677188277244568
1702138080307445800,7.33644580078125,-0.01730632781982422,0.00005671381950378418,-0.006544582545757294
1702138080324442000,7.353442138671875,-0.013119697570800781,0.00011405348777770996,-0.03580120578408241
1702138080341426200,7.37042626953125,-0.017907142639160156,0.004897087812423706,-0.025469079613685608
1702138080358427100,7.38742724609375,-0.007739067077636719,-0.0046610236167907715,-0.016458578407764435
1702138080375416300,7.404416259765625,-0.012524604797363281,-0.004647046327590942,0.00736650824546814
1702138080392410400,7.421410400390625,-0.01192474365234375,0.00015944242477416992,0.022153198719024658
1702138080409401900,7.43840185546875,-0.00714111328125,-0.00933152437210083,0.02144845575094223
1702138080426393300,7.455393310546875,-0.007740020751953125,-0.004524052143096924,0.0022816434502601624
1702138080443384800,7.472384765625,-0.012526512145996094,0.0003033876419067383,-0.012042522430419922
1702138080460376300,7.489376220703125,-0.013125419616699219,-0.004484325647354126,-0.03587442263960838
1702138080477368000,7.5063681640625,-0.008341789245605469,0.00032210350036621094,-0.026253707706928253
1702138080494359000,7.523359130859375,-0.0029592514038085938,0.0003648698329925537,-0.0117860808968544
1702138080511350800,7.540350830078125,-0.012531280517578125,-0.004414796829223633,0.007355876266956329
1702138080528342300,7.55734228515625,-0.011929512023925781,-0.014058709144592285,0.026433579623699188
1702138080545331500,7.57433154296875,-0.007144927978515625,-0.004464328289031982,0.02162633091211319
1702138080562327300,7.591327392578125,-0.012526512145996094,-0.0045014917850494385,-0.0024143382906913757
1702138080579316500,7.60831640625,-0.013128280639648438,-0.004407018423080444,-0.021493345499038696
1702138080596308000,7.625307861328125,-0.017912864685058594,-0.0044453442096710205,-0.030362103134393692
1702138080613299500,7.642299560546875,-0.003559112548828125,0.0003903210163116455,-0.021350599825382233
1702138080630288100,7.6592880859375,-0.007747650146484375,0.0004112422466278076,-0.011729851365089417
1702138080647285000,7.676284912109375,-0.007746696472167969,-0.004402846097946167,0.012182101607322693
1702138080664274000,7.69327392578125,-0.00714874267578125,-0.004380464553833008,0.026469185948371887
1702138080681265700,7.710265625,-0.01672077178955078,-0.009142011404037476,0.02230945974588394
1702138080698247700,7.72724755859375,-0.01253509521484375,0.0004710853099822998,0.0032187998294830322
1702138080715248400,7.744248291015625,-0.022703170776367188,0.005209833383560181,-0.020648904144763947
1702138080732239600,7.761239501953125,-0.0083465576171875,0.00042128562927246094,-0.021151751279830933
1702138080749231600,7.778231689453125,-0.008348464965820312,-0.004351168870925903,-0.021114155650138855
1702138080766225400,7.795225341796875,-0.017319679260253906,0.00038877129554748535,-0.0013488680124282837
1702138080783214000,7.812214111328125,-0.007750511169433594,0.00522226095199585,0.01717548817396164
1702138080800205600,7.82920556640625,-0.011937141418457031,-0.004333615303039551,0.031505897641181946
1702138080817179400,7.846179443359375,-0.011937141418457031,-0.009090334177017212,0.017040133476257324
1702138080834188300,7.863188232421875,-0.002964019775390625,0.0004660487174987793,-0.0020094290375709534
1702138080851180000,7.880179931640625,-0.0035638809204101562,0.0004710555076599121,-0.02114158868789673
1702138080868169000,7.8971689453125,-0.008349418640136719,-0.004301726818084717,-0.025930210947990417
1702138080885165600,7.91416552734375,-0.007752418518066406,-0.004280984401702881,-0.016319483518600464
1702138080902154200,7.931154296875,-0.012537002563476562,0.0004933476448059082,0.0028395801782608032
1702138080919146000,7.94814599609375,-0.00775146484375,0.0004986822605133057,0.01716642826795578
1702138080936135000,7.965135009765625,-0.007152557373046875,-0.009058058261871338,0.017057470977306366
1702138080953131800,7.9821318359375,-0.007748603820800781,-0.004307836294174194,0.012108512222766876
1702138080970120000,7.999119873046875,-0.017319679260253906,-0.00435754656791687,-0.0063614621758461
1702138080987110700,8.016110595703125,-0.013131141662597656,-0.004402130842208862,-0.026020273566246033
1702138081004115700,8.03311572265625,-0.0035619735717773438,0.005204051733016968,-0.030741475522518158
1702138081021093000,8.050093017578124,-0.013134002685546875,0.005174010992050171,-0.0203959122300148
1702138081038077400,8.067077392578126,-0.0029630661010742188,-0.004404693841934204,0.007745206356048584
1702138081055077600,8.08407763671875,-0.011935234069824219,-0.00445517897605896,0.017918966710567474
1702138081072066800,8.10106689453125,-0.002361297607421875,-0.009274214506149292,0.021985426545143127
1702138081089064000,8.11806396484375,-0.007747650146484375,-0.004420191049575806,0.012368105351924896
1702138081106042000,8.1350419921875,-0.007748603820800781,0.0003663599491119385,-0.01147201657295227
1702138081123043600,8.152043701171875,-0.013132095336914062,0.005119413137435913,-0.02510906010866165
1702138081140034800,8.169034912109375,-0.013134956359863281,-0.004356741905212402,-0.025660023093223572
1702138081157026600,8.186026611328124,-0.0077533721923828125,0.005249768495559692,-0.011241547763347626
1702138081174017800,8.203017822265625,-0.007754325866699219,0.00046443939208984375,0.003162562847137451
1702138081191009300,8.22000927734375,-0.01194000244140625,-0.004312872886657715,0.022190332412719727
1702138081207990000,8.236989990234376,-0.0071544647216796875,-0.009075522422790527,0.02684827893972397
1702138081224992500,8.253992431640626,-0.017324447631835938,-0.004295527935028076,0.003005295991897583
1702138081241984500,8.270984619140625,-0.00775146484375,0.0004372596740722656,-0.01131361722946167
1702138081258975200,8.287975341796875,-0.013134956359863281,-0.004400402307510376,-0.02557118982076645
1702138081275966500,8.304966552734374,-0.022706985473632812,-0.004394948482513428,-0.024919256567955017
1702138081292956400,8.321956298828125,-0.01732349395751953,0.00039580464363098145,-0.005779847502708435
1702138081309951700,8.33895166015625,-0.012538909912109375,0.0004379153251647949,0.017530806362628937
1702138081326941200,8.355941162109374,-0.011940956115722656,-0.004289954900741577,0.022193290293216705
1702138081343932700,8.3729326171875,-0.012538909912109375,-0.004274815320968628,0.017247602343559265
1702138081360924400,8.38992431640625,-0.01732349395751953,0.0005162954330444336,0.008195742964744568
1702138081377904600,8.406904541015624,-0.00775146484375,0.00046455860137939453,-0.016283176839351654
1702138081394907000,8.423906982421874,-0.013134002685546875,0.00040525197982788086,-0.025764092803001404
1702138081411898000,8.440898193359375,-0.013133049011230469,0.00035250186920166016,-0.02565053105354309
1702138081428887600,8.457887451171874,-0.012536048889160156,0.005114346742630005,-0.005810357630252838
1702138081445884000,8.4748837890625,-0.002964019775390625,-0.004447728395462036,0.012765906751155853
1702138081462872800,8.491872802734376,-0.011938095092773438,-0.0043971240520477295,0.022284410893917084
1702138081479865600,8.508865478515625,-0.012537002563476562,0.00038880109786987305,0.01265890896320343
1702138081496855000,8.52585498046875,-0.01732349395751953,0.00043952465057373047,-0.0017611309885978699
1702138081513844700,8.5428447265625,-0.008351325988769531,0.005218058824539185,-0.01601727306842804
1702138081530840600,8.559840576171876,-0.008352279663085938,-0.00435987114906311,-0.02543950080871582
1702138081547830000,8.576830078125,-0.0131378173828125,-0.004401832818984985,-0.020459823310375214
1702138081564822000,8.593822021484375,-0.0029697418212890625,0.00045374035835266113,0.00344114750623703
1702138081581813000,8.61081298828125,-0.007755279541015625,-0.0043680667877197266,0.008214756846427917
1702138081598804500,8.627804443359375,-0.011937141418457031,-0.004463315010070801,0.022448331117630005
1702138081615796000,8.6447958984375,-0.01253509521484375,-0.004497736692428589,0.01283358782529831
1702138081632787700,8.66178759765625,-0.012536048889160156,0.00030922889709472656,-0.0015263557434082031
1702138081649778400,8.6787783203125,-0.008348464965820312,0.000303804874420166,-0.020597651600837708
1702138081666773200,8.695773193359376,-0.008348464965820312,0.005068331956863403,-0.025387436151504517
1702138081683758800,8.7127587890625,-0.008349418640136719,0.000314563512802124,-0.015786021947860718
1702138081700743000,8.729742919921875,-0.002964019775390625,-0.00448337197303772,-0.001456335186958313
1702138081717744400,8.746744384765625,-0.007750511169433594,-0.004432201385498047,0.012762114405632019
1702138081734736100,8.763736083984375,-0.007151603698730469,-0.004416823387145996,0.022216424345970154
1702138081751717400,8.78071728515625,-0.007750511169433594,-0.009178698062896729,0.01739075779914856
1702138081768719600,8.7977197265625,-0.00775146484375,0.00038483738899230957,0.003081023693084717
1702138081785710300,8.81471044921875,-0.00775146484375,0.005163133144378662,-0.010574281215667725
1702138081802701800,8.831701904296875,-0.008349418640136719,0.0003266334533691406,-0.020612306892871857
1702138081819693600,8.848693603515626,-0.012537002563476562,0.0003102123737335205,-0.015156522393226624
1702138081836685000,8.86568505859375,-0.01732158660888672,0.0003078877925872803,0.003895595669746399
1702138081853675500,8.882675537109375,-0.012536048889160156,-0.004469633102416992,0.012779921293258667
1702138081870669600,8.899669677734375,-0.011937141418457031,-0.009235918521881104,0.022332139313220978
1702138081887649000,8.91664892578125,-0.0077533721923828125,-0.009117305278778076,0.007936358451843262
1702138081904651000,8.933651123046875,-0.012540817260742188,0.000505596399307251,-0.0016340017318725586
1702138081921642000,8.95064208984375,-0.01792430877685547,0.0004817545413970947,-0.025482013821601868
1702138081938623200,8.967623291015625,-0.008353233337402344,-0.004324823617935181,-0.020614683628082275
1702138081955616000,8.984615966796875,-0.007756233215332031,-0.004344373941421509,-0.006148971617221832
1702138081972619800,9.001619873046875,-0.00775909423828125,0.0005283355712890625,0.0034258663654327393
1702138081989608200,9.018608154296874,-0.007760047912597656,-0.009017080068588257,0.013058483600616455
1702138082006599700,9.035599609375,-0.0023756027221679688,-0.008992373943328857,0.022568270564079285
1702138082023591200,9.052591064453125,-0.007758140563964844,0.0005275905132293701,0.008184067904949188
1702138082040583000,9.0695830078125,-0.02211284637451172,0.000474393367767334,-0.010385356843471527
1702138082057574100,9.08657421875,-0.01792621612548828,0.00047460198402404785,-0.01983722299337387
1702138082074564900,9.10356494140625,-0.008357048034667969,-0.009079843759536743,-0.025131642818450928
1702138082091557000,9.12055712890625,-0.0029726028442382812,-0.004300445318222046,-0.010668404400348663
1702138082108548900,9.137548828125,-0.01732921600341797,-0.004336714744567871,0.009066790342330933
1702138082125539800,9.154539794921876,-0.016729354858398438,-0.013936072587966919,0.022718988358974457
1702138082142531300,9.17153125,-0.01194000244140625,-0.004442393779754639,0.022660493850708008
1702138082159522800,9.188522705078125,-0.017324447631835938,-0.004427164793014526,0.008818656206130981
1702138082176514600,9.2055146484375,-0.017325401306152344,0.0003651082515716553,-0.01566213369369507
1702138082193505300,9.22250537109375,-0.0131378173828125,0.000363081693649292,-0.025194816291332245
1702138082210497300,9.239497314453125,-0.008353233337402344,-0.004405409097671509,-0.025088272988796234
1702138082227488800,9.25648876953125,-0.007755279541015625,0.00036332011222839355,-0.005992233753204346
1702138082244480300,9.273480224609376,-0.00296783447265625,0.0003540515899658203,0.0035208240151405334
1702138082261471200,9.29047119140625,-0.017325401306152344,-0.0044245123863220215,0.013101927936077118
1702138082278452500,9.307452392578124,-0.0029668807983398438,-0.004409223794937134,0.01778177171945572
1702138082295440100,9.324440185546875,-0.0029687881469726562,0.005197256803512573,0.008239395916461945
1702138082312446000,9.341446044921875,-0.017925262451171875,-0.004367619752883911,-0.02042047679424286
1702138082329437200,9.358437255859375,-0.013142585754394531,0.00046247243881225586,-0.02501460164785385
1702138082346429000,9.375428955078124,-0.012542724609375,0.00040969252586364746,-0.010663501918315887
1702138082363420400,9.39242041015625,-0.017327308654785156,0.005186498165130615,0.0036549344658851624
1702138082380404000,9.409404052734375,-0.012541770935058594,0.0004080533981323242,0.01320146769285202
1702138082397403000,9.42640283203125,-0.01673126220703125,-0.009095937013626099,0.017872191965579987
1702138082414394600,9.44339453125,-0.017327308654785156,0.00048089027404785156,0.017763152718544006
1702138082431386400,9.460386474609376,-0.012540817260742188,-0.004340469837188721,-0.0014355704188346863
1702138082448377900,9.4773779296875,-0.012541770935058594,0.0004869997501373291,-0.01578707993030548
1702138082465368800,9.494368896484374,-0.008355140686035156,0.00047200918197631836,-0.020439885556697845
1702138082482360800,9.51136083984375,-0.007758140563964844,-0.004287034273147583,-0.010865196585655212
1702138082499352000,9.52835205078125,-0.002971649169921875,-0.004280418157577515,-0.001266486942768097
1702138082516344800,9.5453447265625,-0.00775909423828125,-0.009043514728546143,0.013068050146102905
1702138082533333800,9.562333740234376,-0.0077610015869140625,-0.00419926643371582,0.013026326894760132
1702138082550324200,9.57932421875,-0.0077610015869140625,0.0006010830402374268,0.008266046643257141
1702138082567320300,9.5963203125,-0.0077610015869140625,0.0006140470504760742,-0.006177082657814026
1702138082584296400,9.61329638671875,-0.01314544677734375,0.005396842956542969,-0.0156373530626297
1702138082601292800,9.630292724609374,-0.01314544677734375,0.005378127098083496,-0.0251268669962883
1702138082618284000,9.647283935546875,-0.003574371337890625,0.0005883574485778809,-0.015597790479660034
1702138082635281200,9.66428125,-0.0029754638671875,-0.008953124284744263,-0.0013238340616226196
1702138082652278000,9.681278076171875,-0.0029773712158203125,0.0007187724113464355,0.012901216745376587
1702138082669266400,9.698266357421875,-0.012549400329589844,-0.004044234752655029,0.008092232048511505
1702138082686258000,9.7152578125,-0.007765769958496094,0.0055703818798065186,0.00806252658367157
1702138082703249400,9.73224951171875,-0.012551307678222656,0.0007879734039306641,-0.006279267370700836
1702138082720249000,9.7492490234375,-0.0077686309814453125,-0.003932952880859375,-0.015798181295394897
1702138082737221400,9.766221435546875,-0.013153076171875,-0.003884822130203247,-0.020562060177326202
1702138082754224000,9.78322412109375,-0.012555122375488281,0.0008456110954284668,-0.010876454412937164
1702138082771215400,9.80021533203125,-0.0077667236328125,0.0007975101470947266,0.008217014372348785
1702138082788206800,9.817206787109376,-0.0029821395874023438,-0.003913521766662598,0.012898042798042297
1702138082805198000,9.834197998046875,-0.0029783248901367188,0.0008004307746887207,0.01273559033870697
1702138082822177800,9.851177734375,-0.017337799072265625,-0.003922551870346069,0.0133390873670578
1702138082839183000,9.86818310546875,-0.0077667236328125,-0.003911614418029785,-0.01599661260843277
1702138082856170200,9.885170166015625,-0.0035800933837890625,-0.0039059221744537354,-0.02554865926504135
1702138082873166300,9.902166259765625,-0.008366584777832031,-0.003900885581970215,-0.025419235229492188
1702138082890155500,9.919155517578124,0.001804351806640625,0.000872492790222168,-0.0015121176838874817
1702138082907144400,9.93614453125,-0.0077667236328125,0.0008184313774108887,0.0033759772777557373
1702138082924137500,9.953137451171875,-0.012555122375488281,-0.008643895387649536,0.012803539633750916
1702138082941133600,9.970133544921875,-0.02212810516357422,-0.00857853889465332,0.00798635184764862
1702138082958112500,9.987112548828126,-0.007769584655761719,-0.0038234293460845947,0.003125213086605072
1702138082975102500,10.0041025390625,-0.012555122375488281,0.0009658336639404297,-0.006420515477657318
1702138082992096800,10.0210966796875,-0.008368492126464844,-0.003821760416030884,-0.0254727303981781
1702138083009094000,10.038093994140626,-0.0035829544067382812,0.0009473562240600586,-0.01582852005958557
1702138083026077400,10.055077392578125,-0.007770538330078125,0.000946044921875,-0.00627310574054718
1702138083043081500,10.07208154296875,-0.012556076049804688,-0.0038334131240844727,0.00806216150522232
1702138083060070400,10.0890703125,-0.007171630859375,-0.0038246512413024902,0.022413931787014008
1702138083077061000,10.10606103515625,-0.0077686309814453125,-0.0038618743419647217,0.012792028486728668
1702138083094051800,10.1230517578125,-0.012554168701171875,0.005698591470718384,-0.0015692561864852905
1702138083111045400,10.14004541015625,-0.007769584655761719,-0.0038599371910095215,-0.015879027545452118
1702138083128036000,10.1570361328125,-0.008367538452148438,0.005698353052139282,-0.025362037122249603
1702138083145027300,10.17402734375,-0.007767677307128906,-0.003978848457336426,-0.015676163136959076
1702138083162018800,10.191018798828125,-0.0077686309814453125,0.0007884800434112549,-0.0012406930327415466
1702138083179010300,10.20801025390625,-0.012551307678222656,-0.004034668207168579,0.003387041389942169
1702138083196002300,10.225002197265624,-0.011949539184570312,-0.008892238140106201,0.02247662842273712
1702138083212981800,10.241981689453125,-0.012547492980957031,-0.004077613353729248,0.012805052101612091
1702138083229987300,10.2589873046875,-0.0029754638671875,-0.0041069090366363525,0.0032667741179466248
1702138083246976300,10.275976318359374,-0.013142585754394531,0.0005815625190734863,-0.020671792328357697
1702138083263968000,10.292968017578126,-0.008358001708984375,0.0006065666675567627,-0.02059318870306015
1702138083280958700,10.309958740234375,-0.0029754638671875,-0.004113882780075073,-0.01101706176996231
1702138083297938400,10.3269384765625,0.0018091201782226562,-0.008885085582733154,0.008138120174407959
1702138083314942000,10.34394189453125,-0.007763862609863281,-0.004069924354553223,0.012838847935199738
1702138083331931400,10.360931396484375,-0.007762908935546875,0.0007146298885345459,0.01761770248413086
1702138083348924000,10.377923828125,-0.012551307678222656,-0.004003345966339111,0.012841060757637024
1702138083365910000,10.394909912109375,-0.01733684539794922,-0.008773624897003174,-0.006248302757740021
1702138083382896600,10.411896728515625,-0.017337799072265625,0.005570888519287109,-0.015110768377780914
1702138083399889000,10.428888916015625,-0.0029802322387695312,0.000782012939453125,-0.015646763145923615
1702138083416881200,10.445881103515624,-0.017337799072265625,0.0007842779159545898,-0.010253146290779114
1702138083433871600,10.46287158203125,-0.01733684539794922,0.0007361173629760742,0.008847460150718689
1702138083450865400,10.479865478515626,-0.017335891723632812,0.0006770193576812744,0.00892569124698639
1702138083467859000,10.49685888671875,-0.012549400329589844,0.0006752312183380127,0.013125710189342499
1702138083484849700,10.513849609375,-0.012552261352539062,-0.004043310880661011,0.003581002354621887
1702138083501845800,10.530845703125,-0.012552261352539062,-0.004030585289001465,-0.00125054270029068
1702138083518833700,10.547833740234376,-0.017340660095214844,-0.0039310455322265625,-0.015594586730003357
1702138083535820500,10.564820556640624,-0.01793956756591797,0.000858992338180542,-0.020302988588809967
1702138083552809500,10.5818095703125,-0.012557029724121094,-0.0039345622062683105,-0.005850702524185181
1702138083569812200,10.598812255859375,-0.012556076049804688,0.0008256435394287109,0.008540786802768707
1702138083586798600,10.615798583984375,-0.007771492004394531,0.005629867315292358,0.013294331729412079
1702138083603788500,10.63278857421875,-0.0077724456787109375,0.0008870363235473633,0.00847521424293518
1702138083620778500,10.649778564453126,-0.007770538330078125,0.00560992956161499,0.0037140175700187683
1702138083637766400,10.666766357421874,0.0018024444580078125,0.0056136250495910645,-0.001114383339881897
1702138083654766600,10.6837666015625,-0.012556076049804688,0.0008312761783599854,-0.015430361032485962
1702138083671752200,10.700752197265626,-0.017342567443847656,-0.0039418041706085205,-0.015418536961078644
1702138083688749300,10.717749267578125,-0.0029850006103515625,0.0008434057235717773,-0.005804762244224548
1702138083705748000,10.734748046875,-0.017342567443847656,0.0008200705051422119,0.008639134466648102
1702138083722736600,10.751736572265624,-0.0029850006103515625,0.0008434653282165527,0.0181557759642601
1702138083739728600,10.768728759765626,-0.012557029724121094,-0.00393262505531311,0.013267815113067627
1702138083756719400,10.78571923828125,-0.0029850006103515625,0.0008919239044189453,0.0036295726895332336
1702138083773709600,10.80270947265625,-0.01734447479248047,-0.003874152898788452,-0.015453100204467773
1702138083790703900,10.819703857421874,-0.012556076049804688,0.0008231997489929199,-0.015393361449241638
1702138083807694000,10.836694091796875,-0.013153076171875,0.0007593631744384766,-0.02009904384613037
1702138083824685300,10.853685302734375,-0.012555122375488281,0.005540519952774048,-0.0051007866859436035
1702138083841677000,10.870677001953124,-0.017340660095214844,-0.004019558429718018,0.009184122085571289
1702138083858668500,10.88766845703125,-0.017337799072265625,-0.004065901041030884,0.013891197741031647
1702138083875660000,10.904659912109375,-0.01255035400390625,-0.004102557897567749,0.0083722323179245
1702138083892651000,10.921651123046875,-0.0029773712158203125,0.000644683837890625,0.0035705789923667908
1702138083909642800,10.938642822265624,-0.0077648162841796875,-0.0041332244873046875,-0.01548343151807785
1702138083926634200,10.95563427734375,-0.012552261352539062,-0.004059255123138428,-0.015474177896976471
1702138083943626000,10.9726259765625,-0.007767677307128906,-0.008831262588500977,-0.010627016425132751
1702138083960614100,10.9896142578125,-0.012551307678222656,0.005462527275085449,-0.0052508339285850525
1702138083977611300,11.006611328125,-0.017337799072265625,-0.004087626934051514,0.009085133671760559
1702138083994599700,11.023599609375,-0.012552261352539062,-0.004059046506881714,0.013179004192352295
1702138084011581200,11.040581298828124,-0.01255035400390625,-0.0040968358516693115,0.008352205157279968
1702138084028583400,11.05758349609375,-0.012551307678222656,-0.004085063934326172,-0.0011627525091171265
1702138084045573600,11.07457373046875,0.0018053054809570312,-0.004078119993209839,-0.015473783016204834
1702138084062565000,11.091565185546875,-0.012552261352539062,0.0007047653198242188,-0.010624192655086517
1702138084079558400,11.108558349609375,-0.012554168701171875,-0.0040603578090667725,-0.01533597707748413
1702138084096548600,11.125548583984376,-0.012554168701171875,0.0007560253143310547,0.008545853197574615
1702138084113540400,11.142540283203125,-0.017339706420898438,0.0007704794406890869,0.008531250059604645
1702138084130531300,11.15953125,-0.007769584655761719,0.0007840394973754883,0.013288207352161407
1702138084147512800,11.176512939453126,-0.012555122375488281,0.005566656589508057,0.008530400693416595
1702138084164503600,11.193503662109375,-0.007770538330078125,0.0008382201194763184,-0.0011428073048591614
1702138084181505800,11.210505859375,-0.012556076049804688,0.0008289515972137451,-0.015444338321685791
1702138084198497500,11.22749755859375,-0.01734447479248047,0.005691409111022949,-0.015322402119636536
1702138084215491800,11.244491943359375,-0.012558937072753906,0.0008936524391174316,-0.015369512140750885
1702138084232477200,11.261477294921875,-0.017343521118164062,-0.0039081871509552,-0.001033097505569458
1702138084249455600,11.27845556640625,-0.0029850006103515625,-0.003934651613235474,0.008530780673027039
1702138084266463000,11.295462890625,-0.017342567443847656,-0.003935486078262329,0.008507512509822845
1702138084283455000,11.312455078125,-0.002986907958984375,-0.0038825273513793945,0.00847625732421875
1702138084300446000,11.329446044921875,-0.017343521118164062,-0.00388142466545105,-0.010686308145523071
1702138084317437700,11.346437744140625,-0.012559890747070312,0.005773633718490601,-0.010744042694568634
1702138084334429000,11.363428955078126,-0.013154983520507812,0.005643665790557861,-0.01550457626581192
1702138084351420000,11.380419921875,-0.007770538330078125,0.0008484125137329102,-0.015480928122997284
1702138084368412400,11.397412353515625,-0.012555122375488281,0.0008006095886230469,0.003664448857307434
1702138084385401000,11.414401123046876,-0.017342567443847656,-0.003910630941390991,0.008467890322208405
1702138084402397000,11.43139697265625,-0.02691364288330078,-0.003895968198776245,0.004257731139659882
1702138084419378200,11.448378173828125,-0.012554168701171875,-0.003968030214309692,0.0035857856273651123
1702138084436377600,11.465377685546875,-0.0029821395874023438,0.0007792115211486816,-0.0059645771980285645
1702138084453366500,11.482366455078125,-0.012557029724121094,0.0008714795112609863,-0.01553083211183548
1702138084470363400,11.49936328125,-0.013156890869140625,0.0009048879146575928,-0.0202387273311615
1702138084487349800,11.516349853515624,-0.017345428466796875,-0.003868192434310913,-0.010568670928478241
1702138084504345900,11.533345947265625,-0.00777435302734375,-0.008681893348693848,-0.0008837953209877014
1702138084521334800,11.550334716796876,-0.0029878616333007812,0.0008887052536010742,0.013441421091556549
1702138084538316000,11.56731591796875,-0.007773399353027344,0.0008721351623535156,0.013403601944446564
1702138084555318300,11.584318359375,-0.012558937072753906,-0.0039055943489074707,0.0038177073001861572
1702138084572309200,11.601309326171876,-0.01734447479248047,-0.003893822431564331,-0.005784571170806885
1702138084589300700,11.61830078125,-0.013156890869140625,0.0008955895900726318,-0.02012001723051071
1702138084606292500,11.63529248046875,-0.017345428466796875,0.005677580833435059,-0.01527097076177597
1702138084623273200,11.652273193359376,-0.00777435302734375,0.0056653618812561035,-0.005660884082317352
1702138084640275000,11.66927490234375,-0.007773399353027344,-0.003922134637832642,0.008640490472316742
1702138084657256200,11.686256103515625,-0.007769584655761719,-0.004015117883682251,0.008559159934520721
1702138084674258200,11.703258056640625,-0.012554168701171875,-0.0040139853954315186,0.00842856615781784
1702138084691245000,11.7202451171875,-0.012555122375488281,0.0008149147033691406,-0.0011871084570884705
1702138084708245200,11.737245361328124,-0.008367538452148438,0.005589485168457031,-0.015498600900173187
1702138084725232400,11.754232421875,-0.007769584655761719,-0.0039913952350616455,-0.01539941132068634
1702138084742224000,11.771223876953124,-0.017342567443847656,-0.003934323787689209,-0.01061338186264038
1702138084759215600,11.788215576171876,-0.007769584655761719,-0.00397142767906189,-0.005836017429828644
1702138084776206600,11.80520654296875,-0.012553215026855469,0.0007244646549224854,0.008507855236530304
1702138084793198000,11.822197998046875,-0.012555122375488281,-0.013556748628616333,0.013314008712768555
1702138084810189300,11.839189208984376,-0.017340660095214844,0.00558018684387207,0.013870403170585632
1702138084827186200,11.856186279296875,-0.007769584655761719,-0.008755594491958618,-0.00108327716588974
1702138084844164000,11.8731640625,-0.00298309326171875,-0.003999471664428711,-0.010607942938804626
1702138084861164000,11.8901640625,-0.007769584655761719,0.0007897615432739258,-0.01532985270023346
1702138084878169300,11.90716943359375,-0.012557029724121094,-0.003983974456787109,-0.00571054220199585
1702138084895147000,11.92414697265625,-0.012557029724121094,0.0008139312267303467,0.0038212165236473083
1702138084912127200,11.941127197265626,-0.012557029724121094,0.0008503198623657227,0.013312645256519318
1702138084929129700,11.958129638671876,-0.012554168701171875,0.0007831454277038574,0.013231255114078522
1702138084946121200,11.975121337890625,-0.012554168701171875,0.0007824599742889404,0.003646053373813629
1702138084963113000,11.992113037109375,-0.012555122375488281,-0.003997355699539185,-0.010579288005828857
1702138084980103700,12.009103759765624,-0.012553215026855469,-0.008855342864990234,-0.010582394897937775
1702138084997091600,12.026091552734375,-0.0077686309814453125,-0.004056811332702637,-0.015363834798336029
1702138085014077400,12.043077392578125,-0.0077686309814453125,0.0007333755493164062,-0.0009761378169059753
1702138085031078400,12.060078369140625,-0.0029821395874023438,-0.004055321216583252,-0.00101412832736969
1702138085048069400,12.0770693359375,-0.012553215026855469,0.0007275938987731934,0.01336032897233963
1702138085065061400,12.094061279296875,-0.012552261352539062,-0.004107266664505005,0.013329707086086273
1702138085082052900,12.111052978515625,-0.0077667236328125,-0.008882343769073486,0.0037456750869750977
1702138085099044400,12.12804443359375,-0.007769584655761719,-0.003986924886703491,-0.005855441093444824
1702138085116035300,12.145035400390626,-0.0077686309814453125,-0.004036128520965576,-0.015378452837467194
1702138085133024500,12.1620244140625,-0.0077686309814453125,-0.008862584829330444,-0.01054314523935318
1702138085150020900,12.179020751953125,-0.012554168701171875,-0.004064738750457764,-0.015261873602867126
1702138085167010000,12.196010009765626,-0.0077667236328125,0.0006766617298126221,0.003821752965450287
1702138085184000800,12.213000732421875,-0.012554168701171875,-0.004041433334350586,0.013360731303691864
1702138085200992800,12.22999267578125,-0.007770538330078125,-0.008752524852752686,0.00849924236536026
1702138085217981700,12.246981689453126,-0.017342567443847656,-0.00869840383529663,0.0037026554346084595
1702138085234976300,12.263976318359376,-0.002986907958984375,-0.003897726535797119,-0.010626614093780518
1702138085251965400,12.28096533203125,-0.012559890747070312,0.005714237689971924,-0.010518848896026611
1702138085268960000,12.2979599609375,-0.0077724456787109375,0.0008294880390167236,-0.010453842580318451
1702138085285950000,12.314949951171876,-0.012559890747070312,0.00088539719581604,-0.0009015947580337524
1702138085302941700,12.331941650390625,-0.00777435302734375,-0.0038856565952301025,-0.0009431242942810059
1702138085319933200,12.34893310546875,-0.00777435302734375,0.000883638858795166,0.008657045662403107
1702138085336906000,12.365906005859374,-0.00777435302734375,-0.003843069076538086,0.008582718670368195
1702138085353916700,12.382916748046876,-0.0029888153076171875,-0.003835737705230713,0.0037927553057670593
1702138085370906600,12.39990673828125,-0.017342567443847656,0.0008516013622283936,-0.005800560116767883
1702138085387898400,12.4168984375,-0.0077724456787109375,-0.00393250584602356,-0.01535702496767044
1702138085404890400,12.433890380859374,-0.0035867691040039062,-0.003888249397277832,-0.01534360647201538
1702138085421881600,12.450881591796875,-0.012559890747070312,-0.0038894712924957275,-0.00568360835313797
1702138085438873300,12.467873291015625,-0.012557029724121094,-0.008762598037719727,0.008668273687362671
1702138085455864000,12.484864013671874,-0.0077724456787109375,-0.003953397274017334,0.008687019348144531
1702138085472852500,12.5018525390625,-0.0125579833984375,0.0008289217948913574,0.0038966387510299683
1702138085489850600,12.5188505859375,-0.007773399353027344,-0.003900885581970215,0.003842778503894806
1702138085506838800,12.5358388671875,-0.012558937072753906,-0.003906607627868652,-0.010518968105316162
1702138085523830000,12.552830078125,-0.012560844421386719,-0.003856569528579712,-0.015249453485012054
1702138085540821500,12.569821533203125,0.0011968612670898438,0.0009680092334747314,-0.015245288610458374
1702138085557808400,12.586808349609376,-0.007777214050292969,0.0009650886058807373,-0.0008770003914833069
1702138085574798800,12.603798828125,-0.00299072265625,-0.00858372449874878,0.00868246704339981
1702138085591795500,12.62079541015625,-0.012562751770019531,-0.0037756264209747314,0.008651815354824066
1702138085608787500,12.637787353515625,-0.012563705444335938,-0.0037688016891479492,0.003903523087501526
1702138085625779000,12.654779052734375,-0.012561798095703125,0.0009769201278686523,0.0038405954837799072
1702138085642770700,12.671770751953124,-0.013157844543457031,0.0009286701679229736,-0.015296176075935364
1702138085659761400,12.688761474609375,-0.008373260498046875,0.0009191632270812988,-0.020059868693351746
1702138085676753200,12.705753173828125,-0.012561798095703125,0.0009249746799468994,-0.010375246405601501
1702138085693741600,12.722741455078125,-0.00777435302734375,-0.008696407079696655,-0.005558215081691742
1702138085710739500,12.739739501953125,-0.012559890747070312,0.0008826553821563721,0.0039554163813591
1702138085727727400,12.756727294921875,-0.012560844421386719,-0.008667826652526855,0.013554088771343231
1702138085744719000,12.773718994140625,-0.012560844421386719,-0.0038566887378692627,0.013478048145771027
1702138085761710300,12.79071044921875,-0.007777214050292969,-0.0037864744663238525,-0.0009123086929321289
1702138085778691800,12.80769189453125,-0.007777214050292969,-0.003767639398574829,-0.010478772222995758
1702138085795693000,12.824693115234375,0.0011930465698242188,0.0010728836059570312,-0.015245206654071808
1702138085812686000,12.84168603515625,-0.012564659118652344,-0.0037582814693450928,-0.005567461252212524
1702138085829674500,12.858674560546875,-0.012564659118652344,-0.0037615597248077393,0.003971487283706665
1702138085846668000,12.87566796875,-0.007779121398925781,0.0010210871696472168,0.008802227675914764
1702138085863658800,12.89265869140625,-0.0029916763305664062,-0.0037986040115356445,0.0040087029337882996
1702138085880654300,12.909654296875,-0.017348289489746094,0.000955730676651001,0.004603572189807892
1702138085897640700,12.926640625,-0.012564659118652344,0.0009659826755523682,-0.0006703510880470276
1702138085914636000,12.943635986328125,-0.012564659118652344,0.0009672939777374268,-0.015019230544567108
1702138085931612700,12.96061279296875,-0.017348289489746094,0.00572475790977478,-0.00544111430644989
1702138085948618500,12.977618408203124,-0.017348289489746094,0.0008904635906219482,-0.005340449512004852
1702138085965607400,12.994607421875,-0.0077762603759765625,-0.003933608531951904,-0.0005370825529098511
1702138085982599400,13.011599365234375,-0.012560844421386719,0.0008540451526641846,0.008964277803897858
1702138085999579100,13.0285791015625,-0.007777214050292969,-0.0038693249225616455,0.008933797478675842
1702138086016573700,13.04557373046875,-0.0173492431640625,-0.003859221935272217,0.004189126193523407
1702138086033576000,13.062575927734375,-0.007779121398925781,-0.003823608160018921,-0.005358703434467316
1702138086050564900,13.07956494140625,-0.008378028869628906,0.005738347768783569,-0.01487867534160614
1702138086067555800,13.096555908203126,-0.007777214050292969,-0.003908663988113403,-0.010133281350135803
1702138086084547600,13.113547607421875,-0.007779121398925781,0.0009210109710693359,-0.014867641031742096
1702138086101538300,13.130538330078124,-0.0077800750732421875,-0.00382426381111145,0.009110063314437866
1702138086118532000,13.147531982421874,-0.0029926300048828125,-0.003849625587463379,0.009050078690052032
1702138086135521800,13.164521728515625,-0.007777214050292969,0.0008879899978637695,0.013765901327133179
1702138086152527400,13.18152734375,-0.017347335815429688,0.0008699595928192139,-0.0005714595317840576
1702138086169504000,13.19850390625,-0.0029897689819335938,-0.008692234754562378,-0.005379699170589447
1702138086186497800,13.215497802734374,-0.007777214050292969,-0.003951936960220337,-0.01479051262140274
1702138086203487700,13.23248779296875,-0.008374214172363281,0.005606591701507568,-0.014739960432052612
1702138086220479200,13.249479248046875,-0.0029897689819335938,-0.008771568536758423,-0.005126945674419403
1702138086237470700,13.266470703125,-0.0077762603759765625,-0.003986179828643799,-0.00031400471925735474
1702138086254462500,13.28346240234375,-0.01735210418701172,-0.00383603572845459,0.014032132923603058
1702138086271453200,13.300453125,-0.01735210418701172,-0.0038368403911590576,0.009230054914951324
1702138086288445000,13.31744482421875,-0.012566566467285156,0.005714505910873413,-0.00028380751609802246
1702138086305425400,13.33442529296875,-0.012564659118652344,0.0008727908134460449,-0.00981207937002182
1702138086322421000,13.3514208984375,-0.007781982421875,-0.003863811492919922,-0.009709089994430542
1702138086339410200,13.36841015625,-0.0029964447021484375,-0.003843963146209717,-0.009666405618190765
1702138086356400400,13.385400390625,-0.022142410278320312,-0.008543401956558228,-0.004889480769634247
1702138086373394200,13.402394287109376,-0.007785797119140625,-0.0037316083908081055,0.004617802798748016
1702138086390393900,13.419393798828125,-0.017358779907226562,0.0011668801307678223,0.004507824778556824
1702138086407384800,13.436384765625,-0.012575149536132812,-0.0036005377769470215,0.004598543047904968
1702138086424376600,13.45337646484375,-0.0077915191650390625,0.001231461763381958,-0.0001229420304298401
1702138086441368000,13.4703681640625,-0.012579917907714844,0.00606769323348999,-0.009653434157371521
1702138086458359800,13.48735986328125,-0.017366409301757812,-0.003494441509246826,-0.014338880777359009
1702138086475350800,13.504350830078126,-0.01258087158203125,-0.0034926533699035645,-0.014218203723430634
1702138086492342000,13.521342041015625,-0.01736736297607422,0.001292407512664795,0.00015551596879959106
1702138086509333800,13.538333740234375,-0.012582778930664062,-0.008236914873123169,0.009720899164676666
1702138086526325200,13.5553251953125,-0.012585639953613281,-0.0033909082412719727,0.00970672070980072
1702138086543316200,13.572316162109376,-0.012585639953613281,0.0014544129371643066,0.004856564104557037
1702138086560308200,13.58930810546875,-0.007800102233886719,-0.003321617841720581,0.00002250075340270996
1702138086577289000,13.6062890625,-0.007800102233886719,-0.0033687055110931396,-0.009443990886211395
1702138086594299000,13.623298828125,-0.017371177673339844,-0.0033730268478393555,-0.009342409670352936
1702138086611282000,13.640281982421875,-0.007801055908203125,0.0014138519763946533,-0.004518821835517883
1702138086628274000,13.65727392578125,-0.007801055908203125,-0.0033903121948242188,-0.004435978829860687
1702138086645265200,13.67426513671875,-0.012585639953613281,-0.0034267306327819824,0.009868443012237549
1702138086662257200,13.691257080078126,-0.0077972412109375,-0.003502100706100464,0.005122058093547821
1702138086679248000,13.708247802734375,-0.017364501953125,0.0011465251445770264,0.00033179670572280884
1702138086696239600,13.725239501953125,-0.017362594604492188,-0.0036783218383789062,-0.004481025040149689
1702138086713228500,13.742228515625,-0.008388519287109375,0.0010584592819213867,-0.014056414365768433
1702138086730225200,13.75922509765625,-0.012576103210449219,0.001046299934387207,-0.004434913396835327
1702138086747200500,13.776200439453126,-0.0030040740966796875,0.0010504424571990967,-0.00922314077615738
1702138086764209400,13.79320947265625,-0.0077915191650390625,-0.008470296859741211,0.009876050055027008
1702138086781196800,13.81019677734375,-0.012574195861816406,0.0010028183460235596,0.009913690388202667
1702138086798185700,13.827185791015625,-0.012575149536132812,0.0010417699813842773,0.009893380105495453
1702138086815181800,13.844181884765625,-0.017360687255859375,-0.003754645586013794,0.00028861314058303833
1702138086832171000,13.8611708984375,-0.012574195861816406,0.005787104368209839,-0.004482626914978027
1702138086849162200,13.878162353515625,-0.012577056884765625,0.0058616697788238525,-0.009167730808258057
1702138086866154000,13.895154052734375,-0.017363548278808594,-0.003668874502182007,-0.00915885716676712
1702138086883133400,13.912133544921875,-0.012578010559082031,0.005881309509277344,-0.004381842911243439
1702138086900126500,13.92912646484375,-0.012578010559082031,-0.003699660301208496,0.005188316106796265
1702138086917120800,13.946120849609375,-0.012578010559082031,-0.003659158945083618,0.009913168847560883
1702138086934113500,13.963113525390625,-0.012578010559082031,0.005935043096542358,0.009834960103034973
1702138086951105000,13.98010498046875,-0.0030069351196289062,-0.003623753786087036,0.0003104954957962036
1702138086968093200,13.99709326171875,-0.0077953338623046875,-0.008344113826751709,0.0002746209502220154
1702138086985086700,14.014086669921875,-0.0077953338623046875,-0.003537774085998535,-0.009256839752197266
1702138087002075400,14.031075439453126,-0.0077972412109375,-0.0035190582275390625,-0.004484087228775024
1702138087019066000,14.048066162109375,-0.0077972412109375,0.001251906156539917,-0.00434286892414093
1702138087036061700,14.065061767578126,-0.01736927032470703,-0.003525346517562866,0.00045837461948394775
1702138087053049000,14.082049072265624,-0.0030107498168945312,0.0012530982494354248,0.00518663227558136
1702138087070047000,14.099046875,-0.0077953338623046875,0.001209259033203125,0.00990750640630722
1702138087087035000,14.116034912109376,-0.01258087158203125,-0.00357779860496521,0.005120404064655304
1702138087104023800,14.13302392578125,-0.0030088424682617188,-0.008351027965545654,-0.004429168999195099
1702138087121017000,14.15001708984375,-0.017366409301757812,0.001209169626235962,-0.009163886308670044
1702138087138007300,14.16700732421875,-0.01736927032470703,-0.0035189390182495117,-0.004328764975070953
1702138087155008000,14.184008056640625,-0.012585639953613281,0.0013270676136016846,0.000467449426651001
1702138087171999700,14.200999755859375,-0.017373085021972656,-0.00339585542678833,0.0004151389002799988
1702138087188991000,14.217990966796876,-0.00301361083984375,-0.003398120403289795,0.00987137109041214
1702138087205982700,14.234982666015625,-0.022157669067382812,-0.0033845603466033936,0.009900175034999847
1702138087222963000,14.251962890625,-0.00301361083984375,0.0013892650604248047,0.00027433037757873535
1702138087239965400,14.26896533203125,-0.017377853393554688,-0.0032459497451782227,-0.004343666136264801
1702138087256946200,14.2859462890625,-0.0078067779541015625,-0.00802662968635559,-0.004312947392463684
1702138087273948700,14.30294873046875,-0.007805824279785156,-0.0032440125942230225,-0.00910990685224533
1702138087290939100,14.319939208984374,-0.007805824279785156,-0.0032691657543182373,0.005247831344604492
1702138087307931100,14.33693115234375,-0.012593269348144531,0.001598954200744629,0.005201004445552826
1702138087324920000,14.353920166015625,-0.012595176696777344,-0.0031040310859680176,0.009913824498653412
1702138087341917000,14.3709169921875,-0.0173797607421875,-0.0031416118144989014,0.005065560340881348
1702138087358905300,14.3879052734375,-0.01259613037109375,0.0016908347606658936,0.0003269463777542114
1702138087375896800,14.404896728515626,-0.012597084045410156,0.0017444789409637451,-0.00926729291677475
1702138087392887600,14.421887451171875,-0.012597084045410156,-0.003072291612625122,-0.009210139513015747
1702138087409877500,14.43887744140625,-0.007811546325683594,0.0017388463020324707,-0.009225636720657349
1702138087426871000,14.45587109375,-0.0030241012573242188,0.006467074155807495,0.0004185587167739868
1702138087443862800,14.47286279296875,-0.012598037719726562,0.0017107725143432617,0.01002732664346695
1702138087460854000,14.48985400390625,0.001758575439453125,0.0017209351062774658,0.010095193982124329
1702138087477836000,14.5068359375,-0.0078125,0.00170820951461792,0.005244940519332886
1702138087494826200,14.523826171875,-0.012597084045410156,0.0016879737377166748,0.0004663616418838501
1702138087511828200,14.540828125,-0.01259613037109375,0.0016840696334838867,-0.009116925299167633
1702138087528819700,14.55781982421875,-0.017381668090820312,0.0016705691814422607,-0.013888366520404816
1702138087545811700,14.574811767578124,-0.012595176696777344,-0.007955938577651978,-0.009011417627334595
1702138087562803000,14.591802978515625,-0.007809638977050781,0.001626729965209961,0.005238674581050873
1702138087579797000,14.608796875,-0.003021240234375,-0.007981568574905396,0.009943872690200806
1702138087596782000,14.625781982421875,-0.0030231475830078125,-0.0031392574310302734,0.009972922503948212
1702138087613778700,14.64277880859375,-0.012592315673828125,-0.0032333731651306152,0.0004343762993812561
1702138087630770700,14.659770751953126,-0.012594223022460938,-0.003177255392074585,-0.009165830910205841
1702138087647759600,14.676759521484374,-0.012595176696777344,0.0016468167304992676,-0.004360072314739227
1702138087664750800,14.693750732421876,-0.007809638977050781,0.001627504825592041,-0.009096018970012665
1702138087681742600,14.71074267578125,-0.01259613037109375,-0.0031487643718719482,0.0005359873175621033
1702138087698733800,14.72773388671875,-0.007814407348632812,-0.007818847894668579,0.005357399582862854
1702138087715725600,14.7447255859375,-0.012599945068359375,-0.003022223711013794,0.005333326756954193
1702138087732714500,14.761714599609375,-0.0221710205078125,-0.007801741361618042,0.01004665344953537
1702138087749711400,14.77871142578125,-0.012601852416992188,0.0018245875835418701,-0.004263915121555328
1702138087766699500,14.795699462890624,-0.007816314697265625,0.001826852560043335,0.0004717409610748291
1702138087783683000,14.81268310546875,-0.012602806091308594,-0.0029124021530151367,-0.009110748767852783
1702138087800682800,14.829682861328125,-0.012601852416992188,0.0018663108348846436,-0.00911501795053482
1702138087817674200,14.84667431640625,-0.0030317306518554688,-0.0028727054595947266,0.0004607364535331726
1702138087834668300,14.863668212890625,-0.012603759765625,-0.002870917320251465,0.005188837647438049
1702138087851654000,14.88065380859375,-0.007818222045898438,0.0019300878047943115,0.0051705241203308105
1702138087868648400,14.8976484375,-0.007817268371582031,0.0019278526306152344,0.014644093811511993
1702138087885640200,14.91464013671875,-0.012603759765625,-0.0028093457221984863,0.00024121999740600586
1702138087902631200,14.931631103515626,-0.017391204833984375,0.0020220577716827393,0.00029546022415161133
1702138087919609300,14.948609375,0.0065364837646484375,-0.007521927356719971,-0.009248897433280945
1702138087936614100,14.9656142578125,-0.007821083068847656,0.0020526647567749023,-0.004491500556468964
1702138087953603600,14.982603515625,-0.012603759765625,0.0019589662551879883,-0.009298443794250488
1702138087970598700,14.9995986328125,-0.012603759765625,0.0019598007202148438,0.009830936789512634
1702138087987588600,15.016588623046875,-0.012604713439941406,-0.00761491060256958,0.005135618150234222
1702138088004580000,15.033580078125,-0.01738739013671875,-0.0028945207595825195,0.0002942979335784912
1702138088021571300,15.0505712890625,0.0017557144165039062,-0.007675737142562866,0.000299014151096344
1702138088038562600,15.0675625,-0.012601852416992188,-0.0028799772262573242,-0.009342975914478302
1702138088055554000,15.084553955078125,-0.012601852416992188,0.0019008815288543701,-0.004484094679355621
1702138088072545500,15.101545654296874,-0.017389297485351562,0.0019449591636657715,-0.009232953190803528
1702138088089537300,15.118537353515626,-0.012605667114257812,-0.00278434157371521,-0.004423737525939941
1702138088106527700,15.13552783203125,-0.007819175720214844,0.001960933208465576,0.009911119937896729
1702138088123520000,15.15252001953125,-0.007817268371582031,0.0019538700580596924,0.009778812527656555
1702138088140500700,15.169500732421875,-0.007817268371582031,-0.002836465835571289,0.00497184693813324
1702138088157503000,15.1865029296875,-0.017391204833984375,-0.0027234554290771484,0.00014018267393112183
1702138088174493700,15.20349365234375,-0.012608528137207031,-0.002665400505065918,-0.014176271855831146
1702138088191485700,15.220485595703124,-0.012607574462890625,-0.007470965385437012,-0.009399883449077606
1702138088208477000,15.237476806640625,-0.007822036743164062,0.00210726261138916,-0.004583083093166351
1702138088225468400,15.254468505859375,-0.012607574462890625,0.0021059811115264893,0.004924766719341278
1702138088242449000,15.271448974609376,-0.01739215850830078,-0.007431536912918091,0.004816614091396332
1702138088259451100,15.288451171875,-0.007822036743164062,-0.0026494264602661133,0.00963427871465683
1702138088276443100,15.305443115234375,-0.017393112182617188,-0.00263938307762146,0.004875436425209045
1702138088293434400,15.322434326171875,-0.012608528137207031,0.0021463334560394287,0.0000950247049331665
1702138088310425300,15.33942529296875,-0.007822990417480469,0.002147465944290161,-0.004719965159893036
1702138088327417300,15.356417236328125,-0.008420944213867188,0.002133488655090332,-0.014199644327163696
1702138088344400100,15.373400146484375,-0.0030364990234375,-0.002648383378982544,-0.009424448013305664
1702138088361400000,15.390400146484374,-0.012609481811523438,-0.0026035308837890625,0.00010123103857040405
1702138088378391000,15.40739111328125,-0.007822990417480469,-0.0026459097862243652,0.00018791109323501587
1702138088395382800,15.4243828125,-0.012608528137207031,-0.007414877414703369,0.014460980892181396
1702138088412374300,15.441374267578125,-0.012607574462890625,0.0021416544914245605,0.004877358675003052
1702138088429365800,15.45836572265625,-0.017394065856933594,0.0021790266036987305,0.00004925578832626343
1702138088446356700,15.475356689453125,-0.01739501953125,0.0021795332431793213,-0.009482808411121368
1702138088463349200,15.492349365234375,-0.012608528137207031,0.0021737217903137207,-0.004665479063987732
1702138088480339000,15.5093388671875,-0.007822990417480469,0.00215950608253479,-0.009419634938240051
1702138088497319200,15.526319091796875,-0.007822990417480469,-0.0026295483112335205,0.009720765054225922
1702138088514324500,15.543324462890626,-0.007822990417480469,-0.0026281774044036865,0.004879258573055267
1702138088531314000,15.56031396484375,-0.012609481811523438,-0.0025749802589416504,0.01446273922920227
1702138088548305400,15.577305419921874,-0.0030374526977539062,-0.00257149338722229,0.00004284083843231201
1702138088565292000,15.5942919921875,-0.007823944091796875,0.0022147297859191895,-0.004780799150466919
1702138088582288400,15.611288330078125,-0.007823944091796875,0.006976574659347534,-0.009473003447055817
1702138088599279900,15.62827978515625,-0.007823944091796875,0.0021780431270599365,-0.004603363573551178
1702138088616271400,15.645271240234376,-0.01739215850830078,0.0021100640296936035,0.0000942423939704895
1702138088633262800,15.662262939453125,-0.003032684326171875,0.002045959234237671,0.0048233941197395325
1702138088650254000,15.679254150390625,-0.01739025115966797,-0.0027594268321990967,0.004906147718429565
1702138088667234800,15.69623486328125,-0.0030317306518554688,0.0020197927951812744,0.014409512281417847
1702138088684236800,15.71323681640625,-0.012602806091308594,0.0019977986812591553,-0.009549640119075775
1702138088701228800,15.730228759765625,-0.012603759765625,-0.0027928948402404785,-0.009459860622882843
1702138088718219500,15.747219482421874,-0.017388343811035156,-0.002798020839691162,-0.004686929285526276
1702138088735211300,15.764211181640626,-0.01738739013671875,-0.007580161094665527,-0.009527407586574554
1702138088752201500,15.781201416015625,-0.012603759765625,-0.002757519483566284,0.000012375414371490479
1702138088769195300,15.7981953125,-0.017389297485351562,-0.002771824598312378,0.009569399058818817
1702138088786185000,15.81518505859375,-0.012601852416992188,-0.002785712480545044,0.009495489299297333
1702138088803177000,15.832177001953125,-0.007815361022949219,0.00197601318359375,0.004659324884414673
1702138088820168400,15.84916845703125,-0.007813453674316406,-0.0028652548789978027,-0.004848353564739227
1702138088837152800,15.86615283203125,-0.007813453674316406,0.001920551061630249,-0.004880912601947784
1702138088854139000,15.883138916015625,-0.012598991394042969,0.006667405366897583,-0.004755198955535889
1702138088871142400,15.900142333984375,-0.012597084045410156,0.0066010355949401855,0.000007994472980499268
1702138088888134100,15.917134033203125,-0.012598991394042969,-0.0029297471046447754,0.000010326504707336426
1702138088905125600,15.934125732421874,-0.012597084045410156,0.001833498477935791,0.0047402530908584595
1702138088922114300,15.9511142578125,-0.007809638977050781,-0.0029720067977905273,0.014229640364646912
1702138088939110700,15.968110595703125,-0.012598037719726562,-0.007686793804168701,0.004641838371753693
1702138088956098600,15.9850986328125,-0.017385482788085938,-0.0028550922870635986,-0.0047989413142204285
1702138088973089000,16.002089111328125,-0.0030269622802734375,-0.002876490354537964,-0.004829533398151398
1702138088990084900,16.0190849609375,-0.012598991394042969,0.0018936991691589355,-0.009579375386238098
1702138089007073800,16.03607373046875,-0.0030279159545898438,0.001924961805343628,-0.004814065992832184
1702138089024068400,16.053068359375,-0.007817268371582031,-0.0027785003185272217,-0.004794001579284668
1702138089041054200,16.07005419921875,-0.012601852416992188,0.0020159780979156494,-0.00016164779663085938
1702138089058037800,16.087037841796874,-0.012600898742675781,0.0020022988319396973,0.009301997721195221
1702138089075039500,16.10403955078125,-0.022169113159179688,0.0019272565841674805,0.0045733824372291565
1702138089092028700,16.121028564453123,-0.0030241012573242188,-0.00290641188621521,-0.00025112926959991455
1702138089109025500,16.138025634765626,-0.017383575439453125,-0.007680803537368774,-0.009785547852516174
1702138089126014000,16.155013916015626,-0.02276611328125,0.0018615126609802246,-0.014513686299324036
1702138089143008300,16.17200830078125,-0.007809638977050781,0.0017889142036437988,-0.004955358803272247
1702138089159997000,16.188996826171874,-0.012593269348144531,0.001732945442199707,0.009451866149902344
1702138089177001000,16.2060009765625,-0.012593269348144531,-0.0030565261840820312,0.004609145224094391
1702138089193978400,16.222978271484376,-0.017378807067871094,-0.007843613624572754,-0.0001216307282447815
1702138089210963500,16.23996337890625,-0.007805824279785156,0.0016690492630004883,0.0046980902552604675
1702138089227962600,16.256962646484375,-0.012592315673828125,0.0064757466316223145,-0.0000674128532409668
1702138089244954000,16.2739541015625,-0.013189315795898438,0.0016686022281646729,-0.01442902535200119
1702138089261945300,16.2909453125,-0.017375946044921875,0.0016489923000335693,-0.009646087884902954
1702138089278936600,16.3079365234375,-0.017378807067871094,-0.0030903518199920654,-0.00004459172487258911
1702138089295942400,16.3249423828125,-0.0030202865600585938,0.0016883611679077148,0.009466573596000671
1702138089312907500,16.341907470703124,-0.012591361999511719,-0.007870972156524658,0.009441100060939789
1702138089329908500,16.358908447265627,-0.012590408325195312,-0.0030981600284576416,0.009376473724842072
1702138089346902500,16.375902587890625,-0.003017425537109375,-0.003144979476928711,0.00453399121761322
1702138089363894000,16.39289404296875,-0.012593269348144531,0.001721024513244629,-0.004906266927719116
1702138089380885800,16.4098857421875,-0.00780487060546875,-0.007931023836135864,-0.00487750768661499
1702138089397879800,16.4268798828125,-0.0125885009765625,-0.003200143575668335,-0.004889093339443207
1702138089414868500,16.443868408203127,-0.0125885009765625,0.001589268445968628,-0.00491255521774292
1702138089431847700,16.46084765625,-0.0125885009765625,-0.007964730262756348,-0.004935108125209808
1702138089448845300,16.47784521484375,-0.007805824279785156,-0.0031158030033111572,0.004708714783191681
1702138089465832200,16.494832275390625,-0.01737499237060547,0.0016190409660339355,-0.00013595819473266602
1702138089482825200,16.5118251953125,-0.0125885009765625,0.0016046762466430664,0.009378574788570404
1702138089499825200,16.5288251953125,-0.0078029632568359375,0.001591503620147705,-0.004960894584655762
1702138089516817200,16.545817138671875,-0.012589454650878906,0.0016213655471801758,-0.009708195924758911
1702138089533806800,16.562806884765624,-0.008398056030273438,0.0014966130256652832,-0.014489375054836273
1702138089550800600,16.579800537109374,-0.00780487060546875,-0.003198176622390747,-0.00000492483377456665
1702138089567780400,16.5967802734375,-0.00780487060546875,-0.0032012760639190674,0.000048182904720306396
1702138089584782600,16.613782470703125,-0.007802009582519531,0.0015196502208709717,0.009552977979183197
1702138089601773600,16.630773681640626,-0.012584686279296875,-0.003314673900604248,0.00947466492652893
1702138089618765300,16.647765380859376,-0.012583732604980469,0.006199389696121216,-0.004865206778049469
1702138089635756500,16.664756591796873,-0.01736736297607422,0.001409292221069336,-0.0002141222357749939
1702138089652749000,16.6817490234375,-0.0077972412109375,-0.0033742189407348633,-0.00979246199131012
1702138089669739000,16.698739013671876,-0.007798194885253906,-0.00809633731842041,-0.009796179831027985
1702138089686731000,16.71573095703125,-0.012583732604980469,-0.0033198893070220947,-0.00025319308042526245
1702138089703722200,16.73272216796875,-0.007801055908203125,-0.003219097852706909,0.009305372834205627
1702138089720705800,16.749705810546875,-0.007800102233886719,0.0015037953853607178,0.0045572444796562195
1702138089737704700,16.76670458984375,-0.012583732604980469,-0.008090734481811523,-0.00022695213556289673
1702138089754697000,16.783697021484375,-0.0077972412109375,0.0014537274837493896,-0.005050525069236755
1702138089771677400,16.800677490234374,-0.0030088424682617188,0.0013546943664550781,-0.004980489611625671
1702138089788681500,16.817681396484375,-0.017368316650390625,0.006206125020980835,-0.0050005242228507996
1702138089805666000,16.834666015625,-0.007794380187988281,-0.0034207701683044434,-0.005124099552631378
1702138089822655000,16.851655029296875,-0.017363548278808594,-0.0034786760807037354,-0.0003787428140640259
1702138089839645700,16.868645751953125,-0.012576103210449219,-0.008301466703414917,0.0043982937932014465
1702138089856637200,16.88563720703125,-0.017360687255859375,-0.0035209357738494873,-0.0004767104983329773
1702138089873634800,16.902634765625,-0.0077877044677734375,0.001224130392074585,-0.00048626959323883057
1702138089890629400,16.91962939453125,-0.0077915191650390625,-0.0034676790237426758,-0.0052522048354148865
1702138089907619600,16.93661962890625,-0.017363548278808594,0.0013487637042999268,-0.005274735391139984
1702138089924611300,16.953611328125,-0.017363548278808594,0.00133553147315979,-0.009963400661945343
1702138089941599700,16.970599853515626,-0.012576103210449219,0.0012799203395843506,-0.009965017437934875
1702138089958585900,16.9875859375,-0.007788658142089844,-0.0036032497882843018,-0.0003215968608856201
1702138089975582700,17.004582763671873,-0.007786750793457031,-0.0036548376083374023,0.004399195313453674
1702138089992584400,17.02158447265625,-0.017358779907226562,0.001180410385131836,0.0043330118060112
1702138090009565700,17.038565673828124,-0.007786750793457031,-0.003650754690170288,0.0044036805629730225
1702138090026561500,17.0555615234375,-0.017358779907226562,0.0011659562587738037,-0.0004203617572784424
1702138090043551000,17.072551025390624,-0.013170242309570312,-0.008391648530960083,-0.01962551474571228
1702138090060542700,17.089542724609377,-0.017358779907226562,0.0012179017066955566,-0.005292147397994995
1702138090077533400,17.106533447265626,-0.0030002593994140625,0.001164764165878296,-0.005304843187332153
1702138090094525000,17.12352490234375,-0.012572288513183594,-0.008395999670028687,-0.0005454346537590027
1702138090111516400,17.140516357421873,-0.007786750793457031,-0.008384078741073608,0.004202298820018768
1702138090128508200,17.157508056640626,-0.012572288513183594,-0.0035760700702667236,0.008919239044189453
1702138090145499100,17.1744990234375,-0.0030002593994140625,0.001217484474182129,-0.0006414502859115601
1702138090162491000,17.191490966796874,-0.007788658142089844,-0.003499537706375122,-0.0006713494658470154
1702138090179482400,17.208482421875,-0.01736164093017578,0.0013363063335418701,-0.010237395763397217
1702138090196473900,17.225473876953124,-0.012577056884765625,0.0013653934001922607,-0.005471065640449524
1702138090213464800,17.24246484375,-0.017360687255859375,0.0013228058815002441,-0.005431458353996277
1702138090230456300,17.259456298828123,-0.012576103210449219,0.001325070858001709,0.00416167825460434
1702138090247447800,17.27644775390625,-0.007786750793457031,0.0012649893760681152,-0.0007286146283149719
1702138090264439800,17.293439697265626,-0.012574195861816406,0.001309722661972046,-0.0007253885269165039
1702138090281430500,17.310430419921875,-0.00778961181640625,0.001316756010055542,-0.0006638243794441223
1702138090298403600,17.327403564453125,-0.007790565490722656,0.0013172328472137451,-0.0006010830402374268
1702138090315415600,17.34441552734375,-0.00778961181640625,-0.0035014450550079346,-0.0005808547139167786
1702138090332403200,17.3614033203125,-0.013172149658203125,0.006056070327758789,-0.010140366852283478
1702138090349396000,17.37839599609375,-0.012575149536132812,0.0012724697589874268,-0.000538356602191925
1702138090366385700,17.3953857421875,-0.012577056884765625,0.001334547996520996,0.004201136529445648
1702138090383371000,17.41237109375,-0.012577056884765625,-0.0034310519695281982,0.004244387149810791
1702138090400362800,17.42936279296875,-0.017362594604492188,-0.008203893899917603,-0.0005770251154899597
1702138090417352700,17.446352783203125,-0.012579917907714844,0.0014289319515228271,0.0042045265436172485
1702138090434344400,17.463344482421874,-0.0030078887939453125,0.0014289021492004395,-0.010105334222316742
1702138090451336200,17.480336181640624,-0.0077953338623046875,0.0014903247356414795,-0.005379930138587952
1702138090468325000,17.4973251953125,-0.007794380187988281,0.0014455616474151611,-0.005401335656642914
1702138090485321200,17.5143212890625,-0.017363548278808594,0.006170809268951416,0.004139624536037445
1702138090502310000,17.531309814453124,-0.007792472839355469,-0.003340810537338257,0.008768782019615173
1702138090519302100,17.54830224609375,-0.0077915191650390625,0.00621458888053894,0.003886997699737549
1702138090536296200,17.565296142578124,-0.007792472839355469,0.001474916934967041,0.008620589971542358
1702138090553285600,17.58228564453125,-0.012578010559082031,-0.003301471471786499,-0.005709931254386902
1702138090570274300,17.5992744140625,-0.012579917907714844,0.0015208125114440918,-0.005667068064212799
1702138090587266800,17.616266845703127,-0.012579917907714844,-0.0032480061054229736,-0.010495714843273163
1702138090604259800,17.633259765625,-0.01258087158203125,0.006349056959152222,0.003893651068210602
1702138090621251300,17.650251220703126,-0.012581825256347656,-0.0032149851322174072,-0.000817812979221344
1702138090638240000,17.667239990234375,-0.017366409301757812,-0.00326383113861084,-0.0006791278719902039
1702138090655243300,17.6842431640625,-0.007796287536621094,-0.003262072801589966,0.004102796316146851
1702138090672234200,17.701234130859376,-0.007798194885253906,-0.003200709819793701,0.004057273268699646
1702138090689224400,17.718224365234374,-0.0077972412109375,0.0015857815742492676,-0.005533203482627869
1702138090706218500,17.735218505859375,-0.012585639953613281,-0.0031319260597229004,-0.005445078015327454
1702138090723205600,17.75220556640625,0.0011730194091796875,0.0016554594039916992,-0.010232269763946533
1702138090740199400,17.769199462890626,-0.022156715393066406,-0.003150850534439087,-0.010247871279716492
1702138090757177300,17.78617724609375,-0.007802009582519531,-0.00308990478515625,-0.0006974488496780396
1702138090774182000,17.803181884765625,-0.017371177673339844,-0.0030832886695861816,0.003989718854427338
1702138090791165400,17.82016552734375,-0.012586593627929688,-0.0030647218227386475,0.003995098173618317
1702138090808165000,17.8371650390625,-0.007802009582519531,-0.003054410219192505,-0.005586057901382446
1702138090825155800,17.85415576171875,-0.0078029632568359375,-0.0030120909214019775,-0.005587376654148102
1702138090842147300,17.871147216796874,-0.022159576416015625,0.0017639100551605225,-0.00558742880821228
1702138090859139000,17.88813916015625,-0.012590408325195312,-0.0029595792293548584,-0.00560634583234787
1702138090876132000,17.905132080078126,-0.022161483764648438,-0.002953261137008667,-0.005618356168270111
1702138090893121500,17.92212158203125,-0.007805824279785156,-0.00289347767829895,0.003916159272193909
1702138090910113300,17.93911328125,-0.012595176696777344,-0.002790600061416626,-0.0008343979716300964
1702138090927104800,17.956104736328125,-0.007809638977050781,-0.0027837157249450684,-0.0008726418018341064
1702138090944096300,17.97309619140625,-0.017381668090820312,0.0020518600940704346,0.00392700731754303
1702138090961087200,17.990087158203124,-0.012597084045410156,-0.002712428569793701,-0.0008984878659248352
1702138090978068500,18.007068359375,-0.012597084045410156,0.0068559348583221436,-0.0009156391024589539
1702138090995070200,18.0240703125,-0.012597084045410156,0.0020848214626312256,-0.005755148828029633
1702138091012062500,18.0410625,-0.02216625213623047,0.006798356771469116,-0.005765408277511597
1702138091029052200,18.05805224609375,-0.012595176696777344,0.0020121335983276367,0.0038710609078407288
1702138091046044700,18.075044677734375,-0.01259613037109375,-0.002758532762527466,0.013530232012271881
1702138091063018200,18.092018310546877,-0.0078105926513671875,-0.0027346014976501465,0.00396246463060379
1702138091080027600,18.109027587890626,-0.0078105926513671875,0.002057582139968872,-0.0008602216839790344
1702138091097018600,18.1260185546875,-0.01738262176513672,0.002062857151031494,-0.0008461847901344299
1702138091114010000,18.143010009765625,-0.01259613037109375,0.0020247697830200195,-0.010422036051750183
1702138091131001300,18.16000146484375,-0.0078105926513671875,0.0020247697830200195,-0.0007694736123085022
1702138091147993300,18.176993408203124,-0.012597084045410156,-0.0027451813220977783,-0.00557553768157959
1702138091164974000,18.19397412109375,-0.0078125,0.0020422041416168213,-0.0007144361734390259
1702138091181976000,18.21097607421875,-0.02216815948486328,0.002047032117843628,0.0040249451994895935
1702138091198967300,18.22796728515625,-0.007811546325683594,0.0020453929901123047,0.003976196050643921
1702138091215959000,18.244958984375,-0.0078105926513671875,-0.002747863531112671,-0.0007847771048545837
1702138091232949800,18.26194970703125,-0.012598037719726562,-0.0075095295906066895,-0.010266274213790894
1702138091249941200,18.278941162109376,-0.012598991394042969,-0.0027072131633758545,-0.005440317094326019
1702138091266934000,18.29593408203125,-0.012601852416992188,0.002135336399078369,-0.0005653873085975647
1702138091283924700,18.3129248046875,-0.012601852416992188,0.0021250545978546143,0.004224799573421478
1702138091300915700,18.329915771484377,-0.007816314697265625,-0.0026442408561706543,0.004179947078227997
1702138091317898000,18.34689794921875,-0.007816314697265625,-0.007413148880004883,-0.0006430521607398987
1702138091334898700,18.363898681640624,-0.017389297485351562,-0.007352679967880249,0.00408945232629776
1702138091351890400,18.380890380859373,-0.012602806091308594,0.002208024263381958,-0.0007331967353820801
1702138091368881000,18.397880859375,-0.017388343811035156,-0.002580493688583374,-0.005490742623806
1702138091385873000,18.414872802734376,-0.017389297485351562,0.0022167861461639404,-0.005504585802555084
1702138091402864000,18.431864013671873,-0.00782012939453125,-0.0025112926959991455,-0.005416452884674072
1702138091419856100,18.448856201171875,-0.012607574462890625,0.007094025611877441,-0.0005069300532341003
1702138091436836400,18.46583642578125,-0.012606620788574219,-0.0024726390838623047,0.00419018417596817
1702138091453835800,18.482835693359377,-0.017394065856933594,-0.0024307966232299805,0.00896436721086502
1702138091470832600,18.49983251953125,-0.007822990417480469,-0.002425670623779297,0.004122309386730194
1702138091487821800,18.51682177734375,-0.0030364990234375,0.0023565590381622314,-0.0054786428809165955
1702138091504812500,18.5338125,-0.012607574462890625,0.0023599565029144287,-0.0006734728813171387
1702138091521804300,18.55080419921875,-0.012610435485839844,0.0023997128009796143,-0.005317509174346924
1702138091538795500,18.56779541015625,-0.007825851440429688,-0.0023723244667053223,-0.0005428940057754517
1702138091555787500,18.58478759765625,-0.01261138916015625,-0.002372443675994873,0.004257567226886749
1702138091572778200,18.6017783203125,-0.01739788055419922,-0.002322077751159668,0.004212737083435059
1702138091589770000,18.61877001953125,-0.012612342834472656,0.002450704574584961,0.004275336861610413
1702138091606761000,18.635760986328126,-0.01739788055419922,0.002433955669403076,-0.005259878933429718
1702138091623753000,18.6527529296875,-0.007828712463378906,0.0025248825550079346,-0.0052762702107429504
1702138091640743700,18.66974365234375,-0.012615203857421875,0.0025191307067871094,-0.005232259631156921
1702138091657735400,18.6867353515625,-0.007830619812011719,-0.0022692084312438965,-0.0004114508628845215
1702138091674728700,18.703728759765625,-0.012615203857421875,-0.0022671520709991455,-0.005207031965255737
1702138091691716400,18.72071630859375,-0.007830619812011719,-0.0022197365760803223,-0.000496983528137207
1702138091708709400,18.73770947265625,-0.00304412841796875,-0.0021965205669403076,0.004259102046489716
1702138091725701000,18.754701171875,-0.0030450820922851562,0.007368028163909912,0.009060002863407135
1702138091742685400,18.771685546875,-0.012616157531738281,0.007337838411331177,0.004325419664382935
1702138091759681500,18.788681640625,-0.012616157531738281,-0.0022388994693756104,-0.0004177764058113098
1702138091776675300,18.80567529296875,-0.008427619934082031,0.002517133951187134,-0.014763690531253815
1702138091793664000,18.8226640625,-0.01740264892578125,-0.0022121965885162354,-0.005191914737224579
1702138091810660600,18.83966064453125,-0.007830619812011719,0.0025549232959747314,-0.0003691762685775757
1702138091827650000,18.856650146484377,-0.012616157531738281,-0.002233564853668213,0.004416562616825104
1702138091844635000,18.873634765625,-0.007829666137695312,0.007275015115737915,0.004444405436515808
1702138091861619000,18.890618896484376,-0.007828712463378906,0.0024692118167877197,0.00922827422618866
1702138091878624000,18.9076240234375,-0.012614250183105469,-0.007106870412826538,-0.0004201233386993408
1702138091895613200,18.92461328125,-0.012612342834472656,-0.0023763179779052734,-0.005164869129657745
1702138091912608800,18.94160888671875,-0.007825851440429688,0.0071745216846466064,-0.009897589683532715
1702138091929598700,18.9585986328125,-0.01261138916015625,0.00714537501335144,-0.00030021369457244873
1702138091946589400,18.97558935546875,-0.0030422210693359375,0.002485603094100952,0.004452116787433624
1702138091963581200,18.992581298828124,-0.012614250183105469,0.002471238374710083,0.004408232867717743
1702138091980572200,19.009572265625,-0.007825851440429688,0.007176578044891357,-0.0004003569483757019
1702138091997563600,19.026563720703123,-0.007824897766113281,-0.0024257898330688477,-0.00037554651498794556
1702138092014555400,19.043555419921876,-0.017393112182617188,0.0022590160369873047,-0.00040934234857559204
1702138092031547000,19.060546875,-0.012603759765625,0.0021439194679260254,-0.009936966001987457
1702138092048537900,19.077537841796875,-0.017389297485351562,0.0021258890628814697,-0.00038690119981765747
1702138092065529300,19.094529296875,-0.017389297485351562,0.00215718150138855,-0.009956344962120056
1702138092082524000,19.11152392578125,-0.007818222045898438,-0.002647697925567627,-0.00036544352769851685
1702138092099509800,19.128509765625,-0.012603759765625,-0.0074422359466552734,-0.00035509467124938965
1702138092116503600,19.145503662109373,-0.012601852416992188,0.002058088779449463,0.004551053047180176
1702138092133495000,19.1624951171875,-0.012601852416992188,0.0020456016063690186,-0.0002192854881286621
1702138092150486500,19.179486572265624,-0.007816314697265625,-0.0027343034744262695,-0.0002369135618209839
1702138092167478000,19.19647802734375,-0.007816314697265625,0.011602044105529785,-0.004982277750968933
1702138092184469000,19.213468994140626,-0.0030269622802734375,0.0019089281558990479,-0.004881076514720917
1702138092201449700,19.23044970703125,-0.0030269622802734375,0.0018998980522155762,-0.004787169396877289
1702138092218452700,19.24745263671875,-0.01259613037109375,0.0017949044704437256,-0.000018946826457977295
1702138092235444000,19.26444384765625,-0.0030269622802734375,-0.0029417574405670166,0.00009565800428390503
1702138092252435000,19.28143505859375,-0.0030260086059570312,0.001850903034210205,0.004826858639717102
1702138092269426400,19.298426513671874,-0.0078125,0.0018575787544250488,0.000005088746547698975
1702138092286418000,19.31541796875,-0.012598991394042969,0.0018891394138336182,-0.0000615045428276062
1702138092303409200,19.3324091796875,-0.012598991394042969,0.0019128620624542236,-0.00008868426084518433
1702138092320384500,19.349384521484374,-0.007815361022949219,0.001954793930053711,-0.004783950746059418
1702138092337391900,19.366391845703124,-0.0030279159545898438,-0.002840578556060791,-0.00007492303848266602
1702138092354383400,19.38338330078125,-0.02695751190185547,0.006776988506317139,-0.004879176616668701
1702138092371363800,19.40036376953125,-0.012600898742675781,0.0019656121730804443,0.0046506524085998535
1702138092388354000,19.41735400390625,-0.012602806091308594,-0.002735435962677002,-0.00014984607696533203
1702138092405360000,19.434360107421874,-0.007819175720214844,0.0020851492881774902,-0.00008215010166168213
1702138092422349300,19.451349365234375,-0.012603759765625,-0.0027045011520385742,-0.004886150360107422
1702138092439340800,19.4683408203125,-0.0030345916748046875,0.006934106349945068,-0.004851877689361572
1702138092456331500,19.48533154296875,-0.012609481811523438,-0.007356196641921997,-0.009585782885551453
1702138092473323300,19.5023232421875,-0.0030393600463867188,0.002238243818283081,-0.004715412855148315
1702138092490314500,19.519314453125,-0.007825851440429688,-0.007343292236328125,0.00008615851402282715
1702138092507308000,19.53630810546875,-0.012609481811523438,0.0022218823432922363,0.00482650101184845
1702138092524297700,19.553297607421875,-0.007824897766113281,-0.0025451481342315674,0.000060930848121643066
1702138092541288400,19.570288330078125,-0.0078277587890625,0.002323061227798462,0.00008418411016464233
1702138092558280400,19.587280517578126,-0.012615203857421875,-0.002413421869277954,0.0001071244478225708
1702138092575272000,19.60427197265625,-0.008428573608398438,0.0023607611656188965,-0.014199212193489075
1702138092592263000,19.621262939453125,-0.0078277587890625,0.002305150032043457,-0.004679001867771149
1702138092609254700,19.638254638671874,-0.012613296508789062,-0.002469569444656372,0.000028014183044433594
1702138092626256000,19.655255859375,-0.007824897766113281,-0.002527296543121338,0.004768304526805878
1702138092643237400,19.6722373046875,-0.017396926879882812,0.00228002667427063,-0.0000014603137969970703
1702138092660228600,19.689228515625,-0.007825851440429688,-0.007277458906173706,-0.00003791600465774536
1702138092677209600,19.706209716796874,-0.003040313720703125,0.002297312021255493,-0.000007078051567077637
1702138092694211300,19.72321142578125,-0.007829666137695312,0.0023949742317199707,-0.000016674399375915527
1702138092711203000,19.740203125,-0.0078277587890625,0.0023396313190460205,0.0000065267086029052734
1702138092728194300,19.7571943359375,-0.007828712463378906,-0.0024065375328063965,-0.004785560071468353
1702138092745183200,19.774183349609373,-0.007830619812011719,-0.002358734607696533,0.000024922192096710205
1702138092762168000,19.79116796875,-0.007831573486328125,-0.0023843348026275635,0.00017965584993362427
1702138092779160300,19.808160400390626,-0.012617111206054688,-0.002380162477493286,0.00015147030353546143
1702138092796149800,19.825149658203124,-0.012617111206054688,0.002394348382949829,0.00018480420112609863
1702138092813153800,19.84215380859375,-0.012613296508789062,0.002320706844329834,0.004883922636508942
1702138092830142700,19.859142822265625,0.001743316650390625,0.0023101866245269775,-0.004636086523532867
1702138092847132000,19.8761318359375,-0.012612342834472656,0.0022469758987426758,-0.009381294250488281
1702138092864128000,19.8931279296875,-0.007824897766113281,0.002141028642654419,-0.009229257702827454
