time,seconds_elapsed,z,y,x
1701889698432477200,0.104477294921875,-0.20112276077270508,0.3144502639770508,0.7005311250686646
1701889698449478000,0.121477783203125,-0.6501779556274414,0.5636701583862305,0.8245176076889038
1701889698466462500,0.13846240234375,-0.48755693435668945,0.6974301338195801,0.8640041351318359
1701889698483452700,0.15545263671875,-0.4643549919128418,0.7212181091308594,1.1045583486557007
1701889698500435000,0.17243505859375,0.006546497344970703,0.5274167060852051,1.0508592128753662
1701889698517428000,0.189427978515625,0.33341169357299805,0.3136873245239258,1.0527384281158447
1701889698534416000,0.206415771484375,0.3917665481567383,0.5480661392211914,1.3707327842712402
1701889698551394600,0.22339453125,-0.1550602912902832,0.8165216445922852,2.0055010318756104
1701889698568388600,0.240388671875,-0.5881252288818359,1.4567642211914062,2.753469944000244
1701889698585382100,0.257382080078125,-1.399397850036621,2.0700759887695312,3.115739107131958
1701889698602363600,0.27436376953125,-1.2388086318969727,2.7593321800231934,3.6814117431640625
1701889698619355100,0.291355224609375,-0.553551197052002,3.132352828979492,4.558778762817383
1701889698636342800,0.3083427734375,-0.2875480651855469,3.632528781890869,5.363860607147217
1701889698653321500,0.325321533203125,-0.5426411628723145,3.137021064758301,6.768005847930908
1701889698670315500,0.3423154296875,-0.7077245712280273,3.179661273956299,7.049484729766846
1701889698687309300,0.359309326171875,-0.3634190559387207,3.355067253112793,6.350538730621338
1701889698704292400,0.376292236328125,1.2519655227661133,3.709484100341797,5.786506175994873
1701889698721278200,0.3932783203125,3.2963051795959473,3.493467330932617,6.151423454284668
1701889698738271500,0.410271484375,3.7955689430236816,3.7650060653686523,6.162952423095703
1701889698755250000,0.42725,1.2076654434204102,3.270352840423584,6.155222415924072
1701889698772243200,0.4442431640625,-0.5695023536682129,1.5575628280639648,5.871514797210693
1701889698789240000,0.461239990234375,1.0652189254760742,0.3910527229309082,4.359749794006348
1701889698806221300,0.47822119140625,4.786905765533447,-0.9242043495178223,0.7860305309295654
1701889698823208400,0.49520849609375,7.082224369049072,1.0886216163635254,3.5455307960510254
1701889698840195000,0.512195068359375,3.89320707321167,-1.352546215057373,3.709871292114258
1701889698857186000,0.52918603515625,2.254807472229004,-1.8684587478637695,3.321800708770752
1701889698874175000,0.546175048828125,4.588475704193115,-2.6685943603515625,2.822601795196533
1701889698891155200,0.5631552734375,7.79407262802124,-1.8399014472961426,2.3214569091796875
1701889698908138200,0.58013818359375,6.976123809814453,-1.4749336242675781,2.2876267433166504
1701889698925146600,0.597146728515625,5.12680196762085,-1.5767102241516113,2.612987995147705
1701889698942125300,0.614125244140625,4.727288722991943,-1.5796551704406738,4.878077507019043
1701889698959124700,0.631124755859375,5.8915581703186035,-2.1255083084106445,8.344281196594238
1701889698976100600,0.6481005859375,7.439141273498535,-3.2583131790161133,10.231376647949219
1701889698993092000,0.665092041015625,8.198221206665039,-4.516584396362305,10.32992935180664
1701889699010072800,0.68207275390625,8.293502807617188,-5.6915411949157715,10.840876579284668
1701889699027068000,0.69906787109375,8.064555168151855,-6.67194938659668,11.460783958435059
1701889699044052000,0.716052001953125,8.482898712158203,-7.774650573730469,11.222036361694336
1701889699061041400,0.73304150390625,9.647589683532715,-9.324606895446777,11.24372673034668
1701889699078029000,0.750029052734375,10.025270462036133,-10.486120223999023,11.524356842041016
1701889699095019300,0.767019287109375,7.176537036895752,-11.473201751708984,11.178873062133789
1701889699111995400,0.783995361328125,3.9752871990203857,-13.14004135131836,10.32199478149414
1701889699128993800,0.800993896484375,1.849764108657837,-14.021162033081055,9.237238883972168
1701889699145981000,0.81798095703125,1.1139540672302246,-14.503118515014648,7.749801158905029
1701889699162970600,0.834970703125,-0.05034220218658447,-14.442691802978516,6.064326286315918
1701889699179949600,0.851949462890625,-1.0914196968078613,-13.941280364990234,4.049343585968018
1701889699196945200,0.868945068359375,-1.2788699865341187,-13.028419494628906,1.4162664413452148
1701889699213931000,0.885930908203125,-3.965970039367676,-12.20751953125,-1.556427001953125
1701889699230919700,0.902919677734375,-7.171533584594727,-11.23365592956543,-4.466099739074707
1701889699247908900,0.919908935546875,-8.952349662780762,-11.140190124511719,-7.2751970291137695
1701889699264895500,0.9368955078125,-8.356975555419922,-11.742937088012695,-11.28255558013916
1701889699281884700,0.953884765625,-7.562330722808838,-12.42342472076416,-15.416399002075195
1701889699298873600,0.97087353515625,-8.203131675720215,-13.27129077911377,-18.134050369262695
1701889699315849500,0.987849365234375,-8.768288612365723,-14.007157325744629,-20.364704132080078
1701889699332847900,1.004847900390625,-9.094355583190918,-14.735628128051758,-20.542274475097656
1701889699349834800,1.021834716796875,-9.244149208068848,-16.044042587280273,-17.79417610168457
1701889699366827500,1.03882763671875,-8.168021202087402,-17.845462799072266,-13.42883014678955
1701889699383814700,1.055814697265625,-7.477433204650879,-18.987058639526367,-9.080767631530762
1701889699400790500,1.07279052734375,-9.208145141601562,-20.038909912109375,-4.190162658691406
1701889699417788700,1.08978857421875,-12.067862510681152,-20.958498001098633,0.7595767974853516
1701889699434778400,1.1067783203125,-14.509528160095215,-21.689722061157227,4.69359016418457
1701889699451748900,1.123748779296875,-14.441022872924805,-22.54848289489746,7.037882328033447
1701889699468755700,1.140755615234375,-12.826179504394531,-23.580121994018555,8.310099601745605
1701889699485740000,1.157739990234375,-9.587369918823242,-24.17530059814453,8.889570236206055
1701889699502727400,1.1747275390625,-4.95626974105835,-24.0240478515625,10.370333671569824
1701889699519715300,1.19171533203125,-0.8402185440063477,-23.80539321899414,10.570995330810547
1701889699536704300,1.208704345703125,4.079529762268066,-22.650657653808594,11.09537124633789
1701889699553693200,1.225693115234375,8.122675895690918,-20.531795501708984,16.113588333129883
1701889699570678000,1.242677978515625,12.329595565795898,-16.487895965576172,21.394390106201172
1701889699587666000,1.259666015625,16.967159271240234,-12.635110855102539,20.70079231262207
1701889699604659500,1.276659423828125,21.073989868164062,-9.419120788574219,18.844837188720703
1701889699621641200,1.29364111328125,19.814441680908203,-7.177582263946533,18.16689109802246
1701889699638632200,1.310632080078125,15.25043773651123,-6.14436674118042,16.557588577270508
1701889699655620400,1.327620361328125,12.372645378112793,-5.9470624923706055,13.742206573486328
1701889699672588500,1.344588623046875,11.060522079467773,-5.705643653869629,11.113882064819336
1701889699689599000,1.361598876953125,10.5322265625,-5.917788505554199,10.32274341583252
1701889699706575000,1.3785751953125,9.944053649902344,-7.153820991516113,11.867354393005371
1701889699723572000,1.395572021484375,9.729606628417969,-8.711678504943848,13.956611633300781
1701889699740554500,1.412554443359375,6.6938581466674805,-10.623435020446777,16.041135787963867
1701889699757543400,1.42954345703125,1.6530828475952148,-13.05642318725586,16.548147201538086
1701889699774540500,1.44654052734375,-2.802856922149658,-15.542342185974121,15.640853881835938
1701889699791520800,1.463520751953125,-5.399753570556641,-17.995725631713867,12.938858985900879
1701889699808509700,1.480509765625,-5.88778829574585,-20.029813766479492,10.368135452270508
1701889699825503200,1.497503173828125,-6.344258785247803,-21.56688117980957,8.552387237548828
1701889699842482400,1.514482421875,-6.658151626586914,-21.92256736755371,6.511046886444092
1701889699859478300,1.531478271484375,-6.731734275817871,-22.449716567993164,5.010892868041992
1701889699876463400,1.54846337890625,-6.948324203491211,-23.142311096191406,2.1485161781311035
1701889699893452500,1.56545263671875,-7.765842437744141,-22.03986930847168,-2.747415542602539
1701889699910436000,1.58243603515625,-9.615474700927734,-18.840129852294922,-7.990753173828125
1701889699927430100,1.59943017578125,-11.880057334899902,-16.605365753173828,-12.813688278198242
1701889699944416500,1.61641650390625,-11.171180725097656,-16.297813415527344,-17.637924194335938
1701889699961400000,1.633400146484375,-8.089261054992676,-16.76913070678711,-19.745582580566406
1701889699978391000,1.65039111328125,-4.401658058166504,-17.274375915527344,-19.52892303466797
1701889699995380000,1.6673798828125,-1.3123152256011963,-17.375131607055664,-19.37033462524414
1701889700012365000,1.684364990234375,-1.0746126174926758,-17.382116317749023,-19.989486694335938
1701889700029355300,1.701355224609375,-2.641611099243164,-17.343727111816406,-19.87603759765625
1701889700046343200,1.71834326171875,-4.107734680175781,-18.123600006103516,-17.441150665283203
1701889700063331800,1.735331787109375,-5.967204570770264,-20.02018165588379,-12.417911529541016
1701889700080316400,1.75231640625,-9.014307975769043,-22.156911849975586,-6.475109100341797
1701889700097306400,1.769306396484375,-11.535037994384766,-23.57952880859375,-1.032801628112793
1701889700114294300,1.786294189453125,-12.54904556274414,-24.43952751159668,3.1502432823181152
1701889700131282000,1.803281982421875,-11.844404220581055,-24.86079978942871,5.619582176208496
1701889700148271400,1.820271240234375,-9.343536376953125,-24.440393447875977,6.886458873748779
1701889700165256400,1.83725634765625,-7.758389472961426,-23.429885864257812,7.733861923217773
1701889700182246400,1.854246337890625,-8.248661041259766,-23.35497283935547,8.67930793762207
1701889700199234600,1.871234619140625,-8.227206230163574,-23.95589256286621,11.945488929748535
1701889700216212200,1.888212158203125,-5.129964828491211,-23.574352264404297,15.797094345092773
1701889700233208300,1.905208251953125,2.549396514892578,-22.54839324951172,19.980077743530273
1701889700250196200,1.9221962890625,12.395325660705566,-18.054414749145508,25.676496505737305
1701889700267186000,1.93918603515625,19.109241485595703,-13.515527725219727,26.2022762298584
1701889700284175600,1.956175537109375,23.24374008178711,-9.522518157958984,23.82223129272461
1701889700301165800,1.973165771484375,21.826351165771484,-6.800658702850342,22.503042221069336
1701889700318140200,1.99014013671875,17.062705993652344,-5.386565685272217,19.87324333190918
1701889700335144700,2.007144775390625,13.275731086730957,-4.117910385131836,16.59206199645996
1701889700352123400,2.024123291015625,11.509668350219727,-3.6918022632598877,14.335501670837402
1701889700369121500,2.04112158203125,10.638337135314941,-4.071933746337891,13.570927619934082
1701889700386100200,2.058100341796875,10.689779281616211,-5.296573638916016,14.361945152282715
1701889700403093000,2.075093017578125,10.028443336486816,-7.051215171813965,15.95517349243164
1701889700420075300,2.0920751953125,7.180685043334961,-9.465156555175781,16.847333908081055
1701889700437066000,2.10906591796875,2.991720199584961,-12.41163444519043,15.520502090454102
1701889700454055400,2.126055419921875,-0.6839160919189453,-15.390798568725586,12.560776710510254
1701889700471037000,2.143036865234375,-3.3852264881134033,-17.859294891357422,9.607211112976074
1701889700488031700,2.16003173828125,-5.366391181945801,-19.939512252807617,7.743959426879883
1701889700505014500,2.1770146484375,-6.150924205780029,-21.137737274169922,6.507579326629639
1701889700522003200,2.194003173828125,-6.281947612762451,-21.64792251586914,5.024779796600342
1701889700538994000,2.210993896484375,-6.272805213928223,-21.578868865966797,2.90096378326416
1701889700555981800,2.22798193359375,-5.857189178466797,-20.64415740966797,0.4527931213378906
1701889700572970800,2.244970703125,-5.9527082443237305,-19.086776733398438,-2.5340919494628906
1701889700589959700,2.261959716796875,-6.864147186279297,-16.800382614135742,-6.080636978149414
1701889700606945000,2.278945068359375,-7.712306022644043,-15.148277282714844,-9.693814277648926
1701889700623935000,2.29593505859375,-7.254671096801758,-14.250212669372559,-13.48574447631836
1701889700640917000,2.3129169921875,-5.880345344543457,-13.496797561645508,-16.509777069091797
1701889700657911800,2.329911865234375,-5.685212135314941,-13.1181058883667,-18.68194580078125
1701889700674896000,2.346895751953125,-6.355191230773926,-12.684473991394043,-20.129484176635742
1701889700691878100,2.363878173828125,-6.636961460113525,-12.503523826599121,-20.359230041503906
1701889700708873000,2.380873046875,-5.640727996826172,-12.618942260742188,-18.725889205932617
1701889700725868300,2.397868408203125,-3.938878059387207,-13.364250183105469,-15.558625221252441
1701889700742847700,2.41484765625,-2.880084753036499,-14.650406837463379,-11.921335220336914
1701889700759835400,2.43183544921875,-2.9737300872802734,-16.144628524780273,-8.410030364990234
1701889700776807200,2.44880712890625,-3.892000198364258,-17.835128784179688,-5.233952522277832
1701889700793811700,2.465811767578125,-4.672845840454102,-19.26571273803711,-2.454059600830078
1701889700810803200,2.48280322265625,-5.352121829986572,-20.26995849609375,-0.1059122085571289
1701889700827793000,2.49979296875,-6.785109519958496,-20.524333953857422,2.267896890640259
1701889700844778000,2.516778076171875,-8.364052772521973,-21.165767669677734,3.764064073562622
1701889700861762600,2.533762451171875,-8.648301124572754,-20.791669845581055,4.714365482330322
1701889700878753000,2.5507529296875,-9.03615951538086,-20.157773971557617,5.985551834106445
1701889700895741000,2.567740966796875,-9.990091323852539,-19.974334716796875,7.49348783493042
1701889700912721200,2.58472119140625,-6.716143608093262,-20.12914276123047,9.680988311767578
1701889700929716700,2.601716796875,-0.3685879707336426,-18.40008544921875,12.342156410217285
1701889700946703000,2.618703125,3.242434501647949,-17.706966400146484,15.40114688873291
1701889700963685400,2.635685302734375,9.44101619720459,-17.25091552734375,22.33108901977539
1701889700980674800,2.6526748046875,18.24655532836914,-13.302309036254883,26.17761993408203
1701889700997668600,2.669668701171875,24.234058380126953,-9.214507102966309,25.11138153076172
1701889701014657500,2.686657470703125,25.050649642944336,-5.8578410148620605,22.81777000427246
1701889701031642000,2.70364208984375,19.908859252929688,-3.8075008392333984,19.54813003540039
1701889701048632000,2.720632080078125,13.646059036254883,-2.6570184230804443,16.387527465820312
1701889701065621500,2.73762158203125,9.800826072692871,-2.010592222213745,13.660421371459961
1701889701082603800,2.754603759765625,8.754751205444336,-1.7987401485443115,11.488995552062988
1701889701099596800,2.7715966796875,8.096734046936035,-2.352231979370117,11.521020889282227
1701889701116584400,2.78858447265625,6.249717712402344,-3.7501862049102783,13.185590744018555
1701889701133571000,2.805571044921875,3.985354423522949,-5.508497714996338,14.55303955078125
1701889701150558700,2.822558837890625,3.016012191772461,-7.576620578765869,14.714285850524902
1701889701167544600,2.839544677734375,1.4835729598999023,-10.296635627746582,13.859724044799805
1701889701184536600,2.85653662109375,-0.7213191986083984,-13.493490219116211,12.618843078613281
1701889701201523700,2.873523681640625,-3.0891621112823486,-16.715354919433594,10.867288589477539
1701889701218511000,2.890510986328125,-5.496165752410889,-19.25062370300293,9.11713981628418
1701889701235501300,2.907501220703125,-7.317816257476807,-20.57162094116211,7.679018497467041
1701889701252483300,2.9244833984375,-7.686150074005127,-20.78534507751465,5.852159023284912
1701889701269474000,2.94147412109375,-6.742700576782227,-19.919933319091797,3.3813745975494385
1701889701286465800,2.9584658203125,-5.382972240447998,-18.557331085205078,0.8114891052246094
1701889701303449600,2.97544970703125,-4.427446365356445,-16.916378021240234,-1.9326162338256836
1701889701320439600,2.992439453125,-5.314416885375977,-15.742658615112305,-4.8908281326293945
1701889701337428500,3.009428466796875,-6.607202053070068,-14.644658088684082,-8.868684768676758
1701889701354416600,3.026416748046875,-7.024168014526367,-14.060347557067871,-13.352176666259766
1701889701371401000,3.04340087890625,-6.316720008850098,-13.595327377319336,-17.37684440612793
1701889701388389000,3.06038916015625,-4.970665454864502,-13.10708999633789,-19.540647506713867
1701889701405383200,3.077383056640625,-3.6143314838409424,-13.069842338562012,-20.19048500061035
1701889701422361300,3.094361328125,-3.286407470703125,-13.704517364501953,-19.78635025024414
1701889701439356200,3.111356201171875,-3.8916139602661133,-14.327323913574219,-18.57444190979004
1701889701456341500,3.128341552734375,-4.568153381347656,-15.05986499786377,-15.862936019897461
1701889701473334800,3.145334716796875,-5.306858062744141,-16.307523727416992,-12.422569274902344
1701889701490319600,3.162319580078125,-5.971347332000732,-17.795730590820312,-8.438916206359863
1701889701507310300,3.179310302734375,-7.045401096343994,-18.79969024658203,-4.205931663513184
1701889701524293600,3.196293701171875,-8.860738754272461,-19.61554718017578,-0.630643367767334
1701889701541284400,3.213284423828125,-9.90396499633789,-20.382049560546875,1.7188611030578613
1701889701558271700,3.230271728515625,-9.181158065795898,-20.51323127746582,3.11326003074646
1701889701575248400,3.247248291015625,-7.919468879699707,-20.094417572021484,4.228560447692871
1701889701592237800,3.26423779296875,-6.087954044342041,-19.74295425415039,5.760095596313477
1701889701609235700,3.281235595703125,-4.0075273513793945,-18.353912353515625,8.238834381103516
1701889701626223000,3.29822314453125,-3.6013379096984863,-16.80992889404297,10.862560272216797
1701889701643208700,3.315208740234375,-0.5661654472351074,-14.440277099609375,16.83025550842285
1701889701660192500,3.332192626953125,3.986562728881836,-10.292048454284668,19.16710662841797
1701889701677187600,3.3491875,7.261308670043945,-8.956291198730469,18.578685760498047
1701889701694175200,3.36617529296875,11.223386764526367,-6.722434997558594,21.301864624023438
1701889701711163600,3.38316357421875,13.43640422821045,-4.924108982086182,22.14153480529785
1701889701728151300,3.4001513671875,14.785538673400879,-4.220987796783447,22.224740982055664
1701889701745139700,3.4171396484375,15.563453674316406,-3.277163505554199,21.7451171875
1701889701762127000,3.434127197265625,14.219399452209473,-2.415421485900879,19.254796981811523
1701889701779115800,3.45111572265625,11.318610191345215,-2.274385929107666,16.456268310546875
1701889701796103200,3.468103271484375,9.661263465881348,-2.857923746109009,14.24039363861084
1701889701813091600,3.485091552734375,8.19758415222168,-3.850674867630005,13.7289457321167
1701889701830067000,3.50206689453125,5.22860050201416,-5.256150722503662,14.104206085205078
1701889701847069000,3.51906884765625,1.6990623474121094,-6.9643144607543945,14.14535140991211
1701889701864051500,3.536051513671875,-0.43629980087280273,-9.153230667114258,13.188851356506348
1701889701881046500,3.553046630859375,-1.653834342956543,-12.006025314331055,11.098066329956055
1701889701898018300,3.570018310546875,-3.139397621154785,-15.018951416015625,8.862269401550293
1701889701915011600,3.587011474609375,-4.189722537994385,-17.135013580322266,6.756199836730957
1701889701931997200,3.6039970703125,-4.206054210662842,-17.978694915771484,4.963505268096924
1701889701948986000,3.620986083984375,-4.255312919616699,-18.296171188354492,2.9782280921936035
1701889701965975300,3.637975341796875,-4.090672016143799,-17.51339340209961,0.7243356704711914
1701889701982962200,3.654962158203125,-4.743635654449463,-15.781881332397461,-1.563054084777832
1701889701999954400,3.671954345703125,-6.411932945251465,-13.801667213439941,-3.5734939575195312
1701889702016934400,3.688934326171875,-7.784699440002441,-12.798527717590332,-5.682217597961426
1701889702033937000,3.70593701171875,-7.562063694000244,-12.501461029052734,-8.377511024475098
1701889702050931200,3.72293115234375,-5.878735542297363,-12.189913749694824,-10.965947151184082
1701889702067912200,3.739912109375,-4.107486724853516,-11.583277702331543,-13.655435562133789
1701889702084897000,3.75689697265625,-3.537580728530884,-10.894752502441406,-15.750170707702637
1701889702101886200,3.77388623046875,-4.148850917816162,-10.676630973815918,-17.239299774169922
1701889702118874600,3.79087451171875,-5.165612697601318,-10.865153312683105,-17.539155960083008
1701889702135862300,3.8078623046875,-5.062069892883301,-11.473554611206055,-16.847328186035156
1701889702152847600,3.82484765625,-3.6972224712371826,-12.503952980041504,-14.725857734680176
1701889702169839000,3.841839111328125,-2.892439842224121,-13.777239799499512,-11.779412269592285
1701889702186825700,3.85882568359375,-3.146617889404297,-15.052116394042969,-8.644908905029297
1701889702203814100,3.875814208984375,-4.526829242706299,-16.21592903137207,-5.518758773803711
1701889702220800000,3.892800048828125,-6.137196063995361,-17.374526977539062,-2.293729782104492
1701889702237794600,3.909794677734375,-7.567886829376221,-18.351898193359375,0.630612850189209
1701889702254776800,3.92677685546875,-8.137358665466309,-18.721702575683594,2.837005615234375
1701889702271763200,3.94376318359375,-8.016707420349121,-18.56464958190918,4.291744709014893
1701889702288744000,3.960743896484375,-6.651143550872803,-18.242183685302734,5.126650810241699
1701889702305734000,3.97773388671875,-4.653787612915039,-17.804710388183594,5.196258544921875
1701889702322721000,3.994720947265625,-2.3463211059570312,-16.703052520751953,6.1441650390625
1701889702339708400,4.01170849609375,-1.652514934539795,-15.122993469238281,7.623694896697998
1701889702356699400,4.028699462890625,-0.6881918907165527,-14.208011627197266,10.948699951171875
1701889702373682400,4.045682373046875,2.2252330780029297,-12.397974014282227,14.955253601074219
1701889702390674400,4.06267431640625,6.459345817565918,-10.756834030151367,19.515464782714844
1701889702407659800,4.07965966796875,11.921143531799316,-6.998777866363525,22.294538497924805
1701889702424650800,4.096650634765625,14.70798397064209,-3.407578706741333,21.75481414794922
1701889702441638100,4.11363818359375,15.25034236907959,-1.4641178846359253,21.69629669189453
1701889702458624500,4.13062451171875,12.19611644744873,-0.8176872730255127,21.83927345275879
1701889702475612400,4.1476123046875,7.592911720275879,-0.9201512336730957,20.75403594970703
1701889702492599800,4.164599853515625,5.402817726135254,-1.0877025127410889,17.656309127807617
1701889702509588500,4.18158837890625,5.555866241455078,-1.2715463638305664,14.811315536499023
1701889702526578700,4.19857861328125,5.751582145690918,-2.2850918769836426,13.766948699951172
1701889702543563000,4.21556298828125,5.6909027099609375,-4.012658596038818,13.812135696411133
1701889702560554800,4.2325546875,4.607688903808594,-6.094987869262695,14.071500778198242
1701889702577548000,4.249548095703125,2.144911766052246,-8.319571495056152,13.75218391418457
1701889702594527200,4.26652734375,-0.879908561706543,-10.633298873901367,12.264349937438965
1701889702611526100,4.283526123046875,-3.0940730571746826,-12.855558395385742,10.448202133178711
1701889702628511200,4.30051123046875,-4.294589042663574,-15.16930866241455,8.326211929321289
1701889702645503200,4.317503173828125,-4.518050670623779,-17.233409881591797,6.597494125366211
1701889702662486300,4.334486328125,-3.871042251586914,-18.295658111572266,4.974516868591309
1701889702679477000,4.35147705078125,-4.002692699432373,-18.364124298095703,3.201658248901367
1701889702696463000,4.368463134765625,-4.272337436676025,-17.66097068786621,1.553328514099121
1701889702713455600,4.38545556640625,-4.773306369781494,-16.802486419677734,-0.1589975357055664
1701889702730429000,4.402428955078125,-5.317634582519531,-16.348861694335938,-3.014002799987793
1701889702747429000,4.41942919921875,-6.110663414001465,-15.688983917236328,-6.984291076660156
1701889702764417500,4.43641748046875,-7.413487434387207,-14.789793014526367,-11.621522903442383
1701889702781404700,4.45340478515625,-8.219242095947266,-13.958290100097656,-16.118919372558594
1701889702798392600,4.470392578125,-7.678525924682617,-13.19443416595459,-19.088088989257812
1701889702815381200,4.48738134765625,-5.214156150817871,-12.773426055908203,-20.38934326171875
1701889702832369200,4.504369140625,-2.7145891189575195,-12.495848655700684,-20.060365676879883
1701889702849354200,4.521354248046875,-1.7008130550384521,-12.45164680480957,-18.206693649291992
1701889702866346500,4.538346435546875,-2.1182022094726562,-12.949856758117676,-15.410856246948242
1701889702883334000,4.555333984375,-3.165396213531494,-14.038893699645996,-12.375203132629395
1701889702900321000,4.572321044921875,-4.589807987213135,-15.647676467895508,-9.519908905029297
1701889702917307600,4.5893076171875,-6.0193352699279785,-17.113361358642578,-6.658729553222656
1701889702934297900,4.6062978515625,-7.439973831176758,-18.40284538269043,-3.648503303527832
1701889702951284700,4.62328466796875,-8.012396812438965,-19.299388885498047,-0.6641645431518555
1701889702968272400,4.6402724609375,-7.540373802185059,-19.662517547607422,1.8655729293823242
1701889702985260800,4.6572607421875,-6.9731926918029785,-19.92879295349121,3.730455160140991
1701889703002249000,4.6742490234375,-6.13054895401001,-19.65270233154297,5.355316162109375
1701889703019236400,4.691236328125,-4.605627059936523,-18.434877395629883,7.866888999938965
1701889703036224800,4.708224853515625,-2.894503593444824,-15.945491790771484,10.838153839111328
1701889703053209000,4.725208984375,-1.7380762100219727,-14.101652145385742,12.033585548400879
1701889703070200800,4.742200927734375,2.0679073333740234,-12.683213233947754,14.891168594360352
1701889703087188200,4.759188232421875,5.157912254333496,-9.368844985961914,16.357011795043945
1701889703104177000,4.776177001953125,5.212087631225586,-7.798515319824219,16.13365936279297
1701889703121162000,4.793161865234375,8.66785717010498,-6.380974769592285,20.655698776245117
1701889703138154800,4.81015478515625,11.388002395629883,-3.252565383911133,23.805204391479492
1701889703155139800,4.827139892578125,11.724838256835938,-1.6824920177459717,24.22589683532715
1701889703172127700,4.844127685546875,12.43010139465332,-1.1109671592712402,24.015003204345703
1701889703189113600,4.861113525390625,11.906494140625,-0.5463659763336182,21.41584014892578
1701889703206100000,4.878099853515625,9.086784362792969,-0.694953203201294,17.954301834106445
1701889703223093800,4.89509375,6.385072708129883,-1.5438878536224365,15.368059158325195
1701889703240077000,4.9120771484375,4.292146682739258,-2.963193416595459,14.187485694885254
1701889703257066000,4.92906591796875,3.0357704162597656,-4.850641250610352,13.59787368774414
1701889703274059000,4.94605908203125,1.5214428901672363,-6.614212989807129,12.54212760925293
1701889703291043600,4.963043701171875,0.693819522857666,-8.56886100769043,11.216367721557617
1701889703308032000,4.980031982421875,-0.10463619232177734,-10.91938591003418,9.65192985534668
1701889703325019600,4.99701953125,-0.9964308738708496,-13.58869743347168,7.987954139709473
1701889703342008000,5.014008056640625,-2.290278196334839,-15.523902893066406,5.774579048156738
1701889703358979300,5.030979248046875,-3.9753172397613525,-16.608312606811523,3.3915419578552246
1701889703375984400,5.047984375,-5.075003623962402,-16.180217742919922,1.4125704765319824
1701889703392969000,5.064968994140625,-6.244897842407227,-15.55328369140625,0.2981433868408203
1701889703409962800,5.081962646484375,-6.784519195556641,-14.985610008239746,-1.0694446563720703
1701889703426936300,5.098936279296875,-7.3632097244262695,-14.032254219055176,-3.1664934158325195
1701889703443934000,5.115933837890625,-7.728734016418457,-13.181106567382812,-5.052202224731445
1701889703460925700,5.13292578125,-6.568606376647949,-12.368156433105469,-8.135916709899902
1701889703477912000,5.149912109375,-5.607268333435059,-12.160188674926758,-11.07856273651123
1701889703494901200,5.1669013671875,-5.616987705230713,-12.089530944824219,-14.302114486694336
1701889703511875800,5.183875732421875,-6.164000511169434,-11.646780967712402,-17.349769592285156
1701889703528874800,5.200874755859375,-6.504487037658691,-11.169917106628418,-19.024017333984375
1701889703545863700,5.21786376953125,-5.804773330688477,-11.065021514892578,-18.808435440063477
1701889703562848000,5.234847900390625,-4.72426700592041,-11.33881664276123,-17.011123657226562
1701889703579829000,5.2518291015625,-4.383548736572266,-11.81857967376709,-13.813699722290039
1701889703596827400,5.268827392578125,-6.380354404449463,-12.88078498840332,-10.011722564697266
1701889703613813000,5.28581298828125,-8.635879516601562,-14.146613121032715,-6.897600173950195
1701889703630805800,5.3028056640625,-8.737586975097656,-15.33383846282959,-4.507993698120117
1701889703647789600,5.31978955078125,-6.893943786621094,-15.805988311767578,-2.6362457275390625
1701889703664778800,5.33677880859375,-6.840655326843262,-16.27491569519043,-1.1105070114135742
1701889703681767400,5.353767333984375,-8.354695320129395,-17.139253616333008,0.7545957565307617
1701889703698754800,5.3707548828125,-9.682618141174316,-17.96993637084961,2.6553356647491455
1701889703715741000,5.387740966796875,-9.88249397277832,-18.234596252441406,3.967517137527466
1701889703732723200,5.40472314453125,-8.600261688232422,-17.901859283447266,5.32680606842041
1701889703749718800,5.42171875,-6.537242412567139,-16.735570907592773,6.848149299621582
1701889703766707700,5.438707763671875,-4.941225051879883,-16.22681427001953,10.254205703735352
1701889703783695000,5.455695068359375,-2.9171323776245117,-13.960403442382812,14.476899147033691
1701889703800682500,5.4726826171875,0.04139423370361328,-13.23941707611084,16.166372299194336
1701889703817671400,5.48967138671875,5.313672065734863,-12.28425407409668,16.092182159423828
1701889703834658600,5.506658447265625,11.959342956542969,-9.881919860839844,17.285245895385742
1701889703851660500,5.52366064453125,14.721501350402832,-6.199839115142822,20.845304489135742
1701889703868634600,5.540634521484375,13.328837394714355,-2.5308194160461426,22.23615837097168
1701889703885623300,5.557623291015625,10.07861042022705,-0.5626019239425659,22.417953491210938
1701889703902603800,5.574603759765625,7.426884651184082,0.8181755542755127,22.766523361206055
1701889703919601700,5.5916015625,6.704459190368652,1.2968449592590332,20.31633758544922
1701889703936582400,5.60858251953125,6.99420166015625,0.983750581741333,17.1395206451416
1701889703953568500,5.625568603515625,6.642765045166016,-0.02045726776123047,14.88403034210205
1701889703970562300,5.642562255859375,5.184841156005859,-1.7560999393463135,14.724616050720215
1701889703987552800,5.659552734375,3.8632583618164062,-3.9746460914611816,15.700057983398438
1701889704004536300,5.676536376953125,2.964230537414551,-6.135191917419434,15.71857738494873
1701889704021526800,5.69352685546875,1.5429000854492188,-8.33790397644043,14.868561744689941
1701889704038514200,5.71051416015625,-1.094871997833252,-10.712793350219727,13.395539283752441
1701889704055502800,5.7275029296875,-3.8873391151428223,-13.171258926391602,11.548802375793457
1701889704072479700,5.744479736328125,-6.492897987365723,-15.339115142822266,9.556114196777344
1701889704089478700,5.761478759765625,-7.792451858520508,-17.164352416992188,8.189530372619629
1701889704106466300,5.77846630859375,-6.889865875244141,-18.408489227294922,6.438952922821045
1701889704123454500,5.795454345703125,-5.466669082641602,-18.71985626220703,4.751248836517334
1701889704140441900,5.81244189453125,-5.094134330749512,-18.721553802490234,3.058788299560547
1701889704157430500,5.829430419921875,-5.833652973175049,-18.08272933959961,1.3535375595092773
1701889704174418200,5.846418212890625,-8.076335906982422,-17.5601806640625,-0.7497615814208984
1701889704191406600,5.863406494140625,-9.349660873413086,-16.538856506347656,-4.575283050537109
1701889704208395000,5.88039501953125,-9.091694831848145,-15.447677612304688,-9.67994213104248
1701889704225381400,5.89738134765625,-7.759890556335449,-13.900908470153809,-14.808951377868652
1701889704242369800,5.914369873046875,-6.784379005432129,-13.090434074401855,-18.099769592285156
1701889704259357400,5.931357421875,-5.844112396240234,-13.463634490966797,-19.259868621826172
1701889704276344600,5.948344482421875,-4.390655994415283,-14.05400276184082,-19.434165954589844
1701889704293334000,5.965333984375,-3.2617788314819336,-14.40276050567627,-18.477035522460938
1701889704310324500,5.982324462890625,-2.7089967727661133,-14.54098129272461,-16.711414337158203
1701889704327312100,5.99931201171875,-2.064492702484131,-14.818809509277344,-14.309667587280273
1701889704344285700,6.01628564453125,-2.367845058441162,-15.607184410095215,-11.093116760253906
1701889704361286100,6.0332861328125,-4.547125339508057,-17.154645919799805,-7.345672607421875
1701889704378273800,6.050273681640625,-7.118937015533447,-18.632213592529297,-3.9086599349975586
1701889704395262500,6.067262451171875,-9.265307426452637,-19.41319465637207,-1.005105972290039
1701889704412249600,6.08424951171875,-9.677167892456055,-19.76059913635254,1.3288326263427734
1701889704429238000,6.101238037109375,-8.79488754272461,-19.895160675048828,3.5885300636291504
1701889704446224600,6.118224609375,-7.4074602127075195,-19.6241455078125,6.121644020080566
1701889704463214600,6.135214599609375,-4.46143102645874,-17.302658081054688,10.439757347106934
1701889704480198100,6.1521982421875,-3.6583616733551025,-13.568254470825195,14.207931518554688
1701889704497193000,6.16919287109375,-5.53252649307251,-10.389556884765625,15.012242317199707
1701889704514177300,6.18617724609375,-5.8817138671875,-8.874937057495117,14.045045852661133
1701889704531165700,6.203165771484375,-0.9161214828491211,-8.487502098083496,15.515132904052734
1701889704548153300,6.2201533203125,9.072860717773438,-6.166003704071045,18.174448013305664
1701889704565142000,6.23714208984375,14.42172622680664,-1.4543588161468506,18.353736877441406
1701889704582126300,6.254126220703125,11.879693984985352,1.7076244354248047,17.855472564697266
1701889704599117600,6.27111767578125,6.055501937866211,3.2874865531921387,18.56452178955078
1701889704616105200,6.288105224609375,1.4951915740966797,4.098907470703125,20.5975399017334
1701889704633093600,6.30509375,1.4795122146606445,3.9288225173950195,22.006513595581055
1701889704650075400,6.322075439453125,4.838004112243652,3.2540440559387207,21.19852066040039
1701889704667072300,6.339072265625,7.675634384155273,2.7322378158569336,18.03110122680664
1701889704684057300,6.356057373046875,7.397934913635254,1.5611591339111328,14.692995071411133
1701889704701045500,6.37304541015625,4.856917381286621,-0.40529441833496094,13.125985145568848
1701889704718033000,6.390032958984375,2.43923282623291,-2.2544991970062256,12.957974433898926
1701889704735021600,6.407021484375,0.7514810562133789,-3.816774368286133,13.169573783874512
1701889704752009000,6.424009033203125,-0.7227382659912109,-5.418224811553955,13.043272018432617
1701889704768993300,6.4409931640625,-2.631089210510254,-7.5501298904418945,12.596771240234375
1701889704785987600,6.457987548828125,-4.037358283996582,-9.802955627441406,11.634686470031738
1701889704802970000,6.47497021484375,-4.576476573944092,-12.30906867980957,10.1476469039917
1701889704819964200,6.491964111328125,-5.089710712432861,-14.699405670166016,8.151538848876953
1701889704836948700,6.50894873046875,-4.8544511795043945,-17.074554443359375,5.7534589767456055
1701889704853937700,6.525937744140625,-3.461110830307007,-18.287315368652344,3.186601400375366
1701889704870925000,6.542925048828125,-2.645022392272949,-18.19672203063965,0.8072824478149414
1701889704887898600,6.559898681640625,-3.8790152072906494,-16.904088973999023,-1.0446863174438477
1701889704904898600,6.576898681640625,-6.40778112411499,-15.144248962402344,-4.07243537902832
1701889704921891300,6.593891357421875,-8.140581130981445,-12.390097618103027,-7.473832130432129
1701889704938874400,6.610874267578125,-8.148205757141113,-10.670214653015137,-8.49902629852295
1701889704955855600,6.627855712890625,-5.286415100097656,-10.062943458557129,-9.653253555297852
1701889704972850000,6.644849853515625,-3.1908562183380127,-9.655977249145508,-11.035009384155273
1701889704989840400,6.66184033203125,-3.819458246231079,-9.440757751464844,-12.349924087524414
1701889705006829000,6.6788291015625,-5.378701210021973,-9.540336608886719,-14.08700942993164
1701889705023816400,6.69581640625,-6.060220718383789,-9.289348602294922,-16.53789520263672
1701889705040805000,6.71280517578125,-6.493612289428711,-9.493997573852539,-17.66407585144043
1701889705057792500,6.72979248046875,-5.6682868003845215,-10.173538208007812,-16.412376403808594
1701889705074780700,6.74678076171875,-3.877916097640991,-10.893606185913086,-13.76372241973877
1701889705091752000,6.763751953125,-2.2148094177246094,-11.616230010986328,-11.040054321289062
1701889705108757000,6.780757080078125,-1.8312537670135498,-12.104804992675781,-8.691518783569336
1701889705125744600,6.79774462890625,-3.0531387329101562,-12.867633819580078,-6.2651472091674805
1701889705142729500,6.8147294921875,-5.063354969024658,-14.156301498413086,-3.5308837890625
1701889705159722000,6.831721923828125,-6.639436721801758,-15.546873092651367,-0.9613423347473145
1701889705176709600,6.848709716796875,-6.930725574493408,-17.24425506591797,0.9550671577453613
1701889705193699600,6.865699462890625,-5.612260818481445,-18.01299285888672,2.0023574829101562
1701889705210684700,6.8826845703125,-4.163264274597168,-17.897384643554688,2.9265809059143066
1701889705227659000,6.899658935546875,-2.0158653259277344,-17.404342651367188,5.533556938171387
1701889705244663300,6.916663330078125,-1.0252418518066406,-15.978052139282227,7.513935089111328
1701889705261648000,6.93364794921875,-1.0597171783447266,-14.046798706054688,9.097929954528809
1701889705278634000,6.950634033203125,-2.2343010902404785,-11.913985252380371,8.916797637939453
1701889705295627000,6.967626953125,-3.836920738220215,-10.594289779663086,10.116888999938965
1701889705312598800,6.984598876953125,-2.5671753883361816,-8.210079193115234,14.90736198425293
1701889705329597200,7.00159716796875,0.006245136260986328,-5.470109462738037,19.852800369262695
1701889705346590500,7.018590576171875,4.113942623138428,-2.7972030639648438,24.274778366088867
1701889705363576600,7.03557666015625,7.509582042694092,0.2591133117675781,25.37232780456543
1701889705380551700,7.0525517578125,7.832141876220703,2.7503366470336914,24.285436630249023
1701889705397543000,7.06954296875,5.675245761871338,3.9363903999328613,22.253812789916992
1701889705414529800,7.08652978515625,2.8706765174865723,3.930816173553467,19.72981071472168
1701889705431519200,7.103519287109375,0.8411517143249512,3.7434544563293457,17.872892379760742
1701889705448513800,7.120513671875,0.6432023048400879,2.335411548614502,17.042797088623047
1701889705465506300,7.13750634765625,1.8577919006347656,-0.3701915740966797,16.977312088012695
1701889705482489000,7.154489013671875,3.0471324920654297,-2.8056321144104004,16.417396545410156
1701889705499479600,7.1714794921875,2.841263771057129,-5.004093647003174,15.070446014404297
1701889705516476700,7.1884765625,0.3904695510864258,-7.474008083343506,13.552216529846191
1701889705533455400,7.205455322265625,-2.466311454772949,-10.392345428466797,11.99808406829834
1701889705550444300,7.2224443359375,-4.977350234985352,-12.891908645629883,10.296010971069336
1701889705567431400,7.239431396484375,-6.589577674865723,-14.474196434020996,8.655537605285645
1701889705584419800,7.256419921875,-7.051027774810791,-15.465439796447754,6.986039161682129
1701889705601407200,7.2734072265625,-6.990662574768066,-16.176738739013672,5.591429233551025
1701889705618392000,7.29039208984375,-6.009037971496582,-17.1861629486084,3.3647966384887695
1701889705635384000,7.307384033203125,-4.571804523468018,-16.846128463745117,0.5997171401977539
1701889705652371700,7.324371826171875,-4.41778564453125,-15.399835586547852,-2.1844348907470703
1701889705669347800,7.341347900390625,-5.30845308303833,-14.206464767456055,-4.890817642211914
1701889705686348500,7.3583486328125,-6.281947135925293,-13.788472175598145,-8.697046279907227
1701889705703335400,7.37533544921875,-7.326210021972656,-13.523813247680664,-13.030966758728027
1701889705720323800,7.39232373046875,-7.347589015960693,-13.681502342224121,-17.080589294433594
1701889705737311200,7.409311279296875,-5.836364269256592,-13.837352752685547,-19.903507232666016
1701889705754300000,7.4262998046875,-3.217623233795166,-13.895113945007324,-21.089019775390625
1701889705771287300,7.443287353515625,-0.7161633968353271,-13.882396697998047,-20.438167572021484
1701889705788266800,7.460266845703125,0.44837236404418945,-13.75800609588623,-17.99342918395996
1701889705805249800,7.477249755859375,0.39687061309814453,-13.909299850463867,-14.785205841064453
1701889705822248200,7.494248291015625,-0.9243679046630859,-14.498658180236816,-11.425919532775879
1701889705839234600,7.511234619140625,-3.4114303588867188,-15.452754020690918,-8.404277801513672
1701889705856223200,7.52822314453125,-7.134388446807861,-16.65772247314453,-5.0782623291015625
1701889705873205200,7.545205322265625,-10.17544937133789,-17.520915985107422,-1.8300862312316895
1701889705890197500,7.562197509765625,-10.893040657043457,-18.209857940673828,0.8924045562744141
1701889705907183000,7.57918310546875,-9.958096504211426,-18.23369598388672,2.7308099269866943
1701889705924169000,7.5961689453125,-8.824283599853516,-18.145038604736328,4.092033386230469
1701889705941161000,7.613160888671875,-7.589120388031006,-17.302879333496094,5.899596691131592
1701889705958153200,7.6301533203125,-7.5977783203125,-17.066574096679688,5.672965049743652
1701889705975132400,7.64713232421875,-5.4128618240356445,-16.00725555419922,8.680702209472656
1701889705992122000,7.6641220703125,-2.2580690383911133,-14.483434677124023,12.578268051147461
1701889706009108700,7.681108642578125,1.352081298828125,-11.923648834228516,15.453916549682617
1701889706026098400,7.698098388671875,4.887814521789551,-9.501102447509766,19.19832420349121
1701889706043087000,7.715087158203125,6.882391929626465,-5.556018352508545,21.24730682373047
1701889706060075800,7.73207568359375,5.771760940551758,-2.530653953552246,18.533164978027344
1701889706077060400,7.749060302734375,4.659762382507324,-0.802830696105957,14.428441047668457
1701889706094050000,7.766050048828125,5.223964691162109,-0.04526352882385254,13.587346076965332
1701889706111039500,7.78303955078125,7.0993452072143555,-0.05910229682922363,16.691680908203125
1701889706128038000,7.800037841796875,9.188214302062988,-0.1864185333251953,18.788625717163086
1701889706145022200,7.817022216796875,11.16580581665039,-0.44608187675476074,19.92252540588379
1701889706162008300,7.83400830078125,11.350090980529785,-0.5656437873840332,19.354507446289062
1701889706178983200,7.850983154296875,8.710972785949707,-1.6977920532226562,17.209842681884766
1701889706195984400,7.867984375,5.175919532775879,-3.516868829727173,15.203871726989746
1701889706212974600,7.884974609375,3.2364206314086914,-5.080874443054199,14.068360328674316
1701889706229960700,7.901960693359375,2.1772708892822266,-6.780935764312744,13.515281677246094
1701889706246952000,7.918951904296875,0.4211893081665039,-8.679034233093262,13.25476360321045
1701889706263939800,7.93593994140625,-2.1974382400512695,-10.969993591308594,12.509705543518066
1701889706280926200,7.95292626953125,-4.299540042877197,-13.668481826782227,11.047723770141602
1701889706297914600,7.96991455078125,-5.663074493408203,-16.52680206298828,8.48839282989502
1701889706314902500,7.986902587890625,-5.55811882019043,-18.094594955444336,5.878789901733398
1701889706331880400,8.00388037109375,-4.701106071472168,-18.53342056274414,3.6255664825439453
1701889706348878300,8.02087841796875,-3.9963550567626953,-18.021663665771484,1.6701922416687012
1701889706365864200,8.0378642578125,-4.650920867919922,-16.878719329833984,0.34647274017333984
1701889706382857000,8.05485693359375,-6.445382595062256,-15.954096794128418,-1.3336467742919922
1701889706399839000,8.0718388671875,-7.794145584106445,-15.089756965637207,-4.400789737701416
1701889706416833800,8.088833740234374,-8.120978355407715,-14.511266708374023,-8.422279357910156
1701889706433818600,8.105818603515624,-7.383471965789795,-13.814730644226074,-13.141860008239746
1701889706450806300,8.12280615234375,-6.897940635681152,-13.113812446594238,-17.032176971435547
1701889706467794700,8.139794677734375,-5.6482133865356445,-12.227190971374512,-19.361326217651367
1701889706484782000,8.156781982421874,-3.938462257385254,-11.932999610900879,-20.072834014892578
1701889706501767700,8.173767578125,-2.4180829524993896,-12.095586776733398,-19.445096969604492
1701889706518758000,8.1907578125,-1.8130934238433838,-12.090046882629395,-18.366235733032227
1701889706535736800,8.20773681640625,-2.6692304611206055,-12.789119720458984,-15.92444133758545
1701889706552723000,8.224722900390624,-3.4447619915008545,-14.018933296203613,-12.923486709594727
1701889706569721900,8.241721923828125,-3.942457675933838,-15.626840591430664,-10.254518508911133
1701889706586710800,8.258710693359374,-4.979165554046631,-17.181499481201172,-7.625792503356934
1701889706603698700,8.27569873046875,-6.065968036651611,-18.283905029296875,-4.551246166229248
1701889706620685800,8.292685791015625,-7.002864837646484,-19.301708221435547,-1.4039759635925293
1701889706637674500,8.309674560546876,-8.358296394348145,-20.2552490234375,1.436206340789795
1701889706654662000,8.326661865234374,-9.621467590332031,-20.496950149536133,3.4080939292907715
1701889706671650300,8.343650390625,-9.563504219055176,-20.13913345336914,4.597796440124512
1701889706688626400,8.36062646484375,-7.504169464111328,-19.570110321044922,5.692478656768799
1701889706705624800,8.377624755859374,-5.736988544464111,-18.05319595336914,7.32644510269165
1701889706722616000,8.394615966796875,-4.852210998535156,-17.161624908447266,8.840803146362305
1701889706739602400,8.4116025390625,-2.053464412689209,-16.434513092041016,12.7705717086792
1701889706756589000,8.428589111328124,2.096790313720703,-14.443487167358398,15.896499633789062
1701889706773579000,8.4455791015625,5.5738677978515625,-13.132879257202148,17.725297927856445
1701889706790565600,8.462565673828125,10.239763259887695,-10.694356918334961,21.647375106811523
1701889706807555600,8.4795556640625,13.624961853027344,-7.036838531494141,23.557649612426758
1701889706824537300,8.496537353515626,15.009544372558594,-3.8331806659698486,25.093711853027344
1701889706841530000,8.513530029296875,11.988767623901367,-1.511725902557373,25.612064361572266
1701889706858517500,8.530517578125,7.200676918029785,-0.8739809989929199,23.069042205810547
1701889706875506000,8.547505859375,4.934268951416016,-0.31720733642578125,18.583005905151367
1701889706892487700,8.56448779296875,4.978879928588867,-0.7494852542877197,14.809684753417969
1701889706909467000,8.581466796875,5.907473564147949,-2.2709879875183105,13.168825149536133
1701889706926469600,8.5984697265625,6.108088493347168,-3.7141101360321045,13.600237846374512
1701889706943457800,8.615457763671875,5.122031211853027,-5.283760070800781,14.406210899353027
1701889706960445700,8.63244580078125,3.0649900436401367,-7.258092403411865,14.497485160827637
1701889706977433600,8.64943359375,0.20389270782470703,-9.688037872314453,13.358186721801758
1701889706994410800,8.66641064453125,-2.4817075729370117,-12.347023010253906,11.605199813842773
1701889707011404300,8.683404296875,-4.4865522384643555,-15.197999954223633,9.433961868286133
1701889707028402200,8.700402099609375,-5.147256851196289,-17.595806121826172,7.276519775390625
1701889707045383700,8.7173837890625,-4.318342208862305,-19.55658531188965,5.315733432769775
1701889707062373000,8.734373046875,-2.058868169784546,-20.468774795532227,3.276000499725342
1701889707079360800,8.75136083984375,-0.6003241539001465,-20.271760940551758,1.1101861000061035
1701889707096350200,8.76835009765625,-2.6239523887634277,-19.268442153930664,-0.40130138397216797
1701889707113337900,8.785337890625,-7.7327680587768555,-19.03608512878418,-2.6705141067504883
1701889707130325000,8.802324951171874,-9.994325637817383,-16.930814743041992,-7.794346809387207
1701889707147315500,8.8193154296875,-8.561922073364258,-14.235801696777344,-12.613921165466309
1701889707164299800,8.8362998046875,-5.237917900085449,-12.570202827453613,-15.724909782409668
1701889707181289500,8.85328955078125,-2.472099542617798,-11.732292175292969,-17.177024841308594
1701889707198277000,8.870277099609375,-2.7986063957214355,-12.070661544799805,-18.42582130432129
1701889707215266000,8.88726611328125,-4.836260795593262,-12.051280975341797,-20.869583129882812
1701889707232253000,8.9042529296875,-7.1831512451171875,-11.260529518127441,-22.769943237304688
1701889707249241600,8.92124169921875,-8.089350700378418,-11.26660442352295,-20.796939849853516
1701889707266228200,8.938228271484375,-6.7247314453125,-12.272326469421387,-15.819795608520508
1701889707283217400,8.955217529296876,-5.4221696853637695,-13.782234191894531,-10.7543306350708
1701889707300202800,8.97220263671875,-5.323178291320801,-15.189619064331055,-6.832033157348633
1701889707317186000,8.98918603515625,-6.024790287017822,-16.706809997558594,-4.21977424621582
1701889707334178000,9.006177978515625,-6.248435020446777,-17.67560386657715,-2.308640480041504
1701889707351169500,9.02316943359375,-5.880393981933594,-18.40524673461914,-0.6021385192871094
1701889707368157000,9.040156982421875,-5.70844841003418,-18.873779296875,1.1341238021850586
1701889707385145600,9.0571455078125,-6.2398457527160645,-19.158309936523438,2.833268642425537
1701889707402127000,9.074127197265625,-6.149897575378418,-19.08913230895996,3.764632225036621
1701889707419124000,9.0911240234375,-5.318050384521484,-18.63277816772461,4.5372514724731445
1701889707436108800,9.10810888671875,-4.641541481018066,-17.877700805664062,5.895320892333984
1701889707453097200,9.12509716796875,-2.27223539352417,-16.347187042236328,9.134105682373047
1701889707470082600,9.14208251953125,-0.8253278732299805,-14.131778717041016,11.76220703125
1701889707487073300,9.1590732421875,0.9060354232788086,-12.81459903717041,15.738798141479492
1701889707504060700,9.176060791015624,4.448735237121582,-10.203289031982422,19.876270294189453
1701889707521049000,9.193049072265625,7.872469902038574,-7.476922512054443,20.252361297607422
1701889707538026200,9.210026123046875,11.742467880249023,-5.1369829177856445,20.841461181640625
1701889707555025200,9.227025146484374,13.587199211120605,-2.7015368938446045,21.42902946472168
1701889707572012500,9.244012451171875,12.218171119689941,-1.8693006038665771,20.942214965820312
1701889707589000200,9.261000244140625,10.208395957946777,-1.861217737197876,20.202964782714844
1701889707605989000,9.277989013671874,8.805611610412598,-1.633959412574768,18.726106643676758
1701889707622977000,9.29497705078125,7.550394058227539,-1.5309346914291382,16.77292251586914
1701889707639964700,9.311964599609375,6.304777145385742,-2.2926175594329834,15.419973373413086
1701889707656953300,9.328953369140624,5.627691268920898,-3.738346815109253,15.085268020629883
1701889707673940500,9.3459404296875,5.045317649841309,-5.280063152313232,15.013845443725586
1701889707690929000,9.362928955078125,2.687459945678711,-6.949374198913574,14.743731498718262
1701889707707916300,9.379916259765626,-0.4878215789794922,-8.847860336303711,14.077672958374023
1701889707724906500,9.396906494140625,-2.9318175315856934,-10.971652030944824,12.761455535888672
1701889707741889300,9.41388916015625,-4.17469596862793,-13.361959457397461,10.882328987121582
1701889707758884000,9.430884033203125,-4.845054626464844,-15.80868911743164,8.587574005126953
1701889707775867600,9.44786767578125,-5.093498229980469,-17.630889892578125,6.11436653137207
1701889707792857600,9.464857666015625,-5.005018711090088,-18.32504653930664,4.30401086807251
1701889707809844500,9.481844482421875,-5.534765243530273,-17.733518600463867,2.6358654499053955
1701889707826832600,9.49883251953125,-6.616042137145996,-16.502397537231445,1.1839599609375
1701889707843820000,9.515820068359375,-7.884940147399902,-15.513556480407715,-0.0021347999572753906
1701889707860808700,9.53280859375,-8.257692337036133,-14.84950065612793,-1.9845337867736816
1701889707877796400,9.54979638671875,-7.565855503082275,-14.425071716308594,-4.664187431335449
1701889707894784800,9.56678466796875,-6.517332553863525,-13.681466102600098,-8.351642608642578
1701889707911768000,9.58376806640625,-5.754108905792236,-12.388789176940918,-12.048809051513672
1701889707928760800,9.6007607421875,-5.122544765472412,-11.363436698913574,-14.78065299987793
1701889707945736400,9.617736328125,-3.933694839477539,-10.903176307678223,-16.92812156677246
1701889707962731000,9.63473095703125,-3.358687400817871,-10.903621673583984,-18.51962661743164
1701889707979724000,9.65172412109375,-3.9222347736358643,-11.133112907409668,-19.261919021606445
1701889707996712700,9.668712646484375,-4.611323356628418,-11.15199089050293,-18.448387145996094
1701889708013699800,9.685699951171875,-4.367147445678711,-11.5986328125,-16.372966766357422
1701889708030688800,9.702688720703126,-3.483506917953491,-12.445701599121094,-13.668880462646484
1701889708047673600,9.719673583984376,-3.5011653900146484,-13.605729103088379,-10.70193862915039
1701889708064667100,9.736667236328126,-4.79631233215332,-14.859410285949707,-8.060132026672363
1701889708081652000,9.75365185546875,-6.672874450683594,-15.954041481018066,-5.626513481140137
1701889708098639600,9.7706396484375,-8.721559524536133,-17.068693161010742,-2.7504425048828125
1701889708115628500,9.787628662109375,-9.722299575805664,-18.075284957885742,-0.17023849487304688
1701889708132598800,9.804598876953126,-9.352563858032227,-18.9468994140625,1.5901565551757812
1701889708149593300,9.82159326171875,-8.217172622680664,-19.373506546020508,3.000969409942627
1701889708166591500,9.838591552734375,-7.185616970062256,-18.91156768798828,4.6160478591918945
1701889708183580700,9.85558056640625,-6.225536823272705,-17.681068420410156,6.529594421386719
1701889708200568600,9.872568603515624,-5.387868881225586,-16.385910034179688,8.557794570922852
1701889708217555700,9.8895556640625,-3.852466583251953,-14.512653350830078,13.062562942504883
1701889708234541300,9.906541259765625,-2.372267723083496,-11.646592140197754,16.119815826416016
1701889708251531800,9.92353173828125,-0.7172994613647461,-10.298316955566406,16.613479614257812
1701889708268517600,9.940517578125,4.398890495300293,-9.196887969970703,20.63507652282715
1701889708285510400,9.957510498046876,9.94589900970459,-5.931478500366211,24.105836868286133
1701889708302496300,9.974496337890624,11.853246688842773,-3.1089510917663574,26.527973175048828
1701889708319483600,9.991483642578125,11.086149215698242,-1.3379513025283813,27.195762634277344
1701889708336469800,10.0084697265625,9.11434555053711,-0.8254396915435791,24.272188186645508
1701889708353462500,10.025462646484375,7.555702209472656,-0.6863226890563965,19.795475006103516
1701889708370448100,10.0424482421875,6.855410575866699,-0.23872780799865723,15.55126953125
1701889708387435300,10.059435302734375,6.208127975463867,-0.3748819828033447,13.625703811645508
1701889708404422000,10.076421875,5.170993804931641,-1.0932295322418213,13.671439170837402
1701889708421410600,10.09341064453125,3.721586227416992,-2.024812698364258,14.301816940307617
1701889708438397200,10.110397216796875,2.1211185455322266,-3.5253562927246094,14.510660171508789
1701889708455390200,10.12739013671875,0.3329191207885742,-5.479238510131836,14.12665843963623
1701889708472375800,10.144375732421874,-1.4837994575500488,-7.921004295349121,12.834724426269531
1701889708489362400,10.161362548828125,-3.2418951988220215,-10.423675537109375,10.88608169555664
1701889708506352600,10.1783525390625,-4.694355010986328,-12.967823028564453,8.702288627624512
1701889708523339300,10.19533935546875,-5.2662034034729,-15.040674209594727,6.719141006469727
1701889708540328000,10.212327880859375,-5.103289604187012,-17.165517807006836,4.70652961730957
1701889708557302000,10.229302001953124,-4.449855327606201,-18.40053939819336,2.3359241485595703
1701889708574306600,10.246306640625,-4.559329032897949,-17.89739418029785,0.3342251777648926
1701889708591291100,10.263291015625,-5.051284313201904,-16.853605270385742,-1.5053915977478027
1701889708608282000,10.2802822265625,-5.2472968101501465,-15.730928421020508,-4.278168201446533
1701889708625254400,10.29725439453125,-5.170886039733887,-14.569966316223145,-7.603450298309326
1701889708642256000,10.314255859375,-4.716030120849609,-13.212396621704102,-10.459980010986328
1701889708659243500,10.331243408203125,-4.265022277832031,-11.754515647888184,-12.096637725830078
1701889708676231200,10.348231201171876,-4.051834583282471,-11.148399353027344,-12.432063102722168
1701889708693220000,10.36522021484375,-3.692333936691284,-10.97391128540039,-13.565946578979492
1701889708710207700,10.382207763671875,-4.418769836425781,-10.939032554626465,-15.556509971618652
1701889708727195100,10.399195068359376,-6.195018291473389,-10.749626159667969,-17.305557250976562
1701889708744180200,10.41618017578125,-7.234835147857666,-10.391549110412598,-17.753135681152344
1701889708761171000,10.4331708984375,-6.062365531921387,-10.539788246154785,-16.577381134033203
1701889708778149000,10.450149169921875,-4.1523213386535645,-11.925393104553223,-14.21618938446045
1701889708795147300,10.467147216796874,-3.4156551361083984,-13.620224952697754,-10.974601745605469
1701889708812132400,10.48413232421875,-4.34787654876709,-14.883233070373535,-7.971556663513184
1701889708829123000,10.501123046875,-6.187194347381592,-16.23985481262207,-5.366950511932373
1701889708846109000,10.51810888671875,-7.592611312866211,-17.708290100097656,-2.7262067794799805
1701889708863101400,10.535101318359375,-8.40964126586914,-19.102741241455078,0.03802299499511719
1701889708880067600,10.552067626953125,-8.56773853302002,-19.709564208984375,2.09676456451416
1701889708897065200,10.569065185546876,-8.066121101379395,-19.476673126220703,3.843764305114746
1701889708914053400,10.586053466796875,-6.63283634185791,-18.437744140625,6.713860511779785
1701889708931050000,10.603050048828125,-4.777661323547363,-15.565888404846191,9.802602767944336
1701889708948039400,10.620039306640624,-3.7513997554779053,-12.65034294128418,10.811534881591797
1701889708965027000,10.637027099609375,-2.6544251441955566,-10.934942245483398,13.098592758178711
1701889708982015700,10.654015625,-1.1511740684509277,-9.635466575622559,15.280831336975098
1701889708999002000,10.671002197265626,1.0040111541748047,-8.31816291809082,16.765756607055664
1701889709015992000,10.687991943359375,5.260562896728516,-5.799224853515625,20.28188705444336
1701889709032979000,10.70497900390625,7.346580505371094,-2.8987960815429688,21.480714797973633
1701889709049967600,10.721967529296874,9.088289260864258,-1.682865858078003,22.030818939208984
1701889709066955000,10.738955078125,10.519283294677734,-0.7332340478897095,22.354324340820312
1701889709083926300,10.75592626953125,11.312616348266602,-0.2925281524658203,21.758024215698242
1701889709100933000,10.77293310546875,11.1665678024292,0.02701115608215332,20.91288948059082
1701889709117919200,10.789919189453125,9.070693969726562,0.03568577766418457,18.383216857910156
1701889709134907000,10.806906982421875,6.108255386352539,-0.1960890293121338,15.550538063049316
1701889709151882000,10.823882080078125,3.0628061294555664,-1.4178448915481567,13.704630851745605
1701889709168875000,10.840875,1.2214078903198242,-3.2504820823669434,12.663551330566406
1701889709185870300,10.857870361328125,1.1946697235107422,-4.834758758544922,12.035091400146484
1701889709202859300,10.874859375,0.8481264114379883,-6.444105625152588,11.471529960632324
1701889709219847400,10.891847412109374,-0.707371711730957,-8.245946884155273,10.495899200439453
1701889709236834800,10.908834716796875,-2.5406174659729004,-10.221692085266113,9.140138626098633
1701889709253820000,10.92581982421875,-3.950828790664673,-12.154336929321289,7.676575183868408
1701889709270810600,10.942810546875,-4.907444953918457,-13.773310661315918,6.562182426452637
1701889709287786500,10.959786376953126,-5.829401969909668,-14.524457931518555,5.852936267852783
1701889709304777200,10.976777099609375,-6.385141372680664,-14.984353065490723,5.293069362640381
1701889709321766700,10.9937666015625,-6.605279922485352,-15.400720596313477,4.209105491638184
1701889709338755000,11.010755126953125,-6.486630916595459,-15.565123558044434,2.5419583320617676
1701889709355744500,11.02774462890625,-6.543257713317871,-15.402026176452637,0.5001296997070312
1701889709372726500,11.0447265625,-7.0310564041137695,-14.603845596313477,-2.2349915504455566
1701889709389720300,11.06172021484375,-7.39414644241333,-13.191070556640625,-5.270002365112305
1701889709406705700,11.07870556640625,-6.8248748779296875,-12.070869445800781,-8.490883827209473
1701889709423706000,11.0957060546875,-5.078906059265137,-11.37912368774414,-11.24619197845459
1701889709440680200,11.11268017578125,-3.3446044921875,-11.103072166442871,-13.821516990661621
1701889709457672200,11.129672119140626,-3.037141799926758,-11.16508674621582,-16.127622604370117
1701889709474657800,11.14665771484375,-3.654998302459717,-11.214563369750977,-18.649845123291016
1701889709491645000,11.16364501953125,-4.363781929016113,-11.013330459594727,-20.66986083984375
1701889709508636000,11.180635986328125,-4.567959308624268,-11.079448699951172,-20.53985595703125
1701889709525623300,11.197623291015624,-3.232748508453369,-11.739046096801758,-18.326480865478516
1701889709542607600,11.214607666015626,-1.8446104526519775,-12.811748504638672,-15.287035942077637
1701889709559602200,11.231602294921874,-2.3044886589050293,-14.169422149658203,-12.098518371582031
1701889709576585200,11.248585205078125,-4.434503078460693,-15.757801055908203,-9.319754600524902
1701889709593575700,11.26557568359375,-7.190061569213867,-17.230926513671875,-6.356959819793701
1701889709610570200,11.2825703125,-9.578372955322266,-18.569904327392578,-2.9568934440612793
1701889709627559000,11.299558837890626,-10.321491241455078,-19.227506637573242,0.29888439178466797
1701889709644542700,11.316542724609375,-10.034116744995117,-20.077726364135742,2.509752035140991
1701889709661534700,11.33353466796875,-8.5932035446167,-20.451393127441406,3.9444851875305176
1701889709678519800,11.350519775390625,-7.865725517272949,-19.627288818359375,5.098134994506836
1701889709695510800,11.3675107421875,-8.638297080993652,-18.503746032714844,6.591334819793701
1701889709712501000,11.3845009765625,-9.391517639160156,-17.879840850830078,9.362198829650879
1701889709729476000,11.40147607421875,-8.871745109558105,-16.32484245300293,12.8442964553833
1701889709746474200,11.41847412109375,-6.848257064819336,-16.244094848632812,15.600510597229004
1701889709763462700,11.435462646484375,1.13604736328125,-16.140430450439453,22.293792724609375
1701889709780450300,11.4524501953125,12.009739875793457,-13.300029754638672,25.24356460571289
1701889709797438500,11.4694384765625,20.669052124023438,-9.175108909606934,23.277978897094727
1701889709814426000,11.486426025390625,23.298099517822266,-5.432623386383057,20.76296043395996
1701889709831411500,11.503411376953125,18.08258056640625,-3.5640034675598145,19.349164962768555
1701889709848400100,11.520400146484375,10.52833366394043,-2.5354197025299072,19.040740966796875
1701889709865392400,11.537392333984375,6.810914993286133,-1.8572382926940918,19.344701766967773
1701889709882378200,11.554378173828125,7.511073112487793,-1.6638647317886353,18.09330940246582
1701889709899366400,11.571366455078126,8.283906936645508,-2.324385643005371,17.24909782409668
1701889709916353800,11.588353759765624,7.131467819213867,-3.622776508331299,17.16635513305664
1701889709933331700,11.605331787109375,4.790127754211426,-5.503764629364014,16.522624969482422
1701889709950333000,11.6223330078125,2.040949821472168,-7.680576324462891,15.6500244140625
1701889709967318800,11.63931884765625,-0.5364789962768555,-10.09652328491211,14.740583419799805
1701889709984305400,11.656305419921875,-2.8912086486816406,-12.687254905700684,14.233098983764648
1701889710001294300,11.67329443359375,-4.907252311706543,-15.65975570678711,13.196979522705078
1701889710018270700,11.690270751953125,-6.529580116271973,-18.493488311767578,10.774908065795898
1701889710035271000,11.70727099609375,-7.253383159637451,-20.285171508789062,8.046201705932617
1701889710052257800,11.7242578125,-7.658111095428467,-20.50450897216797,5.287491798400879
1701889710069246500,11.74124658203125,-7.879854202270508,-19.643169403076172,2.898730993270874
1701889710086232800,11.75823291015625,-7.720351219177246,-18.77219581604004,0.7037992477416992
1701889710103223300,11.775223388671876,-7.557774543762207,-18.041170120239258,-1.6633610725402832
1701889710120213000,11.792212890625,-7.118419170379639,-17.177722930908203,-4.708867073059082
1701889710137192700,11.809192626953125,-7.262943267822266,-16.634441375732422,-8.384547233581543
1701889710154185200,11.826185302734375,-7.191712379455566,-16.24669647216797,-12.917755126953125
1701889710171166500,11.84316650390625,-6.5379414558410645,-15.597657203674316,-18.361642837524414
1701889710188162800,11.860162841796875,-6.253629684448242,-14.673028945922852,-22.785240173339844
1701889710205150200,11.877150146484375,-4.981227397918701,-13.803693771362305,-25.76408576965332
1701889710222137900,11.894137939453126,-3.3313190937042236,-13.013121604919434,-25.45775604248047
1701889710239126300,11.911126220703125,-2.582216501235962,-13.025754928588867,-21.159568786621094
1701889710256114000,11.928114013671875,-3.3464488983154297,-13.769216537475586,-15.84280014038086
1701889710273102000,11.94510205078125,-5.305427551269531,-15.083321571350098,-11.775426864624023
1701889710290088000,11.962087890625,-7.689138889312744,-16.965173721313477,-8.952255249023438
1701889710307078000,11.979077880859375,-8.77223014831543,-18.627233505249023,-6.657677173614502
1701889710324065800,11.996065673828125,-8.706003189086914,-19.91130256652832,-4.074672222137451
1701889710341051000,12.01305078125,-9.056966781616211,-21.114782333374023,-0.718717098236084
1701889710358039300,12.030039306640624,-9.480864524841309,-22.0399227142334,2.1282503604888916
1701889710375032600,12.047032470703124,-9.305099487304688,-22.311410903930664,4.064783096313477
1701889710392017700,12.064017578125,-8.458779335021973,-21.683822631835938,5.01382303237915
1701889710409005300,12.08100537109375,-6.316042423248291,-20.513225555419922,6.745296955108643
1701889710425983500,12.0979833984375,-4.185458183288574,-18.61493492126465,8.950897216796875
1701889710442982100,12.114982177734374,-3.5397300720214844,-17.002880096435547,11.043192863464355
1701889710459969500,12.131969482421875,-1.2583413124084473,-15.34664535522461,15.032445907592773
1701889710476958200,12.148958251953125,0.8133220672607422,-13.286961555480957,17.541955947875977
1701889710493945600,12.165945556640626,4.114413261413574,-11.54083251953125,20.9188175201416
1701889710510935800,12.182935791015625,8.831287384033203,-8.221400260925293,23.152494430541992
1701889710527919000,12.199919189453125,12.467063903808594,-5.8978190422058105,22.8532772064209
1701889710544910600,12.21691064453125,14.221115112304688,-4.362314701080322,22.43221092224121
1701889710561897500,12.2338974609375,12.34674072265625,-2.91688871383667,20.914072036743164
1701889710578872300,12.250872314453124,8.767287254333496,-1.951284646987915,18.388660430908203
1701889710595872500,12.26787255859375,6.651063919067383,-1.2850852012634277,15.658828735351562
1701889710612862700,12.28486279296875,5.730161666870117,-1.3455594778060913,13.956677436828613
1701889710629849600,12.301849609375,5.514091491699219,-2.3437438011169434,13.80380630493164
1701889710646837800,12.318837646484376,5.7886152267456055,-3.6580686569213867,14.484169960021973
1701889710663822300,12.335822265625,4.919794082641602,-4.729241371154785,15.112592697143555
1701889710680813600,12.3528134765625,2.311892509460449,-6.1666364669799805,14.716056823730469
1701889710697801200,12.36980126953125,-0.871190071105957,-8.02763843536377,13.294021606445312
1701889710714790000,12.386789794921874,-2.958535671234131,-10.003185272216797,11.664569854736328
1701889710731768300,12.403768310546875,-3.530139923095703,-12.05215835571289,9.98166561126709
1701889710748755200,12.420755126953125,-4.205963611602783,-14.229730606079102,8.210112571716309
1701889710765753300,12.43775341796875,-4.735285758972168,-15.808555603027344,6.180368423461914
1701889710782741800,12.45474169921875,-5.340314865112305,-16.48836898803711,4.684687614440918
1701889710799729200,12.471729248046875,-5.522879123687744,-16.564651489257812,2.946826219558716
1701889710816717600,12.488717529296874,-5.702234268188477,-16.315845489501953,0.9703097343444824
1701889710833705200,12.505705322265625,-6.762208938598633,-15.799786567687988,-0.8586125373840332
1701889710850690800,12.52269091796875,-7.600641250610352,-14.732297897338867,-3.746464252471924
1701889710867678200,12.53967822265625,-8.317085266113281,-12.656095504760742,-6.961178779602051
1701889710884661800,12.556661865234375,-8.245769500732422,-11.342780113220215,-10.073505401611328
1701889710901657300,12.5736572265625,-6.1814751625061035,-10.267024040222168,-12.602689743041992
1701889710918645000,12.59064501953125,-3.824904203414917,-10.00794792175293,-13.903701782226562
1701889710935634000,12.607634033203125,-2.146045207977295,-10.262308120727539,-14.900760650634766
1701889710952615000,12.624614990234376,-2.2251415252685547,-10.522514343261719,-16.582763671875
1701889710969595000,12.641594970703125,-3.991851329803467,-10.464587211608887,-17.850543975830078
1701889710986597400,12.658597412109375,-4.980936527252197,-10.698795318603516,-17.796669006347656
1701889711003567400,12.6755673828125,-3.388096809387207,-11.29173755645752,-16.86012077331543
1701889711020571000,12.69257080078125,-2.4519636631011963,-12.53951644897461,-14.568415641784668
1701889711037565000,12.70956494140625,-2.815816640853882,-14.150243759155273,-11.703296661376953
1701889711054546400,12.72654638671875,-4.1674628257751465,-15.523011207580566,-9.474674224853516
1701889711071535900,12.743535888671875,-6.400319576263428,-16.81787872314453,-7.390603065490723
1701889711088522800,12.760522705078126,-8.64693546295166,-18.17949676513672,-5.221242904663086
1701889711105515500,12.777515625,-9.62064266204834,-19.663522720336914,-2.2682533264160156
1701889711122501600,12.794501708984376,-9.788261413574219,-20.672945022583008,0.6933889389038086
1701889711139496700,12.81149658203125,-9.288824081420898,-20.170162200927734,3.043621301651001
1701889711156481000,12.82848095703125,-9.544294357299805,-18.62118911743164,4.715659141540527
1701889711173460700,12.845460693359374,-9.644820213317871,-16.96365737915039,6.247433662414551
1701889711190453200,12.862453369140624,-9.361339569091797,-15.818010330200195,8.567453384399414
1701889711207440600,12.879440673828125,-8.889830589294434,-16.395923614501953,11.730419158935547
1701889711224426800,12.8964267578125,-5.37952995300293,-16.144258499145508,17.68240737915039
1701889711241416200,12.913416259765626,0.21164989471435547,-14.466939926147461,21.906312942504883
1701889711258405400,12.9304052734375,8.817938804626465,-13.553487777709961,25.70323371887207
1701889711275388700,12.947388671875,18.15593719482422,-10.42919635772705,27.75168800354004
1701889711292381200,12.964381103515626,21.69877815246582,-6.6703901290893555,25.080474853515625
1701889711309369000,12.981369140625,19.179645538330078,-4.444033622741699,22.293121337890625
1701889711326357000,12.99835693359375,12.385372161865234,-3.5540661811828613,20.45858383178711
1701889711343344600,13.0153447265625,6.314748764038086,-2.6406989097595215,18.495784759521484
1701889711360333300,13.032333251953125,4.470212936401367,-1.9101276397705078,16.7475528717041
1701889711377320700,13.04932080078125,5.203868865966797,-2.1296894550323486,16.128265380859375
1701889711394309000,13.06630908203125,5.590276718139648,-3.013896942138672,16.2513370513916
1701889711411296800,13.083296875,5.0125017166137695,-4.471243858337402,16.679594039916992
1701889711428286200,13.1002861328125,3.4809141159057617,-6.6990509033203125,16.730310440063477
1701889711445271800,13.117271728515625,0.8477029800415039,-9.12800407409668,16.199663162231445
1701889711462261500,13.134261474609374,-2.3823537826538086,-12.072890281677246,15.169002532958984
1701889711479245800,13.151245849609374,-5.654038429260254,-15.094152450561523,12.884065628051758
1701889711496239900,13.168239990234374,-7.580465793609619,-17.721263885498047,10.239419937133789
1701889711513224700,13.185224609375,-7.645997524261475,-19.490196228027344,8.01361083984375
1701889711530213000,13.202213134765625,-7.309460163116455,-20.887239456176758,5.239205360412598
1701889711547201000,13.219200927734375,-7.663699626922607,-20.89630889892578,2.2656240463256836
1701889711564185600,13.236185546875,-8.558631896972656,-19.964580535888672,-0.9416875839233398
1701889711581176600,13.253176513671875,-9.350223541259766,-18.9798641204834,-4.664864540100098
1701889711598165000,13.2701650390625,-9.038701057434082,-17.661108016967773,-10.053686141967773
1701889711615152600,13.287152587890626,-9.221400260925293,-15.647689819335938,-13.812919616699219
1701889711632141000,13.30414111328125,-7.799595832824707,-14.920036315917969,-15.702924728393555
1701889711649126100,13.321126220703125,-4.291042327880859,-14.398693084716797,-17.42827606201172
1701889711666120000,13.338119873046875,-2.3456473350524902,-13.486281394958496,-18.66046142578125
1701889711683104800,13.355104736328125,-2.7910449504852295,-12.767284393310547,-18.945938110351562
1701889711700091000,13.3720908203125,-3.725766658782959,-12.450712203979492,-18.233291625976562
1701889711717080600,13.38908056640625,-4.081683158874512,-12.332354545593262,-16.976951599121094
1701889711734069200,13.4060693359375,-4.653810501098633,-13.063697814941406,-14.167425155639648
1701889711751053600,13.423053466796874,-4.6082963943481445,-14.243436813354492,-10.79564094543457
1701889711768044800,13.440044921875,-5.064507007598877,-15.631409645080566,-7.8373589515686035
1701889711785032400,13.457032470703124,-6.867981433868408,-17.041385650634766,-5.156623363494873
1701889711802021000,13.474021240234375,-8.700492858886719,-18.0725154876709,-2.5407423973083496
1701889711818998000,13.490998046875,-9.645522117614746,-19.03643226623535,-0.07053089141845703
1701889711835996000,13.507995849609374,-9.119807243347168,-19.87285041809082,1.856520175933838
1701889711852985600,13.524985595703125,-8.014298439025879,-19.792316436767578,3.0759334564208984
1701889711869973000,13.541972900390626,-7.853654384613037,-18.87713623046875,3.696516990661621
1701889711886960600,13.558960693359374,-8.218036651611328,-18.523910522460938,5.206636428833008
1701889711903946500,13.575946533203124,-8.644030570983887,-17.8685302734375,7.219042778015137
1701889711920938800,13.592938720703126,-7.837237358093262,-18.077850341796875,10.349319458007812
1701889711937924400,13.60992431640625,-3.043095588684082,-16.42952537536621,17.18265724182129
1701889711954913300,13.626913330078125,1.4136066436767578,-13.945196151733398,21.545074462890625
1701889711971891000,13.643890869140625,7.230186462402344,-13.385615348815918,25.669204711914062
1701889711988888600,13.660888671875,15.338805198669434,-9.646590232849121,29.70583724975586
1701889712005884000,13.6778837890625,17.42654037475586,-5.9000067710876465,28.924808502197266
1701889712022865200,13.694865234375,14.96193790435791,-3.974672794342041,28.5079288482666
1701889712039852500,13.7118525390625,11.319352149963379,-2.51100492477417,26.667037963867188
1701889712056840200,13.728840087890624,8.086421012878418,-2.2854435443878174,22.59311294555664
1701889712073825800,13.74582568359375,6.585456848144531,-1.8558135032653809,17.96664810180664
1701889712090816300,13.762816162109376,5.61832332611084,-2.5080881118774414,15.47404956817627
1701889712107804700,13.7798046875,4.653019905090332,-3.973050832748413,15.511641502380371
1701889712124793600,13.796793701171875,3.8266944885253906,-6.0970025062561035,16.32221221923828
1701889712141780700,13.81378076171875,2.888932228088379,-8.50715446472168,16.631608963012695
1701889712158768400,13.830768310546874,0.6846399307250977,-11.436726570129395,15.570402145385742
1701889712175756500,13.847756591796875,-2.522627830505371,-14.429227828979492,13.30875301361084
1701889712192734200,13.864734130859375,-6.162444114685059,-16.90155029296875,10.61221694946289
1701889712209732900,13.88173291015625,-8.316800117492676,-18.574193954467773,7.938916206359863
1701889712226720500,13.898720458984375,-9.06849193572998,-19.58133316040039,5.557318210601807
1701889712243708700,13.915708740234376,-9.042439460754395,-20.41139030456543,3.1832902431488037
1701889712260693200,13.932693359375,-9.108059883117676,-20.421680450439453,0.5790553092956543
1701889712277687600,13.9496875,-8.473363876342773,-19.862714767456055,-3.3088736534118652
1701889712294669300,13.96666943359375,-8.327178955078125,-18.57208251953125,-8.357952117919922
1701889712311650000,13.983650146484376,-8.452017784118652,-16.704898834228516,-14.127038955688477
1701889712328647400,14.0006474609375,-7.198765754699707,-15.115915298461914,-18.847347259521484
1701889712345637600,14.0176376953125,-4.798748970031738,-14.415718078613281,-20.57393455505371
1701889712362611200,14.034611083984375,-2.1034533977508545,-13.94698715209961,-20.105985641479492
1701889712379608000,14.051608154296876,-0.7048077583312988,-13.2925386428833,-19.94883918762207
1701889712396596700,14.0685966796875,-1.188326358795166,-12.540542602539062,-19.775909423828125
1701889712413578200,14.085578125,-1.9507286548614502,-11.984020233154297,-18.502099990844727
1701889712430578000,14.102577880859375,-2.7342188358306885,-12.361001014709473,-15.958795547485352
1701889712447562800,14.119562744140625,-3.869335651397705,-13.17410945892334,-12.4864501953125
1701889712464554200,14.13655419921875,-5.336573123931885,-14.037179946899414,-8.787750244140625
1701889712481540900,14.153540771484375,-6.318994045257568,-14.600194931030273,-5.785551071166992
1701889712498528000,14.170528076171875,-7.251192092895508,-15.071741104125977,-3.700617790222168
1701889712515516400,14.187516357421876,-8.235107421875,-15.370222091674805,-1.7965774536132812
1701889712532502000,14.204501953125,-9.08764362335205,-15.215372085571289,0.1525411605834961
1701889712549494800,14.221494873046876,-9.74386215209961,-15.072277069091797,1.9523730278015137
1701889712566480100,14.238480224609376,-10.374228477478027,-15.616131782531738,3.3343682289123535
1701889712583465700,14.2554658203125,-10.17032241821289,-16.58509635925293,4.713762283325195
1701889712600455700,14.27245556640625,-8.204594612121582,-17.266132354736328,6.079954147338867
1701889712617444400,14.2894443359375,-6.31129264831543,-18.02129364013672,7.755886554718018
1701889712634432000,14.306431884765624,-4.5799384117126465,-18.702966690063477,10.62649154663086
1701889712651410000,14.323409912109375,-1.3715615272521973,-18.892663955688477,13.577775955200195
1701889712668404500,14.340404541015625,5.848634719848633,-18.209087371826172,17.535337448120117
1701889712685399800,14.35739990234375,16.188518524169922,-13.518595695495605,21.360401153564453
1701889712702383900,14.3743837890625,20.774282455444336,-7.750357627868652,20.30128288269043
1701889712719372500,14.39137255859375,16.424129486083984,-4.723959922790527,17.87363624572754
1701889712736360200,14.408360107421874,7.837554931640625,-3.2035017013549805,16.884902954101562
1701889712753348600,14.4253486328125,1.5827598571777344,-1.8388888835906982,17.72172737121582
1701889712770332200,14.442332275390624,0.7715902328491211,-0.4737202525138855,17.620662689208984
1701889712787324400,14.459324462890624,5.4035844802856445,-0.28623342514038086,16.148704528808594
1701889712804300800,14.47630078125,9.748979568481445,-0.5558573007583618,14.802661895751953
1701889712821292000,14.4932919921875,10.222537994384766,-1.726128101348877,14.925925254821777
1701889712838276900,14.51027685546875,7.450416564941406,-3.107609748840332,16.548397064208984
1701889712855268400,14.527268310546875,4.489350318908691,-4.68552827835083,17.287220001220703
1701889712872253700,14.544253662109375,2.222048759460449,-6.689398765563965,16.21866226196289
1701889712889241000,14.561240966796875,0.06509208679199219,-8.698526382446289,14.2963285446167
1701889712906229200,14.578229248046876,-2.4414615631103516,-10.69517707824707,12.48427963256836
1701889712923227100,14.59522705078125,-4.667350769042969,-12.53283977508545,10.972078323364258
1701889712940213200,14.612213134765625,-6.362495422363281,-14.406280517578125,9.194173812866211
1701889712957200100,14.6292001953125,-7.043788909912109,-16.16299057006836,7.089561462402344
1701889712974181600,14.646181640625,-6.883186340332031,-17.52540397644043,4.785086631774902
1701889712991175700,14.66317578125,-5.997720241546631,-18.163766860961914,2.557229518890381
1701889713008162600,14.68016259765625,-6.066830635070801,-17.701618194580078,0.29529905319213867
1701889713025148000,14.69714794921875,-7.846609115600586,-16.535457611083984,-1.5114784240722656
1701889713042133200,14.71413330078125,-9.071949005126953,-14.942155838012695,-3.483565330505371
1701889713059122000,14.731121826171876,-8.57322883605957,-14.100591659545898,-6.718433380126953
1701889713076113700,14.74811376953125,-7.668000221252441,-12.90147876739502,-10.514355659484863
1701889713093097200,14.76509716796875,-6.383872032165527,-11.401262283325195,-12.851739883422852
1701889713110090000,14.782090087890625,-3.985318899154663,-10.997566223144531,-13.775266647338867
1701889713127080700,14.799080810546876,-1.3128070831298828,-11.196538925170898,-14.990581512451172
1701889713144062200,14.816062255859375,-0.819371223449707,-11.797001838684082,-16.48737335205078
1701889713161059300,14.833059326171876,-2.0759177207946777,-12.124061584472656,-17.97627067565918
1701889713178029000,14.850029052734374,-2.3277575969696045,-12.012578964233398,-18.827308654785156
1701889713195025700,14.867025634765625,-0.6036839485168457,-12.579219818115234,-17.4111270904541
1701889713212024000,14.884024169921876,1.0198068618774414,-13.725910186767578,-14.398786544799805
1701889713229012500,14.901012451171875,0.16305017471313477,-14.960383415222168,-11.054975509643555
1701889713245999900,14.917999755859375,-3.1924970149993896,-16.26094627380371,-8.059629440307617
1701889713262988300,14.93498828125,-6.522584915161133,-17.34330940246582,-5.305478572845459
1701889713279965200,14.951965087890626,-9.065140724182129,-18.27408218383789,-2.3809494972229004
1701889713296964000,14.968964111328125,-9.79295539855957,-18.610393524169922,0.018437862396240234
1701889713313951700,14.98595166015625,-8.94140338897705,-18.85991668701172,1.634598970413208
1701889713330937900,15.002937744140626,-7.677102565765381,-18.887039184570312,2.969223737716675
1701889713347929600,15.0199296875,-6.726536750793457,-18.42177391052246,4.700936317443848
1701889713364917200,15.036917236328126,-6.308694839477539,-18.364055633544922,7.283163547515869
1701889713381893000,15.05389306640625,-4.6737871170043945,-17.695676803588867,11.864773750305176
1701889713398892300,15.070892333984375,-2.8189868927001953,-16.010242462158203,15.044984817504883
1701889713415882500,15.087882568359374,0.16750812530517578,-15.849488258361816,16.803878784179688
1701889713432855300,15.104855224609375,7.444541931152344,-13.039505958557129,21.651216506958008
1701889713449856000,15.12185595703125,11.881484031677246,-8.576408386230469,22.262847900390625
1701889713466844200,15.13884423828125,14.309453010559082,-4.212089538574219,22.59994125366211
1701889713483828700,15.155828857421875,10.02645492553711,-1.5675767660140991,21.81449317932129
1701889713500820500,15.172820556640625,2.972818374633789,-0.5816612243652344,20.368043899536133
1701889713517807600,15.1898076171875,1.1371793746948242,-0.16713857650756836,19.61203956604004
1701889713534796000,15.206796142578124,5.02663516998291,0.15388154983520508,18.064157485961914
1701889713551780400,15.2237802734375,9.51888656616211,0.07416856288909912,16.22132110595703
1701889713568772400,15.2407724609375,10.652237892150879,-0.31880688667297363,15.17973518371582
1701889713585759200,15.25775927734375,8.09813404083252,-1.4308160543441772,15.265992164611816
1701889713602749000,15.2747490234375,4.9886674880981445,-3.028947114944458,15.49217414855957
1701889713619735600,15.291735595703125,2.9956884384155273,-5.376262664794922,15.553770065307617
1701889713636724200,15.30872412109375,1.934722900390625,-7.688461780548096,14.788420677185059
1701889713653711600,15.325711669921875,0.6765537261962891,-10.042658805847168,13.41775894165039
1701889713670697000,15.342697021484375,-0.940676212310791,-12.347618103027344,11.82287883758545
1701889713687673900,15.359673828125,-2.904942512512207,-14.912651062011719,10.07106876373291
1701889713704678400,15.376678466796875,-4.638862609863281,-17.658937454223633,8.126935958862305
1701889713721663500,15.39366357421875,-5.242215156555176,-19.820083618164062,6.127790451049805
1701889713738652400,15.41065234375,-4.658243179321289,-21.11920166015625,4.624454975128174
1701889713755634700,15.427634765625,-4.228259086608887,-21.104496002197266,3.227267026901245
1701889713772614100,15.4446142578125,-4.897935390472412,-20.134449005126953,1.5906338691711426
1701889713789615600,15.46161572265625,-5.944301128387451,-18.97211456298828,-0.41326379776000977
1701889713806604000,15.47860400390625,-6.450080394744873,-17.515151977539062,-3.0436692237854004
1701889713823578000,15.495578125,-7.262381553649902,-16.217111587524414,-6.829284191131592
1701889713840579300,15.512579345703125,-8.303515434265137,-14.555475234985352,-11.356959342956543
1701889713857567700,15.529567626953124,-7.857832908630371,-12.609955787658691,-15.677933692932129
1701889713874554600,15.5465546875,-5.558969497680664,-11.606521606445312,-18.769229888916016
1701889713891538700,15.56353857421875,-2.564950466156006,-11.343710899353027,-21.05057144165039
1701889713908529400,15.580529296875,-1.2579636573791504,-11.136327743530273,-22.035863876342773
1701889713925519600,15.59751953125,-2.0242748260498047,-10.871119499206543,-21.42452049255371
1701889713942510600,15.614510498046876,-2.753974437713623,-11.431048393249512,-19.584897994995117
1701889713959495700,15.63149560546875,-2.3793654441833496,-12.656976699829102,-16.80545997619629
1701889713976484000,15.648484130859375,-2.0794920921325684,-14.581512451171875,-13.49197769165039
1701889713993468400,15.665468505859375,-2.7527856826782227,-16.349838256835938,-10.259751319885254
1701889714010460000,15.6824599609375,-4.175163269042969,-18.08189582824707,-6.717296123504639
1701889714027447600,15.699447509765625,-5.988619804382324,-19.218355178833008,-3.146716594696045
1701889714044436000,15.71643603515625,-7.811699390411377,-20.141817092895508,0.3367314338684082
1701889714061423600,15.733423583984376,-9.475435256958008,-20.880630493164062,2.658785581588745
1701889714078406400,15.750406494140625,-9.11618709564209,-20.657955169677734,3.8097054958343506
1701889714095399700,15.767399658203125,-7.0231709480285645,-20.258468627929688,5.103488445281982
1701889714112388000,15.78438818359375,-3.5747828483581543,-18.329940795898438,8.733512878417969
1701889714129375700,15.801375732421874,-1.5456995964050293,-14.887984275817871,11.390652656555176
1701889714146364200,15.8183642578125,-2.141855239868164,-13.282957077026367,13.225395202636719
1701889714163351800,15.835351806640626,-0.7250909805297852,-11.817004203796387,17.14039421081543
1701889714180335900,15.8523359375,2.877680778503418,-10.12185001373291,19.9354248046875
1701889714197328100,15.869328125,7.507964134216309,-8.723233222961426,22.90946388244629
1701889714214316000,15.88631591796875,11.4827299118042,-6.003392696380615,24.882272720336914
1701889714231303400,15.903303466796874,14.092581748962402,-4.28247594833374,25.165712356567383
1701889714248289500,15.92028955078125,15.842903137207031,-3.846726894378662,25.360111236572266
1701889714265283800,15.937283935546875,13.985771179199219,-3.9314451217651367,22.954648971557617
1701889714282268200,15.95426806640625,9.706991195678711,-4.2168660163879395,18.90022087097168
1701889714299245000,15.9712451171875,5.916530609130859,-4.560003280639648,15.111688613891602
1701889714316231400,15.9882314453125,3.2744874954223633,-5.270340919494629,13.14869213104248
1701889714333221400,16.005221435546876,3.2383947372436523,-6.053062438964844,12.888416290283203
1701889714350222300,16.022222412109375,3.172848701477051,-7.304241180419922,12.917832374572754
1701889714367207000,16.03920703125,1.2437419891357422,-9.173152923583984,12.637968063354492
1701889714384196600,16.056196533203124,-1.7395453453063965,-11.48265552520752,11.810556411743164
1701889714401183500,16.07318359375,-4.070546627044678,-13.671524047851562,10.434316635131836
1701889714418172200,16.090172119140625,-5.258448600769043,-15.832971572875977,8.327056884765625
1701889714435159600,16.10715966796875,-5.595452785491943,-17.42755889892578,5.955313205718994
1701889714452148200,16.124148193359375,-5.297097682952881,-18.506816864013672,3.7078351974487305
1701889714469133000,16.141133056640626,-5.414303302764893,-18.556209564208984,1.440683364868164
1701889714486124300,16.158124267578124,-6.373065948486328,-17.024137496948242,-0.6677069664001465
1701889714503110700,16.175110595703124,-7.536269664764404,-16.008563995361328,-3.2057127952575684
1701889714520096500,16.192096435546876,-7.694681167602539,-15.708313941955566,-7.696902751922607
1701889714537087700,16.209087646484374,-7.481927394866943,-14.948972702026367,-13.871071815490723
1701889714554076200,16.226076171875,-7.57078218460083,-13.032682418823242,-18.142488479614258
1701889714571060500,16.243060546875,-5.6101837158203125,-11.745901107788086,-18.299911499023438
1701889714588052200,16.26005224609375,-0.21301984786987305,-11.661596298217773,-17.659225463867188
1701889714605039600,16.27703955078125,3.2394890785217285,-11.143178939819336,-17.383934020996094
1701889714622028300,16.2940283203125,1.9390363693237305,-10.880393028259277,-17.76790428161621
1701889714639015700,16.311015625,-2.687645196914673,-10.853850364685059,-17.836349487304688
1701889714656004000,16.328004150390626,-5.70236873626709,-11.342790603637695,-16.007915496826172
1701889714672991700,16.34499169921875,-5.385197639465332,-12.334761619567871,-12.716582298278809
1701889714689979600,16.361979736328124,-4.008328437805176,-13.811787605285645,-9.229854583740234
1701889714706968300,16.37896826171875,-3.689833402633667,-14.954450607299805,-5.9026970863342285
1701889714723938000,16.39593798828125,-4.268668174743652,-15.519817352294922,-3.4232707023620605
1701889714740943600,16.412943603515625,-6.2010650634765625,-16.19247817993164,-1.425981044769287
1701889714757931300,16.42993115234375,-8.213346481323242,-16.406768798828125,0.31616735458374023
1701889714774920400,16.44692041015625,-9.673588752746582,-16.675119400024414,1.8891050815582275
1701889714791897600,16.463897705078125,-10.014871597290039,-17.052387237548828,3.07877254486084
1701889714808895500,16.4808955078125,-8.133618354797363,-17.14112091064453,5.27313232421875
1701889714825884400,16.497884521484377,-5.615413665771484,-16.12873649597168,7.96812629699707
1701889714842871300,16.514871337890625,-1.7941699028015137,-15.182217597961426,12.324108123779297
1701889714859857400,16.531857421875,2.73992919921875,-11.858659744262695,19.190378189086914
1701889714876850400,16.548850341796875,4.414895057678223,-8.610245704650879,21.858510971069336
1701889714893833000,16.5658330078125,7.994875907897949,-7.412676811218262,22.465192794799805
1701889714910807600,16.5828076171875,13.837514877319336,-5.229622840881348,23.033052444458008
1701889714927812400,16.599812255859376,14.90636920928955,-2.0906033515930176,22.788143157958984
1701889714944799200,16.61679931640625,11.678733825683594,-1.0181955099105835,24.401775360107422
1701889714961788000,16.633787841796874,8.280089378356934,-1.0981345176696777,25.732114791870117
1701889714978775800,16.65077587890625,5.7466630935668945,-1.4041917324066162,23.72787094116211
1701889714995763200,16.66776318359375,3.571322441101074,-1.9998939037322998,19.759151458740234
1701889715012742000,16.684741943359374,2.189467430114746,-3.102997303009033,16.34164047241211
1701889715029740000,16.701739990234376,1.5073795318603516,-4.474288463592529,14.214900970458984
1701889715046727400,16.7187275390625,0.6098957061767578,-5.912178039550781,13.230079650878906
1701889715063716000,16.735716064453126,-0.6328816413879395,-7.613821983337402,12.665966033935547
1701889715080700400,16.752700439453125,-2.3109354972839355,-9.595947265625,12.027235984802246
1701889715097692200,16.769692138671875,-4.257118225097656,-11.528871536254883,11.142900466918945
1701889715114670000,16.786670166015625,-6.15509557723999,-13.891712188720703,9.904341697692871
1701889715131668000,16.80366796875,-6.3738837242126465,-16.406389236450195,7.74072265625
1701889715148655600,16.820655517578125,-4.996327877044678,-18.448461532592773,4.861501216888428
1701889715165641700,16.837641845703125,-3.732430934906006,-19.467239379882812,1.9057245254516602
1701889715182634200,16.85463427734375,-4.007381439208984,-18.659183502197266,-0.7984943389892578
1701889715199620000,16.8716201171875,-5.157338619232178,-16.900997161865234,-3.0028128623962402
1701889715216607500,16.888607421875,-5.871384620666504,-15.509809494018555,-5.638289451599121
1701889715233596000,16.905595947265624,-5.235477447509766,-14.114434242248535,-9.275636672973633
1701889715250583600,16.92258349609375,-6.007511138916016,-12.657313346862793,-12.725275993347168
1701889715267568600,16.939568603515625,-6.1217827796936035,-11.665979385375977,-15.88640022277832
1701889715284562700,16.956562744140626,-5.138324737548828,-11.232370376586914,-17.395950317382812
1701889715301548300,16.97354833984375,-3.681821346282959,-10.876596450805664,-17.702634811401367
1701889715318535000,16.990534912109375,-1.9153187274932861,-10.445279121398926,-18.096500396728516
1701889715335524000,17.007524169921876,-1.0131826400756836,-10.259081840515137,-18.148765563964844
1701889715352508200,17.024508056640624,-1.184556007385254,-10.156576156616211,-17.146812438964844
1701889715369500000,17.0415,-1.4482388496398926,-10.57127857208252,-15.14212417602539
1701889715386487600,17.058487548828126,-1.665085792541504,-11.385272979736328,-12.36279010772705
1701889715403473000,17.075472900390626,-2.0405421257019043,-12.23011589050293,-9.843509674072266
1701889715420463600,17.092463623046875,-3.0831704139709473,-13.183991432189941,-7.563169956207275
1701889715437452300,17.109452392578124,-4.574907302856445,-13.961675643920898,-5.141993999481201
1701889715454439700,17.126439697265624,-6.147218227386475,-14.40185260772705,-2.601654529571533
1701889715471427800,17.143427734375,-7.598390579223633,-14.949585914611816,-0.4759244918823242
1701889715488402000,17.16040185546875,-7.904807090759277,-15.467439651489258,1.386321783065796
1701889715505408000,17.177407958984375,-7.761486530303955,-15.890195846557617,2.7807228565216064
1701889715522381800,17.1943818359375,-7.341090679168701,-16.045856475830078,3.7622766494750977
1701889715539380200,17.211380126953124,-6.302798748016357,-16.12604522705078,5.730347633361816
1701889715556364300,17.2283642578125,-4.057877540588379,-15.210195541381836,9.735952377319336
1701889715573356300,17.245356201171877,-2.3674840927124023,-13.157679557800293,11.907597541809082
1701889715590332400,17.26233251953125,-1.5661439895629883,-12.724353790283203,12.326277732849121
1701889715607330000,17.279330078125,0.28234291076660156,-10.962425231933594,14.378438949584961
1701889715624322000,17.296322021484375,2.3056135177612305,-8.508682250976562,16.89580535888672
1701889715641308200,17.31330810546875,3.997823715209961,-6.099405288696289,19.462505340576172
1701889715658295800,17.3302958984375,5.422228813171387,-4.3749165534973145,20.102657318115234
1701889715675284200,17.3472841796875,7.333162307739258,-2.8250808715820312,20.4045352935791
1701889715692271600,17.364271728515625,8.99494743347168,-1.2814984321594238,19.266000747680664
1701889715709260300,17.38126025390625,9.375940322875977,0.020531892776489258,16.965164184570312
1701889715726237000,17.39823681640625,7.99852180480957,0.6160218715667725,14.645642280578613
1701889715743235800,17.41523583984375,6.296025276184082,0.9669129848480225,12.932788848876953
1701889715760219000,17.432218994140626,5.145930290222168,1.031477689743042,12.515576362609863
1701889715777211400,17.44921142578125,5.023674964904785,0.24994993209838867,14.072912216186523
1701889715794197800,17.46619775390625,5.3037004470825195,-1.0384116172790527,16.180706024169922
1701889715811190800,17.483190673828126,5.605280876159668,-2.6916592121124268,16.983583450317383
1701889715828164400,17.500164306640624,5.5805463790893555,-4.8306474685668945,16.283836364746094
1701889715845164300,17.517164306640623,3.4256887435913086,-7.359758377075195,14.916698455810547
1701889715862142700,17.534142822265625,0.17809486389160156,-10.026138305664062,13.37309741973877
1701889715879131000,17.551130859375,-2.5501551628112793,-12.769757270812988,12.024906158447266
1701889715896118800,17.568118896484375,-3.942293643951416,-15.670120239257812,11.143841743469238
1701889715913115100,17.585115234375,-5.3193159103393555,-17.874101638793945,8.922684669494629
1701889715930104300,17.602104248046874,-6.742952823638916,-19.443328857421875,6.251908302307129
1701889715947091200,17.61909130859375,-6.697051525115967,-19.97455596923828,3.029057502746582
1701889715964079600,17.63607958984375,-6.609677791595459,-18.700969696044922,-0.21838617324829102
1701889715981068800,17.65306884765625,-7.240825176239014,-16.619762420654297,-3.6246228218078613
1701889715998054700,17.6700546875,-7.42889928817749,-14.847043991088867,-7.645677089691162
1701889716015043800,17.6870439453125,-6.819218158721924,-14.456615447998047,-11.56399917602539
1701889716032031700,17.70403173828125,-5.175760269165039,-14.442380905151367,-14.878890991210938
1701889716049020400,17.7210205078125,-3.3992066383361816,-13.752115249633789,-17.371599197387695
1701889716066007600,17.738007568359375,-2.5060291290283203,-13.600071907043457,-18.18756103515625
1701889716082990600,17.754990478515627,-1.3207340240478516,-13.437210083007812,-19.21006202697754
1701889716099983600,17.771983642578125,-0.824887752532959,-13.188011169433594,-19.74958610534668
1701889716116972800,17.788972900390625,-1.0751709938049316,-12.925323486328125,-18.9610538482666
1701889716133959700,17.805959716796874,-1.2402663230895996,-12.898876190185547,-16.48953628540039
1701889716150933000,17.82293310546875,-1.0497207641601562,-13.25667667388916,-13.209367752075195
1701889716167939300,17.839939208984376,-1.3432064056396484,-14.059091567993164,-9.506863594055176
1701889716184924700,17.856924560546876,-3.052574872970581,-14.821856498718262,-5.430962562561035
1701889716201911800,17.873911865234376,-4.883861541748047,-15.293527603149414,-1.3204078674316406
1701889716218900200,17.890900146484373,-6.971140384674072,-15.078609466552734,2.1679203510284424
1701889716235887900,17.907887939453126,-9.341651916503906,-13.977094650268555,5.433959484100342
1701889716252876300,17.924876220703126,-10.220674514770508,-12.471169471740723,6.5931572914123535
1701889716269863700,17.94186376953125,-8.70296859741211,-10.309233665466309,5.446683406829834
1701889716286851300,17.958851318359375,-6.589534282684326,-9.024282455444336,3.3172130584716797
1701889716303838500,17.97583837890625,-5.011914253234863,-9.409257888793945,2.921970844268799
1701889716320826400,17.992826416015625,-4.494841575622559,-10.788395881652832,4.0380096435546875
1701889716337812000,18.00981201171875,-2.1649651527404785,-10.494359970092773,9.124612808227539
1701889716354795300,18.026795166015624,-0.935513973236084,-8.60268497467041,14.270092010498047
1701889716371781400,18.043781494140624,-0.49517250061035156,-5.661111831665039,20.418302536010742
1701889716388768500,18.0607685546875,0.22269535064697266,-2.9047293663024902,22.87495231628418
1701889716405758000,18.077758056640626,3.1730451583862305,-1.046161413192749,22.407033920288086
1701889716422753000,18.0947529296875,6.771955490112305,0.8602361679077148,22.47144889831543
1701889716439737900,18.11173779296875,8.318881034851074,2.2277519702911377,21.10761833190918
1701889716456721200,18.12872119140625,8.343978881835938,2.434239625930786,18.91535186767578
1701889716473712600,18.145712646484377,7.934052467346191,2.359206438064575,16.716087341308594
1701889716490703400,18.162703369140626,6.203397750854492,2.2039225101470947,15.336381912231445
1701889716507690200,18.179690185546875,4.248211860656738,1.9401211738586426,14.072702407836914
1701889716524680400,18.196680419921876,2.7154531478881836,1.2302525043487549,13.084359169006348
1701889716541667000,18.2136669921875,1.5975894927978516,-0.04678201675415039,12.490630149841309
1701889716558655700,18.23065576171875,1.0284814834594727,-1.4620330333709717,12.074540138244629
1701889716575641300,18.247641357421877,0.6858406066894531,-2.7704343795776367,11.919489860534668
1701889716592621300,18.264621337890624,0.0007476806640625,-4.375481605529785,11.811153411865234
1701889716609621000,18.28162109375,-1.4337973594665527,-6.43317174911499,11.971325874328613
1701889716626607000,18.298607177734375,-2.6769680976867676,-8.952749252319336,11.607845306396484
1701889716643593000,18.315593017578124,-3.870124101638794,-11.290464401245117,10.12299919128418
1701889716660581600,18.33258154296875,-5.326860427856445,-13.285834312438965,8.19674301147461
1701889716677575200,18.3495751953125,-5.657766819000244,-14.458761215209961,6.34805965423584
1701889716694565000,18.366565185546875,-5.495683670043945,-15.208053588867188,4.835188388824463
1701889716711536400,18.383536376953124,-6.115814208984375,-15.57377815246582,3.059206247329712
1701889716728537900,18.400537841796876,-7.161553859710693,-15.174738883972168,1.1122407913208008
1701889716745530600,18.417530517578125,-8.14106559753418,-14.798738479614258,-1.441211223602295
1701889716762516500,18.4345166015625,-8.360825538635254,-14.472687721252441,-5.313136577606201
1701889716779503600,18.451503662109374,-7.429140090942383,-14.140161514282227,-10.002735137939453
1701889716796481800,18.468481689453125,-6.542027950286865,-13.770805358886719,-15.100056648254395
1701889716813470500,18.485470458984373,-5.505941867828369,-13.518794059753418,-19.192264556884766
1701889716830480000,18.50247998046875,-3.8104374408721924,-13.128396987915039,-21.32234001159668
1701889716847456000,18.5194560546875,-1.6447653770446777,-12.94703483581543,-21.368762969970703
1701889716864444200,18.536444091796874,0.04575634002685547,-12.76279067993164,-20.49260139465332
1701889716881431600,18.553431640625,-0.2551693916320801,-12.897034645080566,-18.785335540771484
1701889716898410000,18.570409912109376,-2.168170213699341,-13.67415714263916,-15.483375549316406
1701889716915410200,18.58741015625,-3.6287972927093506,-14.97179126739502,-11.660386085510254
1701889716932383200,18.60438330078125,-4.954649925231934,-16.24709129333496,-8.051079750061035
1701889716949383700,18.6213837890625,-6.917356014251709,-17.202245712280273,-4.492408275604248
1701889716966372400,18.638372314453125,-8.837730407714844,-17.761098861694336,-1.4943904876708984
1701889716983360000,18.655360107421874,-9.483999252319336,-17.806215286254883,0.6686992645263672
1701889717000344600,18.672344482421874,-9.241890907287598,-17.655067443847656,2.0299594402313232
1701889717017336600,18.689336669921875,-8.565431594848633,-17.28510856628418,2.9250166416168213
1701889717034324500,18.706324462890624,-8.023975372314453,-16.90603256225586,4.202189922332764
1701889717051311900,18.723311767578124,-6.647934913635254,-16.809497833251953,5.461699485778809
1701889717068298500,18.740298583984377,-5.205409526824951,-16.57685661315918,8.475756645202637
1701889717085289700,18.757289794921874,-3.7618093490600586,-15.034592628479004,12.976150512695312
1701889717102276600,18.774276611328126,-1.9555768966674805,-13.727100372314453,16.731969833374023
1701889717119264300,18.79126416015625,3.23382568359375,-12.131949424743652,22.368589401245117
1701889717136252700,18.808252685546876,9.525853157043457,-9.33808708190918,24.167682647705078
1701889717153240000,18.825239990234376,13.656377792358398,-6.834458351135254,23.379140853881836
1701889717170228700,18.842228759765625,14.938834190368652,-4.625290870666504,22.83632469177246
1701889717187204900,18.859204833984375,12.836261749267578,-3.1471362113952637,21.833786010742188
1701889717204205300,18.876205322265626,9.396400451660156,-2.6449451446533203,20.24195671081543
1701889717221192000,18.89319189453125,6.753324508666992,-2.8723769187927246,18.504810333251953
1701889717238180600,18.9101806640625,5.530918121337891,-3.0887598991394043,16.650121688842773
1701889717255168300,18.927168212890624,5.246537208557129,-3.6594910621643066,14.993810653686523
1701889717272156700,18.94415673828125,5.183233261108398,-4.625030040740967,14.003433227539062
1701889717289143800,18.961143798828125,3.839059829711914,-5.775759696960449,13.677168846130371
1701889717306137600,18.9781376953125,0.8544597625732422,-7.374306678771973,13.53998851776123
1701889717323117000,18.995116943359374,-1.8599653244018555,-9.420684814453125,12.779711723327637
1701889717340108500,19.012108642578124,-3.2032461166381836,-11.562887191772461,11.521183013916016
1701889717357079800,19.029079833984376,-3.918996810913086,-13.543155670166016,9.781270980834961
1701889717374084600,19.046084716796877,-4.621838569641113,-15.039501190185547,8.139809608459473
1701889717391072000,19.063072021484373,-5.168272018432617,-17.05421257019043,7.798422813415527
1701889717408060400,19.080060302734374,-5.604527950286865,-20.471960067749023,7.506199836730957
1701889717425048000,19.097048095703126,-5.224792003631592,-22.919116973876953,4.768012523651123
1701889717442036500,19.114036376953123,-3.6000795364379883,-22.33930778503418,0.41519737243652344
1701889717459024100,19.131024169921876,-1.6383275985717773,-19.473094940185547,-4.748063087463379
1701889717476012800,19.1480126953125,-3.048004150390625,-15.82750129699707,-9.54472541809082
1701889717493000200,19.165000244140625,-7.567316055297852,-13.41127872467041,-13.998466491699219
1701889717509975600,19.1819755859375,-11.476601600646973,-12.059635162353516,-17.07851791381836
1701889717526980900,19.19898095703125,-12.963407516479492,-11.592111587524414,-16.782344818115234
1701889717543962000,19.215962158203126,-9.75235366821289,-11.742815017700195,-15.701662063598633
1701889717560951800,19.232951904296876,-4.192412376403809,-11.321090698242188,-16.542930603027344
1701889717577941000,19.24994091796875,-3.7644309997558594,-10.827207565307617,-16.300792694091797
1701889717594928000,19.26692822265625,-4.654954433441162,-10.46362018585205,-15.389732360839844
1701889717611906300,19.28390625,-4.4764814376831055,-10.52408218383789,-13.828441619873047
1701889717628904200,19.300904296875,-3.6604604721069336,-11.487274169921875,-11.401450157165527
1701889717645892900,19.317892822265627,-3.5542705059051514,-12.82935619354248,-9.124566078186035
1701889717662880300,19.33488037109375,-4.505392074584961,-14.189311981201172,-6.484690189361572
1701889717679865900,19.351865966796876,-5.874802589416504,-15.152896881103516,-4.103321075439453
1701889717696857900,19.36885791015625,-6.678471088409424,-16.026029586791992,-2.0485095977783203
1701889717713845500,19.385845458984374,-7.24398946762085,-16.907438278198242,0.2538437843322754
1701889717730832400,19.402832275390626,-7.4711174964904785,-17.24837303161621,2.1028060913085938
1701889717747818200,19.419818359375,-7.244512557983398,-17.22500228881836,2.8535351753234863
1701889717764811000,19.43681103515625,-6.816770076751709,-17.10184097290039,2.6036319732666016
1701889717781796600,19.453796630859376,-5.93064022064209,-16.44713592529297,2.412391185760498
1701889717798784000,19.470783935546876,-4.912184715270996,-16.093772888183594,4.133488178253174
1701889717815772000,19.48777197265625,-4.12404727935791,-15.093259811401367,7.154521465301514
1701889717832751600,19.504751708984376,-3.2771100997924805,-14.460884094238281,12.857516288757324
1701889717849748700,19.521748779296875,-0.781611442565918,-12.122333526611328,21.329898834228516
1701889717866736000,19.538736083984375,0.09505939483642578,-9.187690734863281,25.25916862487793
1701889717883727000,19.55572705078125,4.299826622009277,-7.117873191833496,26.283939361572266
1701889717900710100,19.572710205078124,11.56287670135498,-4.824739933013916,24.686479568481445
1701889717917700900,19.589700927734373,15.37767505645752,-3.0470027923583984,21.285869598388672
1701889717934688300,19.606688232421874,14.040743827819824,-1.9605697393417358,18.637157440185547
1701889717951672300,19.62367236328125,10.067730903625488,-1.4742971658706665,16.960590362548828
1701889717968669000,19.6406689453125,7.134875297546387,-1.560080647468567,15.829090118408203
1701889717985652700,19.65765283203125,5.732193946838379,-1.8202852010726929,14.484840393066406
1701889718002640400,19.674640380859376,5.56324577331543,-2.786367416381836,14.21207046508789
1701889718019610600,19.691610595703125,5.645796775817871,-4.175374984741211,15.204092979431152
1701889718036617500,19.708617431640626,5.448238372802734,-5.637104511260986,15.863871574401855
1701889718053604900,19.72560498046875,3.9847278594970703,-7.689871788024902,15.941667556762695
1701889718070592300,19.74259228515625,0.8892726898193359,-10.498011589050293,15.413312911987305
1701889718087580400,19.759580322265624,-2.753568649291992,-14.191370964050293,13.801942825317383
1701889718104568800,19.77656884765625,-5.746391773223877,-16.990324020385742,10.537359237670898
1701889718121548000,19.793548095703127,-7.761470317840576,-17.85237693786621,7.535281181335449
1701889718138544600,19.810544677734374,-8.678506851196289,-17.89858055114746,5.792807102203369
1701889718155533000,19.827532958984374,-7.708539962768555,-18.97873306274414,3.7842648029327393
1701889718172505600,19.844505615234375,-5.7785844802856445,-19.10741424560547,0.6230564117431641
1701889718189507600,19.861507568359375,-4.9709930419921875,-17.335514068603516,-2.931406021118164
1701889718206495500,19.87849560546875,-5.888840675354004,-15.077573776245117,-5.497207164764404
1701889718223475200,19.89547509765625,-7.628767967224121,-13.284100532531738,-8.475296974182129
1701889718240472600,19.91247265625,-8.858535766601562,-11.815261840820312,-11.095419883728027
1701889718257460700,19.929460693359374,-8.340710639953613,-11.153148651123047,-12.65814208984375
1701889718274450000,19.946449951171875,-5.7855634689331055,-10.967628479003906,-13.756380081176758
1701889718291437300,19.963437255859375,-3.3942153453826904,-10.994279861450195,-14.95328140258789
1701889718308422100,19.980422119140623,-2.759769916534424,-10.82205581665039,-15.751045227050781
1701889718325415200,19.997415283203125,-2.846574544906616,-10.815791130065918,-15.971283912658691
1701889718342397200,20.014397216796876,-2.582214832305908,-10.804590225219727,-15.63258171081543
1701889718359389000,20.031388916015626,-1.820716381072998,-11.477083206176758,-14.090715408325195
1701889718376376600,20.04837646484375,-0.8467206954956055,-12.374443054199219,-11.555559158325195
1701889718393365200,20.065365234375,-0.6670565605163574,-13.228338241577148,-9.171785354614258
1701889718410342000,20.082341796875,-2.037233829498291,-14.006277084350586,-7.033041477203369
1701889718427339300,20.09933935546875,-4.026836395263672,-14.691904067993164,-5.021234512329102
1701889718444331300,20.116331298828126,-5.543562889099121,-15.326366424560547,-3.0184974670410156
1701889718461317000,20.133317138671874,-6.191226959228516,-15.764328956604004,-0.8653178215026855
1701889718478304500,20.150304443359374,-6.664678573608398,-16.087059020996094,1.4865589141845703
1701889718495293400,20.16729345703125,-7.473453521728516,-15.869895935058594,2.889305591583252
1701889718512280800,20.18428076171875,-7.83701229095459,-15.49886703491211,3.6419968605041504
1701889718529268500,20.2012685546875,-7.118821620941162,-14.685592651367188,4.797783851623535
1701889718546257400,20.21825732421875,-5.8699870109558105,-14.162099838256836,6.719126224517822
1701889718563245300,20.235245361328126,-4.995333671569824,-13.775402069091797,10.461238861083984
1701889718580233000,20.25223291015625,-3.169649600982666,-11.957849502563477,14.762258529663086
1701889718597220600,20.269220703125,-0.8978824615478516,-9.293119430541992,18.81232452392578
1701889718614209500,20.28620947265625,1.9017534255981445,-6.200462341308594,22.034578323364258
1701889718631197400,20.303197509765624,5.024125099182129,-3.706838607788086,22.525033950805664
1701889718648184800,20.320184814453125,8.149972915649414,-2.087390422821045,22.23948097229004
1701889718665173200,20.33717333984375,8.920517921447754,-1.0503852367401123,21.38222885131836
1701889718682160600,20.35416064453125,8.373852729797363,-0.6321990489959717,20.431407928466797
1701889718699149000,20.371149169921875,7.841945648193359,-0.562645435333252,18.86092185974121
1701889718716136700,20.38813671875,7.123351097106934,-0.7887916564941406,16.99695587158203
1701889718733122300,20.405122314453124,5.927290916442871,-1.0666685104370117,15.074616432189941
1701889718750112800,20.42211279296875,4.901999473571777,-1.7750388383865356,14.0864839553833
1701889718767101400,20.439101318359373,4.201910972595215,-3.3620386123657227,14.443929672241211
1701889718784088600,20.456088623046874,3.078317642211914,-5.171402931213379,15.398815155029297
1701889718801077500,20.473077392578126,1.7762298583984375,-7.168266296386719,15.97657299041748
1701889718818065000,20.49006494140625,0.30715084075927734,-9.615755081176758,15.7717924118042
1701889718835053600,20.507053466796876,-1.1681890487670898,-12.693023681640625,14.407148361206055
1701889718852037600,20.52403759765625,-2.736818313598633,-15.888158798217773,11.757596015930176
1701889718869019000,20.541018798828127,-4.553606033325195,-18.582862854003906,8.694559097290039
1701889718886017000,20.55801708984375,-5.786945343017578,-19.978771209716797,5.80217170715332
1701889718903005400,20.57500537109375,-5.849413871765137,-20.543869018554688,3.641211986541748
1701889718919994000,20.591994140625,-5.946854591369629,-20.058305740356445,1.435272216796875
1701889718936982300,20.608982177734376,-6.21396017074585,-18.66598129272461,-0.9396152496337891
1701889718953961500,20.62596142578125,-6.105748653411865,-17.739791870117188,-3.8908743858337402
1701889718970957300,20.642957275390625,-5.6738739013671875,-16.900379180908203,-8.04765510559082
1701889718987945000,20.659945068359374,-4.488087177276611,-15.891962051391602,-13.037399291992188
1701889719004933600,20.67693359375,-2.747234344482422,-14.731391906738281,-17.82992935180664
1701889719021921300,20.69392138671875,-0.9800510406494141,-13.912065505981445,-20.901872634887695
1701889719038919000,20.7109189453125,0.23314523696899414,-13.59627628326416,-21.672252655029297
1701889719055897300,20.7278974609375,1.08494234085083,-13.365591049194336,-21.343791961669922
1701889719072885800,20.7448857421875,0.3065934181213379,-13.085953712463379,-19.968658447265625
1701889719089873200,20.761873046875,-1.2113676071166992,-13.081459999084473,-17.83806800842285
1701889719106860800,20.77886083984375,-2.0737791061401367,-13.413049697875977,-14.661352157592773
1701889719123861800,20.79586181640625,-2.2652359008789062,-14.415725708007812,-10.995193481445312
1701889719140837400,20.81283740234375,-2.9850757122039795,-15.475698471069336,-7.570598125457764
1701889719157825300,20.8298251953125,-4.827230930328369,-16.17755889892578,-4.420516014099121
1701889719174810600,20.846810546875,-6.237435817718506,-16.48830223083496,-1.6330909729003906
1701889719191805700,20.8638056640625,-6.50503396987915,-16.61176300048828,0.7069225311279297
1701889719208793900,20.8807939453125,-7.027799606323242,-16.31650161743164,1.816992998123169
1701889719225764600,20.8977646484375,-7.592026710510254,-16.055147171020508,2.4339704513549805
1701889719242755800,20.914755859375,-7.846187591552734,-16.41025161743164,3.7195558547973633
1701889719259742700,20.93174267578125,-7.149779796600342,-15.917755126953125,5.8121232986450195
1701889719276739600,20.948739501953124,-6.175111770629883,-15.024274826049805,7.169933319091797
1701889719293731600,20.965731689453126,-5.037432670593262,-14.784238815307617,10.612512588500977
1701889719310717700,20.9827177734375,-3.488487720489502,-13.704933166503906,15.502182006835938
1701889719327702800,20.999702880859374,-0.7092876434326172,-12.487993240356445,18.874616622924805
1701889719344683800,21.016683837890625,5.913616180419922,-9.528429985046387,23.68448257446289
1701889719361674200,21.03367431640625,10.99449348449707,-6.090632438659668,23.79111671447754
1701889719378662700,21.05066259765625,13.147762298583984,-4.158688068389893,22.28327178955078
1701889719395647200,21.067647216796875,12.414944648742676,-2.553964138031006,21.464475631713867
1701889719412645000,21.08464501953125,9.224885940551758,-1.4609838724136353,20.698768615722656
1701889719429632800,21.1016328125,7.559118270874023,-1.266290545463562,19.497844696044922
1701889719446622700,21.118622802734375,7.777902603149414,-1.3305177688598633,17.375368118286133
1701889719463609300,21.135609375,7.094822883605957,-2.205179214477539,16.1848201751709
1701889719480595200,21.15259521484375,5.406166076660156,-3.7442235946655273,16.389328002929688
1701889719497588000,21.169587890625,4.029341697692871,-5.247561931610107,16.574127197265625
1701889719514573800,21.18657373046875,2.467233657836914,-6.8169450759887695,16.248531341552734
1701889719531569200,21.203569091796876,0.2794761657714844,-8.862637519836426,15.167989730834961
1701889719548547300,21.22054736328125,-1.6462368965148926,-11.350833892822266,13.445965766906738
1701889719565540400,21.237540283203124,-3.2879090309143066,-14.124307632446289,11.4083251953125
1701889719582526000,21.25452587890625,-5.229609489440918,-16.63429832458496,9.11212158203125
1701889719599513300,21.271513427734376,-6.340651512145996,-18.341794967651367,6.490746021270752
1701889719616501000,21.2885009765625,-6.641653537750244,-19.31941032409668,4.213938236236572
1701889719633490200,21.305490234375,-6.587702751159668,-19.365005493164062,1.767529010772705
1701889719650478000,21.32247802734375,-6.467301845550537,-18.91307258605957,-1.064328670501709
1701889719667463200,21.339463134765627,-6.811474323272705,-17.844226837158203,-4.704752445220947
1701889719684456200,21.356456298828125,-7.555182933807373,-16.513690948486328,-9.6312837600708
1701889719701431000,21.37343115234375,-7.91987419128418,-15.089524269104004,-15.3631591796875
1701889719718430200,21.39043017578125,-5.811748504638672,-13.603241920471191,-20.05582046508789
1701889719735407400,21.407407470703124,-1.8099417686462402,-12.92828369140625,-21.43478012084961
1701889719752397600,21.4243974609375,2.2209906578063965,-12.964178085327148,-20.72178840637207
1701889719769393700,21.4413935546875,4.0334038734436035,-12.398930549621582,-20.605606079101562
1701889719786382300,21.45838232421875,1.2000021934509277,-12.053556442260742,-19.737422943115234
1701889719803369700,21.47536962890625,-1.9868278503417969,-12.05686092376709,-17.738061904907227
1701889719820350200,21.49235009765625,-2.9022388458251953,-12.285600662231445,-14.744165420532227
1701889719837338000,21.509338134765624,-2.542682647705078,-13.325077056884766,-11.09520435333252
1701889719854330000,21.526330078125,-2.7986907958984375,-14.410528182983398,-7.351202487945557
1701889719871310000,21.54331005859375,-4.371953010559082,-15.234010696411133,-4.419733047485352
