time,seconds_elapsed,z,y,x
1701889761177869600,0.11586962890625,1.1403069496154785,0.07815170288085938,0.059784650802612305
1701889761194858800,0.132858642578125,0.5301942825317383,-0.10077857971191406,0.5741069316864014
1701889761211828200,0.149828125,0.2115345001220703,0.28107309341430664,0.3977527618408203
1701889761228832800,0.166832763671875,0.006716728210449219,0.036887168884277344,0.055457353591918945
1701889761245822700,0.18382275390625,-0.15964603424072266,0.050177574157714844,-0.02954697608947754
1701889761262802700,0.200802734375,-0.2804403305053711,-0.1315908432006836,-0.1851041316986084
1701889761279795000,0.217794921875,-0.4143047332763672,-0.14829635620117188,-0.331967830657959
1701889761296788000,0.2347880859375,-0.6063508987426758,-0.06590557098388672,-0.04797816276550293
1701889761313780500,0.251780517578125,-0.5669841766357422,-0.16112232208251953,0.2049694061279297
1701889761330755300,0.26875537109375,-0.42577219009399414,-0.3087344169616699,0.21816563606262207
1701889761347752000,0.285751953125,-0.47535037994384766,-0.4477100372314453,0.15231108665466309
1701889761364742700,0.30274267578125,-0.410092830657959,-0.5008974075317383,0.19685912132263184
1701889761381724400,0.319724365234375,-0.027948379516601562,-0.6107330322265625,0.19401764869689941
1701889761398715100,0.336715087890625,0.3601551055908203,-0.7593526840209961,0.07061147689819336
1701889761415705000,0.353705078125,0.5913467407226562,-0.7857131958007812,0.12798094749450684
1701889761432681500,0.370681396484375,0.5431857109069824,-0.6683793067932129,0.08793210983276367
1701889761449677300,0.38767724609375,0.28534603118896484,-0.4824686050415039,0.015408039093017578
1701889761466671400,0.40467138671875,-0.07818746566772461,-0.3267173767089844,-0.06527590751647949
1701889761483646200,0.421646240234375,-0.3218984603881836,-0.2305464744567871,-0.21272993087768555
1701889761500642000,0.43864208984375,0.06492137908935547,-0.30274295806884766,-0.235184907913208
1701889761517634800,0.455634765625,0.8408899307250977,-0.45519351959228516,-0.2566225528717041
1701889761534622000,0.4726220703125,1.271216869354248,-0.44676637649536133,-0.3803577423095703
1701889761551597300,0.489597412109375,1.0972685813903809,-0.31085824966430664,-0.5148515701293945
1701889761568598500,0.5065986328125,0.5134620666503906,-0.22300338745117188,-0.7175722122192383
1701889761585586400,0.52358642578125,0.016190528869628906,-0.13127851486206055,-0.8940253257751465
1701889761602570800,0.54057080078125,-0.11597299575805664,-0.14592981338500977,-0.8626265525817871
1701889761619561500,0.5575615234375,-0.0977487564086914,-0.15598487854003906,-0.7356822490692139
1701889761636540200,0.5745400390625,-0.15195465087890625,-0.0872354507446289,0.22168254852294922
1701889761653532700,0.59153271484375,-0.15284347534179688,0.1681065559387207,0.5047883987426758
1701889761670525700,0.608525634765625,0.09600400924682617,0.3273491859436035,0.09074592590332031
1701889761687499300,0.625499267578125,-0.3332033157348633,0.5044751167297363,-0.09369182586669922
1701889761704538400,0.642538330078125,-0.30094099044799805,0.7412371635437012,0.36626720428466797
1701889761721489000,0.659489013671875,0.25193309783935547,1.0512208938598633,1.6746292114257812
1701889761738470000,0.676469970703125,1.255418300628662,1.4192290306091309,2.943251371383667
1701889761755461600,0.693461669921875,1.5034947395324707,1.7229595184326172,3.661980152130127
1701889761772452400,0.710452392578125,0.5762653350830078,1.815373420715332,3.2167792320251465
1701889761789444600,0.727444580078125,-0.6023774147033691,1.8549599647521973,3.0089211463928223
1701889761806433300,0.744433349609375,-0.40712881088256836,1.4447426795959473,4.020654201507568
1701889761823411200,0.7614111328125,0.5448970794677734,1.3040413856506348,5.212894439697266
1701889761840408000,0.778407958984375,0.8487415313720703,1.587618350982666,5.623962879180908
1701889761857395700,0.795395751953125,-0.3368246555328369,1.521134376525879,4.989597797393799
1701889761874372400,0.812372314453125,-0.9959404468536377,1.0573549270629883,3.90163516998291
1701889761891375400,0.829375244140625,-0.979027509689331,0.5303401947021484,3.698552370071411
1701889761908356400,0.8463564453125,-1.7671879529953003,0.9842596054077148,3.5942223072052
1701889761925353200,0.863353271484375,-4.571435451507568,1.2420272827148438,3.0011351108551025
1701889761942337500,0.880337646484375,-5.044626712799072,0.9202146530151367,2.8010706901550293
1701889761959321300,0.8973212890625,-2.820810317993164,0.4423646926879883,3.5451736450195312
1701889761976303400,0.914303466796875,-0.18597924709320068,0.3918142318725586,4.62282657623291
1701889761993298700,0.931298583984375,0.5658988952636719,0.05415153503417969,5.0936760902404785
1701889762010290200,0.948290283203125,0.8637382984161377,-0.3261709213256836,5.000120639801025
1701889762027278300,0.9652783203125,0.7409906387329102,-0.5933761596679688,5.116366386413574
1701889762044262700,0.9822626953125,0.48667073249816895,-0.7713346481323242,6.10749626159668
1701889762061251800,0.999251953125,0.8427817821502686,-1.2116308212280273,7.613986968994141
1701889762078244000,1.016244140625,1.4956250190734863,-1.3432135581970215,8.279330253601074
1701889762095229400,1.0332294921875,2.4154772758483887,-1.7766947746276855,7.30334997177124
1701889762112213200,1.050213134765625,3.7853994369506836,-1.7680015563964844,6.728914737701416
1701889762129206800,1.067206787109375,4.982029438018799,-1.8930482864379883,6.837553024291992
1701889762146196200,1.0841962890625,4.65114688873291,-1.7867317199707031,7.5492682456970215
1701889762163172900,1.1011728515625,3.822127342224121,-1.3509936332702637,7.803103923797607
1701889762180169200,1.118169189453125,3.0135769844055176,-1.6732759475708008,8.804853439331055
1701889762197158400,1.135158447265625,4.6405510902404785,-2.2990365028381348,10.532744407653809
1701889762214144800,1.152144775390625,7.488286018371582,-2.206845760345459,11.588996887207031
1701889762231133700,1.1691337890625,9.160337448120117,-2.7896041870117188,12.222214698791504
1701889762248117000,1.186116943359375,9.209482192993164,-3.7095091342926025,12.35787582397461
1701889762265113600,1.203113525390625,8.38609790802002,-4.516042709350586,12.311888694763184
1701889762282097400,1.220097412109375,7.446186542510986,-5.235827445983887,11.8955078125
1701889762299088100,1.237088134765625,6.998575210571289,-6.462416648864746,11.311065673828125
1701889762316077300,1.254077392578125,7.477449893951416,-7.895345211029053,11.336918830871582
1701889762333056000,1.271055908203125,8.769201278686523,-9.511605262756348,13.09543228149414
1701889762350048500,1.288048583984375,8.762090682983398,-10.819377899169922,13.904306411743164
1701889762367041500,1.30504150390625,6.590452194213867,-12.005491256713867,13.234981536865234
1701889762384027000,1.32202685546875,3.341747283935547,-12.699620246887207,11.827707290649414
1701889762401017900,1.339017822265625,0.6364603042602539,-12.85099983215332,10.307358741760254
1701889762418005200,1.356005126953125,-1.0659841299057007,-12.736618041992188,8.860223770141602
1701889762434995500,1.372995361328125,-1.0276559591293335,-12.605011940002441,7.138510704040527
1701889762451984100,1.389984130859375,-0.7114322781562805,-11.871929168701172,5.260507106781006
1701889762468970000,1.406969970703125,-1.662316918373108,-11.498259544372559,3.4373559951782227
1701889762485959400,1.42395947265625,-3.202718734741211,-10.400863647460938,1.3746328353881836
1701889762502943700,1.44094384765625,-4.416515350341797,-9.510024070739746,-0.8933134078979492
1701889762519934000,1.457933837890625,-5.468459606170654,-9.156879425048828,-3.7043418884277344
1701889762536924200,1.474924072265625,-6.393471717834473,-9.176692008972168,-7.564206123352051
1701889762553907500,1.491907470703125,-7.7829718589782715,-9.383604049682617,-11.94474983215332
1701889762570896400,1.508896484375,-9.166009902954102,-10.048295021057129,-15.133769989013672
1701889762587875600,1.52587548828125,-9.125828742980957,-11.110289573669434,-16.600757598876953
1701889762604878000,1.542878173828125,-6.423567771911621,-12.139431953430176,-17.68103790283203
1701889762621861000,1.559861083984375,-4.019325256347656,-12.778471946716309,-18.195608139038086
1701889762638851600,1.5768515625,-3.226045608520508,-12.887454986572266,-17.46202850341797
1701889762655843000,1.593843017578125,-3.3450815677642822,-13.552928924560547,-14.960193634033203
1701889762672812000,1.61081201171875,-3.1805789470672607,-14.373016357421875,-11.39495849609375
1701889762689815800,1.62781591796875,-3.6172893047332764,-15.386049270629883,-7.710951805114746
1701889762706805000,1.644804931640625,-4.901638031005859,-16.195096969604492,-4.168543815612793
1701889762723790600,1.66179052734375,-6.82202672958374,-16.521623611450195,-1.2675514221191406
1701889762740777200,1.678777099609375,-8.901939392089844,-16.65826416015625,1.7389020919799805
1701889762757785600,1.69578564453125,-10.836111068725586,-17.376108169555664,4.059046745300293
1701889762774754300,1.71275439453125,-11.207362174987793,-17.749893188476562,4.88919734954834
1701889762791752200,1.729752197265625,-9.929880142211914,-17.92613410949707,4.713030815124512
1701889762808734000,1.74673388671875,-7.345313549041748,-17.609539031982422,4.688240051269531
1701889762825722600,1.76372265625,-4.443528652191162,-18.79895782470703,7.415851593017578
1701889762842707700,1.780707763671875,-0.5850028991699219,-17.704029083251953,13.490409851074219
1701889762859697400,1.797697509765625,1.652951717376709,-14.45517349243164,16.61591911315918
1701889762876687600,1.8146875,4.790498733520508,-13.617854118347168,18.597681045532227
1701889762893670700,1.831670654296875,12.686543464660645,-9.53609848022461,21.813703536987305
1701889762910663400,1.848663330078125,17.192790985107422,-4.72946834564209,19.080060958862305
1701889762927648300,1.865648193359375,15.766124725341797,-1.7820236682891846,14.093469619750977
1701889762944642000,1.88264208984375,11.008769989013672,-1.6848821640014648,11.901756286621094
1701889762961624800,1.899624755859375,8.002986907958984,-2.0449013710021973,13.377951622009277
1701889762978615300,1.916615234375,9.097769737243652,-1.467538833618164,14.344961166381836
1701889762995604000,1.93360400390625,12.036824226379395,-1.9977928400039673,14.166015625
1701889763012590600,1.950590576171875,14.20392894744873,-2.7394728660583496,14.163152694702148
1701889763029579300,1.967579345703125,13.421577453613281,-3.801571846008301,14.105707168579102
1701889763046569500,1.984569580078125,10.169775009155273,-5.36569881439209,14.454527854919434
1701889763063553300,2.00155322265625,6.728841781616211,-6.811487197875977,14.649616241455078
1701889763080540700,2.018540771484375,4.2427473068237305,-8.525726318359375,14.303287506103516
1701889763097532200,2.0355322265625,2.309957504272461,-10.5899076461792,13.696701049804688
1701889763114541600,2.05254150390625,0.7284555435180664,-12.602228164672852,12.541471481323242
1701889763131505000,2.0695048828125,-1.118767261505127,-14.383516311645508,11.251399993896484
1701889763148489700,2.08648974609375,-3.5283145904541016,-15.820549011230469,10.07362174987793
1701889763165487900,2.10348779296875,-5.375525951385498,-17.127910614013672,8.664214134216309
1701889763182472400,2.120472412109375,-5.3974809646606445,-18.270919799804688,6.322690010070801
1701889763199458000,2.1374580078125,-4.240134239196777,-18.40117645263672,3.3863525390625
1701889763216438000,2.15443798828125,-4.702427864074707,-16.763410568237305,-0.10846424102783203
1701889763233439200,2.171439208984375,-6.730315208435059,-14.072690963745117,-3.8746862411499023
1701889763250427600,2.188427734375,-8.720610618591309,-12.998395919799805,-8.02711296081543
1701889763267413800,2.205413818359375,-10.353647232055664,-13.100406646728516,-12.469490051269531
1701889763284400000,2.222400146484375,-10.697047233581543,-12.930584907531738,-15.754900932312012
1701889763301389000,2.23938916015625,-8.813705444335938,-12.740667343139648,-17.64542007446289
1701889763318378800,2.256378662109375,-5.263474464416504,-11.978271484375,-18.496742248535156
1701889763335364600,2.273364501953125,-2.5685973167419434,-11.61072826385498,-17.571269989013672
1701889763352352500,2.2903525390625,-1.5918854475021362,-11.9702787399292,-16.146892547607422
1701889763369343000,2.307343017578125,-3.1180708408355713,-13.200047492980957,-14.281172752380371
1701889763386333000,2.3243330078125,-5.025829792022705,-14.432645797729492,-12.178488731384277
1701889763403320300,2.3413203125,-4.974806308746338,-15.087510108947754,-9.427742958068848
1701889763420308000,2.358307861328125,-4.390974521636963,-15.773660659790039,-6.522865295410156
1701889763437283000,2.375282958984375,-4.432664394378662,-16.383371353149414,-3.6674842834472656
1701889763454282200,2.3922822265625,-5.573589324951172,-16.996231079101562,-0.8870487213134766
1701889763471262500,2.409262451171875,-7.065071105957031,-16.98565673828125,1.215087890625
1701889763488260600,2.426260498046875,-8.653607368469238,-16.26266098022461,2.772254467010498
1701889763505249500,2.44324951171875,-9.829559326171875,-15.97578239440918,4.01776123046875
1701889763522234400,2.460234375,-9.759257316589355,-15.755497932434082,4.215591907501221
1701889763539224600,2.477224609375,-9.214397430419922,-16.14409065246582,3.8303046226501465
1701889763556213500,2.494213623046875,-7.115941047668457,-17.385820388793945,4.535684585571289
1701889763573199000,2.51119921875,-3.600931406021118,-17.84001922607422,6.403526306152344
1701889763590187000,2.52818701171875,0.7320280075073242,-17.9953556060791,10.247526168823242
1701889763607178800,2.5451787109375,5.374384880065918,-16.878658294677734,15.330780029296875
1701889763624163000,2.5621630859375,10.352943420410156,-15.121338844299316,19.646608352661133
1701889763641154000,2.579154052734375,16.285152435302734,-10.377296447753906,22.13763427734375
1701889763658141400,2.596141357421875,17.52035903930664,-6.222921371459961,20.615325927734375
1701889763675122700,2.613122802734375,14.137764930725098,-4.396295070648193,19.182533264160156
1701889763692108500,2.630108642578125,10.524576187133789,-3.1851134300231934,17.55760383605957
1701889763709106400,2.6471064453125,8.96044921875,-2.4395086765289307,15.505626678466797
1701889763726086100,2.664086181640625,9.91279411315918,-2.395935535430908,12.827194213867188
1701889763743079000,2.681078857421875,11.618753433227539,-2.568448066711426,10.446228981018066
1701889763760070100,2.698070068359375,12.168204307556152,-3.0754826068878174,9.298678398132324
1701889763777060000,2.71506005859375,11.291878700256348,-4.109394550323486,9.781962394714355
1701889763794043400,2.73204345703125,9.194130897521973,-5.270051956176758,11.11611557006836
1701889763811038500,2.74903857421875,6.46213436126709,-6.731186866760254,12.506704330444336
1701889763828013300,2.766013427734375,4.004574775695801,-8.72456169128418,13.117176055908203
1701889763845013500,2.783013427734375,2.351914882659912,-10.712231636047363,12.554611206054688
1701889763861997600,2.79999755859375,0.4226212501525879,-12.51425552368164,11.308307647705078
1701889763878988000,2.816988037109375,-1.8621454238891602,-14.170490264892578,10.382373809814453
1701889763895978200,2.833978271484375,-3.7950942516326904,-15.759675025939941,9.78545093536377
1701889763912961800,2.8509619140625,-4.376029968261719,-17.393741607666016,8.947586059570312
1701889763929953500,2.86795361328125,-5.069282054901123,-18.868194580078125,6.318024635314941
1701889763946942200,2.884942138671875,-5.395359039306641,-19.503459930419922,2.6573104858398438
1701889763963926800,2.9019267578125,-5.639021873474121,-19.00244140625,-0.4193592071533203
1701889763980918000,2.91891796875,-6.299247741699219,-17.332660675048828,-2.7309799194335938
1701889763997906000,2.935906005859375,-7.002357482910156,-15.469010353088379,-5.23183536529541
1701889764014895400,2.952895263671875,-7.168852806091309,-13.426492691040039,-8.584236145019531
1701889764031872500,2.96987255859375,-6.784588813781738,-11.283082962036133,-12.399430274963379
1701889764048871200,2.98687109375,-6.408560752868652,-9.96933364868164,-14.779566764831543
1701889764065859800,3.00385986328125,-6.546686172485352,-10.38807201385498,-15.167874336242676
1701889764082836500,3.02083642578125,-6.7468366622924805,-11.401123046875,-15.591560363769531
1701889764099834400,3.03783447265625,-6.820284366607666,-12.385560989379883,-16.5166015625
1701889764116822000,3.054822021484375,-6.347282409667969,-12.643393516540527,-17.040908813476562
1701889764133811200,3.071811279296875,-5.216882705688477,-13.232538223266602,-16.699405670166016
1701889764150800000,3.0887998046875,-3.150264263153076,-13.53846263885498,-15.187247276306152
1701889764167787500,3.10578759765625,-2.126962661743164,-14.309850692749023,-11.861868858337402
1701889764184787000,3.122786865234375,-3.8000104427337646,-15.173796653747559,-7.4428205490112305
1701889764201754000,3.139754150390625,-6.249731063842773,-16.07175636291504,-3.640122413635254
1701889764218751700,3.156751708984375,-8.240839958190918,-16.608020782470703,-0.20099544525146484
1701889764235732500,3.173732421875,-9.95461368560791,-17.276268005371094,2.4887261390686035
1701889764252718600,3.190718505859375,-10.365493774414062,-18.219898223876953,4.096199989318848
1701889764269717800,3.2077177734375,-8.990798950195312,-19.078880310058594,4.77392578125
1701889764286704400,3.224704345703125,-5.84128999710083,-19.374744415283203,5.344727039337158
1701889764303694600,3.241694580078125,-2.789513349533081,-19.13755989074707,6.671918869018555
1701889764320671700,3.258671630859375,-0.7924437522888184,-18.569061279296875,8.08402156829834
1701889764337673000,3.2756728515625,1.180190086364746,-19.02273178100586,9.29789924621582
1701889764354641000,3.292640869140625,5.148865699768066,-19.306413650512695,12.901983261108398
1701889764371647000,3.30964697265625,12.34865951538086,-16.543283462524414,18.115327835083008
1701889764388633900,3.3266337890625,18.820091247558594,-12.096537590026855,20.107799530029297
1701889764405623300,3.343623291015625,20.357091903686523,-8.523974418640137,19.3109130859375
1701889764422607600,3.360607666015625,17.827938079833984,-6.637038707733154,18.809123992919922
1701889764439599000,3.37759912109375,14.293709754943848,-5.883269309997559,18.075000762939453
1701889764456587500,3.39458740234375,13.139098167419434,-5.79683780670166,16.47284698486328
1701889764473565200,3.411565185546875,13.483022689819336,-5.856136798858643,13.90579891204834
1701889764490560300,3.428560302734375,12.941866874694824,-6.149367332458496,11.833060264587402
1701889764507553800,3.4455537109375,10.861977577209473,-6.619869709014893,11.399138450622559
1701889764524537900,3.462537841796875,8.221869468688965,-7.503638744354248,12.307501792907715
1701889764541527800,3.47952783203125,6.031721115112305,-8.705133438110352,13.582900047302246
1701889764558517200,3.496517333984375,3.6049423217773438,-10.293045043945312,14.329950332641602
1701889764575512800,3.513512939453125,0.8133893013000488,-11.851530075073242,14.132027626037598
1701889764592492800,3.530492919921875,-1.6594157218933105,-13.160398483276367,12.690306663513184
1701889764609480700,3.547480712890625,-3.414074659347534,-14.838151931762695,11.02530288696289
1701889764626461000,3.5644609375,-4.5407938957214355,-17.1910457611084,9.145803451538086
1701889764643452000,3.581451904296875,-5.055174827575684,-18.626903533935547,6.491543769836426
1701889764660438500,3.5984384765625,-6.107283592224121,-19.2065486907959,3.7137742042541504
1701889764677427500,3.615427490234375,-6.1358513832092285,-19.17461585998535,0.6658473014831543
1701889764694414600,3.63241455078125,-5.562406063079834,-17.810195922851562,-2.384474754333496
1701889764711403500,3.649403564453125,-8.289481163024902,-15.75654411315918,-5.454225540161133
1701889764728388900,3.666388916015625,-10.060173034667969,-13.881922721862793,-9.043575286865234
1701889764745376500,3.68337646484375,-10.745028495788574,-12.872075080871582,-13.009858131408691
1701889764762367200,3.7003671875,-9.138056755065918,-12.349928855895996,-16.767520904541016
1701889764779356000,3.71735595703125,-5.987658977508545,-12.43277359008789,-18.700862884521484
1701889764796351000,3.73435107421875,-3.091355800628662,-12.711122512817383,-19.372953414916992
1701889764813339100,3.751339111328125,-2.537703275680542,-13.402726173400879,-18.87700653076172
1701889764830324200,3.76832421875,-3.2889578342437744,-13.79150390625,-17.111417770385742
1701889764847317200,3.785317138671875,-3.671534538269043,-13.824850082397461,-14.889726638793945
1701889764864288800,3.802288818359375,-3.462216854095459,-14.120458602905273,-12.279709815979004
1701889764881294600,3.819294677734375,-3.7667832374572754,-14.478734016418457,-8.88460636138916
1701889764898280000,3.836280029296875,-5.007652759552002,-15.065330505371094,-5.414629936218262
1701889764915268400,3.853268310546875,-6.359633445739746,-15.319796562194824,-2.4772586822509766
1701889764932253400,3.87025341796875,-7.729151725769043,-15.174692153930664,0.5864267349243164
1701889764949244700,3.88724462890625,-8.870513916015625,-15.442733764648438,2.95811128616333
1701889764966232600,3.904232666015625,-8.411661148071289,-15.845952987670898,4.453295707702637
1701889764983218400,3.921218505859375,-6.545109748840332,-15.57184886932373,5.175790786743164
1701889765000208000,3.938207763671875,-4.559898853302002,-15.27428913116455,7.350600719451904
1701889765017193700,3.95519384765625,-2.188019275665283,-13.427709579467773,11.07017707824707
1701889765034185500,3.972185546875,-0.7927799224853516,-11.241315841674805,13.15229606628418
1701889765051174000,3.989173828125,1.94681978225708,-10.150650024414062,15.746695518493652
1701889765068162300,4.006162353515625,4.6314377784729,-7.960461139678955,18.21656608581543
1701889765085147600,4.023147705078125,5.967813491821289,-5.601142406463623,17.31610870361328
1701889765102140400,4.040140380859375,8.803040504455566,-4.207146167755127,20.649089813232422
1701889765119126500,4.05712646484375,12.000068664550781,-1.4515676498413086,24.39113426208496
1701889765136115000,4.074114990234375,12.81585693359375,0.40324831008911133,24.616249084472656
1701889765153103400,4.091103271484375,12.461950302124023,0.2883434295654297,22.470245361328125
1701889765170091300,4.10809130859375,11.141907691955566,0.024973392486572266,19.373300552368164
1701889765187078700,4.12507861328125,9.425926208496094,-0.08524799346923828,15.728912353515625
1701889765204065800,4.142065673828125,7.185702323913574,-0.717536449432373,13.267229080200195
1701889765221058600,4.15905859375,5.203335762023926,-1.9262959957122803,12.513354301452637
1701889765238033000,4.176032958984375,3.9518370628356934,-3.2006566524505615,12.825029373168945
1701889765255032300,4.1930322265625,3.461418628692627,-4.684593677520752,13.472541809082031
1701889765272020200,4.210020263671875,2.5019707679748535,-6.703055381774902,13.824907302856445
1701889765289008600,4.227008544921875,0.42055463790893555,-8.767524719238281,12.97877025604248
1701889765305996500,4.24399658203125,-2.2282183170318604,-11.068273544311523,11.480764389038086
1701889765322981600,4.260981689453125,-4.406787872314453,-12.954668045043945,9.606291770935059
1701889765339973000,4.27797314453125,-5.315170764923096,-14.476515769958496,7.454573631286621
1701889765356949200,4.29494921875,-5.062373161315918,-15.451807022094727,5.42398738861084
1701889765373939700,4.311939697265625,-4.828584671020508,-15.81307601928711,3.742612361907959
1701889765390927400,4.32892724609375,-5.7505340576171875,-15.20927619934082,1.5282540321350098
1701889765407915800,4.345915771484375,-6.988520622253418,-14.592046737670898,-1.7509136199951172
1701889765424906500,4.362906494140625,-8.60751724243164,-13.702152252197266,-6.400605201721191
1701889765441891300,4.379891357421875,-9.885056495666504,-12.859582901000977,-10.859663963317871
1701889765458885000,4.396885009765625,-9.66274642944336,-12.38148021697998,-14.022432327270508
1701889765475870500,4.413870361328125,-7.851003646850586,-11.993696212768555,-16.357955932617188
1701889765492855300,4.430855224609375,-5.77047061920166,-11.802473068237305,-18.268226623535156
1701889765509844000,4.447843994140625,-4.314986705780029,-11.753122329711914,-18.927045822143555
1701889765526834400,4.46483447265625,-4.022927284240723,-11.855846405029297,-18.497922897338867
1701889765543824000,4.481823974609375,-4.475735664367676,-11.955345153808594,-16.65414047241211
1701889765560811000,4.49881103515625,-4.803094387054443,-12.229541778564453,-13.451152801513672
1701889765577802000,4.515802001953125,-5.449869632720947,-12.847222328186035,-10.212186813354492
1701889765594786800,4.532786865234375,-6.240019798278809,-13.446165084838867,-7.209795951843262
1701889765611773200,4.549773193359375,-7.233696937561035,-13.84952449798584,-4.423754692077637
1701889765628761900,4.566761962890625,-7.733841419219971,-13.870991706848145,-1.9082145690917969
1701889765645754600,4.583754638671875,-7.6340203285217285,-13.834939956665039,0.323641300201416
1701889765662743000,4.600742919921875,-7.948755741119385,-13.64948844909668,2.4712300300598145
1701889765679727400,4.617727294921875,-8.322599411010742,-13.678977966308594,3.8741931915283203
1701889765696717300,4.63471728515625,-7.488414287567139,-13.465550422668457,5.186267375946045
1701889765713704400,4.651704345703125,-5.249350070953369,-12.965612411499023,7.921871185302734
1701889765730704100,4.6687041015625,-1.4993343353271484,-11.401575088500977,12.267518043518066
1701889765747687000,4.68568701171875,2.8467750549316406,-8.172992706298828,17.55185890197754
1701889765764680700,4.7026806640625,4.440103530883789,-4.268423080444336,20.328962326049805
1701889765781665500,4.71966552734375,2.0280985832214355,-2.294071912765503,19.107511520385742
1701889765798655700,4.73665576171875,3.242194652557373,-1.754204511642456,19.476856231689453
1701889765815640600,4.753640625,5.8979644775390625,0.4442324638366699,20.28781509399414
1701889765832625200,4.770625244140625,8.161332130432129,1.703138828277588,20.02883529663086
1701889765849619500,4.787619384765625,9.04520320892334,1.3332505226135254,20.14520263671875
1701889765866606600,4.804606689453125,8.751648902893066,0.8720541000366211,20.284889221191406
1701889765883594800,4.8215947265625,7.349018096923828,0.006277561187744141,19.166048049926758
1701889765900574200,4.83857421875,5.9024248123168945,-1.144547939300537,17.002466201782227
1701889765917571300,4.8555712890625,4.6426920890808105,-2.1176950931549072,14.633198738098145
1701889765934559500,4.8725595703125,2.9018940925598145,-3.345421552658081,13.189022064208984
1701889765951538000,4.889537841796875,1.1756763458251953,-4.690380096435547,12.819169044494629
1701889765968533800,4.90653369140625,-0.5986347198486328,-5.9273529052734375,12.488454818725586
1701889765985526300,4.9235263671875,-2.081277370452881,-7.6365556716918945,11.95827865600586
1701889766002512100,4.94051220703125,-3.456071376800537,-9.324790954589844,11.295178413391113
1701889766019498500,4.95749853515625,-4.225533962249756,-10.825898170471191,9.951292037963867
1701889766036487400,4.9744873046875,-4.427752494812012,-12.138956069946289,8.25041389465332
1701889766053485800,4.99148583984375,-3.8168411254882812,-12.92219352722168,6.036329746246338
1701889766070465300,5.00846533203125,-3.5677833557128906,-13.445169448852539,3.7255043983459473
1701889766087451000,5.025450927734375,-4.5207085609436035,-13.10382080078125,1.7765469551086426
1701889766104444200,5.042444091796875,-6.549531936645508,-12.49506950378418,0.2509174346923828
1701889766121429200,5.05942919921875,-8.823481559753418,-12.078369140625,-2.227977752685547
1701889766138415000,5.0764150390625,-10.055042266845703,-12.411441802978516,-5.944760322570801
1701889766155408600,5.09340869140625,-9.534778594970703,-12.313371658325195,-10.243521690368652
1701889766172394500,5.11039453125,-8.3138427734375,-11.629692077636719,-13.894330024719238
1701889766189382100,5.127382080078125,-7.082707405090332,-10.978433609008789,-16.356491088867188
1701889766206369500,5.14436962890625,-5.968163967132568,-10.635608673095703,-17.591703414916992
1701889766223359700,5.16135986328125,-5.058465957641602,-10.533279418945312,-17.62656021118164
1701889766240347400,5.178347412109375,-4.299224853515625,-10.810035705566406,-16.770248413085938
1701889766257334800,5.195334716796875,-3.342477321624756,-10.928262710571289,-15.160792350769043
1701889766274310400,5.212310302734375,-2.8604977130889893,-11.734257698059082,-13.154848098754883
1701889766291311900,5.229311767578125,-3.288637399673462,-12.360681533813477,-11.267144203186035
1701889766308298500,5.246298583984375,-4.847423553466797,-12.920707702636719,-9.572083473205566
1701889766325289500,5.26328955078125,-6.36796236038208,-13.414224624633789,-7.669992446899414
1701889766342265600,5.280265625,-7.089438438415527,-13.340171813964844,-5.121435165405273
1701889766359261700,5.29726171875,-7.75573205947876,-14.084169387817383,-2.030668258666992
1701889766376255500,5.31425537109375,-8.023426055908203,-15.006099700927734,1.015737533569336
1701889766393240600,5.331240478515625,-7.944479942321777,-15.508087158203125,3.129025459289551
1701889766410225200,5.34822509765625,-6.90286111831665,-15.412643432617188,4.828421592712402
1701889766427218000,5.365218017578125,-5.461379051208496,-14.593740463256836,7.523962020874023
1701889766444205300,5.382205322265625,-3.9136147499084473,-13.61635971069336,9.590866088867188
1701889766461193500,5.399193359375,0.3950510025024414,-12.605303764343262,13.84715461730957
1701889766478182000,5.416181884765625,3.4609780311584473,-9.29450798034668,18.547075271606445
1701889766495169800,5.433169677734375,2.662539005279541,-6.015198230743408,20.587270736694336
1701889766512158200,5.450158203125,1.4042677879333496,-3.9354891777038574,20.4390869140625
1701889766529153800,5.46715380859375,2.271094799041748,-2.3774750232696533,19.12066078186035
1701889766546144000,5.48414404296875,5.066854476928711,-0.2836432456970215,18.29928970336914
1701889766563122700,5.501122802734375,6.9592413902282715,1.8639922142028809,18.257963180541992
1701889766580102000,5.518101806640625,6.747440814971924,2.516716480255127,18.168581008911133
1701889766597098000,5.535097900390625,5.278145790100098,2.3939051628112793,18.398818969726562
1701889766614088000,5.552087890625,3.0165939331054688,2.195584297180176,17.854053497314453
1701889766631075300,5.569075439453125,2.0126566886901855,1.6050777435302734,16.084699630737305
1701889766648061200,5.586061279296875,2.1931228637695312,0.1907176971435547,13.9607515335083
1701889766665054200,5.60305419921875,2.905877113342285,-1.4883480072021484,12.740394592285156
1701889766682040000,5.6200400390625,2.848344326019287,-3.3129541873931885,12.501910209655762
1701889766699028200,5.6370283203125,1.1447391510009766,-4.978867530822754,12.374092102050781
1701889766716016600,5.6540166015625,-1.719390869140625,-6.5918049812316895,11.917524337768555
1701889766733001200,5.671001220703125,-3.6919753551483154,-8.370219230651855,10.594123840332031
1701889766749994000,5.687993896484375,-4.1892781257629395,-9.924641609191895,8.877975463867188
1701889766766983400,5.7049833984375,-4.449318885803223,-10.973564147949219,6.92518949508667
1701889766783966700,5.721966796875,-5.112153053283691,-11.614603042602539,5.409032344818115
1701889766800957200,5.738957275390625,-5.593764305114746,-11.322103500366211,3.6730899810791016
1701889766817945600,5.755945556640625,-6.107187271118164,-10.829416275024414,1.967851161956787
1701889766834924300,5.77292431640625,-7.246358394622803,-10.534132957458496,0.01581096649169922
1701889766851912000,5.789911865234375,-8.170202255249023,-10.738433837890625,-2.137417793273926
1701889766868911900,5.806911865234375,-7.875431060791016,-10.241494178771973,-4.7179670333862305
1701889766885896700,5.823896728515625,-6.95034122467041,-9.662248611450195,-7.877232551574707
1701889766902886400,5.840886474609375,-6.718314170837402,-9.91952133178711,-10.730738639831543
1701889766919870500,5.857870361328125,-6.241538047790527,-9.683863639831543,-13.385892868041992
1701889766936866600,5.874866455078125,-6.768856525421143,-9.22758960723877,-15.586810111999512
1701889766953851100,5.89185107421875,-7.946702003479004,-9.270276069641113,-17.577953338623047
1701889766970836700,5.908836669921875,-8.13772964477539,-9.219871520996094,-19.389842987060547
1701889766987830300,5.925830322265625,-7.68998384475708,-9.570158004760742,-19.12990951538086
1701889767004815400,5.9428154296875,-6.3987579345703125,-10.095867156982422,-16.85985565185547
1701889767021801700,5.9598017578125,-5.035251617431641,-10.00095272064209,-14.198949813842773
1701889767038794500,5.97679443359375,-4.602695941925049,-9.71838092803955,-11.664376258850098
1701889767055779600,5.993779541015625,-6.086706161499023,-9.778714179992676,-9.364166259765625
1701889767072758300,6.01075830078125,-8.202375411987305,-9.96476936340332,-7.564859390258789
1701889767089756700,6.027756591796875,-9.636520385742188,-10.312472343444824,-5.564853668212891
1701889767106744000,6.044744140625,-9.565454483032227,-10.235322952270508,-2.9826278686523438
1701889767123734000,6.061734130859375,-8.797152519226074,-10.482181549072266,0.10496854782104492
1701889767140721000,6.078720947265625,-6.646413326263428,-11.208812713623047,3.8986399173736572
1701889767157709300,6.095709228515625,-2.8002312183380127,-11.303040504455566,8.775945663452148
1701889767174694400,6.1126943359375,1.0214157104492188,-9.173213958740234,13.385498046875
1701889767191684900,6.129684814453125,2.223069190979004,-6.812130928039551,16.158424377441406
1701889767208674800,6.1466748046875,0.6829376220703125,-6.226059436798096,16.782825469970703
1701889767225666600,6.16366650390625,-1.0195307731628418,-4.845175743103027,17.91952896118164
1701889767242649900,6.18064990234375,-1.7364912033081055,-2.6817240715026855,18.123090744018555
1701889767259639000,6.19763916015625,-0.05402851104736328,-1.6107697486877441,18.783367156982422
1701889767276626700,6.214626708984375,3.77321720123291,-0.46468544006347656,20.004432678222656
1701889767293615000,6.231614990234375,6.989445686340332,0.3627161979675293,20.12114715576172
1701889767310603500,6.248603515625,8.115951538085938,0.4358534812927246,19.89459228515625
1701889767327589000,6.265589111328125,7.471793174743652,-0.29148054122924805,19.247468948364258
1701889767344582100,6.28258203125,5.6844801902771,-1.5328240394592285,17.794931411743164
1701889767361567700,6.299567626953125,3.9262795448303223,-2.394233226776123,15.83215045928955
1701889767378556000,6.316555908203125,2.332228660583496,-3.4123404026031494,15.203132629394531
1701889767395544300,6.33354443359375,1.1886920928955078,-5.093658447265625,16.04903793334961
1701889767412536000,6.3505361328125,0.7159295082092285,-6.840487480163574,16.22857093811035
1701889767429518000,6.36751806640625,-0.2725358009338379,-8.035497665405273,14.629119873046875
1701889767446511400,6.384511474609375,-2.2824771404266357,-9.186338424682617,12.01378345489502
1701889767463497500,6.40149755859375,-3.917116403579712,-10.662433624267578,9.466691017150879
1701889767480474000,6.41847412109375,-4.66964864730835,-12.218585968017578,6.958316326141357
1701889767497460500,6.43546044921875,-5.162517547607422,-12.915518760681152,3.8529300689697266
1701889767514453200,6.452453369140625,-5.497156620025635,-12.323208808898926,0.6758689880371094
1701889767531453200,6.469453125,-7.982163429260254,-12.241087913513184,-2.0768728256225586
1701889767548435000,6.48643505859375,-11.677666664123535,-12.424342155456543,-6.641847610473633
1701889767565428700,6.5034287109375,-13.501811981201172,-12.334896087646484,-12.450066566467285
1701889767582414300,6.520414306640625,-12.794746398925781,-13.19543170928955,-16.728042602539062
1701889767599389400,6.537389404296875,-8.928339004516602,-14.65852165222168,-18.4674129486084
1701889767616392400,6.554392333984375,-3.463759660720825,-15.235280990600586,-18.99730110168457
1701889767633379600,6.571379638671875,0.22933006286621094,-14.926664352416992,-19.115365982055664
1701889767650356700,6.588356689453125,1.248833417892456,-14.118633270263672,-19.62367820739746
1701889767667353000,6.60535302734375,0.2808084487915039,-13.25472354888916,-19.143672943115234
1701889767684345900,6.622345947265625,-1.9913320541381836,-13.21265983581543,-16.168991088867188
1701889767701331700,6.639331787109375,-4.195037364959717,-14.189420700073242,-11.331448554992676
1701889767718319900,6.65631982421875,-5.584828853607178,-14.879460334777832,-6.988177299499512
1701889767735308000,6.67330810546875,-6.729644775390625,-15.272984504699707,-3.296229362487793
1701889767752293000,6.690293212890625,-8.154420852661133,-14.949729919433594,-0.3976554870605469
1701889767769284600,6.70728466796875,-9.542064666748047,-14.786774635314941,1.2204575538635254
1701889767786272800,6.724272705078125,-10.400140762329102,-14.515356063842773,2.440389633178711
1701889767803261400,6.741261474609375,-10.248669624328613,-13.906713485717773,3.404768943786621
1701889767820251100,6.758251220703125,-9.810194969177246,-13.552236557006836,4.659096717834473
1701889767837235000,6.77523486328125,-9.64112663269043,-13.861865997314453,5.832639694213867
1701889767854225700,6.7922255859375,-8.213794708251953,-13.897436141967773,6.875229835510254
1701889767871214000,6.809214111328125,-5.447964191436768,-13.812768936157227,8.94107437133789
1701889767888201500,6.826201416015625,-2.1214795112609863,-12.520252227783203,12.998846054077148
1701889767905187600,6.8431875,-1.1511826515197754,-10.545234680175781,15.870193481445312
1701889767922181000,6.86018115234375,0.033448219299316406,-10.654975891113281,18.319528579711914
1701889767939166000,6.877166015625,4.1304521560668945,-8.327113151550293,21.08139419555664
1701889767956155100,6.894155029296875,8.40172290802002,-5.299281120300293,19.670421600341797
1701889767973142800,6.911142822265625,12.354907035827637,-4.218451499938965,17.878860473632812
1701889767990131200,6.928131103515625,13.74781322479248,-3.3407676219940186,17.567293167114258
1701889768007118800,6.945118896484375,11.850098609924316,-3.0009329319000244,17.03568458557129
1701889768024106800,6.962106689453125,9.306336402893066,-3.2784206867218018,17.305978775024414
1701889768041100000,6.97910009765625,7.528975486755371,-3.543743133544922,16.87550926208496
1701889768058081300,6.996081298828125,6.139981269836426,-4.0300092697143555,16.099294662475586
1701889768075072500,7.013072509765625,4.76188850402832,-5.085850715637207,15.883971214294434
1701889768092060200,7.03006005859375,3.8318119049072266,-6.621028423309326,15.91644287109375
1701889768109035800,7.047035888671875,3.0116424560546875,-8.523529052734375,15.073441505432129
1701889768126030600,7.064030517578125,1.0034990310668945,-10.652405738830566,13.376033782958984
1701889768143019000,7.08101904296875,-2.40787410736084,-12.484015464782715,11.896696090698242
1701889768160003800,7.09800390625,-4.905141830444336,-14.386670112609863,10.55724811553955
1701889768176991700,7.11499169921875,-6.220675945281982,-16.245908737182617,9.25330924987793
1701889768193991700,7.13199169921875,-6.7128143310546875,-16.80388069152832,7.652620792388916
1701889768210978000,7.14897802734375,-7.251186370849609,-16.925472259521484,6.477667331695557
1701889768227965700,7.165965576171875,-7.993064880371094,-17.09672737121582,4.787142753601074
1701889768244954000,7.1829541015625,-8.463573455810547,-16.907060623168945,2.6829886436462402
1701889768261939000,7.19993896484375,-8.904817581176758,-16.20286750793457,-0.43131351470947266
1701889768278931000,7.216930908203125,-9.55350112915039,-14.736504554748535,-4.604945182800293
1701889768295918600,7.233918701171875,-9.903068542480469,-13.313886642456055,-9.231173515319824
1701889768312907000,7.250906982421875,-9.056478500366211,-12.688961029052734,-12.554459571838379
1701889768329894400,7.267894287109375,-6.528543472290039,-12.910480499267578,-14.89894962310791
1701889768346884400,7.28488427734375,-4.471807956695557,-13.164041519165039,-16.63554573059082
1701889768363871200,7.301871337890625,-4.315165996551514,-12.819698333740234,-17.95093536376953
1701889768380860000,7.31885986328125,-4.680831432342529,-12.21640396118164,-18.347137451171875
1701889768397848000,7.33584814453125,-2.83121395111084,-11.986906051635742,-19.320785522460938
1701889768414836500,7.35283642578125,-2.519840717315674,-11.981646537780762,-17.60101318359375
1701889768431809000,7.36980908203125,-3.7356905937194824,-12.781765937805176,-13.275870323181152
1701889768448810000,7.38681005859375,-4.901593208312988,-13.864771842956543,-9.256386756896973
1701889768465802500,7.403802490234375,-5.905230522155762,-14.463018417358398,-6.006176948547363
1701889768482789600,7.42078955078125,-7.419897079467773,-14.780925750732422,-3.0466976165771484
1701889768499776800,7.43777685546875,-9.212112426757812,-15.115254402160645,-0.012688636779785156
1701889768516764400,7.454764404296875,-10.457769393920898,-15.506855010986328,2.783003807067871
1701889768533743900,7.471743896484375,-11.136903762817383,-15.906002044677734,4.64051628112793
1701889768550739500,7.488739501953125,-10.403091430664062,-15.658121109008789,5.2323784828186035
1701889768567735300,7.5057353515625,-9.619214057922363,-15.284242630004883,5.776564598083496
1701889768584715300,7.52271533203125,-8.848966598510742,-15.400476455688477,5.863932132720947
1701889768601706200,7.539706298828125,-7.8183183670043945,-15.745491027832031,5.988517761230469
1701889768618694700,7.556694580078125,-5.478696346282959,-16.186059951782227,7.8457207679748535
1701889768635682600,7.5736826171875,-3.794372081756592,-15.112237930297852,10.84068489074707
1701889768652668700,7.590668701171875,-2.437286853790283,-14.218985557556152,13.896944046020508
1701889768669641500,7.607641357421875,1.6255626678466797,-12.60413646697998,18.90045166015625
1701889768686647800,7.624647705078125,6.532724380493164,-9.358028411865234,21.02498435974121
1701889768703635500,7.641635498046875,9.830622673034668,-6.750225067138672,18.638988494873047
1701889768720623600,7.65862353515625,11.571633338928223,-5.305014133453369,17.11867904663086
1701889768737611800,7.67561181640625,11.588122367858887,-3.6736249923706055,17.17449951171875
1701889768754600400,7.692600341796875,9.772737503051758,-3.2649922370910645,17.74215316772461
1701889768771577300,7.709577392578125,8.409538269042969,-3.293919086456299,19.05415916442871
1701889768788578000,7.726578125,7.984627723693848,-2.945662021636963,18.779476165771484
1701889768805563100,7.743563232421875,8.164989471435547,-2.9648325443267822,16.50192642211914
1701889768822553600,7.7605537109375,7.685556411743164,-3.575782060623169,14.006641387939453
1701889768839540200,7.777540283203125,6.275943756103516,-4.494452476501465,12.869189262390137
1701889768856519700,7.794519775390625,3.631227493286133,-5.436590194702148,12.976837158203125
1701889768873517300,7.811517333984375,0.8709745407104492,-6.394350051879883,13.357569694519043
1701889768890499300,7.828499267578125,-1.6702475547790527,-7.552739143371582,12.989108085632324
1701889768907486500,7.845486572265625,-3.0449228286743164,-9.648688316345215,12.510297775268555
1701889768924477000,7.862476806640625,-3.9785542488098145,-12.018016815185547,11.340834617614746
1701889768941462300,7.879462158203125,-4.911142349243164,-14.726191520690918,9.388521194458008
1701889768958454300,7.896454345703125,-5.637173652648926,-16.20785140991211,6.886618614196777
1701889768975440600,7.913440673828125,-6.2357988357543945,-16.635276794433594,4.661395072937012
1701889768992425200,7.93042529296875,-6.749617576599121,-16.28652572631836,3.2876031398773193
1701889769009412900,7.947412841796875,-7.4721760749816895,-15.31979751586914,2.164794445037842
1701889769026403600,7.964403564453125,-8.35767650604248,-14.12173080444336,0.8414597511291504
1701889769043392500,7.981392578125,-8.125858306884766,-12.799049377441406,-1.157893180847168
1701889769060377000,7.998377197265625,-6.910503387451172,-12.302072525024414,-3.958724021911621
1701889769077369000,8.015369140625,-5.801187515258789,-11.756295204162598,-7.480043411254883
1701889769094354700,8.032354736328125,-5.5010175704956055,-11.23021411895752,-10.762520790100098
1701889769111343600,8.049343505859374,-5.150183200836182,-10.861452102661133,-13.857417106628418
1701889769128329500,8.06632958984375,-4.222902774810791,-10.295741081237793,-16.194137573242188
1701889769145321500,8.083321533203126,-3.0194759368896484,-10.243903160095215,-17.26178741455078
1701889769162310100,8.10031005859375,-1.6230731010437012,-10.336785316467285,-17.480791091918945
1701889769179306500,8.117306396484375,-0.7508163452148438,-10.786844253540039,-16.778825759887695
1701889769196290800,8.134290771484375,-1.0814886093139648,-11.000201225280762,-15.070425987243652
1701889769213284400,8.151284423828125,-1.8471801280975342,-11.229251861572266,-12.597537994384766
1701889769230276600,8.168276611328125,-2.4073486328125,-11.897022247314453,-9.718924522399902
1701889769247243800,8.185243896484375,-3.1335043907165527,-12.83369255065918,-7.159706115722656
1701889769264246000,8.20224609375,-4.229886054992676,-13.819303512573242,-4.787432670593262
1701889769281234400,8.219234375,-6.1047210693359375,-14.58053207397461,-2.028904914855957
1701889769298220500,8.236220458984375,-7.337162971496582,-14.899026870727539,0.6100869178771973
1701889769315213000,8.253213134765625,-7.909294605255127,-15.286619186401367,2.4372973442077637
1701889769332205800,8.270205810546875,-8.239039421081543,-15.820600509643555,3.790421724319458
1701889769349172000,8.287171875,-8.55775260925293,-16.014986038208008,4.928248882293701
1701889769366176300,8.30417626953125,-8.33012866973877,-16.142610549926758,5.98429012298584
1701889769383163100,8.3211630859375,-7.026895046234131,-16.084674835205078,7.155665397644043
1701889769400151800,8.33815185546875,-5.487078666687012,-15.199831008911133,8.10879135131836
1701889769417148400,8.3551484375,-4.8807783126831055,-14.756660461425781,10.163165092468262
1701889769434125800,8.372125732421875,-2.697092056274414,-13.160163879394531,14.730236053466797
1701889769451118800,8.389118896484375,0.5942897796630859,-9.136344909667969,17.963912963867188
1701889769468105000,8.40610498046875,3.3200883865356445,-5.46241569519043,17.656463623046875
1701889769485087500,8.42308740234375,5.01155948638916,-3.2980804443359375,16.080888748168945
1701889769502079000,8.440078857421875,5.842968940734863,-1.2718071937561035,15.471695899963379
1701889769519071500,8.457071533203125,5.937671661376953,1.0593113899230957,15.499399185180664
1701889769536056800,8.474056884765625,5.886638641357422,2.7834010124206543,16.065597534179688
1701889769553046500,8.491046630859374,6.327605247497559,3.734921455383301,17.545299530029297
1701889769570031000,8.508031005859374,7.741133689880371,4.0748443603515625,18.393230438232422
1701889769587019300,8.525019287109375,9.685026168823242,3.730407953262329,18.1239013671875
1701889769604012800,8.5420126953125,10.502350807189941,3.0931763648986816,17.189258575439453
1701889769620988000,8.55898779296875,9.231915473937988,1.9921958446502686,16.461904525756836
1701889769637987800,8.57598779296875,6.338022232055664,0.29632997512817383,16.17230796813965
1701889769654974500,8.592974365234374,3.2967405319213867,-2.062563419342041,16.228458404541016
1701889769671953000,8.609952880859375,1.2550535202026367,-4.447924613952637,15.93445873260498
1701889769688949000,8.626948974609375,0.1700448989868164,-6.690673351287842,15.169384956359863
1701889769705942000,8.64394189453125,-0.9011259078979492,-9.44312572479248,14.1151704788208
1701889769722927600,8.660927734375,-2.4689078330993652,-12.259596824645996,13.113472938537598
1701889769739912400,8.677912353515625,-4.441036224365234,-15.042173385620117,12.342024803161621
1701889769756908000,8.694907958984375,-5.949115753173828,-17.891132354736328,11.37627124786377
1701889769773892900,8.711892822265625,-6.100455284118652,-19.755693435668945,9.641508102416992
1701889769790878200,8.728878173828125,-5.333589553833008,-20.12238311767578,7.718658447265625
1701889769807868700,8.74586865234375,-4.745882034301758,-19.4101619720459,5.454594612121582
1701889769824859400,8.762859375,-4.864028453826904,-17.850820541381836,3.82894229888916
1701889769841836000,8.7798359375,-5.560940265655518,-16.73065948486328,2.2251477241516113
1701889769858832400,8.796832275390624,-6.792248725891113,-15.957976341247559,-0.791111946105957
1701889769875822000,8.813822021484375,-8.269967079162598,-15.424789428710938,-4.628717422485352
1701889769892799700,8.8307998046875,-9.834428787231445,-15.698031425476074,-9.870085716247559
1701889769909798400,8.84779833984375,-10.432708740234375,-15.555074691772461,-16.35713768005371
1701889769926785000,8.864784912109375,-10.090583801269531,-15.790051460266113,-21.308855056762695
1701889769943775200,8.881775146484374,-7.302454948425293,-16.703853607177734,-24.42519760131836
1701889769960763000,8.898762939453125,-2.4176762104034424,-16.373008728027344,-25.554105758666992
1701889769977755000,8.9157548828125,1.4426538944244385,-15.64670181274414,-23.404224395751953
1701889769994735600,8.932735595703125,1.3287222385406494,-15.885510444641113,-18.18088150024414
1701889770011724500,8.949724609375,-1.994384527206421,-17.04547119140625,-12.450488090515137
1701889770028715300,8.96671533203125,-6.547904968261719,-18.18121337890625,-7.5901031494140625
1701889770045704000,8.983703857421874,-10.488123893737793,-19.17361831665039,-2.979355812072754
1701889770062691600,9.000691650390625,-13.046305656433105,-19.785730361938477,1.223620891571045
1701889770079679500,9.017679443359375,-13.481863021850586,-20.440654754638672,4.457043647766113
1701889770096669200,9.034669189453124,-11.287947654724121,-20.818368911743164,5.855353355407715
1701889770113656600,9.051656494140625,-7.459511756896973,-20.298912048339844,5.752663612365723
1701889770130644500,9.06864453125,-4.834575653076172,-19.7125244140625,5.849686622619629
1701889770147630000,9.085630126953125,-3.8750722408294678,-19.165822982788086,7.4741058349609375
1701889770164624000,9.102623779296875,-3.2896547317504883,-18.21753692626953,10.756084442138672
1701889770181606700,9.119606689453125,-1.9255242347717285,-16.575929641723633,14.148452758789062
1701889770198597400,9.136597412109374,3.583102226257324,-15.045610427856445,19.9217529296875
1701889770215588600,9.153588623046875,10.192537307739258,-11.448677062988281,25.17076873779297
1701889770232562700,9.170562744140625,13.341442108154297,-8.022856712341309,26.972352981567383
1701889770249570000,9.187570068359374,14.23165225982666,-5.825579643249512,27.579498291015625
1701889770266552000,9.204552001953125,12.883127212524414,-4.137054443359375,25.55208396911621
1701889770283537400,9.221537353515625,10.365805625915527,-3.70717453956604,22.387855529785156
1701889770300527000,9.238527099609374,8.697782516479492,-4.193479061126709,19.661161422729492
1701889770317515500,9.255515625,8.177484512329102,-5.3883161544799805,18.151416778564453
1701889770334499800,9.272499755859375,7.529607772827148,-6.981877326965332,17.761760711669922
1701889770351494400,9.289494384765625,5.22996711730957,-8.7620210647583,17.83806800842285
1701889770368477000,9.306476806640624,1.5056800842285156,-10.605714797973633,17.474414825439453
1701889770385470700,9.323470703125,-1.8027057647705078,-12.245841026306152,16.0553035736084
1701889770402455800,9.340455810546874,-4.362401008605957,-14.607383728027344,13.6123685836792
1701889770419444200,9.3574443359375,-5.7387518882751465,-17.061491012573242,10.06863021850586
1701889770436418600,9.37441845703125,-5.773196220397949,-18.301536560058594,6.864977836608887
1701889770453421800,9.391421875,-5.913412570953369,-18.558521270751953,4.3185834884643555
1701889770470408700,9.40840869140625,-7.089995861053467,-17.64268684387207,1.3021907806396484
1701889770487397400,9.4253974609375,-8.75009822845459,-16.580528259277344,-1.2439556121826172
1701889770504382200,9.44238232421875,-9.382671356201172,-16.691179275512695,-4.364877700805664
1701889770521374000,9.4593740234375,-9.537735939025879,-16.92035675048828,-8.892601013183594
1701889770538361300,9.476361328125,-9.513297080993652,-16.455785751342773,-14.356531143188477
1701889770555349800,9.493349853515625,-9.258878707885742,-15.50655746459961,-18.96436309814453
1701889770572334600,9.51033447265625,-7.564059734344482,-15.06240463256836,-21.325729370117188
1701889770589326800,9.527326904296874,-3.9383914470672607,-15.007444381713867,-22.038673400878906
1701889770606314500,9.544314453125,-1.0746057033538818,-14.77389907836914,-21.393890380859375
1701889770623304200,9.56130419921875,-1.0984339714050293,-14.33366584777832,-19.377635955810547
1701889770640290000,9.5782900390625,-2.988246440887451,-14.07435417175293,-16.0576114654541
1701889770657277000,9.59527685546875,-4.935308456420898,-14.552251815795898,-12.271225929260254
1701889770674270200,9.612270263671874,-6.748756408691406,-15.196352005004883,-8.78028678894043
1701889770691243500,9.629243408203125,-8.406294822692871,-15.847637176513672,-5.332564353942871
1701889770708245500,9.64624560546875,-9.40785026550293,-16.470685958862305,-2.3956222534179688
1701889770725232000,9.663232177734375,-10.429737091064453,-16.899738311767578,0.32673072814941406
1701889770742220000,9.680219970703124,-11.174432754516602,-17.40346336364746,2.862734317779541
1701889770759207700,9.697207763671875,-10.882125854492188,-17.51786231994629,4.3998589515686035
1701889770776197400,9.714197265625,-10.990961074829102,-17.611488342285156,5.792191028594971
1701889770793180200,9.73118017578125,-10.942821502685547,-17.43816566467285,8.112398147583008
1701889770810172700,9.748172607421875,-8.500823020935059,-16.9851016998291,10.610284805297852
1701889770827161000,9.7651611328125,-1.6940040588378906,-15.111577987670898,15.684460639953613
1701889770844149500,9.7821494140625,3.1884889602661133,-10.308631896972656,18.470300674438477
1701889770861138000,9.799137939453125,4.605653762817383,-8.151178359985352,17.280166625976562
1701889770878125600,9.81612548828125,5.151333808898926,-6.544250011444092,18.504207611083984
1701889770895097000,9.83309716796875,5.97122859954834,-4.386537551879883,19.606197357177734
1701889770912102400,9.850102294921875,7.855770111083984,-3.303283452987671,19.499317169189453
1701889770929091000,9.867091064453126,10.990745544433594,-2.570363998413086,20.697837829589844
1701889770946076400,9.884076416015626,11.839691162109375,-1.9092340469360352,20.98177146911621
1701889770963069000,9.90106884765625,10.419604301452637,-1.742978572845459,20.00678062438965
1701889770980060000,9.918059814453125,8.478971481323242,-2.233952045440674,18.669099807739258
1701889770997043700,9.935043701171875,7.9605913162231445,-2.9381725788116455,16.592071533203125
1701889771014028500,9.952028564453125,7.759374618530273,-3.677125930786133,15.079156875610352
1701889771031019800,9.969019775390626,6.051984786987305,-4.493684768676758,15.294465065002441
1701889771048008000,9.986008056640625,3.2270822525024414,-5.8894219398498535,16.282136917114258
1701889771064996600,10.00299658203125,0.02494525909423828,-7.7845916748046875,16.15162467956543
1701889771081973000,10.019972900390625,-2.5816407203674316,-9.979192733764648,14.805562019348145
1701889771098973000,10.036972900390625,-4.079666614532471,-12.144067764282227,12.937482833862305
1701889771115961000,10.053961181640625,-5.078117370605469,-14.397435188293457,10.868852615356445
1701889771132945700,10.070945556640625,-6.863666534423828,-16.19952964782715,8.863759994506836
1701889771149941000,10.08794091796875,-7.016060829162598,-17.183969497680664,7.043308258056641
1701889771166925800,10.10492578125,-6.594015121459961,-17.30512237548828,4.426689624786377
1701889771183913700,10.121913818359374,-5.6161112785339355,-16.573740005493164,2.1043806076049805
1701889771200900600,10.138900634765625,-7.155070781707764,-16.04948616027832,0.11026191711425781
1701889771217891300,10.155891357421876,-9.313342094421387,-15.877328872680664,-2.7229433059692383
1701889771234868000,10.172867919921876,-9.92757797241211,-15.77682113647461,-7.085720062255859
1701889771251856100,10.189856201171875,-10.292318344116211,-15.085938453674316,-12.047944068908691
1701889771268854500,10.2068544921875,-9.302889823913574,-14.215965270996094,-15.468289375305176
1701889771285844700,10.2238447265625,-5.985356330871582,-13.997447967529297,-17.810810089111328
1701889771302830000,10.240830078125,-3.1061270236968994,-13.660016059875488,-18.902082443237305
1701889771319819300,10.2578193359375,-2.3677353858947754,-13.857258796691895,-18.95087242126465
1701889771336808000,10.274807861328124,-2.9556708335876465,-13.99715518951416,-18.50726318359375
1701889771353795600,10.291795654296875,-3.2637648582458496,-14.07880687713623,-16.742952346801758
1701889771370784300,10.3087841796875,-2.247988700866699,-14.57336139678955,-13.377819061279297
1701889771387772700,10.325772705078125,-1.9377696514129639,-15.241435050964355,-9.614931106567383
1701889771404761000,10.342760986328125,-3.5637552738189697,-15.991862297058105,-6.063425064086914
1701889771421741000,10.359740966796876,-6.4954833984375,-16.68783950805664,-2.963698387145996
1701889771438737000,10.37673681640625,-9.308734893798828,-17.249984741210938,-0.2975282669067383
1701889771455725300,10.393725341796875,-10.404909133911133,-17.379281997680664,2.3557281494140625
1701889771472703000,10.410702880859375,-9.783733367919922,-17.393911361694336,3.989089012145996
1701889771489701400,10.427701416015625,-8.03966999053955,-17.60611343383789,5.174407482147217
1701889771506689500,10.444689453125,-5.757292747497559,-17.497093200683594,7.199146270751953
1701889771523678000,10.461677978515626,-2.769301652908325,-15.798900604248047,10.688468933105469
1701889771540664000,10.4786640625,-1.7665963172912598,-12.673346519470215,12.857161521911621
1701889771557656800,10.49565673828125,-1.1402101516723633,-11.30743408203125,15.527979850769043
1701889771574642700,10.512642578125,0.015082836151123047,-8.725700378417969,19.070152282714844
1701889771591629000,10.529629150390624,0.6761293411254883,-6.147457122802734,19.699758529663086
1701889771608609800,10.54660986328125,2.902277946472168,-5.226076126098633,19.757780075073242
1701889771625599700,10.563599853515624,7.426984786987305,-3.744737148284912,22.392671585083008
1701889771642587100,10.580587158203125,10.493410110473633,-2.1735358238220215,22.54636001586914
1701889771659573500,10.597573486328125,11.700668334960938,-1.2158362865447998,21.552745819091797
1701889771676569300,10.6145693359375,11.484092712402344,-1.236621618270874,20.802759170532227
1701889771693562400,10.631562255859375,10.047657012939453,-1.4588673114776611,18.379568099975586
1701889771710548500,10.648548583984375,8.12287425994873,-2.0140771865844727,15.671209335327148
1701889771727532000,10.665531982421875,6.260980606079102,-3.193230628967285,14.405261039733887
1701889771744529700,10.68252978515625,5.001828193664551,-4.5635600090026855,14.43204402923584
1701889771761512700,10.6995126953125,3.460674285888672,-6.151318550109863,14.555130958557129
1701889771778500600,10.71650048828125,1.4380712509155273,-7.917759895324707,14.776935577392578
1701889771795489500,10.733489501953125,-0.6274213790893555,-10.156830787658691,14.376489639282227
1701889771812478700,10.750478759765626,-2.950448513031006,-12.792953491210938,12.917200088500977
1701889771829460200,10.767460205078125,-4.960511207580566,-15.207918167114258,10.40414047241211
1701889771846452000,10.784451904296875,-5.117980003356934,-17.296615600585938,8.054774284362793
1701889771863444500,10.801444580078124,-4.566181182861328,-18.287357330322266,5.56143045425415
1701889771880430800,10.818430908203124,-4.522961616516113,-19.112367630004883,3.729036808013916
1701889771897418500,10.83541845703125,-5.378046989440918,-19.58978843688965,1.1083431243896484
1701889771914403800,10.85240380859375,-6.780938148498535,-18.37685203552246,-2.5386533737182617
1701889771931395000,10.86939501953125,-8.275659561157227,-16.865642547607422,-7.187748908996582
1701889771948386600,10.886386474609376,-8.33778190612793,-15.237235069274902,-12.831062316894531
1701889771965368300,10.903368408203125,-7.2598724365234375,-13.729602813720703,-17.332361221313477
1701889771982359800,10.92035986328125,-6.398223400115967,-12.879411697387695,-18.515283584594727
1701889771999348200,10.93734814453125,-4.9272050857543945,-13.129016876220703,-17.86677360534668
1701889772016332000,10.95433203125,-3.2209701538085938,-13.030254364013672,-18.101238250732422
1701889772033328600,10.97132861328125,-2.829941749572754,-12.576952934265137,-18.754501342773438
1701889772050312700,10.988312744140625,-3.7750790119171143,-12.761486053466797,-17.989599227905273
1701889772067298000,11.005298095703125,-4.4354705810546875,-13.544168472290039,-15.914243698120117
1701889772084292000,11.0222919921875,-4.654208660125732,-14.647186279296875,-13.07500171661377
1701889772101274000,11.039274169921875,-5.102885723114014,-15.75555419921875,-9.650858879089355
1701889772118260700,11.0562607421875,-6.27774715423584,-17.068456649780273,-6.276355743408203
1701889772135253800,11.073253662109375,-7.710282802581787,-18.24394989013672,-3.067774772644043
1701889772152242400,11.090242431640625,-9.178946495056152,-18.913158416748047,-0.30727195739746094
1701889772169229000,11.10722900390625,-10.524604797363281,-19.446203231811523,2.1643686294555664
1701889772186219300,11.12421923828125,-11.442657470703125,-20.478199005126953,4.64570426940918
1701889772203206700,11.14120654296875,-10.918188095092773,-21.096141815185547,6.720525741577148
1701889772220188200,11.158188232421875,-6.8355536460876465,-20.823028564453125,10.460053443908691
1701889772237182700,11.1751826171875,-1.747701644897461,-16.605091094970703,14.371496200561523
1701889772254171100,11.192171142578125,0.3710012435913086,-13.858405113220215,16.188859939575195
1701889772271159600,11.20915966796875,2.574460029602051,-11.4285888671875,20.713327407836914
1701889772288147200,11.226147216796875,2.9334115982055664,-8.270551681518555,22.010412216186523
1701889772305136400,11.243136474609376,4.167262077331543,-6.802552223205566,22.83885383605957
1701889772322124300,11.260124267578124,7.695014953613281,-4.994196891784668,23.788789749145508
1701889772339112200,11.2771123046875,12.033345222473145,-3.706645965576172,21.904266357421875
1701889772356100000,11.29410009765625,15.083961486816406,-3.426917552947998,19.512439727783203
1701889772373072400,11.311072265625,15.166725158691406,-3.3699612617492676,17.607181549072266
1701889772390067200,11.328067138671875,12.180224418640137,-3.8234596252441406,16.18892478942871
1701889772407062500,11.3450625,8.600512504577637,-4.124699115753174,15.318242073059082
1701889772424047000,11.362047119140625,5.412530899047852,-4.888383388519287,15.388696670532227
1701889772441035800,11.379035888671876,2.86771297454834,-5.859971046447754,15.589702606201172
1701889772458020400,11.396020263671875,1.114419937133789,-7.302801132202148,15.409160614013672
1701889772475008800,11.4130087890625,-0.46141958236694336,-9.001031875610352,14.8126220703125
1701889772491997000,11.429996826171875,-2.374203681945801,-11.128280639648438,13.771707534790039
1701889772508983600,11.446983642578125,-4.680285930633545,-13.365930557250977,11.856165885925293
1701889772525981000,11.46398095703125,-6.642018795013428,-15.238351821899414,9.298725128173828
1701889772542962700,11.480962646484375,-7.342766761779785,-16.147485733032227,7.033421516418457
1701889772559950600,11.49795068359375,-6.873790264129639,-16.835670471191406,5.312490463256836
1701889772576939000,11.51493896484375,-6.647759914398193,-17.592227935791016,3.4396018981933594
1701889772593927200,11.53192724609375,-6.645820140838623,-18.394094467163086,0.9003124237060547
1701889772610915000,11.5489150390625,-6.721381664276123,-17.082246780395508,-2.917804718017578
1701889772627902500,11.56590234375,-7.324637413024902,-15.115253448486328,-6.978996276855469
1701889772644891600,11.5828916015625,-7.341605186462402,-13.924726486206055,-11.57361888885498
1701889772661873000,11.599872802734374,-7.226573944091797,-13.4647798538208,-15.568655967712402
1701889772678877700,11.616877685546875,-6.932043075561523,-13.432415962219238,-17.32573890686035
1701889772695863300,11.63386328125,-5.147176265716553,-13.543901443481445,-17.788488388061523
1701889772712853000,11.65085302734375,-3.211765766143799,-13.432809829711914,-18.38247299194336
1701889772729843700,11.66784375,-2.3663899898529053,-12.773904800415039,-18.888017654418945
1701889772746829300,11.684829345703125,-2.906068801879883,-12.488818168640137,-18.10266876220703
1701889772763817700,11.701817626953124,-3.2333340644836426,-12.812646865844727,-15.316778182983398
1701889772780805600,11.7188056640625,-3.340200424194336,-13.480090141296387,-11.670679092407227
1701889772797794300,11.735794189453125,-4.088809967041016,-13.98210334777832,-8.31336498260498
1701889772814782700,11.75278271484375,-5.592854022979736,-14.379742622375488,-5.473995208740234
1701889772831766300,11.769766357421876,-7.425503253936768,-14.882339477539062,-2.450672149658203
1701889772848758500,11.786758544921875,-8.766582489013672,-15.187824249267578,0.40819883346557617
1701889772865747700,11.803747802734375,-9.89246940612793,-15.56746768951416,2.814634323120117
1701889772882734800,11.82073486328125,-9.824280738830566,-15.799158096313477,4.762298583984375
1701889772899723500,11.8377236328125,-8.37469482421875,-15.894952774047852,5.9372382164001465
1701889772916713000,11.854712890625,-6.39811897277832,-15.456192016601562,6.655888557434082
1701889772933696800,11.87169677734375,-5.044736862182617,-15.112268447875977,9.69715690612793
1701889772950688300,11.888688232421876,-3.970883846282959,-13.024274826049805,13.014379501342773
1701889772967673900,11.905673828125,-3.693197727203369,-11.60910415649414,14.37745475769043
1701889772984666600,11.92266650390625,0.3123769760131836,-10.011148452758789,18.31812858581543
1701889773001650000,11.93964990234375,5.027680397033691,-6.954073905944824,19.82203483581543
1701889773018641000,11.956640869140625,8.3071928024292,-4.514657497406006,17.94980239868164
1701889773035629600,11.973629638671875,10.743571281433105,-2.99163556098938,18.17802619934082
1701889773052599800,11.990599853515626,11.069186210632324,-1.598344326019287,18.994461059570312
1701889773069606000,12.00760595703125,9.81370735168457,-1.014371633529663,19.148969650268555
1701889773086593800,12.02459375,9.44626235961914,-0.8883234262466431,19.219345092773438
1701889773103580000,12.041579833984375,9.880552291870117,-0.8577938079833984,18.456144332885742
1701889773120572400,12.058572509765625,9.682008743286133,-1.4072024822235107,16.974830627441406
1701889773137549300,12.07554931640625,7.982673645019531,-2.4211509227752686,15.946402549743652
1701889773154536200,12.0925361328125,5.630114555358887,-3.75990629196167,15.721927642822266
1701889773171537700,12.10953759765625,2.6201934814453125,-5.316025257110596,15.574226379394531
1701889773188518000,12.126517822265624,-0.11937427520751953,-6.937726020812988,14.909945487976074
1701889773205513500,12.143513427734375,-2.0627055168151855,-8.752365112304688,13.539505004882812
1701889773222499600,12.16049951171875,-3.2668704986572266,-11.078145980834961,12.047099113464355
1701889773239488300,12.17748828125,-4.490124702453613,-13.19032096862793,9.848365783691406
1701889773256476200,12.19447607421875,-5.808474540710449,-14.592771530151367,7.271435260772705
1701889773273464300,12.21146435546875,-6.490903377532959,-14.789387702941895,5.404257297515869
1701889773290452700,12.22845263671875,-6.844078063964844,-15.050777435302734,4.3110127449035645
1701889773307441200,12.245441162109374,-7.045226097106934,-15.452301025390625,2.7755990028381348
1701889773324425500,12.262425537109374,-7.598483085632324,-15.194795608520508,0.45441627502441406
1701889773341417000,12.2794169921875,-7.954074382781982,-14.260778427124023,-2.5421457290649414
1701889773358405400,12.2964052734375,-8.118355751037598,-13.176886558532715,-6.20880126953125
1701889773375394000,12.31339404296875,-7.247929573059082,-11.675962448120117,-10.60026741027832
1701889773392381400,12.33038134765625,-6.380579948425293,-10.800393104553223,-13.730758666992188
1701889773409369900,12.347369873046874,-5.101317405700684,-10.406564712524414,-15.068294525146484
1701889773426358300,12.364358154296875,-3.6505136489868164,-10.586719512939453,-15.026766777038574
1701889773443346700,12.3813466796875,-2.6172449588775635,-10.665809631347656,-15.617538452148438
1701889773460334600,12.39833447265625,-3.4577558040618896,-10.524855613708496,-16.4215030670166
1701889773477323000,12.415322998046875,-5.233883857727051,-10.797764778137207,-15.518697738647461
1701889773494311400,12.4323115234375,-5.166882038116455,-10.975862503051758,-13.698687553405762
1701889773511296500,12.449296630859376,-3.492595672607422,-11.312392234802246,-11.312296867370605
1701889773528289000,12.4662890625,-2.70640230178833,-11.774572372436523,-9.031950950622559
1701889773545261000,12.483260986328125,-4.038803577423096,-12.290682792663574,-7.112634658813477
1701889773562266600,12.5002666015625,-6.140326023101807,-12.72188949584961,-5.176070213317871
1701889773579252700,12.517252685546875,-8.057012557983398,-13.373249053955078,-2.69545841217041
1701889773596240400,12.534240478515626,-9.691156387329102,-13.273361206054688,0.42171669006347656
1701889773613228800,12.551228759765625,-10.831594467163086,-13.24991512298584,4.833354949951172
1701889773630217200,12.56821728515625,-9.303605079650879,-11.954052925109863,9.769906997680664
1701889773647205400,12.585205322265624,-6.83518648147583,-9.539827346801758,11.189407348632812
1701889773664193000,12.602193115234375,-4.989764213562012,-7.739891052246094,9.606704711914062
1701889773681181700,12.619181640625,-3.988499402999878,-6.95779275894165,6.9792022705078125
1701889773698169300,12.63616943359375,-3.584717273712158,-7.694514751434326,4.245119094848633
1701889773715156500,12.653156494140624,-2.4638004302978516,-8.959380149841309,3.691005229949951
1701889773732149200,12.670149169921874,-1.432342529296875,-10.827112197875977,5.5981597900390625
1701889773749121500,12.68712158203125,0.42250633239746094,-11.97146224975586,11.570841789245605
1701889773766122000,12.7041220703125,4.132899284362793,-11.400985717773438,20.39044952392578
1701889773783112000,12.72111181640625,9.74483585357666,-8.228901863098145,25.51035499572754
1701889773800098600,12.7380986328125,14.713115692138672,-5.9740142822265625,25.161298751831055
1701889773817083100,12.755083251953126,18.151355743408203,-4.313538074493408,22.678987503051758
1701889773834072300,12.772072265625,17.3997802734375,-3.1595892906188965,19.31133460998535
1701889773851064000,12.78906396484375,12.279260635375977,-3.1307828426361084,16.07234764099121
1701889773868039000,12.806038818359376,7.095846176147461,-3.9952006340026855,14.208449363708496
1701889773885032400,12.823032470703126,4.0704145431518555,-4.638542652130127,13.999795913696289
1701889773902028300,12.8400283203125,2.916274070739746,-5.1948561668396,14.236849784851074
1701889773919017000,12.857016845703125,2.9642133712768555,-6.10294771194458,13.956072807312012
1701889773936002600,12.87400244140625,2.2974681854248047,-7.7353715896606445,13.781303405761719
1701889773952998700,12.89099853515625,0.18840265274047852,-9.862220764160156,13.149821281433105
1701889773969978000,12.90797802734375,-2.8096537590026855,-12.340009689331055,12.440506935119629
1701889773986969600,12.924969482421876,-5.495221138000488,-15.027095794677734,11.155637741088867
1701889774003957500,12.94195751953125,-7.622697353363037,-16.855850219726562,8.29776668548584
1701889774020943000,12.958943115234375,-8.842828750610352,-17.540802001953125,5.757704257965088
1701889774037934000,12.97593408203125,-8.913878440856934,-18.42658233642578,3.6554031372070312
1701889774054923000,12.992923095703125,-8.829689979553223,-18.618179321289062,-0.27291202545166016
1701889774071900200,13.009900146484375,-8.999584197998047,-16.4570255279541,-5.899580001831055
1701889774088898300,13.026898193359376,-9.603351593017578,-12.865525245666504,-10.86767292022705
1701889774105884000,13.0438837890625,-8.217450141906738,-10.488426208496094,-13.672995567321777
1701889774122878000,13.0608779296875,-5.422409534454346,-10.859838485717773,-13.139791488647461
1701889774139860700,13.07786083984375,-3.6027562618255615,-11.88947868347168,-12.449636459350586
1701889774156854500,13.0948544921875,-3.521963596343994,-12.235442161560059,-13.436013221740723
1701889774173840000,13.11183984375,-4.106718063354492,-11.742165565490723,-15.890517234802246
1701889774190839300,13.12883935546875,-3.877891778945923,-11.016439437866211,-17.189552307128906
1701889774207815400,13.1458154296875,-3.111787796020508,-10.77863883972168,-16.628562927246094
1701889774224805400,13.162805419921876,-2.558537483215332,-11.474405288696289,-13.259458541870117
1701889774241793000,13.17979296875,-2.3970837593078613,-11.84770393371582,-9.970417022705078
1701889774258781400,13.196781494140625,-3.0658578872680664,-12.086913108825684,-7.814797401428223
1701889774275768300,13.213768310546875,-4.783021450042725,-12.414894104003906,-6.276239395141602
1701889774292748000,13.230748046875,-7.425876140594482,-12.983598709106445,-4.478481292724609
1701889774309745700,13.24774560546875,-9.095622062683105,-13.407697677612305,-1.634225845336914
1701889774326734300,13.264734375,-9.264784812927246,-13.90261173248291,0.9840574264526367
1701889774343719000,13.281718994140626,-9.064126968383789,-14.60706901550293,2.7881720066070557
1701889774360710400,13.29871044921875,-8.629805564880371,-15.275430679321289,4.3199920654296875
1701889774377698600,13.315698486328126,-8.510927200317383,-15.47899055480957,5.835607528686523
1701889774394687200,13.332687255859375,-8.014039993286133,-15.535640716552734,6.627303123474121
1701889774411671600,13.349671630859374,-6.702589511871338,-15.993284225463867,7.971787452697754
1701889774428663300,13.366663330078126,-3.994354248046875,-16.19925880432129,11.259966850280762
1701889774445651500,13.3836513671875,0.09234333038330078,-15.424437522888184,15.191177368164062
1701889774462640000,13.40064013671875,6.513797760009766,-12.422430038452148,19.942237854003906
1701889774479627500,13.41762744140625,12.442047119140625,-8.209699630737305,21.81529998779297
1701889774496605700,13.434605712890624,15.104945182800293,-5.765964031219482,20.3232364654541
1701889774513606400,13.4516064453125,15.00027847290039,-5.047197341918945,18.7967472076416
1701889774530587400,13.46858740234375,13.463871002197266,-4.250274658203125,18.245210647583008
1701889774547581200,13.485581298828125,11.671247482299805,-3.980928421020508,16.986347198486328
1701889774564568800,13.50256884765625,10.622861862182617,-4.095134735107422,15.699252128601074
1701889774581556500,13.519556396484376,9.79078483581543,-4.477912902832031,15.121464729309082
1701889774598534400,13.536534423828124,8.576902389526367,-5.130546569824219,15.243932723999023
1701889774615529500,13.553529541015624,6.4998579025268555,-6.282467842102051,15.738226890563965
1701889774632509700,13.570509765625,3.902925491333008,-7.520123481750488,15.572087287902832
1701889774649507800,13.5875078125,1.113511085510254,-9.111515045166016,14.758975982666016
1701889774666501600,13.604501708984374,-1.4791688919067383,-11.092432975769043,13.665619850158691
1701889774683476000,13.62147607421875,-4.238659858703613,-13.305265426635742,12.271662712097168
1701889774700475000,13.638474853515625,-6.64955997467041,-15.311748504638672,10.411138534545898
1701889774717463300,13.65546337890625,-8.284093856811523,-16.34394073486328,7.895245552062988
1701889774734448400,13.672448486328125,-8.552148818969727,-16.843711853027344,6.184792518615723
1701889774751439400,13.689439453125,-8.106154441833496,-17.134300231933594,4.407631874084473
1701889774768425500,13.706425537109375,-7.532472610473633,-16.93828582763672,2.0296807289123535
1701889774785418800,13.723418701171875,-8.066444396972656,-16.692493438720703,-0.8091087341308594
1701889774802404400,13.740404296875,-9.957043647766113,-16.373207092285156,-5.937823295593262
1701889774819392300,13.757392333984376,-12.697004318237305,-15.316537857055664,-14.042914390563965
1701889774836380400,13.77438037109375,-13.347880363464355,-13.532788276672363,-20.24258804321289
1701889774853365800,13.79136572265625,-9.931716918945312,-13.01423454284668,-23.133953094482422
1701889774870357500,13.808357421875,-3.60579776763916,-13.252079963684082,-22.49555015563965
1701889774887342600,13.825342529296876,1.408912181854248,-12.626019477844238,-20.48495101928711
1701889774904336400,13.84233642578125,2.030327796936035,-11.895760536193848,-18.386127471923828
1701889774921319000,13.85931884765625,-1.3202793598175049,-11.507024765014648,-16.21712303161621
1701889774938310100,13.87631005859375,-5.026457786560059,-12.02076244354248,-13.019475936889648
1701889774955298300,13.89329833984375,-6.654888153076172,-12.588637351989746,-9.183168411254883
1701889774972286500,13.910286376953126,-7.254800796508789,-13.189950942993164,-5.534786224365234
1701889774989275000,13.92727490234375,-7.404195785522461,-13.483713150024414,-2.6562581062316895
1701889775006262800,13.9442626953125,-6.83590841293335,-13.10315990447998,-0.6006779670715332
1701889775023240200,13.961240234375,-6.519495010375977,-12.328205108642578,0.983637809753418
1701889775040239400,13.9782392578125,-6.360790729522705,-11.808577537536621,2.345526695251465
1701889775057227800,13.995227783203125,-7.174923419952393,-11.597578048706055,3.617800235748291
1701889775074216000,14.0122158203125,-8.557968139648438,-11.97653579711914,4.56037712097168
1701889775091191600,14.029191650390626,-9.087289810180664,-12.997382164001465,7.721570014953613
1701889775108183600,14.04618359375,-6.018373489379883,-12.228349685668945,11.3956298828125
1701889775125172000,14.063171875,-1.5287370681762695,-11.130212783813477,13.350841522216797
1701889775142158600,14.08015869140625,4.06118106842041,-8.829145431518555,16.659576416015625
1701889775159156200,14.09715625,6.246964454650879,-5.442834854125977,16.882993698120117
1701889775176134100,14.114134033203126,4.733101844787598,-5.057506561279297,15.621247291564941
1701889775193135900,14.131135986328125,5.743778228759766,-3.9977545738220215,18.7073917388916
1701889775210121700,14.148121826171876,7.949100494384766,-2.773756742477417,19.196935653686523
1701889775227109600,14.165109619140624,10.184650421142578,-1.8469873666763306,18.24605941772461
1701889775244091000,14.1820908203125,10.762154579162598,-1.0606716871261597,17.655010223388672
1701889775261090300,14.19909033203125,9.67180347442627,-1.2176300287246704,16.88078498840332
1701889775278074600,14.21607470703125,8.510822296142578,-1.8993654251098633,17.353158950805664
1701889775295062500,14.2330625,6.732245445251465,-2.574317216873169,18.132781982421875
1701889775312048400,14.25004833984375,4.778445243835449,-3.857879638671875,18.667343139648438
1701889775329041700,14.267041748046875,2.492093086242676,-5.456568717956543,17.71029281616211
1701889775346017000,14.28401708984375,0.23610305786132812,-6.994135856628418,15.053024291992188
1701889775363015400,14.301015380859376,-1.4862823486328125,-8.401335716247559,12.41412353515625
1701889775380003300,14.31800341796875,-3.7136240005493164,-9.710370063781738,10.366737365722656
1701889775396990000,14.334989990234375,-6.115485191345215,-10.786759376525879,8.221940994262695
1701889775413982700,14.351982666015624,-7.383617401123047,-11.820951461791992,5.882766246795654
1701889775430965200,14.36896533203125,-7.49810791015625,-12.45705509185791,4.046814441680908
1701889775447957000,14.38595703125,-7.345468521118164,-12.692508697509766,2.383584499359131
1701889775464945000,14.40294482421875,-7.133263111114502,-13.229167938232422,0.4639115333557129
1701889775481933300,14.419933349609375,-7.577047348022461,-13.740036010742188,-2.085516929626465
1701889775498921200,14.436921142578125,-8.894245147705078,-13.963733673095703,-6.270353317260742
1701889775515907600,14.453907470703125,-10.707321166992188,-13.494503021240234,-11.570233345031738
1701889775532900400,14.470900390625,-10.55050277709961,-12.198987007141113,-16.93948745727539
1701889775549884000,14.4878837890625,-8.339845657348633,-11.937448501586914,-19.8160343170166
1701889775566877000,14.504876953125,-4.8827056884765625,-12.105156898498535,-20.04342269897461
1701889775583862800,14.52186279296875,-1.8632051944732666,-11.917524337768555,-19.07360076904297
1701889775600850700,14.5388505859375,-1.086927890777588,-11.554101943969727,-17.320568084716797
1701889775617838300,14.55583837890625,-2.1483442783355713,-11.257349967956543,-15.299958229064941
1701889775634828000,14.572828125,-3.6665306091308594,-11.15649700164795,-13.353408813476562
1701889775651805700,14.5898056640625,-4.648820400238037,-11.161911964416504,-11.17043399810791
1701889775668801300,14.60680126953125,-5.789461135864258,-11.347431182861328,-8.299737930297852
1701889775685794000,14.6237939453125,-7.341814994812012,-11.53448486328125,-5.038196563720703
1701889775702781000,14.640781005859376,-8.591578483581543,-11.851601600646973,-2.2432942390441895
1701889775719768300,14.657768310546874,-8.891892433166504,-11.95065975189209,-0.10456562042236328
1701889775736756700,14.6747568359375,-8.638629913330078,-12.138164520263672,1.5675039291381836
1701889775753742000,14.6917421875,-8.239189147949219,-12.191333770751953,2.592076301574707
1701889775770733000,14.708733154296874,-8.22154426574707,-12.721599578857422,3.7412257194519043
1701889775787724000,14.72572412109375,-8.755217552185059,-13.559146881103516,5.344937324523926
1701889775804706800,14.742706787109375,-9.130322456359863,-15.103561401367188,7.406064033508301
1701889775821707800,14.759707763671875,-3.0369796752929688,-16.021024703979492,12.374543190002441
1701889775838685700,14.776685791015625,4.147449493408203,-11.852258682250977,17.761873245239258
1701889775855674400,14.79367431640625,6.213581085205078,-8.131919860839844,19.80436897277832
1701889775872641500,14.8106416015625,6.718498229980469,-6.056473731994629,20.859323501586914
1701889775889651200,14.827651123046875,7.579686164855957,-3.9951531887054443,19.235137939453125
1701889775915124700,14.853124755859374,9.918757438659668,-2.490814447402954,16.50897789001465
1701889775932112000,14.87011181640625,10.38735580444336,-1.7513463497161865,17.337961196899414
1701889775949100000,14.88710009765625,9.88989543914795,-1.9661126136779785,17.60921859741211
1701889775966089000,14.9040888671875,9.069499969482422,-2.329235792160034,17.500038146972656
1701889775983081500,14.92108154296875,7.417241096496582,-3.0192432403564453,16.577388763427734
1701889776000065800,14.938065673828126,6.507410049438477,-3.9221251010894775,15.346620559692383
1701889776017059600,14.9550595703125,5.286258697509766,-5.253608226776123,15.152914047241211
1701889776034040600,14.97204052734375,3.417506217956543,-6.586695194244385,15.138079643249512
1701889776051035600,14.98903564453125,1.1594476699829102,-7.589788913726807,14.534055709838867
1701889776068023000,15.00602294921875,-1.2781424522399902,-8.831977844238281,13.620834350585938
1701889776085011200,15.02301123046875,-3.3057661056518555,-9.966371536254883,12.225215911865234
1701889776101993700,15.03999365234375,-4.868272304534912,-11.569034576416016,10.890679359436035
1701889776118983200,15.056983154296875,-6.3769001960754395,-13.233871459960938,8.881489753723145
1701889776135968000,15.073968017578125,-7.5879902839660645,-14.313591003417969,6.9116411209106445
1701889776152958700,15.090958740234376,-8.285346031188965,-14.56265926361084,5.700107574462891
1701889776169946400,15.1079462890625,-7.941947937011719,-15.94267749786377,3.4580841064453125
1701889776186936800,15.124936767578125,-7.744909286499023,-17.228769302368164,-0.36561107635498047
1701889776203932200,15.14193212890625,-9.321674346923828,-16.51527214050293,-6.744166374206543
1701889776220921600,15.158921630859375,-12.399104118347168,-14.82072639465332,-14.070021629333496
1701889776237909200,15.1759091796875,-12.939594268798828,-12.668691635131836,-19.460783004760742
1701889776254897700,15.192897705078124,-9.589811325073242,-12.801385879516602,-20.02712631225586
1701889776271875300,15.209875244140624,-4.33401346206665,-13.434371948242188,-18.36225700378418
1701889776288874200,15.226874267578125,-1.1003406047821045,-13.005297660827637,-17.658239364624023
1701889776305862100,15.243862060546874,-1.8640861511230469,-12.394775390625,-17.403148651123047
1701889776322850800,15.260850830078125,-4.269172668457031,-11.74735164642334,-16.463958740234375
1701889776339838700,15.277838623046875,-5.079435348510742,-11.563577651977539,-14.096538543701172
1701889776356826400,15.294826416015624,-4.487520694732666,-12.060277938842773,-10.424156188964844
1701889776373816300,15.31181640625,-4.458301544189453,-12.389939308166504,-6.8928117752075195
1701889776390800600,15.328800537109375,-5.683016300201416,-12.473942756652832,-4.368823051452637
1701889776407791400,15.345791259765624,-6.976047515869141,-12.399446487426758,-2.5213232040405273
1701889776424780000,15.362780029296875,-7.692013740539551,-11.925344467163086,-1.1320877075195312
1701889776441765000,15.37976513671875,-8.09836483001709,-11.557353973388672,0.41553354263305664
1701889776458759700,15.396759765625,-8.980213165283203,-11.265365600585938,1.963146686553955
1701889776475744800,15.413744873046875,-10.495686531066895,-11.643159866333008,3.3960301876068115
1701889776492722400,15.430722412109375,-11.091525077819824,-12.619915008544922,5.0378570556640625
1701889776509720800,15.447720947265625,-8.54863166809082,-13.873703002929688,6.6220927238464355
1701889776526709500,15.46470947265625,-3.0793681144714355,-13.955923080444336,10.794889450073242
1701889776543697400,15.481697509765626,0.6026468276977539,-11.3704833984375,14.515439987182617
1701889776560685800,15.498685791015625,1.6919164657592773,-10.072708129882812,18.588180541992188
1701889776577673000,15.5156728515625,4.104971885681152,-7.530464172363281,22.849273681640625
1701889776594663200,15.5326630859375,6.780815124511719,-5.061152458190918,22.202545166015625
1701889776611650000,15.549650146484375,9.590357780456543,-4.028738021850586,19.398584365844727
1701889776628638700,15.566638671875,12.24670124053955,-3.180962085723877,18.56907081604004
1701889776645627000,15.583626953125,12.777677536010742,-2.640634298324585,18.021560668945312
1701889776662615600,15.600615478515625,10.923788070678711,-3.096761703491211,17.168067932128906
1701889776679603200,15.617603271484375,8.342551231384277,-3.6446640491485596,16.875085830688477
1701889776696581600,15.63458154296875,6.478184700012207,-4.219598770141602,16.695064544677734
1701889776713574000,15.651573974609375,6.062268257141113,-5.089133262634277,16.011966705322266
1701889776730571000,15.668571044921874,5.295036315917969,-6.3217949867248535,14.688515663146973
1701889776747557000,15.68555712890625,3.0505237579345703,-7.635035514831543,13.210501670837402
1701889776764543700,15.702543701171875,0.1218118667602539,-8.72414779663086,11.919933319091797
1701889776781522700,15.719522705078125,-3.096353054046631,-9.832084655761719,11.110393524169922
1701889776798521300,15.736521240234374,-5.475839614868164,-11.260632514953613,10.158342361450195
1701889776815509000,15.753509033203125,-6.58126974105835,-12.457664489746094,8.622977256774902
1701889776832498000,15.770497802734376,-6.536147594451904,-13.357621192932129,6.90379524230957
1701889776849475300,15.787475341796876,-6.107011318206787,-13.526352882385254,4.970122337341309
1701889776866474200,15.80447412109375,-6.419397830963135,-13.773538589477539,3.248887062072754
1701889776883459000,15.821458984375,-7.836413383483887,-14.280327796936035,0.7063231468200684
1701889776900450300,15.8384501953125,-9.71336841583252,-13.842512130737305,-3.3904666900634766
1701889776917438500,15.8554384765625,-12.136725425720215,-12.650603294372559,-8.690862655639648
1701889776934427100,15.87242724609375,-12.456326484680176,-10.66733455657959,-13.49537181854248
1701889776951415000,15.8894150390625,-9.738260269165039,-10.235248565673828,-15.594888687133789
1701889776968402700,15.906402587890625,-5.4055376052856445,-10.58512020111084,-15.579374313354492
1701889776985392400,15.923392333984374,-1.9246689081192017,-11.094646453857422,-15.272220611572266
1701889777002380300,15.94038037109375,-1.2012393474578857,-11.309178352355957,-16.009506225585938
1701889777019363600,15.957363525390624,-2.8397955894470215,-11.128887176513672,-17.15431022644043
1701889777036361000,15.97436083984375,-3.847726821899414,-10.872716903686523,-17.33527374267578
1701889777053332500,15.99133251953125,-3.66845965385437,-10.860934257507324,-15.71699047088623
1701889777070323200,16.0083232421875,-3.4338176250457764,-11.301647186279297,-12.75699520111084
1701889777087322600,16.025322509765626,-4.185086727142334,-11.684870719909668,-9.387711524963379
1701889777104307500,16.042307373046874,-5.808449745178223,-12.075064659118652,-6.448248863220215
1701889777121289700,16.059289794921874,-7.382732391357422,-12.318740844726562,-4.211662292480469
1701889777138285800,16.076285888671876,-9.058494567871094,-12.187137603759766,-2.1187429428100586
1701889777155273700,16.093273681640625,-9.856195449829102,-12.072131156921387,0.15853118896484375
1701889777172262400,16.110262451171874,-8.916399002075195,-12.044242858886719,1.5288000106811523
1701889777189250000,16.12725,-7.984000205993652,-12.377880096435547,2.6387500762939453
1701889777206239000,16.144239013671875,-7.813350677490234,-13.064413070678711,4.035233020782471
1701889777223223300,16.161223388671875,-6.164599418640137,-13.262222290039062,7.402181625366211
1701889777240215300,16.17821533203125,-3.3426027297973633,-11.266852378845215,11.443868637084961
1701889777257203000,16.195202880859377,-1.5387825965881348,-9.49644947052002,14.028297424316406
1701889777274191600,16.212191650390626,0.7480430603027344,-8.328084945678711,17.68423843383789
1701889777291177000,16.229177001953126,2.9838333129882812,-5.653365612030029,19.04002571105957
1701889777308167700,16.246167724609375,5.057913780212402,-4.196192264556885,17.81914520263672
1701889777325156000,16.263156005859376,6.509529113769531,-2.9795360565185547,17.309268951416016
1701889777342144800,16.280144775390625,7.082043647766113,-1.2516589164733887,16.091753005981445
1701889777359132700,16.297132568359373,6.699664115905762,-0.346343994140625,15.703767776489258
1701889777376121600,16.31412158203125,5.814146995544434,-0.2944455146789551,16.92560577392578
1701889777393110300,16.3311103515625,5.134599685668945,-0.561725378036499,18.997650146484375
1701889777410093800,16.34809375,5.38609504699707,-1.0701420307159424,20.561508178710938
1701889777427086000,16.365086181640624,6.1357316970825195,-2.2676823139190674,20.00893211364746
1701889777444070000,16.38206982421875,5.676327705383301,-4.00477933883667,17.554519653320312
1701889777461063700,16.399063720703126,3.5015783309936523,-5.471968173980713,14.922085762023926
1701889777478052400,16.41605224609375,0.6060075759887695,-7.021000862121582,13.528190612792969
1701889777495033000,16.433033203125,-2.1727538108825684,-7.875704288482666,12.725580215454102
1701889777512027100,16.450027099609375,-4.481596946716309,-8.775665283203125,11.914471626281738
1701889777529012500,16.467012451171875,-5.584767818450928,-9.774311065673828,10.725374221801758
1701889777546006300,16.48400634765625,-5.619161128997803,-10.911205291748047,9.099886894226074
1701889777562984000,16.50098388671875,-5.3446502685546875,-12.356685638427734,6.387796401977539
1701889777579980000,16.51797998046875,-5.512954235076904,-12.744688034057617,2.429154872894287
1701889777596968000,16.534968017578127,-6.188204765319824,-12.095630645751953,-0.42583560943603516
1701889777613953300,16.551953369140627,-8.42518424987793,-11.361369132995605,-3.351386070251465
1701889777630944300,16.5689443359375,-11.262929916381836,-11.037576675415039,-6.07620906829834
1701889777647933000,16.585932861328125,-12.197312355041504,-10.69741153717041,-9.008912086486816
1701889777664920600,16.602920654296874,-11.537036895751953,-10.438295364379883,-12.379436492919922
1701889777681909200,16.6199091796875,-10.10051155090332,-10.252782821655273,-15.865437507629395
1701889777698897400,16.6368974609375,-8.528837203979492,-10.663623809814453,-18.192827224731445
1701889777715886000,16.653885986328124,-7.4372944831848145,-10.978925704956055,-20.309391021728516
1701889777732870400,16.670870361328124,-6.388396263122559,-10.71467399597168,-22.14934539794922
1701889777749858600,16.687858642578124,-4.417135238647461,-10.35214614868164,-21.114444732666016
1701889777766854000,16.70485400390625,-3.1107466220855713,-10.32071590423584,-17.423154830932617
1701889777783839000,16.7218388671875,-4.1002397537231445,-10.762166023254395,-12.529390335083008
1701889777800823300,16.7388232421875,-6.8107147216796875,-11.230257034301758,-8.52961540222168
1701889777817815000,16.75581494140625,-9.449346542358398,-11.823542594909668,-5.881601333618164
1701889777834803200,16.77280322265625,-10.897279739379883,-12.350860595703125,-3.385560989379883
1701889777851782700,16.78978271484375,-10.691460609436035,-12.925329208374023,-0.5981349945068359
1701889777868779500,16.806779541015626,-9.120431900024414,-13.321318626403809,1.579279899597168
1701889777885767700,16.823767578125,-7.670687198638916,-13.561714172363281,3.384726047515869
1701889777902756900,16.8407568359375,-7.003166675567627,-13.431543350219727,5.187526702880859
1701889777919744800,16.857744873046876,-6.293715476989746,-12.8253812789917,7.091792106628418
1701889777936732400,16.874732421875,-5.704315662384033,-11.909297943115234,9.247146606445312
1701889777953721300,16.891721435546874,-4.177395820617676,-11.171243667602539,12.048229217529297
1701889777970709000,16.908708984375,-1.4419641494750977,-9.7564697265625,15.679649353027344
1701889777987695000,16.925695068359374,0.8060035705566406,-7.582098960876465,17.623952865600586
1701889778004688100,16.942688232421876,3.1265859603881836,-5.937180519104004,19.630638122558594
1701889778021674200,16.95967431640625,5.9234418869018555,-4.04929256439209,21.74771499633789
1701889778038662000,16.976661865234377,8.915668487548828,-2.775101661682129,22.123058319091797
1701889778055650800,16.99365087890625,10.99678897857666,-1.8434985876083374,21.64403533935547
1701889778072643300,17.010643310546875,10.77844524383545,-1.4342783689498901,19.45750617980957
1701889778089627100,17.027627197265623,8.590824127197266,-1.4280314445495605,16.642457962036133
1701889778106614800,17.04461474609375,6.505881309509277,-1.6835613250732422,15.130331993103027
1701889778123602200,17.061602294921876,5.627544403076172,-2.1687021255493164,15.459197998046875
1701889778140589800,17.07858984375,4.517148017883301,-3.0668959617614746,16.356592178344727
1701889778157579800,17.095579833984374,2.74899959564209,-4.4574408531188965,16.648313522338867
1701889778174559000,17.11255908203125,1.0251903533935547,-5.988858222961426,15.742067337036133
1701889778191538200,17.1295380859375,-0.871274471282959,-7.669590473175049,14.113597869873047
1701889778208541700,17.146541748046875,-3.144108295440674,-9.448986053466797,12.393698692321777
1701889778225535700,17.16353564453125,-5.470049858093262,-11.420875549316406,10.650848388671875
1701889778242520800,17.180520751953125,-7.169605731964111,-12.874008178710938,8.412771224975586
1701889778259509500,17.197509521484374,-7.727209091186523,-13.72152328491211,5.918972492218018
1701889778276497400,17.214497314453126,-7.099111080169678,-14.301743507385254,3.1659059524536133
1701889778293485800,17.23148583984375,-6.564883232116699,-14.275847434997559,0.42794370651245117
1701889778310470700,17.248470703125,-7.441385269165039,-13.918036460876465,-2.2898855209350586
1701889778327455700,17.265455810546875,-9.802303314208984,-13.796402931213379,-5.956255912780762
1701889778344451600,17.28245166015625,-10.882767677307129,-12.952463150024414,-11.370072364807129
1701889778361439000,17.29943896484375,-10.276412010192871,-11.54008674621582,-16.537799835205078
1701889778378427000,17.316427001953127,-8.520088195800781,-11.291290283203125,-18.65915298461914
1701889778395415000,17.3334150390625,-5.512060642242432,-11.772347450256348,-18.235477447509766
1701889778412414500,17.35041455078125,-1.9207048416137695,-11.749282836914062,-18.30042266845703
1701889778429392000,17.367391845703125,-0.9709897041320801,-11.301321983337402,-19.274497985839844
1701889778446379500,17.384379638671874,-3.361832857131958,-10.908210754394531,-19.288646697998047
1701889778463367700,17.40136767578125,-5.745799541473389,-11.409181594848633,-17.409278869628906
1701889778480356900,17.41835693359375,-6.368414878845215,-12.173788070678711,-14.274495124816895
1701889778497344000,17.435343994140624,-6.452672958374023,-12.899697303771973,-10.528571128845215
1701889778514333400,17.45233349609375,-7.27077579498291,-13.261094093322754,-7.138363838195801
1701889778531321300,17.4693212890625,-8.646665573120117,-13.465885162353516,-4.1120500564575195
1701889778548306400,17.486306396484373,-9.885503768920898,-13.67070198059082,-0.9202151298522949
1701889778565300200,17.50330029296875,-10.541906356811523,-13.360848426818848,1.2643895149230957
1701889778582270700,17.520270751953124,-10.057182312011719,-13.373356819152832,3.813023805618286
1701889778599269600,17.53726953125,-8.853913307189941,-12.924615859985352,6.217309474945068
1701889778616255000,17.5542548828125,-7.074979782104492,-13.005752563476562,9.525548934936523
1701889778633240600,17.571240478515627,-3.6891462802886963,-11.0889892578125,15.06692123413086
1701889778650227500,17.5882275390625,-2.064685821533203,-8.385953903198242,16.885433197021484
1701889778667219500,17.605219482421877,-1.1272072792053223,-7.327148914337158,17.763452529907227
1701889778684215000,17.622215087890623,1.4275035858154297,-6.447597026824951,18.468130111694336
1701889778701203500,17.639203369140624,4.864455223083496,-4.808126449584961,18.077919006347656
1701889778718191400,17.65619140625,8.1997709274292,-3.9705443382263184,17.56609535217285
1701889778735180300,17.67318017578125,10.665950775146484,-2.927410125732422,18.087717056274414
1701889778752168000,17.69016796875,11.242650032043457,-2.365895986557007,17.992891311645508
1701889778769156600,17.707156494140627,9.895299911499023,-2.5735857486724854,18.06240463256836
1701889778786144500,17.72414453125,7.91409969329834,-3.0027177333831787,17.71456527709961
1701889778803133400,17.741133544921876,5.998137474060059,-3.4890859127044678,17.379119873046875
1701889778820117000,17.758116943359376,3.881288528442383,-4.471493244171143,16.50531768798828
1701889778837110300,17.7751103515625,2.572577476501465,-5.522174835205078,15.045331954956055
1701889778854097400,17.792097412109374,1.8115911483764648,-6.549432277679443,13.495672225952148
1701889778871095300,17.80909521484375,0.7844371795654297,-7.809466361999512,12.40007209777832
1701889778888073000,17.826072998046875,-1.278702735900879,-9.395526885986328,11.168292999267578
1701889778905052000,17.843052001953126,-3.706480026245117,-10.848613739013672,8.737482070922852
1701889778922050300,17.86005029296875,-5.638944625854492,-11.533077239990234,6.03285026550293
1701889778939039000,17.8770390625,-6.6860480308532715,-11.555142402648926,3.331087112426758
1701889778956027000,17.89402685546875,-7.322025299072266,-11.463897705078125,1.5712032318115234
1701889778973015600,17.911015625,-8.121014595031738,-11.753472328186035,-0.5324749946594238
1701889778990002700,17.928002685546875,-8.805940628051758,-11.354732513427734,-3.69697904586792
1701889779006991400,17.944991455078124,-8.843555450439453,-10.46756362915039,-6.949089050292969
1701889779023980500,17.96198046875,-8.44651985168457,-10.063310623168945,-9.181490898132324
1701889779040968700,17.97896875,-7.142608642578125,-10.048175811767578,-11.561125755310059
1701889779057945900,17.99594580078125,-5.383989334106445,-9.310426712036133,-14.092385292053223
1701889779074945000,18.012945068359375,-3.704860210418701,-8.37108039855957,-15.760348320007324
1701889779091922400,18.02992236328125,-2.756185531616211,-8.089189529418945,-16.03551483154297
1701889779108921300,18.04692138671875,-2.726515054702759,-8.242416381835938,-15.925821304321289
1701889779125909200,18.0639091796875,-3.573284149169922,-8.757168769836426,-15.570893287658691
1701889779142894800,18.080894775390625,-4.616542339324951,-9.429374694824219,-14.675167083740234
1701889779159885600,18.097885498046875,-4.713207721710205,-10.104734420776367,-13.565216064453125
1701889779176874500,18.11487451171875,-3.847421169281006,-10.502913475036621,-11.827811241149902
1701889779193862100,18.131862060546876,-2.962515354156494,-10.991568565368652,-9.800201416015625
1701889779210847700,18.14884765625,-3.4417593479156494,-11.524883270263672,-7.587506294250488
1701889779227838500,18.16583837890625,-5.385601043701172,-12.421650886535645,-4.789257049560547
1701889779244826000,18.182826171875,-7.048494338989258,-12.904296875,-2.3647966384887695
1701889779261815000,18.19981494140625,-7.74107027053833,-13.243112564086914,-0.21305179595947266
1701889779278804000,18.216803955078124,-8.214999198913574,-13.198476791381836,2.841601610183716
1701889779295790800,18.233790771484376,-8.088371276855469,-12.665048599243164,5.514453887939453
1701889779312770600,18.2507705078125,-6.399491310119629,-12.277703285217285,8.245829582214355
1701889779329767400,18.267767333984374,-4.1738128662109375,-10.736953735351562,11.447543144226074
1701889779346757400,18.28475732421875,-2.89530086517334,-9.12610149383545,12.872541427612305
1701889779363744300,18.301744140625,-0.2691473960876465,-7.773802757263184,15.950861930847168
1701889779380723700,18.3187236328125,2.023678779602051,-4.474289894104004,17.74243927001953
1701889779397720000,18.335719970703124,3.1490554809570312,-2.378546714782715,18.35078239440918
1701889779414698800,18.35269873046875,5.072417259216309,-1.8577227592468262,21.930540084838867
1701889779431686000,18.369685791015623,6.986537933349609,-1.2673578262329102,23.199556350708008
1701889779448675800,18.38667578125,8.73295783996582,-1.6384694576263428,22.188085556030273
1701889779465666300,18.403666259765625,8.940202713012695,-1.3779380321502686,19.469404220581055
1701889779482656800,18.42065673828125,7.77369499206543,-1.180978775024414,15.702653884887695
1701889779499639000,18.43763916015625,6.1114912033081055,-1.399350643157959,12.706053733825684
1701889779516628700,18.454628662109375,4.635781288146973,-2.339843273162842,11.88305377960205
1701889779533618400,18.471618408203124,4.269107818603516,-3.502445697784424,12.905206680297852
1701889779550608000,18.48860791015625,3.938138961791992,-4.596578598022461,13.92358684539795
1701889779567594000,18.505593994140625,2.642282485961914,-5.827371597290039,13.593462944030762
1701889779584585000,18.5225849609375,0.33484840393066406,-7.184493541717529,12.247476577758789
1701889779601571300,18.5395712890625,-1.6601881980895996,-8.900070190429688,10.192548751831055
1701889779618559500,18.5565595703125,-2.9604380130767822,-10.754246711730957,8.166545867919922
1701889779635545900,18.5735458984375,-3.898165225982666,-12.435729026794434,6.169925212860107
1701889779652534300,18.5905341796875,-4.438320636749268,-13.826119422912598,4.064523220062256
1701889779669524200,18.607524169921874,-4.724722385406494,-14.447285652160645,2.2070889472961426
1701889779686521600,18.624521484375,-5.466738700866699,-14.338714599609375,-0.017558574676513672
1701889779703512000,18.641511962890625,-6.909076690673828,-13.700113296508789,-2.900501251220703
1701889779720495000,18.6584951171875,-8.586649894714355,-13.166190147399902,-6.561305999755859
1701889779737485600,18.675485595703126,-9.967915534973145,-12.636780738830566,-11.656159400939941
1701889779754474800,18.692474853515623,-9.416459083557129,-12.041159629821777,-16.365039825439453
1701889779771462400,18.70946240234375,-7.239626884460449,-11.638381958007812,-18.75409698486328
1701889779788431000,18.72643115234375,-4.04196310043335,-11.553050994873047,-19.042516708374023
1701889779805441500,18.743441650390626,-1.3059611320495605,-11.519325256347656,-18.057836532592773
1701889779822428000,18.760427978515626,0.1341719627380371,-11.31198787689209,-17.291088104248047
1701889779839415300,18.777415283203126,-0.9955105781555176,-11.26784896850586,-16.288997650146484
1701889779856404200,18.794404296875,-2.927506685256958,-11.71651554107666,-14.188210487365723
1701889779873391900,18.811391845703124,-4.463204383850098,-12.613210678100586,-11.6094331741333
1701889779890380300,18.82838037109375,-5.659231185913086,-13.299373626708984,-8.584907531738281
1701889779907369700,18.84536962890625,-6.802516937255859,-13.76630687713623,-5.4948954582214355
1701889779924350500,18.8623505859375,-7.873561859130859,-14.327689170837402,-2.6338367462158203
1701889779941344800,18.8793447265625,-8.584400177001953,-14.431992530822754,-0.23261547088623047
1701889779958333200,18.896333251953124,-8.944733619689941,-14.293659210205078,1.5794663429260254
1701889779975321300,18.9133212890625,-9.671358108520508,-14.540388107299805,3.626293659210205
1701889779992310000,18.93031005859375,-9.62213134765625,-14.684917449951172,6.358710289001465
1701889780009297700,18.947297607421874,-6.383711814880371,-14.047908782958984,10.734819412231445
1701889780026286600,18.96428662109375,-1.3629164695739746,-11.53668212890625,15.593766212463379
1701889780043271200,18.981271240234374,1.3947267532348633,-8.39893627166748,19.15983009338379
1701889780060263000,18.998262939453124,2.1306400299072266,-6.0485148429870605,19.969236373901367
1701889780077250600,19.01525048828125,3.307370185852051,-4.146097660064697,18.572214126586914
1701889780094236400,19.032236328125,5.801142692565918,-2.882899284362793,19.821063995361328
1701889780111216600,19.049216552734375,8.352520942687988,-1.6069186925888062,20.444137573242188
1701889780128215800,19.0662158203125,9.539728164672852,-1.4381970167160034,19.868383407592773
1701889780145203500,19.083203369140627,9.89071273803711,-1.222245216369629,18.869686126708984
1701889780162190000,19.100190185546875,8.709028244018555,-0.700401782989502,17.22956085205078
1701889780179182600,19.1171826171875,6.5781965255737305,-1.0314154624938965,15.451126098632812
1701889780196158700,19.13415869140625,4.46225643157959,-1.9387658834457397,14.210708618164062
1701889780213156900,19.151156982421874,3.2976741790771484,-2.8636107444763184,14.296295166015625
1701889780230141400,19.168141357421874,2.618828773498535,-3.557283878326416,14.97141170501709
1701889780247133200,19.18513330078125,1.819270133972168,-4.455464839935303,15.540807723999023
1701889780264123100,19.202123046875,0.1001729965209961,-5.993768692016602,15.147330284118652
1701889780281099000,19.21909912109375,-2.3066210746765137,-7.861126899719238,13.750961303710938
1701889780298098200,19.23609814453125,-4.513741970062256,-9.533653259277344,11.67247200012207
1701889780315086300,19.25308642578125,-6.277825355529785,-11.347795486450195,9.796699523925781
1701889780332075000,19.270074951171875,-6.856825828552246,-12.833978652954102,7.993613243103027
1701889780349062400,19.2870625,-6.724867820739746,-13.915340423583984,5.665656089782715
1701889780366051600,19.304051513671876,-6.486105918884277,-14.660568237304688,3.4512529373168945
1701889780383039000,19.3210390625,-7.5859174728393555,-14.99160099029541,1.033869743347168
1701889780400021200,19.338021240234376,-9.560086250305176,-14.777652740478516,-2.473567008972168
1701889780417018400,19.355018310546875,-11.865715026855469,-14.515007019042969,-8.066474914550781
1701889780434005200,19.372005126953123,-12.953207969665527,-14.01032829284668,-15.260106086730957
1701889780450991900,19.388991943359375,-11.41995906829834,-13.828156471252441,-19.8262882232666
1701889780467980800,19.405980712890624,-6.799045085906982,-13.972658157348633,-20.85922622680664
1701889780484968400,19.422968505859377,-0.5987935066223145,-13.574867248535156,-19.671541213989258
1701889780501957000,19.43995703125,3.794229507446289,-12.352725982666016,-18.273893356323242
1701889780518945000,19.456945068359374,3.659201145172119,-11.46512508392334,-16.97164535522461
1701889780535933700,19.47393359375,0.3861503601074219,-11.045085906982422,-14.760640144348145
1701889780552918300,19.490918212890627,-4.161729335784912,-11.589914321899414,-11.463043212890625
1701889780569910300,19.50791015625,-7.54366397857666,-12.224824905395508,-8.569354057312012
1701889780586898200,19.524898193359373,-9.0804443359375,-12.582778930664062,-6.037291526794434
1701889780603886600,19.541886474609374,-8.973005294799805,-12.61017894744873,-3.981008529663086
1701889780620864300,19.5588642578125,-7.06569766998291,-12.369832992553711,-2.6715774536132812
1701889780637862000,19.57586181640625,-4.653827667236328,-11.855398178100586,-1.6928701400756836
1701889780654852000,19.59285205078125,-3.6821372509002686,-10.892912864685059,-0.6672835350036621
1701889780671829000,19.6098291015625,-5.553357124328613,-10.317557334899902,0.7516050338745117
1701889780688827600,19.62682763671875,-8.821834564208984,-10.037879943847656,2.012730598449707
1701889780705815600,19.643815673828126,-11.262945175170898,-11.100214004516602,3.352344036102295
1701889780722804700,19.6608046875,-10.003188133239746,-12.52685260772705,5.415138244628906
1701889780739792100,19.677792236328123,-5.304567337036133,-13.347230911254883,8.973689079284668
1701889780756781300,19.69478125,-0.8221931457519531,-11.895187377929688,11.394190788269043
1701889780773758700,19.7117587890625,2.5157041549682617,-11.157962799072266,15.36403751373291
1701889780790756900,19.7287568359375,3.081157684326172,-9.248430252075195,20.98123550415039
1701889780807745000,19.7457451171875,3.1918630599975586,-7.509923458099365,22.852699279785156
1701889780824734200,19.762734130859375,6.776205062866211,-6.70390510559082,23.86027717590332
1701889780841722400,19.779722412109376,11.610570907592773,-5.353032112121582,23.465967178344727
1701889780858709800,19.796709716796876,14.192861557006836,-4.447882652282715,20.446678161621094
1701889780875688200,19.813688232421875,13.302767753601074,-3.9822280406951904,17.37739372253418
1701889780892676000,19.830676025390623,10.012887954711914,-4.07838249206543,14.872247695922852
1701889780909675000,19.847675048828126,6.813520431518555,-4.889366149902344,13.318085670471191
1701889780926662100,19.864662109375,5.238924980163574,-5.37923526763916,13.825221061706543
1701889780943652600,19.881652587890624,4.587836265563965,-6.217133045196533,15.42316722869873
1701889780960639200,19.89863916015625,3.63710880279541,-7.610054969787598,16.485919952392578
1701889780977619200,19.915619140625,1.7795419692993164,-9.460308074951172,16.420698165893555
1701889780994616000,19.932615966796874,-0.6943483352661133,-11.416826248168945,14.97166633605957
1701889781011594000,19.949593994140624,-3.6196484565734863,-13.45090103149414,12.872405052185059
1701889781028592000,19.966592041015623,-5.027660369873047,-15.826590538024902,12.15725326538086
1701889781045581300,19.983581298828124,-6.262557029724121,-18.072866439819336,11.055132865905762
1701889781062563300,20.000563232421875,-8.046517372131348,-20.46709632873535,7.787297248840332
1701889781079560200,20.017560302734374,-9.50669002532959,-21.211952209472656,3.056389808654785
1701889781096545800,20.0345458984375,-10.906452178955078,-19.82181167602539,-3.2990689277648926
1701889781113534200,20.0515341796875,-13.076103210449219,-16.150245666503906,-12.263652801513672
1701889781130518800,20.068518798828126,-13.928357124328613,-13.02588939666748,-19.636829376220703
1701889781147512300,20.08551220703125,-10.655946731567383,-12.999334335327148,-20.505916595458984
1701889781164497000,20.102496826171876,-4.766380786895752,-14.651996612548828,-16.458406448364258
1701889781181486800,20.11948681640625,0.9805741310119629,-15.06627082824707,-13.570808410644531
1701889781198475000,20.13647509765625,4.242177963256836,-14.237751007080078,-13.747932434082031
1701889781215463700,20.153463623046875,3.8743109703063965,-13.201998710632324,-15.445659637451172
1701889781232447500,20.170447509765626,1.230161190032959,-12.285598754882812,-16.289878845214844
1701889781249443600,20.187443603515625,-1.152036190032959,-11.696407318115234,-14.582847595214844
1701889781266418700,20.204418701171875,-2.965914249420166,-11.600744247436523,-11.08244800567627
1701889781283416300,20.221416259765626,-4.393783092498779,-11.59583568572998,-7.691037178039551
1701889781300404200,20.238404296875,-5.727181911468506,-11.305207252502441,-5.728894233703613
1701889781317404000,20.25540380859375,-6.366409778594971,-10.295392990112305,-4.833388328552246
1701889781334381800,20.2723818359375,-7.094337463378906,-9.593067169189453,-4.254244804382324
1701889781351367200,20.2893671875,-7.103889465332031,-9.372420310974121,-3.351767063140869
1701889781368358700,20.306358642578125,-7.797750473022461,-9.159101486206055,-1.3709893226623535
1701889781385347600,20.32334765625,-9.46883773803711,-9.345525741577148,0.7246665954589844
1701889781402333700,20.340333740234374,-10.925025939941406,-9.817728996276855,3.0875566005706787
1701889781419322600,20.357322509765623,-11.178291320800781,-10.219146728515625,5.443068504333496
1701889781436310500,20.374310546875,-8.900772094726562,-10.894556999206543,8.795571327209473
1701889781453296000,20.391296142578124,-5.577465057373047,-9.620901107788086,12.8472900390625
1701889781470286800,20.408286865234373,-3.670158863067627,-8.262189865112305,13.937105178833008
1701889781487278300,20.4252783203125,-0.3498201370239258,-7.649224758148193,17.06243896484375
1701889781504260600,20.442260498046874,3.4300966262817383,-5.8917646408081055,19.825054168701172
1701889781521252000,20.459252197265624,5.829395294189453,-3.872437000274658,18.073741912841797
1701889781538239700,20.47623974609375,8.235904693603516,-4.016076564788818,19.58721351623535
1701889781555228700,20.493228759765625,10.901496887207031,-2.994293689727783,22.635154724121094
1701889781572213200,20.510213134765625,11.896727561950684,-2.3977415561676025,22.491539001464844
1701889781589205000,20.527205078125,11.342188835144043,-3.276930809020996,21.675765991210938
1701889781606193000,20.54419287109375,9.818465232849121,-3.998307704925537,20.206735610961914
1701889781623192800,20.56119287109375,7.053855895996094,-5.118343353271484,18.073429107666016
1701889781640167400,20.57816748046875,3.2104978561401367,-6.490289688110352,16.1298770904541
1701889781657156900,20.595156982421877,0.49088478088378906,-7.781218528747559,14.956356048583984
1701889781674145800,20.612145751953125,-1.1462860107421875,-9.175671577453613,14.40843677520752
1701889781691134500,20.629134521484374,-2.5499773025512695,-11.01905632019043,13.802995681762695
1701889781708119800,20.646119873046874,-4.163036346435547,-13.293926239013672,11.741830825805664
1701889781725113900,20.66311376953125,-5.217748165130615,-15.450718879699707,8.690764427185059
1701889781742099200,20.68009912109375,-5.424344539642334,-16.898700714111328,5.153308868408203
1701889781759087600,20.697087646484373,-5.757380962371826,-17.246517181396484,1.7977895736694336
1701889781776075800,20.71407568359375,-7.2776408195495605,-17.42864418029785,-1.2540411949157715
1701889781793064200,20.731064208984375,-10.039573669433594,-17.220001220703125,-5.067892074584961
1701889781810049300,20.74804931640625,-13.176450729370117,-16.838363647460938,-10.525039672851562
1701889781827039700,20.765039794921876,-13.563316345214844,-15.981183052062988,-17.109926223754883
1701889781844027400,20.78202734375,-12.129127502441406,-16.411540985107422,-22.69757080078125
1701889781861023200,20.799023193359375,-7.648301124572754,-17.103294372558594,-26.018970489501953
1701889781878005000,20.8160048828125,-2.0406270027160645,-16.668781280517578,-27.321603775024414
1701889781894994000,20.832993896484375,1.3627347946166992,-15.579828262329102,-26.909421920776367
1701889781911990300,20.849990234375,0.8266668319702148,-14.883913040161133,-23.936376571655273
1701889781928970000,20.866969970703124,-2.8235268592834473,-15.348690032958984,-17.885292053222656
1701889781945957600,20.88395751953125,-7.0396037101745605,-16.14556121826172,-11.163214683532715
1701889781962943200,20.900943115234377,-10.385498046875,-16.487932205200195,-5.804675102233887
1701889781979934500,20.9179345703125,-12.252062797546387,-16.05325698852539,-1.735982894897461
1701889781996923100,20.934923095703127,-12.4033203125,-15.612282752990723,1.0227131843566895
1701889782013911000,20.9519111328125,-10.326393127441406,-14.879697799682617,2.3153915405273438
1701889782030899500,20.9688994140625,-7.700742721557617,-14.317995071411133,2.907365560531616
1701889782047887400,20.985887451171877,-6.404771327972412,-14.272673606872559,4.787161827087402
1701889782064876000,21.0028759765625,-7.3145599365234375,-14.313056945800781,8.143807411193848
1701889782081851100,21.01985107421875,-6.10870361328125,-13.654733657836914,14.763940811157227
1701889782098845400,21.036845458984374,-3.1823363304138184,-10.13698959350586,20.254507064819336
1701889782115830000,21.053830078125,0.340484619140625,-7.26975679397583,23.13880157470703
1701889782132818000,21.07081787109375,3.978203773498535,-4.537811279296875,25.050935745239258
1701889782149807400,21.087807373046875,6.016091346740723,-2.595005989074707,23.5048885345459
1701889782166797800,21.1047978515625,7.7646074295043945,-1.242908000946045,21.767148971557617
1701889782183793400,21.12179345703125,9.18069839477539,-0.24985694885253906,20.76816177368164
1701889782200782000,21.138781982421875,8.840643882751465,0.13587284088134766,19.71921730041504
1701889782217783300,21.155783203125,6.849178314208984,-0.03945612907409668,19.06356430053711
1701889782234758700,21.172758544921876,4.915773391723633,-0.5866110324859619,18.718917846679688
1701889782251738400,21.18973828125,3.286728858947754,-1.2021169662475586,17.596817016601562
1701889782268735200,21.2067353515625,1.8566560745239258,-2.579970121383667,16.818918228149414
1701889782285719800,21.2237197265625,0.3757495880126953,-4.077324390411377,15.876556396484375
1701889782302717700,21.2407177734375,-1.173872470855713,-5.542506217956543,14.629430770874023
1701889782319699000,21.257698974609376,-3.177093505859375,-6.723308563232422,12.937219619750977
1701889782336685300,21.274685302734376,-5.074387550354004,-7.613036155700684,10.836124420166016
1701889782353676800,21.2916767578125,-6.351895809173584,-8.419960975646973,8.486456871032715
1701889782370664700,21.308664794921874,-6.756592750549316,-9.548945426940918,6.463403224945068
1701889782387649800,21.32564990234375,-7.154788970947266,-10.408700942993164,4.2650957107543945
1701889782404643600,21.3426435546875,-7.703570365905762,-11.284066200256348,2.212977409362793
1701889782421629000,21.35962890625,-9.097549438476562,-12.47891902923584,-0.1924123764038086
1701889782438617600,21.37661767578125,-10.482492446899414,-13.253859519958496,-4.15865421295166
1701889782455605200,21.393605224609374,-10.711437225341797,-13.760868072509766,-8.87247085571289
1701889782472583400,21.41058349609375,-9.467334747314453,-13.811371803283691,-14.401068687438965
1701889782489581800,21.427581787109375,-7.962069511413574,-13.220635414123535,-18.644542694091797
1701889782506570500,21.444570556640624,-5.613234519958496,-12.43769645690918,-20.12979507446289
1701889782523558100,21.46155810546875,-2.0679173469543457,-12.424150466918945,-19.75300407409668
1701889782540546800,21.478546875,0.2409982681274414,-12.211158752441406,-19.048561096191406
1701889782557535000,21.495534912109374,-0.8495073318481445,-12.056354522705078,-18.232418060302734
1701889782574523400,21.5125234375,-3.7553024291992188,-12.19359016418457,-16.647335052490234
1701889782591511300,21.52951123046875,-5.123260021209717,-12.781023979187012,-13.783821105957031
1701889782608497400,21.546497314453124,-4.281454086303711,-13.051315307617188,-11.004472732543945
1701889782625490400,21.563490478515625,-3.672269344329834,-13.081960678100586,-8.681524276733398
