time,seconds_elapsed,z,y,x
1702056369272992300,0.1699921875,2.4727439880371094,1.0749316215515137,-1.3000558614730835
1702056369289978400,0.186978271484375,2.349226951599121,0.5781800746917725,-1.317544937133789
1702056369306979800,0.203979736328125,-0.812077522277832,0.2644035816192627,-0.24196752905845642
1702056369323964400,0.22096435546875,-1.244044303894043,0.26862454414367676,0.3201121687889099
1702056369340967400,0.237967529296875,-0.26083850860595703,0.44437456130981445,0.2316461205482483
1702056369357960200,0.254960205078125,0.16257572174072266,0.44965410232543945,0.034418344497680664
1702056369374964200,0.271964111328125,-0.08000373840332031,0.15243196487426758,-0.08134859800338745
1702056369391951000,0.288951171875,-0.29567432403564453,-0.11815786361694336,0.3915081024169922
1702056369408942800,0.30594287109375,0.34618473052978516,0.046549320220947266,0.48651552200317383
1702056369425938000,0.32293798828125,0.5958271026611328,0.029346466064453125,0.29436105489730835
1702056369442935000,0.33993505859375,0.2097911834716797,-0.11301708221435547,0.3930891752243042
1702056369459924000,0.356924072265625,-0.17613983154296875,-0.07934284210205078,0.4891544580459595
1702056369476923100,0.373923095703125,-0.1653280258178711,-0.024496078491210938,-0.07062649726867676
1702056369493915000,0.390914794921875,0.1542673110961914,0.23946046829223633,-0.9011870622634888
1702056369510912300,0.407912353515625,0.009528160095214844,-0.1437692642211914,-0.5789546966552734
1702056369527901200,0.424901123046875,-0.7206320762634277,-0.13123130798339844,0.2544670104980469
1702056369544899300,0.4418994140625,-1.5184211730957031,-0.27178192138671875,1.299492359161377
1702056369561894000,0.458893798828125,-2.166639804840088,-0.47556018829345703,1.3259572982788086
1702056369578885000,0.475885009765625,-2.0015430450439453,-0.6022853851318359,0.6437673568725586
1702056369595891500,0.492891357421875,-1.067570686340332,-0.3424673080444336,0.26042914390563965
1702056369612878000,0.509878173828125,-0.12601423263549805,-0.45508337020874023,0.3849128484725952
1702056369629866800,0.52686669921875,0.19644880294799805,-0.8902378082275391,0.641049861907959
1702056369646866000,0.543865966796875,0.13352394104003906,-1.2669892311096191,0.7370395660400391
1702056369663859700,0.560859619140625,-0.22648906707763672,-1.7205791473388672,1.2028201818466187
1702056369680853800,0.577853759765625,-0.37340354919433594,-1.0706171989440918,1.2295820713043213
1702056369697841400,0.59484130859375,0.07954835891723633,0.0614008903503418,0.31971824169158936
1702056369714847000,0.611846923828125,-0.3570213317871094,0.46575117111206055,-0.6759210228919983
1702056369731834600,0.628834716796875,-1.0738391876220703,0.13068342208862305,-0.7670600414276123
1702056369748828700,0.64582861328125,-0.9560542106628418,-0.010272979736328125,-0.45015573501586914
1702056369765821400,0.662821533203125,-0.22493600845336914,-0.06970024108886719,0.2960352897644043
1702056369782823400,0.679823486328125,-0.0050220489501953125,-0.317502498626709,0.906866192817688
1702056369799803000,0.696802978515625,-0.528867244720459,-0.15726804733276367,0.8179484605789185
1702056369816809000,0.71380908203125,-0.6202139854431152,0.3087773323059082,0.9490396976470947
1702056369833801000,0.730801025390625,-0.17903852462768555,0.3586907386779785,1.4875719547271729
1702056369850798000,0.747798095703125,1.1631851196289062,0.3247814178466797,1.3867318630218506
1702056369867787300,0.764787353515625,1.1590161323547363,0.14385700225830078,0.8568992614746094
1702056369884785200,0.78178515625,0.590752124786377,0.2241063117980957,0.19036245346069336
1702056369901779700,0.79877978515625,0.5136566162109375,0.6612472534179688,0.3556241989135742
1702056369918768400,0.815768310546875,0.7079582214355469,-0.026218891143798828,1.6292383670806885
1702056369935756000,0.832756103515625,0.48551082611083984,-0.2849245071411133,1.7860112190246582
1702056369952764200,0.84976416015625,0.8335747718811035,0.0090179443359375,1.0882997512817383
1702056369969751800,0.866751708984375,1.6034092903137207,0.15541553497314453,0.7802460193634033
1702056369986752300,0.883752197265625,1.0934405326843262,0.2957186698913574,0.8962242603302002
1702056370003744300,0.900744140625,-0.7181577682495117,0.43725109100341797,1.641331672668457
1702056370020741000,0.9177412109375,-2.2536277770996094,0.7022323608398438,1.7809667587280273
1702056370037727500,0.9347275390625,-1.7774618864059448,0.9892997741699219,1.3807837963104248
1702056370054729500,0.9517294921875,-0.9613828659057617,1.0207509994506836,1.0530717372894287
1702056370071723800,0.968723876953125,-0.7960796356201172,1.1135320663452148,1.5870909690856934
1702056370088708000,0.9857080078125,-1.95353102684021,1.5198421478271484,2.592932939529419
1702056370105721000,1.00272119140625,-3.1960902214050293,1.6866645812988281,2.7911078929901123
1702056370122720500,1.019720458984375,-3.28650164604187,1.3799781799316406,1.7461168766021729
1702056370139689000,1.03668896484375,-2.9916486740112305,0.6272497177124023,1.596081018447876
1702056370156690200,1.053690185546875,-2.1246085166931152,0.5040779113769531,0.9411029815673828
1702056370173686300,1.070686279296875,-1.8837950229644775,2.3140392303466797,1.4738004207611084
1702056370190681600,1.087681640625,-2.866939067840576,0.7979927062988281,1.2149584293365479
1702056370207676000,1.104676025390625,-3.226032018661499,0.03765296936035156,1.034801721572876
1702056370224674800,1.1216748046875,-5.167366981506348,-1.0441169738769531,1.0297608375549316
1702056370241666600,1.13866650390625,-4.033053398132324,-1.0278701782226562,1.194378137588501
1702056370258657300,1.1556572265625,-2.764590263366699,-0.6108102798461914,0.8348511457443237
1702056370275653000,1.172653076171875,-1.0439350605010986,-1.2417349815368652,0.6101945638656616
1702056370292650000,1.18964990234375,0.14951038360595703,-1.7195115089416504,0.9881571531295776
1702056370309638700,1.206638671875,0.5996370315551758,-1.7967119216918945,1.5297486782073975
1702056370326637600,1.223637451171875,0.07520580291748047,-2.066282272338867,1.7413944005966187
1702056370343630000,1.240630126953125,-0.21069717407226562,-1.6399469375610352,1.189046025276184
1702056370360627200,1.257627197265625,0.13634300231933594,-0.9921741485595703,0.7816025018692017
1702056370377616000,1.274615966796875,0.9069929122924805,-0.7404341697692871,0.6998504400253296
1702056370394614300,1.2916142578125,1.9484071731567383,-0.566704273223877,0.8389497995376587
1702056370411605500,1.30860546875,3.0028157234191895,-0.1854085922241211,1.4593803882598877
1702056370428600600,1.3256005859375,2.8607964515686035,0.32325124740600586,1.6969096660614014
1702056370445595400,1.342595458984375,1.943699836730957,0.3040595054626465,1.6970164775848389
1702056370462601200,1.359601318359375,1.8344635963439941,0.030740737915039062,1.9667823314666748
1702056370479579600,1.37657958984375,2.7141175270080566,-0.34371471405029297,2.4292941093444824
1702056370496583700,1.393583740234375,3.8019795417785645,-0.5146098136901855,2.6023311614990234
1702056370513572900,1.41057275390625,4.706831932067871,-0.3676934242248535,3.0833170413970947
1702056370530574600,1.42757470703125,3.851898670196533,-0.36672019958496094,3.8172693252563477
1702056370547561000,1.44456103515625,2.6356992721557617,-0.5495214462280273,4.697451591491699
1702056370564557300,1.461557373046875,2.9400200843811035,-1.0321598052978516,5.32347297668457
1702056370581551600,1.478551513671875,3.7833828926086426,-1.8070969581604004,5.903668403625488
1702056370598543000,1.495543212890625,4.073085308074951,-2.2500553131103516,6.182600021362305
1702056370615538700,1.51253857421875,4.094354152679443,-2.6028521060943604,6.227860450744629
1702056370632536000,1.5295361328125,3.518402576446533,-2.990523099899292,6.328999042510986
1702056370649525000,1.54652490234375,2.2954564094543457,-3.4543802738189697,6.185202598571777
1702056370666531800,1.56353173828125,1.7443761825561523,-3.8385112285614014,5.7174458503723145
1702056370683516000,1.580515869140625,1.777906894683838,-4.664910316467285,5.442677974700928
1702056370700513300,1.59751318359375,2.0956196784973145,-5.4191813468933105,5.23293924331665
1702056370717495000,1.6144951171875,2.041670799255371,-5.766783237457275,4.771207332611084
1702056370734497800,1.631497802734375,1.446059226989746,-5.992175102233887,4.415165424346924
1702056370751497200,1.648497314453125,0.7693471908569336,-6.23114538192749,4.270312786102295
1702056370768486700,1.665486572265625,0.12368583679199219,-6.5418701171875,3.9925196170806885
1702056370785481500,1.6824814453125,-0.4150853157043457,-6.885704040527344,3.7453014850616455
1702056370802478800,1.699478759765625,-0.7326464653015137,-7.1248369216918945,3.741258144378662
1702056370819467800,1.7164677734375,-1.2270214557647705,-7.406869888305664,3.816934108734131
1702056370836467700,1.7334677734375,-1.621469259262085,-7.598231315612793,3.4498672485351562
1702056370853458400,1.75045849609375,-2.045551300048828,-7.634500026702881,2.6283254623413086
1702056370870460000,1.7674599609375,-2.507019519805908,-7.460418224334717,2.1454992294311523
1702056370887453400,1.784453369140625,-2.8778865337371826,-6.921133995056152,1.8555831909179688
1702056370904434000,1.801433837890625,-2.8971378803253174,-6.293174743652344,1.3753013610839844
1702056370921439000,1.81843896484375,-2.751455307006836,-5.583553314208984,0.5924444198608398
1702056370938430200,1.83543017578125,-2.6443886756896973,-4.7569580078125,-0.3965883255004883
1702056370955424800,1.8524248046875,-2.8748812675476074,-4.195573806762695,-1.4163331985473633
1702056370972422000,1.869421875,-3.187443494796753,-3.8662381172180176,-2.3723058700561523
1702056370989412900,1.886412841796875,-3.0732421875,-3.7534146308898926,-3.6665000915527344
1702056371006408200,1.903408203125,-2.709768533706665,-3.551351547241211,-4.800558090209961
1702056371023400000,1.92039990234375,-2.7383873462677,-3.569488525390625,-5.51644229888916
1702056371040397800,1.937397705078125,-2.542760133743286,-3.632404327392578,-6.168276786804199
1702056371057389300,1.954389404296875,-2.3828959465026855,-3.6358413696289062,-7.005274772644043
1702056371074383000,1.971383056640625,-2.478091239929199,-3.6839165687561035,-7.730110168457031
1702056371091378700,1.988378662109375,-2.4789090156555176,-3.6803064346313477,-8.042943000793457
1702056371108373200,2.005373291015625,-2.4054243564605713,-4.079926490783691,-7.954751968383789
1702056371125366800,2.02236669921875,-2.0414798259735107,-4.316615581512451,-7.891583442687988
1702056371142367200,2.0393671875,-1.9546629190444946,-4.443800926208496,-7.828911781311035
1702056371159354600,2.056354736328125,-2.2344789505004883,-4.551577568054199,-7.221109390258789
1702056371176353500,2.073353515625,-2.603792905807495,-4.781716346740723,-6.034541130065918
1702056371193345000,2.090344970703125,-2.7805817127227783,-5.151010990142822,-5.091117858886719
1702056371210338600,2.107338623046875,-2.5734965801239014,-5.589414596557617,-4.397458076477051
1702056371227334400,2.12433447265625,-2.558912754058838,-5.917262077331543,-3.776827812194824
1702056371244329200,2.1413291015625,-2.557084560394287,-6.194186210632324,-2.6813697814941406
1702056371261321000,2.158321044921875,-2.4678144454956055,-6.454353332519531,-1.6155109405517578
1702056371278315000,2.17531494140625,-2.4348561763763428,-6.674497127532959,-1.2834482192993164
1702056371295313700,2.192313720703125,-2.805351734161377,-6.849503517150879,-1.4029498100280762
1702056371312308200,2.20930810546875,-3.176398515701294,-6.980027198791504,-0.881718635559082
1702056371329297000,2.226296875,-3.5329983234405518,-6.893920421600342,-0.10668182373046875
1702056371346295600,2.243295654296875,-3.4533348083496094,-6.446226119995117,0.3549022674560547
1702056371363288000,2.2602880859375,-3.1682755947113037,-5.902027606964111,0.5942163467407227
1702056371380282000,2.2772822265625,-2.9107956886291504,-5.542385101318359,1.0562372207641602
1702056371397277200,2.294277099609375,-2.455385208129883,-4.964729309082031,1.0892930030822754
1702056371414272000,2.31127197265625,-2.1186113357543945,-4.663559913635254,0.7645952701568604
1702056371431267000,2.32826708984375,-1.8142509460449219,-4.5674943923950195,0.6515719890594482
1702056371448255700,2.345255859375,-1.8445944786071777,-4.296230792999268,0.8963661193847656
1702056371465256000,2.362255859375,-2.279329299926758,-4.123344898223877,1.223963975906372
1702056371482250800,2.379250732421875,-2.8878674507141113,-4.27082633972168,1.4895612001419067
1702056371499233000,2.39623291015625,-3.4682412147521973,-4.481246471405029,1.8002676963806152
1702056371516221000,2.413220947265625,-3.450228214263916,-4.828739643096924,2.4057042598724365
1702056371533233200,2.430233154296875,-2.161165237426758,-5.251157760620117,3.386568784713745
1702056371550224600,2.447224609375,-0.10547161102294922,-5.40773344039917,4.473206996917725
1702056371567220500,2.464220458984375,2.099742889404297,-5.565805912017822,5.272494316101074
1702056371584215300,2.48121533203125,4.166476249694824,-5.078734397888184,5.482227325439453
1702056371601197000,2.498197021484375,5.757293701171875,-4.407661437988281,5.725110054016113
1702056371618204700,2.51520458984375,6.593379974365234,-3.9230945110321045,6.175276756286621
1702056371635197000,2.532197021484375,6.652339935302734,-3.6166069507598877,6.603896141052246
1702056371652191500,2.54919140625,6.418526649475098,-3.3679137229919434,6.892882347106934
1702056371669185500,2.566185546875,5.906584739685059,-3.2018377780914307,7.279894828796387
1702056371686188500,2.5831884765625,5.155588150024414,-2.9950790405273438,7.428145408630371
1702056371703168300,2.600168212890625,4.601868629455566,-2.8552114963531494,7.500615119934082
1702056371720167000,2.6171669921875,4.9671735763549805,-3.055929183959961,7.308902740478516
1702056371737163300,2.634163330078125,5.581652641296387,-3.210249423980713,6.8610429763793945
1702056371754157800,2.65115771484375,5.839829444885254,-3.4200239181518555,6.597493648529053
1702056371771152400,2.66815234375,5.261543273925781,-3.624014139175415,6.416619777679443
1702056371788144400,2.685144287109375,4.251761436462402,-3.897798776626587,6.044449806213379
1702056371805140500,2.702140380859375,2.9972152709960938,-4.3297038078308105,5.667398929595947
1702056371822125600,2.71912548828125,1.9435644149780273,-4.895735740661621,5.256539344787598
1702056371839126000,2.7361259765625,1.5922441482543945,-5.571027755737305,5.037014007568359
1702056371856125000,2.753125,1.4435272216796875,-6.240842342376709,5.256805419921875
1702056371873119000,2.770118896484375,0.9368886947631836,-6.927962303161621,5.209650993347168
1702056371890113300,2.78711328125,0.4473581314086914,-7.162282943725586,4.715427875518799
1702056371907106300,2.804106201171875,-0.08900976181030273,-7.520931243896484,4.128680229187012
1702056371924101400,2.821101318359375,-0.7640547752380371,-7.992060661315918,3.645772695541382
1702056371941095400,2.838095458984375,-1.61220121383667,-8.521584510803223,3.4871647357940674
1702056371958087200,2.855087158203125,-2.3612866401672363,-9.027273178100586,3.484593629837036
1702056371975083000,2.8720830078125,-2.932995557785034,-9.418741226196289,3.236773729324341
1702056371992080100,2.889080078125,-3.3064818382263184,-9.282360076904297,2.4834823608398438
1702056372009069000,2.906069091796875,-3.805422782897949,-9.040048599243164,1.4458088874816895
1702056372026067000,2.92306689453125,-3.9720890522003174,-8.88638973236084,0.9678821563720703
1702056372043059200,2.94005908203125,-3.5450987815856934,-8.50576400756836,0.8879976272583008
1702056372060056000,2.95705615234375,-3.1168904304504395,-8.258164405822754,0.34978246688842773
1702056372077049300,2.97404931640625,-2.4181392192840576,-7.938652038574219,-0.7729473114013672
1702056372094044200,2.991044189453125,-2.2616469860076904,-7.195976257324219,-2.8293943405151367
1702056372111039200,3.008039306640625,-2.92326283454895,-6.38648796081543,-5.2090301513671875
1702056372128030500,3.025030517578125,-3.4766616821289062,-5.405242443084717,-7.485245704650879
1702056372145025500,3.042025634765625,-3.2782695293426514,-4.72224760055542,-8.999643325805664
1702056372162033200,3.059033203125,-2.682539463043213,-4.3872528076171875,-9.43957805633545
1702056372179015400,3.076015380859375,-2.1308469772338867,-4.346182346343994,-8.933195114135742
1702056372196011000,3.093010986328125,-1.6501429080963135,-4.474430084228516,-8.00523567199707
1702056372213003800,3.110003662109375,-1.2994616031646729,-4.571649074554443,-7.3702192306518555
1702056372229999400,3.126999267578125,-1.2340953350067139,-4.61915397644043,-7.591889381408691
1702056372246992600,3.14399267578125,-1.5034282207489014,-4.484456539154053,-8.27044677734375
1702056372263988200,3.16098828125,-2.006087303161621,-4.368753910064697,-8.86709976196289
1702056372280981000,3.17798095703125,-2.0667288303375244,-4.515594959259033,-8.620610237121582
1702056372297976600,3.1949765625,-1.8590391874313354,-4.8042521476745605,-7.546486854553223
1702056372314959400,3.21195947265625,-1.5677244663238525,-5.082787990570068,-6.464787483215332
1702056372331955000,3.228954833984375,-1.6846964359283447,-5.49702787399292,-5.766274452209473
1702056372348958200,3.245958251953125,-2.0952744483947754,-5.939642429351807,-5.423261642456055
1702056372365943600,3.262943603515625,-2.294391632080078,-6.4756574630737305,-4.933296203613281
1702056372382946800,3.27994677734375,-2.259303092956543,-7.075928211212158,-4.170078277587891
1702056372399942100,3.296942138671875,-2.543278455734253,-7.425137042999268,-3.584260940551758
1702056372416936200,3.313936279296875,-3.003885269165039,-7.792376518249512,-2.8701276779174805
1702056372433928400,3.330928466796875,-3.3813209533691406,-7.966398239135742,-1.968228816986084
1702056372450924500,3.347924560546875,-3.6456031799316406,-7.9376726150512695,-1.347456455230713
1702056372467920000,3.364919921875,-3.435412883758545,-7.96942663192749,-0.9298605918884277
1702056372484912600,3.38191259765625,-2.9596266746520996,-7.9911909103393555,-0.4305381774902344
1702056372501908500,3.398908447265625,-2.7444076538085938,-7.9456329345703125,0.027820110321044922
1702056372518903300,3.4159033203125,-2.572824478149414,-7.522618293762207,0.3122227191925049
1702056372535895600,3.4328955078125,-2.5117135047912598,-7.038818359375,0.39441895484924316
1702056372552889900,3.449889892578125,-2.5258562564849854,-6.655947208404541,0.501366138458252
1702056372569885400,3.466885498046875,-2.755880832672119,-6.364091873168945,0.951298713684082
1702056372586880800,3.483880859375,-2.9981212615966797,-6.335430145263672,1.351479172706604
1702056372603872500,3.50087255859375,-2.5050482749938965,-6.477274417877197,1.7590886354446411
1702056372620867000,3.5178671875,-1.6255760192871094,-6.637251377105713,2.2387444972991943
1702056372637862700,3.534862548828125,-0.7519702911376953,-6.644122123718262,3.006221055984497
1702056372654856000,3.55185595703125,0.07083606719970703,-6.451346397399902,3.8357152938842773
1702056372671851500,3.5688515625,1.3498620986938477,-6.2586541175842285,4.667529106140137
1702056372688844500,3.585844482421875,3.269777297973633,-5.941678047180176,5.479496479034424
1702056372705840000,3.602840087890625,4.864419937133789,-5.553133964538574,6.64879846572876
1702056372722833200,3.619833251953125,5.818840980529785,-4.964826583862305,7.700249671936035
1702056372739828700,3.636828857421875,6.627760887145996,-4.161663055419922,8.32905101776123
1702056372756821500,3.653821533203125,6.867645263671875,-3.538808584213257,8.635790824890137
1702056372773817300,3.6708173828125,6.470246315002441,-3.2218399047851562,8.634432792663574
1702056372790810400,3.687810302734375,5.694777488708496,-3.1798949241638184,8.388322830200195
1702056372807806200,3.70480615234375,5.07663631439209,-3.3290369510650635,7.643599510192871
1702056372824796200,3.721796142578125,5.074440002441406,-3.199463367462158,6.522355079650879
1702056372841788400,3.738788330078125,5.035497665405273,-3.019556999206543,5.783094882965088
1702056372858787600,3.75578759765625,5.355304718017578,-2.9466006755828857,5.735795021057129
1702056372875783200,3.772783203125,5.279829025268555,-3.1212995052337646,5.9360809326171875
1702056372892781800,3.78978173828125,4.820418357849121,-3.2812976837158203,6.297423362731934
1702056372909771500,3.806771484375,4.027016639709473,-3.538045644760132,6.336673259735107
1702056372926762200,3.82376220703125,3.2844467163085938,-3.9117348194122314,5.903713226318359
1702056372943763200,3.84076318359375,2.8141889572143555,-4.476833820343018,5.248477935791016
1702056372960753200,3.857753173828125,2.5695343017578125,-4.865225315093994,4.644130229949951
1702056372977749000,3.8747490234375,2.297079086303711,-5.141078948974609,4.196352958679199
1702056372994742000,3.891741943359375,1.3236284255981445,-5.66975736618042,3.950035333633423
1702056373011737600,3.908737548828125,-0.3022780418395996,-6.079328536987305,3.842872142791748
1702056373028729600,3.9257294921875,-1.4347434043884277,-6.722552299499512,3.7850985527038574
1702056373045727000,3.94272705078125,-2.014052391052246,-7.467257022857666,3.5242838859558105
1702056373062711600,3.959711669921875,-1.9856958389282227,-7.882172584533691,3.069033622741699
1702056373079714800,3.97671484375,-1.6061992645263672,-8.180378913879395,2.7332499027252197
1702056373096707600,3.99370751953125,-1.5795526504516602,-8.49111270904541,2.4160749912261963
1702056373113703200,4.010703125,-1.9566619396209717,-8.893199920654297,2.191394090652466
1702056373130696400,4.027696533203125,-2.2696259021759033,-9.347236633300781,2.002613067626953
1702056373147692000,4.044692138671875,-2.2057251930236816,-9.409481048583984,1.2403326034545898
1702056373164685000,4.06168505859375,-1.917327642440796,-8.95032024383545,0.17822694778442383
1702056373181677800,4.078677734375,-1.8931941986083984,-8.111876487731934,-1.0638818740844727
1702056373198676200,4.09567626953125,-2.090780735015869,-7.347668647766113,-2.058471202850342
1702056373215666700,4.112666748046875,-2.503284454345703,-6.34284782409668,-3.0419230461120605
1702056373232664600,4.12966455078125,-2.837442398071289,-5.571759223937988,-3.8501157760620117
1702056373249657900,4.146657958984375,-3.0186288356781006,-5.073293209075928,-4.3675618171691895
1702056373266651000,4.16365087890625,-3.105602979660034,-4.959571838378906,-5.053494453430176
1702056373283646700,4.180646728515625,-3.1533451080322266,-4.720507621765137,-5.9315032958984375
1702056373300639500,4.197639404296875,-3.051234722137451,-4.460866451263428,-6.64300537109375
1702056373317634800,4.214634765625,-2.240795612335205,-4.399913311004639,-7.226248741149902
1702056373334627300,4.23162744140625,-1.1270663738250732,-4.372389793395996,-7.798531532287598
1702056373351624000,4.2486240234375,-0.33388328552246094,-4.391851902008057,-7.932567596435547
1702056373368616700,4.26561669921875,-0.1137533187866211,-4.4241437911987305,-7.793530464172363
1702056373385612300,4.2826123046875,-0.12885808944702148,-4.562191486358643,-7.78092098236084
1702056373402605600,4.29960546875,-0.344022274017334,-4.5272393226623535,-7.914185523986816
1702056373419601000,4.316600830078125,-0.8916146755218506,-4.515926837921143,-7.934358596801758
1702056373436594000,4.333593994140625,-1.3030061721801758,-4.55245304107666,-7.594594955444336
1702056373453589500,4.350589599609375,-1.5373268127441406,-4.723761558532715,-6.944427490234375
1702056373470585300,4.36758544921875,-1.5809173583984375,-5.034337043762207,-6.200632095336914
1702056373487575600,4.384575439453125,-1.5040955543518066,-5.282049179077148,-5.367938041687012
1702056373504571100,4.401571044921875,-1.653428554534912,-5.63926887512207,-4.63741397857666
1702056373521566500,4.41856640625,-1.8098032474517822,-5.979308128356934,-4.199619293212891
1702056373538559700,4.435559814453125,-2.1047537326812744,-6.12303352355957,-3.8326640129089355
1702056373555555300,4.452555419921875,-2.666635751724243,-6.50662899017334,-3.2551584243774414
1702056373572548000,4.469548095703125,-2.997440814971924,-7.327737808227539,-2.1782150268554688
1702056373589543700,4.486543701171875,-2.7467684745788574,-7.884686470031738,-1.5791492462158203
1702056373606534700,4.50353466796875,-2.103050470352173,-7.717230796813965,-1.6713628768920898
1702056373623535000,4.52053515625,-1.8592758178710938,-7.391039848327637,-1.671013355255127
1702056373640525300,4.537525390625,-1.997544527053833,-7.091391563415527,-1.749685287475586
1702056373657521000,4.55452099609375,-2.251868724822998,-7.0425238609313965,-1.7229804992675781
1702056373674514200,4.57151416015625,-2.3911776542663574,-7.167422771453857,-1.3340134620666504
1702056373691510000,4.588510009765625,-2.426591396331787,-7.513155460357666,-0.6607332229614258
1702056373708502500,4.60550244140625,-2.1862077713012695,-8.214370727539062,0.8887401819229126
1702056373725498400,4.622498291015625,-1.761988639831543,-8.007665634155273,3.2155990600585938
1702056373742491400,4.639491455078125,-1.6392555236816406,-7.232711315155029,4.495174884796143
1702056373759487500,4.656487548828125,-1.3457746505737305,-6.820157051086426,4.423034191131592
1702056373776479700,4.673479736328125,-0.12676239013671875,-6.27285099029541,4.468999862670898
1702056373793475300,4.690475341796875,0.6556658744812012,-5.46419095993042,4.6406779289245605
1702056373810468600,4.707468505859375,1.4456052780151367,-4.892043113708496,4.594845294952393
1702056373827464200,4.724464111328125,2.048872947692871,-4.254462242126465,5.172471523284912
1702056373844457000,4.74145703125,2.4777965545654297,-3.8752942085266113,5.969784736633301
1702056373861452800,4.758452880859375,2.5965309143066406,-3.383113384246826,6.78109884262085
1702056373878445800,4.77544580078125,2.205153465270996,-2.6086792945861816,7.09175968170166
1702056373895441700,4.792441650390625,1.8043384552001953,-1.8694915771484375,6.7868757247924805
1702056373912434200,4.80943408203125,1.9716224670410156,-1.0748860836029053,6.322514533996582
1702056373929429800,4.8264296875,2.9774742126464844,-0.41191816329956055,6.490076065063477
1702056373946423300,4.84342333984375,4.015578269958496,-0.41009998321533203,6.791308403015137
1702056373963418600,4.860418701171875,4.5736589431762695,-0.6811714172363281,7.48078727722168
1702056373980405800,4.87740576171875,4.966552734375,-0.878415584564209,8.32871150970459
1702056373997404400,4.894404296875,5.43696403503418,-0.9343202114105225,8.960408210754395
1702056374014403300,4.9114033203125,5.733600616455078,-1.0816519260406494,9.01310920715332
1702056374031395800,4.928395751953125,5.8398895263671875,-1.3344204425811768,8.650723457336426
1702056374048378000,4.945378173828125,5.863391876220703,-1.707438588142395,8.118263244628906
1702056374065381600,4.962381591796875,5.518798828125,-2.2313570976257324,7.529484272003174
1702056374082380000,4.979380126953125,4.984859466552734,-2.7933504581451416,7.150773525238037
1702056374099373000,4.996373046875,4.054727554321289,-3.595947504043579,6.906980514526367
1702056374116366000,5.013365966796875,2.872526168823242,-4.290105819702148,6.373895645141602
1702056374133361700,5.030361572265625,1.781637191772461,-4.9295854568481445,5.754397869110107
1702056374150354400,5.0473544921875,1.1213116645812988,-5.946484088897705,5.42741584777832
1702056374167350800,5.064350830078125,0.7645254135131836,-7.137852668762207,4.913478374481201
1702056374184332500,5.08133251953125,0.35944271087646484,-7.959487438201904,3.903937339782715
1702056374201336300,5.09833642578125,-0.10288524627685547,-8.537168502807617,2.878504991531372
1702056374218334700,5.115334716796875,-0.8128695487976074,-8.938322067260742,2.2431674003601074
1702056374235327700,5.13232763671875,-1.7380595207214355,-9.069357872009277,1.8858015537261963
1702056374252320500,5.149320556640625,-2.265944480895996,-9.026115417480469,1.8057374954223633
1702056374269316000,5.166316162109375,-2.5869827270507812,-9.005993843078613,2.0325636863708496
1702056374286309400,5.183309326171875,-3.015108823776245,-8.976387023925781,2.3079159259796143
1702056374303301600,5.200301513671875,-3.2888150215148926,-8.64651107788086,2.0506067276000977
1702056374320298200,5.21729833984375,-3.470872402191162,-8.1649751663208,1.2072739601135254
1702056374337290000,5.2342900390625,-3.3342833518981934,-7.61541748046875,0.10763406753540039
1702056374354289000,5.251288818359375,-3.05790376663208,-7.058342933654785,-1.2809228897094727
1702056374371282000,5.268281982421875,-2.658876895904541,-6.292863845825195,-2.3748397827148438
1702056374388273000,5.28527294921875,-2.5783865451812744,-5.477818489074707,-2.8266124725341797
1702056374405269800,5.302269775390625,-2.626880168914795,-5.226274490356445,-3.2239503860473633
1702056374422266000,5.31926611328125,-2.402001142501831,-5.18855619430542,-4.122824668884277
1702056374439259100,5.336259033203125,-2.06954288482666,-5.043385982513428,-5.5089111328125
1702056374456252000,5.353251953125,-2.0579373836517334,-4.663324356079102,-7.085465431213379
1702056374473247700,5.370247802734375,-2.2024831771850586,-4.342151165008545,-8.00168228149414
1702056374490240800,5.38724072265625,-1.8325517177581787,-4.335026264190674,-7.828035354614258
1702056374507236600,5.404236572265625,-0.9059350490570068,-4.458693504333496,-7.452541351318359
1702056374524218600,5.421218505859375,-0.06461691856384277,-4.504281997680664,-7.210902214050293
1702056374541225000,5.438224853515625,0.03619647026062012,-4.3471198081970215,-6.993829727172852
1702056374558228000,5.45522802734375,-0.6538119316101074,-4.118287086486816,-6.578466415405273
1702056374575195000,5.47219482421875,-1.1922216415405273,-4.140587329864502,-6.434935569763184
1702056374592206300,5.489206298828125,-1.2534446716308594,-4.320888519287109,-6.257166862487793
1702056374609202200,5.5062021484375,-1.6592392921447754,-4.624765396118164,-5.990390777587891
1702056374626195500,5.523195556640625,-2.1487603187561035,-4.787669658660889,-5.495682716369629
1702056374643191000,5.54019091796875,-2.154179096221924,-4.973073959350586,-5.092820167541504
1702056374660183600,5.55718359375,-1.7338746786117554,-5.164835453033447,-4.684480667114258
1702056374677169400,5.57416943359375,-1.680891513824463,-5.409998416900635,-4.276467323303223
1702056374694170000,5.591170166015625,-1.612844705581665,-5.9744672775268555,-4.156740188598633
1702056374711170600,5.608170654296875,-1.64121413230896,-6.584375381469727,-3.96835994720459
1702056374728146400,5.625146484375,-1.8386363983154297,-6.991730690002441,-3.383573055267334
1702056374745156400,5.64215625,-2.2615714073181152,-7.178650856018066,-2.605942726135254
1702056374762149600,5.659149658203125,-2.546370267868042,-7.430203914642334,-1.8580074310302734
1702056374779143700,5.676143798828125,-2.3349270820617676,-7.535757064819336,-1.2333178520202637
1702056374796139800,5.693139892578125,-2.0103373527526855,-7.609082221984863,-0.6440873146057129
1702056374813133600,5.710133544921875,-1.930544137954712,-7.4493937492370605,0.11362552642822266
1702056374830126800,5.727126953125,-2.3388736248016357,-7.045257568359375,0.707507848739624
1702056374847122400,5.744122314453125,-2.703604221343994,-6.635421276092529,0.8566935062408447
1702056374864105000,5.76110498046875,-2.4455597400665283,-6.389344215393066,0.9378973245620728
1702056374881110800,5.77811083984375,-1.752290964126587,-6.31556510925293,1.2617982625961304
1702056374898101200,5.795101318359375,-1.2328262329101562,-6.239865303039551,1.8769714832305908
1702056374915102500,5.8121025390625,-1.0290164947509766,-6.121222496032715,2.7900731563568115
1702056374932092400,5.829092529296875,-0.6878271102905273,-5.5002121925354,4.193610668182373
1702056374949088000,5.846087890625,-0.4748697280883789,-5.0020751953125,5.194085121154785
1702056374966081300,5.863081298828125,0.513613224029541,-4.703935623168945,5.638933181762695
1702056374983076900,5.880076904296875,2.239908218383789,-4.254775047302246,6.0564093589782715
1702056375000070700,5.897070556640625,3.246999740600586,-3.481497287750244,6.4832353591918945
1702056375017064200,5.914064208984375,3.805478096008301,-2.7018282413482666,6.648327350616455
1702056375034058500,5.93105859375,3.977987289428711,-2.059844493865967,6.857827186584473
1702056375051054000,5.94805419921875,3.727811813354492,-1.6266846656799316,6.881354808807373
1702056375068046800,5.965046875,3.5640344619750977,-1.3738908767700195,6.770018577575684
1702056375085040000,5.9820400390625,3.680023193359375,-1.442953109741211,6.680323600769043
1702056375102038300,5.999038330078125,4.3069305419921875,-1.4467178583145142,6.478237152099609
1702056375119031300,6.01603125,5.050971984863281,-1.329925298690796,6.2126007080078125
1702056375136024300,6.0330244140625,5.5228118896484375,-1.2896041870117188,5.987977981567383
1702056375153019600,6.05001953125,5.464389801025391,-1.476841688156128,5.8986496925354
1702056375170010600,6.0670107421875,4.901248931884766,-1.698181390762329,6.141383171081543
1702056375187012900,6.084012939453125,4.54689884185791,-1.9368267059326172,6.331883430480957
1702056375203999500,6.10099951171875,4.29791259765625,-2.2307655811309814,6.372035980224609
1702056375220996900,6.117996826171875,3.9256772994995117,-2.523087501525879,6.310529708862305
1702056375237990100,6.134990234375,3.328465461730957,-2.7440686225891113,6.06361198425293
1702056375254985700,6.15198583984375,2.857333183288574,-3.031970739364624,5.803742408752441
1702056375271977700,6.168977783203125,2.68216609954834,-3.7164154052734375,5.576295852661133
1702056375288975000,6.18597509765625,2.2623414993286133,-4.253122329711914,5.334328651428223
1702056375305967600,6.202967529296875,1.227168083190918,-4.788730621337891,4.991442680358887
1702056375322960600,6.219960693359375,0.27471160888671875,-5.321494102478027,4.514830589294434
1702056375339958300,6.236958251953125,-0.1437840461730957,-5.825331687927246,3.9263248443603516
1702056375356951300,6.253951416015625,-0.14220142364501953,-6.176614284515381,3.2065200805664062
1702056375373944800,6.27094482421875,-0.45839357376098633,-6.5622382164001465,2.6621625423431396
1702056375390940200,6.287940185546875,-1.3091058731079102,-6.815995693206787,2.183793783187866
1702056375407933400,6.304933349609375,-2.4131455421447754,-6.760284423828125,1.553175926208496
1702056375424918300,6.321918212890625,-3.1004858016967773,-6.537668228149414,1.2295682430267334
1702056375441921800,6.338921875,-3.2186391353607178,-6.179830074310303,1.2630650997161865
1702056375458916000,6.355916015625,-2.9007222652435303,-5.941143989562988,1.3042011260986328
1702056375475911400,6.372911376953125,-2.794691562652588,-5.557011127471924,0.9233517646789551
1702056375492905700,6.38990576171875,-3.276909828186035,-5.464448928833008,0.6224031448364258
1702056375509899000,6.40689892578125,-3.117234706878662,-5.230356216430664,0.4266700744628906
1702056375526894600,6.42389453125,-3.2017436027526855,-5.002570152282715,-0.11649131774902344
1702056375543887400,6.440887451171875,-3.199125051498413,-4.714915752410889,-0.5377378463745117
1702056375560882000,6.4578818359375,-3.144709825515747,-4.285737991333008,-0.8090353012084961
1702056375577877200,6.474877197265625,-3.2354843616485596,-3.8209638595581055,-1.6605606079101562
1702056375594871800,6.491871826171875,-2.620936393737793,-3.6569786071777344,-2.7308807373046875
1702056375611864600,6.508864501953125,-2.0805861949920654,-3.5242416858673096,-3.5457420349121094
1702056375628859100,6.525859130859375,-2.0651984214782715,-3.360239028930664,-4.425716400146484
1702056375645854500,6.5428544921875,-2.04921293258667,-3.2233879566192627,-5.296875953674316
1702056375662849000,6.55984912109375,-1.9492264986038208,-3.02256441116333,-5.925996780395508
1702056375679841800,6.576841796875,-1.9347660541534424,-2.9090635776519775,-6.095606803894043
1702056375696837400,6.59383740234375,-1.9857251644134521,-2.9526736736297607,-5.8461103439331055
1702056375713832700,6.610832763671875,-1.8360576629638672,-3.0646615028381348,-5.956711769104004
1702056375730824200,6.62782421875,-1.8486849069595337,-3.038125991821289,-6.239251136779785
1702056375747819000,6.644819091796875,-2.114306926727295,-2.8984251022338867,-6.398353576660156
1702056375764814600,6.661814697265625,-2.4481821060180664,-2.8845295906066895,-6.4666900634765625
1702056375781807900,6.678807861328125,-2.5750784873962402,-2.989534854888916,-6.658987045288086
1702056375798803500,6.695803466796875,-2.7205514907836914,-3.1213371753692627,-6.707175254821777
1702056375815796200,6.712796142578125,-2.9532525539398193,-3.343374490737915,-6.472413063049316
1702056375832791800,6.729791748046875,-2.8862035274505615,-3.7467527389526367,-6.053516387939453
1702056375849785000,6.74678515625,-2.851224422454834,-4.1449456214904785,-5.4613142013549805
1702056375866780700,6.76378076171875,-2.880971908569336,-4.6700239181518555,-4.8185014724731445
1702056375883773400,6.7807734375,-2.7186546325683594,-5.156757354736328,-4.423687934875488
1702056375900769000,6.79776904296875,-2.676051616668701,-5.600313663482666,-4.162517547607422
1702056375917763000,6.81476318359375,-2.6596715450286865,-5.952460289001465,-3.6656970977783203
1702056375934756900,6.8317568359375,-2.6441664695739746,-6.313477516174316,-3.0463008880615234
1702056375951750100,6.848750244140625,-2.5645477771759033,-6.812277793884277,-2.4254794120788574
1702056375968746800,6.865746826171875,-2.562169075012207,-7.0554656982421875,-1.5694069862365723
1702056375985739500,6.882739501953125,-2.9554738998413086,-7.112900257110596,-0.6531085968017578
1702056376002735000,6.899735107421875,-3.1984667778015137,-7.045478820800781,0.1313638687133789
1702056376019727600,6.9167275390625,-2.963623523712158,-6.962646961212158,0.8026094436645508
1702056376036723500,6.933723388671875,-2.9490723609924316,-6.7744903564453125,1.1850919723510742
1702056376053716500,6.950716552734375,-2.8733887672424316,-6.672865867614746,1.7395150661468506
1702056376070712300,6.96771240234375,-2.4126579761505127,-6.112322807312012,2.4292335510253906
1702056376087704800,6.984704833984375,-1.644331932067871,-5.578761100769043,2.7679526805877686
1702056376104683000,7.00168310546875,-0.7472152709960938,-5.345749378204346,2.8876166343688965
1702056376121693700,7.018693603515625,-0.4542350769042969,-5.071260452270508,3.0758771896362305
1702056376138689500,7.035689453125,-0.5782961845397949,-4.755368709564209,3.466458797454834
1702056376155668500,7.05266845703125,-0.6511483192443848,-4.3616251945495605,3.772045612335205
1702056376172677600,7.069677734375,-0.19705915451049805,-4.228085994720459,4.109271049499512
1702056376189671200,7.086671142578125,0.8693037033081055,-4.106987953186035,4.290489673614502
1702056376206663400,7.103663330078125,1.9600715637207031,-3.9343316555023193,4.491109848022461
1702056376223662800,7.120662841796875,2.3946304321289062,-3.5546791553497314,4.992444038391113
1702056376240654800,7.13765478515625,2.5353269577026367,-3.1241393089294434,5.617428302764893
1702056376257648000,7.154648193359375,3.2034521102905273,-2.7381529808044434,6.157956600189209
1702056376274637600,7.171637451171875,4.34532356262207,-2.3147590160369873,6.226600170135498
1702056376291634000,7.188634033203125,5.142267227172852,-2.047193765640259,6.085726737976074
1702056376308635000,7.205634765625,5.341231346130371,-1.7846430540084839,6.028258323669434
1702056376325624600,7.22262451171875,5.1540422439575195,-1.6816065311431885,6.112820148468018
1702056376342621700,7.23962158203125,4.7163801193237305,-1.797881841659546,6.502622127532959
1702056376359604700,7.256604736328125,4.729038238525391,-1.7963628768920898,6.994970798492432
1702056376376609300,7.273609375,5.30562686920166,-1.3076475858688354,7.405134201049805
1702056376393600300,7.290600341796875,6.40397834777832,-1.3395378589630127,7.640203952789307
1702056376410600400,7.307600341796875,7.083648681640625,-1.6129395961761475,7.07124137878418
1702056376427591000,7.3245908203125,6.489304542541504,-2.143012523651123,6.226973533630371
1702056376444586500,7.34158642578125,4.783154487609863,-2.554429531097412,5.296902179718018
1702056376461579800,7.358579833984375,2.7751235961914062,-2.7703118324279785,4.75423526763916
1702056376478575600,7.37557568359375,1.5091972351074219,-2.8635129928588867,4.4751667976379395
1702056376495568000,7.39256787109375,1.303849220275879,-3.000610113143921,4.154623031616211
1702056376512563500,7.4095634765625,1.5273303985595703,-3.2317023277282715,3.8206045627593994
1702056376529557000,7.426556884765625,1.6921625137329102,-3.6217141151428223,3.593724489212036
1702056376546566000,7.44356591796875,1.5609917640686035,-4.460536956787109,3.6792595386505127
1702056376563545300,7.46054541015625,0.7176322937011719,-5.545746803283691,3.979227066040039
1702056376580531000,7.477531005859375,-0.26742076873779297,-6.41866397857666,4.171133041381836
1702056376597534200,7.4945341796875,-0.8580398559570312,-6.936293125152588,4.227299690246582
1702056376614529800,7.51152978515625,-0.6945948600769043,-7.312438488006592,4.062280178070068
1702056376631522600,7.5285224609375,-0.2787966728210449,-7.8610076904296875,3.7212796211242676
1702056376648518400,7.545518310546875,-0.12418413162231445,-8.467150688171387,3.2636666297912598
1702056376665508900,7.5625087890625,-1.0450477600097656,-8.832656860351562,2.5326504707336426
1702056376682509600,7.579509521484375,-2.309248447418213,-8.710284233093262,1.9822001457214355
1702056376699489300,7.5964892578125,-3.154463291168213,-8.178662300109863,1.453911304473877
1702056376716495400,7.613495361328125,-3.9081525802612305,-7.613760948181152,0.27008962631225586
1702056376733488600,7.630488525390625,-3.8623552322387695,-7.1015472412109375,-0.9027304649353027
1702056376750481400,7.6474814453125,-3.493321180343628,-6.46006965637207,-1.8075957298278809
1702056376767479600,7.6644794921875,-2.9805495738983154,-5.924729824066162,-1.9131183624267578
1702056376784471800,7.681471923828125,-2.8585877418518066,-5.037173271179199,-2.0091962814331055
1702056376801465900,7.6984658203125,-3.2628347873687744,-4.520278453826904,-3.0905113220214844
1702056376818461200,7.715461181640625,-3.1333067417144775,-4.325697898864746,-4.678010940551758
1702056376835454200,7.7324541015625,-2.489546060562134,-4.18267822265625,-6.051811218261719
1702056376852449800,7.74944970703125,-2.328967332839966,-4.007360935211182,-7.170429229736328
1702056376869442800,7.76644287109375,-3.013033390045166,-3.7585721015930176,-7.899772644042969
1702056376886428200,7.78342822265625,-3.5885848999023438,-3.572052001953125,-8.346315383911133
1702056376903433500,7.80043359375,-3.3219845294952393,-3.4807658195495605,-8.797074317932129
1702056376920424700,7.8174248046875,-2.596532106399536,-3.5009679794311523,-8.979840278625488
1702056376937419500,7.83441943359375,-2.2366230487823486,-3.4773762226104736,-8.782136917114258
1702056376954416400,7.85141650390625,-2.165040969848633,-3.3578619956970215,-8.268680572509766
1702056376971408400,7.868408447265625,-2.498979091644287,-3.330660820007324,-7.856037139892578
1702056376988404000,7.885404052734375,-2.7006125450134277,-3.313932180404663,-7.401466369628906
1702056377005393200,7.90239306640625,-2.8919763565063477,-3.398888349533081,-6.744030952453613
1702056377022395100,7.91939501953125,-2.8975892066955566,-3.536106586456299,-6.016009330749512
1702056377039385600,7.936385498046875,-2.7907676696777344,-3.7960524559020996,-5.310737609863281
1702056377056381200,7.953381103515625,-2.735921621322632,-4.108591079711914,-4.799335479736328
1702056377073374500,7.97037451171875,-2.796426773071289,-4.481418609619141,-4.423057556152344
1702056377090370000,7.9873701171875,-3.020681381225586,-4.919191360473633,-3.82647705078125
1702056377107363000,8.004363037109375,-3.2900357246398926,-5.343868255615234,-2.8839988708496094
1702056377124355800,8.02135595703125,-3.225891590118408,-5.639986515045166,-2.0652008056640625
1702056377141354200,8.038354248046875,-2.876742124557495,-6.0084967613220215,-1.721285343170166
1702056377158347300,8.05534716796875,-2.6392717361450195,-6.2847700119018555,-1.231419563293457
1702056377175340000,8.072340087890625,-2.8733439445495605,-6.528849124908447,-0.3607344627380371
1702056377192335600,8.089335693359375,-3.263272523880005,-6.66508150100708,0.44085073471069336
1702056377209329000,8.106328857421875,-3.5220589637756348,-6.619953155517578,0.9370937347412109
1702056377226322200,8.123322265625,-3.341309070587158,-6.600610733032227,1.3885328769683838
1702056377243317200,8.140317138671875,-2.9430103302001953,-6.490608215332031,1.9659340381622314
1702056377260312800,8.157312744140626,-2.779003858566284,-6.208988189697266,2.4236106872558594
1702056377277306000,8.17430615234375,-2.252985954284668,-5.854093551635742,2.7843894958496094
1702056377294301700,8.1913017578125,-1.3229007720947266,-5.483518600463867,3.1363742351531982
1702056377311294500,8.20829443359375,-0.5822653770446777,-4.965490818023682,3.477518320083618
1702056377328290000,8.2252900390625,-0.5294084548950195,-4.601742744445801,3.7946295738220215
1702056377345272800,8.24227294921875,-0.5501995086669922,-4.202346324920654,4.249384880065918
1702056377362278700,8.259278564453124,-0.6432390213012695,-3.8187150955200195,5.0258660316467285
1702056377379271400,8.276271484375,0.048778533935546875,-3.391796588897705,6.239001274108887
1702056377396267000,8.29326708984375,1.384836196899414,-2.942431926727295,7.537541389465332
1702056377413250300,8.310250244140626,2.9108786582946777,-2.3837599754333496,8.3101167678833
1702056377430256000,8.327256103515625,4.34565544128418,-1.8587613105773926,8.518730163574219
1702056377447248600,8.34424853515625,4.934723854064941,-1.298600673675537,8.005680084228516
1702056377464234000,8.36123388671875,4.817253112792969,-0.8610563278198242,7.205874443054199
1702056377481237500,8.378237548828125,4.5102128982543945,-0.6327683925628662,6.524717330932617
1702056377498223900,8.395223876953125,4.691518783569336,-0.604928731918335,6.215837478637695
1702056377515226600,8.4122265625,5.29975700378418,-0.7549567222595215,6.140078544616699
1702056377532220700,8.429220703125,5.68405818939209,-0.8490357398986816,6.106453895568848
1702056377549214700,8.446214599609375,5.671771049499512,-0.9283299446105957,5.906623840332031
1702056377566209500,8.46320947265625,5.1904096603393555,-1.0015912055969238,5.697836875915527
1702056377583194600,8.480194580078125,4.445534706115723,-1.0403594970703125,5.451725959777832
1702056377600192000,8.49719189453125,3.8103818893432617,-1.2605211734771729,5.2305498123168945
1702056377617194500,8.514194580078126,3.4928388595581055,-1.7278814315795898,5.169537544250488
1702056377634187500,8.5311875,3.331918716430664,-2.144770622253418,5.169642448425293
1702056377651180300,8.54818017578125,2.975710868835449,-2.4363412857055664,5.089233875274658
1702056377668176000,8.56517578125,2.192896842956543,-2.6374354362487793,5.0068359375
1702056377685169200,8.582169189453126,1.0723628997802734,-3.0741007328033447,4.923908233642578
1702056377702164700,8.599164794921874,0.24213075637817383,-3.6956448554992676,4.63631534576416
1702056377719147300,8.616147216796875,-0.09234619140625,-4.4229326248168945,4.137832164764404
1702056377736153000,8.633153076171874,-0.08270454406738281,-5.003223419189453,3.5654449462890625
1702056377753146400,8.650146484375,0.05436134338378906,-5.249957084655762,3.1154441833496094
1702056377770139400,8.667139404296876,-0.14319467544555664,-5.495303153991699,3.1657161712646484
1702056377787136300,8.68413623046875,-0.7578439712524414,-5.90341854095459,3.5500245094299316
1702056377804129300,8.70112939453125,-1.473005771636963,-6.334368705749512,3.774837017059326
1702056377821123300,8.718123291015624,-1.8867087364196777,-6.681636333465576,3.459782123565674
1702056377838119200,8.735119140625,-2.042661190032959,-7.0682053565979,2.5968940258026123
1702056377855112000,8.75211181640625,-1.922330379486084,-7.340702533721924,1.9145722389221191
1702056377872107500,8.769107421875,-2.0324738025665283,-7.21238374710083,1.2586054801940918
1702056377889100500,8.7861005859375,-2.2811481952667236,-6.906722068786621,0.45476627349853516
1702056377906097400,8.803097412109375,-2.380598783493042,-6.36417818069458,-0.6601386070251465
1702056377923088100,8.820088134765625,-2.344740629196167,-5.617757320404053,-1.7789397239685059
1702056377940084500,8.83708447265625,-2.2908825874328613,-4.80043363571167,-2.9267873764038086
1702056377957077800,8.854077880859375,-2.314178466796875,-4.255521774291992,-3.8864707946777344
1702056377974073300,8.8710732421875,-2.4058303833007812,-3.876293897628784,-4.655856132507324
1702056377991066000,8.888066162109375,-2.567889928817749,-3.7431678771972656,-5.2924041748046875
1702056378008062000,8.90506201171875,-2.6424715518951416,-3.52860164642334,-5.691802024841309
1702056378025055000,8.922054931640625,-2.6160924434661865,-3.3678131103515625,-5.828128814697266
1702056378042041900,8.939041748046876,-2.2372143268585205,-3.414188861846924,-5.64411735534668
1702056378059032000,8.956031982421875,-1.5718477964401245,-3.480247974395752,-5.491023063659668
1702056378076035300,8.973035400390625,-1.1086313724517822,-3.5705325603485107,-5.67486572265625
1702056378093032400,8.990032470703126,-1.3148927688598633,-3.580040454864502,-6.314794540405273
1702056378110027500,9.007027587890626,-2.288147211074829,-3.419027805328369,-7.171095848083496
1702056378127020500,9.0240205078125,-3.3479971885681152,-3.3750813007354736,-7.971162796020508
1702056378144016100,9.04101611328125,-3.8414149284362793,-3.545668840408325,-8.466835021972656
1702056378161009400,9.058009521484376,-3.5769598484039307,-3.9645113945007324,-8.357501029968262
1702056378178005000,9.0750048828125,-2.8061773777008057,-4.336638450622559,-7.647980690002441
1702056378194997500,9.09199755859375,-2.290243625640869,-4.512327194213867,-6.8816938400268555
1702056378211993300,9.108993408203125,-2.3426895141601562,-4.741304874420166,-6.099715232849121
1702056378228986600,9.125986572265624,-2.2956573963165283,-4.922904014587402,-5.241533279418945
1702056378245982000,9.14298193359375,-2.2356600761413574,-5.2710113525390625,-4.624141693115234
1702056378262974700,9.159974609375,-2.312953233718872,-5.856457710266113,-4.041817665100098
1702056378279970300,9.17697021484375,-2.595907688140869,-6.304028034210205,-3.0007901191711426
1702056378296966700,9.193966552734375,-2.811856269836426,-6.45573616027832,-1.838975429534912
1702056378313956000,9.2109560546875,-2.7008767127990723,-6.421597957611084,-0.9818439483642578
1702056378330952000,9.227951904296875,-2.318331718444824,-6.404616832733154,-0.43892478942871094
1702056378347947500,9.244947509765625,-2.059709072113037,-6.317324161529541,-0.009815216064453125
1702056378364940800,9.26194091796875,-2.46055269241333,-6.186952590942383,0.4295992851257324
1702056378381936400,9.278936279296875,-3.0715653896331787,-6.0381693840026855,0.8243541717529297
1702056378398929200,9.29592919921875,-3.4349875450134277,-5.936331748962402,0.9180276393890381
1702056378415924700,9.3129248046875,-3.2251412868499756,-6.026817798614502,0.8468611240386963
1702056378432918000,9.32991796875,-2.7010390758514404,-6.060763359069824,0.9506790637969971
1702056378449913600,9.34691357421875,-2.3838939666748047,-6.23326301574707,0.9017699956893921
1702056378466906400,9.36390625,-1.9962372779846191,-6.489595413208008,1.636534333229065
1702056378483902000,9.38090185546875,-1.4094347953796387,-6.051515102386475,3.2197296619415283
1702056378500895200,9.397895263671876,-0.7538094520568848,-5.259173393249512,4.096138954162598
1702056378517890800,9.414890869140624,0.2695198059082031,-5.043377876281738,4.058510780334473
1702056378534880800,9.431880859375,2.178375244140625,-5.001656532287598,5.659380912780762
1702056378551881700,9.4488818359375,3.7006945610046387,-3.9323348999023438,7.829148292541504
1702056378568872400,9.46587255859375,4.1267499923706055,-2.7558960914611816,8.5751371383667
1702056378585867800,9.48286767578125,3.678218364715576,-1.8441452980041504,7.750360012054443
1702056378602860500,9.499860595703124,3.0980052947998047,-1.2390375137329102,6.709903717041016
1702056378619856100,9.516856201171874,2.589034080505371,-0.7085967063903809,6.370591163635254
1702056378636839000,9.5338388671875,2.294558525085449,-0.32173871994018555,6.561532020568848
1702056378653845000,9.550844970703125,2.4906725883483887,-0.06965017318725586,6.600747108459473
1702056378670837800,9.567837646484374,3.069836139678955,0.15526866912841797,6.5320281982421875
1702056378687835100,9.584835205078125,3.6379032135009766,0.1969466209411621,6.618834972381592
1702056378704820000,9.601820068359375,4.02630615234375,0.1458749771118164,6.730989456176758
1702056378721823500,9.618823486328125,4.536640167236328,0.03670787811279297,6.732093811035156
1702056378738813700,9.635813720703124,4.667186260223389,-0.11636161804199219,6.838657379150391
1702056378755800000,9.652800048828125,4.575445175170898,-0.23498201370239258,6.919508934020996
1702056378772803800,9.669803955078125,4.265032768249512,-0.46935081481933594,6.930992603302002
1702056378789799400,9.68679931640625,3.720478057861328,-0.7756128311157227,6.921936988830566
1702056378806792200,9.703792236328125,3.030014991760254,-1.0643672943115234,6.786694526672363
1702056378823787800,9.720787841796875,2.541623592376709,-1.4746723175048828,6.498173713684082
1702056378840781000,9.737781005859375,2.153388023376465,-1.9130518436431885,6.1858720779418945
1702056378857776600,9.754776611328126,1.7525148391723633,-2.480046272277832,5.923620223999023
1702056378874769400,9.771769287109375,1.2751121520996094,-3.170142650604248,5.649548053741455
1702056378891765000,9.788764892578126,0.7162017822265625,-3.856165647506714,5.167827129364014
1702056378908758500,9.805758544921876,0.20473861694335938,-4.350557327270508,4.476542949676514
1702056378925732900,9.82273291015625,-0.31307172775268555,-4.524956226348877,3.6924872398376465
1702056378942749000,9.8397490234375,-0.6576108932495117,-4.808433532714844,3.143768787384033
1702056378959741700,9.85674169921875,-0.9807467460632324,-5.328246116638184,2.73911452293396
1702056378976735200,9.8737353515625,-1.1176161766052246,-5.81544303894043,2.508999824523926
1702056378993730800,9.890730712890624,-1.366590976715088,-6.163039207458496,2.383449077606201
1702056379010723600,9.9077236328125,-1.686854600906372,-6.269427299499512,2.1996123790740967
1702056379027719400,9.924719482421875,-2.01180362701416,-6.393593788146973,2.084263324737549
1702056379044712400,9.94171240234375,-2.5041840076446533,-6.501193046569824,1.8679282665252686
1702056379061708000,9.9587080078125,-2.84824800491333,-6.4015302658081055,1.7883756160736084
1702056379078703000,9.975703125,-3.0163259506225586,-6.115966796875,1.726891040802002
1702056379095691800,9.99269189453125,-3.2042062282562256,-5.9133172035217285,1.6491875648498535
1702056379112689700,10.009689697265625,-3.2042465209960938,-5.7492265701293945,1.2086496353149414
1702056379129682700,10.0266826171875,-3.232288122177124,-5.550278186798096,0.43094539642333984
1702056379146680600,10.0436806640625,-3.0665698051452637,-5.178836822509766,-0.312835693359375
1702056379163673900,10.060673828125,-3.0008933544158936,-4.759525299072266,-1.157679557800293
1702056379180666600,10.07766650390625,-3.2899539470672607,-4.296759605407715,-2.2453880310058594
1702056379197662200,10.094662109375,-3.7443251609802246,-3.8068580627441406,-3.42318058013916
1702056379214655000,10.111655029296875,-3.7238237857818604,-3.644653558731079,-4.766218185424805
1702056379231650800,10.12865087890625,-3.2153258323669434,-3.5168838500976562,-5.984094619750977
1702056379248643800,10.145643798828125,-2.7226710319519043,-3.450291633605957,-6.881313323974609
1702056379265639400,10.162639404296876,-2.4513967037200928,-3.427577018737793,-7.551918029785156
1702056379282621700,10.17962158203125,-2.165663719177246,-3.5247533321380615,-8.161568641662598
1702056379299627800,10.196627685546876,-1.923527717590332,-3.664994716644287,-8.876952171325684
1702056379316621000,10.21362109375,-1.871750831604004,-3.78261661529541,-9.60021686553955
1702056379333614000,10.230614013671875,-1.9529509544372559,-3.959883451461792,-9.507522583007812
1702056379350612200,10.2476123046875,-1.933035135269165,-4.072086811065674,-8.633320808410645
1702056379367602400,10.2646025390625,-1.6848477125167847,-4.220040321350098,-7.790800094604492
1702056379384598300,10.281598388671876,-1.4855116605758667,-4.346704483032227,-7.231447219848633
1702056379401593900,10.29859375,-1.5924553871154785,-4.619009017944336,-6.701813697814941
1702056379418586600,10.315586669921874,-1.8637926578521729,-4.929150581359863,-5.951559066772461
1702056379435582200,10.332582275390624,-1.9975073337554932,-5.195225715637207,-4.879123687744141
1702056379452575200,10.3495751953125,-2.1437923908233643,-5.363577842712402,-3.9644622802734375
1702056379469566200,10.366566162109375,-2.2707901000976562,-5.5205488204956055,-3.3557910919189453
1702056379486568200,10.383568115234375,-2.550431251525879,-5.768045425415039,-2.757648468017578
1702056379503558100,10.40055810546875,-2.9090921878814697,-5.926202297210693,-1.7485766410827637
1702056379520555000,10.417554931640625,-3.201427936553955,-5.877580642700195,-0.6172447204589844
1702056379537546800,10.434546630859375,-3.236668825149536,-5.604274749755859,-0.05301237106323242
1702056379554540800,10.451540771484375,-3.0085926055908203,-5.594210624694824,-0.12430047988891602
1702056379571536400,10.468536376953125,-2.5826358795166016,-5.663418769836426,-0.08635568618774414
1702056379588527400,10.48552734375,-2.4876513481140137,-5.661531925201416,0.2891392707824707
1702056379605525200,10.502525146484375,-2.537839889526367,-5.540135860443115,0.6443281173706055
1702056379622518000,10.51951806640625,-2.5648138523101807,-5.240494251251221,0.5341973304748535
1702056379639513600,10.536513671875,-2.7167084217071533,-5.119216442108154,0.36438584327697754
1702056379656497000,10.553496826171875,-2.54276704788208,-5.068821430206299,0.5070466995239258
1702056379673502500,10.57050244140625,-2.406550168991089,-5.029276371002197,0.9682270288467407
1702056379690495200,10.5874951171875,-2.5458178520202637,-5.344032287597656,1.366270899772644
1702056379707490800,10.60449072265625,-2.5122997760772705,-5.756871223449707,2.151334047317505
1702056379724483800,10.62148388671875,-2.2126832008361816,-6.316510200500488,3.4865212440490723
1702056379741479700,10.638479736328126,-1.6228718757629395,-6.591683864593506,4.649529457092285
1702056379758472200,10.65547216796875,-0.017735958099365234,-6.310037136077881,5.32669734954834
1702056379775467800,10.6724677734375,2.275790214538574,-5.635594844818115,5.859808921813965
1702056379792461000,10.6894609375,4.310243129730225,-4.876014709472656,6.50154447555542
1702056379809446100,10.706446044921876,5.790064811706543,-3.8586087226867676,7.0315046310424805
1702056379826449400,10.723449462890626,6.240618705749512,-2.9193553924560547,7.476008892059326
1702056379843445000,10.740445068359374,5.970251083374023,-2.0551204681396484,7.65442419052124
1702056379860434200,10.75743408203125,5.306236267089844,-1.5778939723968506,7.622108459472656
1702056379877437700,10.774437744140625,4.6034440994262695,-1.2328219413757324,7.244753360748291
1702056379894426600,10.791426513671874,3.9926586151123047,-0.9315385818481445,6.7087249755859375
1702056379911422200,10.808422119140625,3.8069944381713867,-0.7626743316650391,6.130645275115967
1702056379928419800,10.825419921875,3.5963382720947266,-0.7282059192657471,5.68364143371582
1702056379945411000,10.8424111328125,3.849595069885254,-0.7884342670440674,5.506263732910156
1702056379962403600,10.859403564453125,4.307892799377441,-1.005615234375,5.562835216522217
1702056379979399200,10.876399169921875,4.629571914672852,-1.122971534729004,5.730664253234863
1702056379996392700,10.893392822265625,4.783727645874023,-1.3028135299682617,6.115655899047852
1702056380013385700,10.9103857421875,4.699308395385742,-1.5138111114501953,6.335396766662598
1702056380030378200,10.927378173828124,4.573098182678223,-1.9038853645324707,6.363365173339844
1702056380047376400,10.94437646484375,3.996344566345215,-2.358124256134033,6.324069976806641
1702056380064369700,10.96136962890625,3.2173142433166504,-2.6847691535949707,6.057868003845215
1702056380081365200,10.978365234375,2.7436113357543945,-2.9731874465942383,5.633352279663086
1702056380098358000,10.99535791015625,2.374459743499756,-3.2333059310913086,5.308857440948486
1702056380115353600,11.012353515625,1.6807503700256348,-3.512516498565674,5.013840198516846
1702056380132347000,11.029346923828125,0.8605566024780273,-3.891587495803833,4.75949239730835
1702056380149342500,11.046342529296876,0.22832775115966797,-4.344029426574707,4.296133995056152
1702056380166335000,11.0633349609375,-0.14673519134521484,-4.907169342041016,3.7698111534118652
1702056380183330600,11.08033056640625,-0.7507772445678711,-5.457762718200684,3.3493165969848633
1702056380200324000,11.097323974609376,-1.5146617889404297,-5.880989074707031,2.71374773979187
1702056380217317600,11.114317626953126,-2.246311664581299,-6.064611434936523,1.4257450103759766
1702056380234314000,11.13131396484375,-2.465765953063965,-6.077528476715088,0.5442812442779541
1702056380251304400,11.148304443359375,-2.0777363777160645,-5.787232398986816,0.8301925659179688
1702056380268304600,11.1653046875,-1.209075927734375,-5.41469669342041,1.2427682876586914
1702056380285290200,11.182290283203125,-1.290252923965454,-5.307844638824463,-0.28012657165527344
1702056380302286000,11.1992861328125,-1.481236457824707,-5.459928035736084,-1.5654182434082031
1702056380319285000,11.216284912109375,-1.6468868255615234,-5.347792625427246,-1.4604668617248535
1702056380336278300,11.2332783203125,-1.9087140560150146,-5.019324779510498,-0.4385662078857422
1702056380353273900,11.25027392578125,-1.9728139638900757,-4.709380149841309,0.8578586578369141
1702056380370266400,11.267266357421875,-2.114755392074585,-4.321269512176514,1.0143380165100098
1702056380387246300,11.284246337890625,-2.1145224571228027,-4.2911834716796875,-0.06270647048950195
1702056380404243500,11.301243408203124,-1.934719443321228,-4.193727970123291,-1.1950454711914062
1702056380421250800,11.318250732421875,-2.090052604675293,-4.061777114868164,-1.7415685653686523
1702056380438243600,11.33524365234375,-2.7033238410949707,-3.780707836151123,-1.8318805694580078
1702056380455230000,11.35222998046875,-3.294529438018799,-3.3270423412323,-2.2883100509643555
1702056380472232400,11.369232421875,-3.8965744972229004,-3.0970723628997803,-3.9453134536743164
1702056380489228000,11.38622802734375,-3.7092745304107666,-2.9608588218688965,-5.641590118408203
1702056380506221000,11.403220947265625,-3.402468204498291,-2.76827335357666,-6.519747734069824
1702056380523216100,11.420216064453125,-3.315168857574463,-2.5052809715270996,-6.638708114624023
1702056380540209700,11.437209716796875,-3.034872531890869,-2.264069080352783,-6.733948707580566
1702056380557205200,11.454205322265626,-2.7594637870788574,-2.1956915855407715,-7.529386520385742
1702056380574198000,11.471197998046875,-2.52333927154541,-2.4596171379089355,-8.524837493896484
1702056380591193600,11.488193603515626,-2.6135923862457275,-2.767904758453369,-9.293688774108887
1702056380608187000,11.505186767578126,-2.9107584953308105,-2.960416316986084,-9.134488105773926
1702056380625182500,11.522182373046874,-2.9927773475646973,-3.146026611328125,-8.356635093688965
1702056380642160400,11.539160400390625,-2.7237532138824463,-3.6094346046447754,-7.975859642028809
1702056380659175000,11.5561748046875,-2.3493499755859375,-4.238245964050293,-7.770648002624512
1702056380676163800,11.573163818359374,-2.1654698848724365,-4.956618309020996,-7.286789894104004
1702056380693159400,11.590159423828124,-2.289320230484009,-5.400084018707275,-6.421424865722656
1702056380710152200,11.607152099609374,-2.7059109210968018,-5.794191360473633,-5.431726455688477
1702056380727147800,11.624147705078125,-2.9138424396514893,-6.286306381225586,-4.6603288650512695
1702056380744141000,11.64114111328125,-2.9106833934783936,-6.955106258392334,-3.8269357681274414
1702056380761136400,11.658136474609375,-3.001209259033203,-7.592947483062744,-2.865591526031494
1702056380778119000,11.675118896484374,-3.3408865928649902,-8.2205228805542,-1.9725127220153809
1702056380795117000,11.692116943359375,-3.362360954284668,-8.558349609375,-0.8875765800476074
1702056380812118000,11.709117919921875,-3.0708327293395996,-8.464427947998047,0.2312908172607422
1702056380829110300,11.7261103515625,-2.8346524238586426,-8.248010635375977,0.9793047904968262
1702056380846110000,11.74310986328125,-2.621677875518799,-7.93149995803833,1.324589729309082
1702056380863102000,11.76010205078125,-2.091749429702759,-7.538103103637695,1.6013364791870117
1702056380880095200,11.77709521484375,-1.4948906898498535,-7.206047058105469,1.9287598133087158
1702056380897092900,11.7940927734375,-1.4121503829956055,-6.698046684265137,1.9269318580627441
1702056380914081800,11.811081787109375,-1.5534567832946777,-6.272541046142578,2.125786781311035
1702056380931079200,11.8280791015625,-1.4509897232055664,-5.690019130706787,2.6047937870025635
1702056380948072400,11.845072509765625,-1.2624306678771973,-5.154638290405273,3.111969232559204
1702056380965067800,11.86206787109375,-0.9300999641418457,-4.7509965896606445,3.8789899349212646
1702056380982060800,11.879060791015625,-0.5711503028869629,-4.540950298309326,4.936844348907471
1702056380999056400,11.896056396484376,0.1922469139099121,-4.294814109802246,5.916172027587891
1702056381016049400,11.91304931640625,1.0701265335083008,-3.8948168754577637,6.442103862762451
1702056381033042200,11.930042236328125,1.9395170211791992,-3.3735361099243164,6.564416885375977
1702056381050030000,11.947030029296876,3.00168514251709,-2.812361001968384,6.698031902313232
1702056381067033300,11.964033447265624,4.0215067863464355,-2.435969829559326,6.923386573791504
1702056381084026600,11.981026611328126,4.741702556610107,-2.386500358581543,6.983327865600586
1702056381101022200,11.998022216796874,5.096048831939697,-2.2636449337005615,7.160895347595215
1702056381118015000,12.015014892578124,4.948281288146973,-1.9919216632843018,7.489937782287598
1702056381135010600,12.032010498046875,4.719348907470703,-1.6715641021728516,7.8752641677856445
1702056381151993900,12.048993896484374,4.821606636047363,-1.6081047058105469,8.144217491149902
1702056381168999200,12.065999267578125,5.287239074707031,-1.7209856510162354,8.356266975402832
1702056381185992200,12.0829921875,5.6413984298706055,-1.8863654136657715,8.262222290039062
1702056381202987800,12.09998779296875,5.662100791931152,-1.9301657676696777,7.93367862701416
1702056381219980800,12.116980712890625,5.152139663696289,-2.185107469558716,7.678312301635742
1702056381236973800,12.133973876953124,4.294092178344727,-2.4170916080474854,7.605977535247803
1702056381253972000,12.150971923828125,3.440946578979492,-2.6353089809417725,7.629708290100098
1702056381270963000,12.167962890625,3.1656975746154785,-3.083649158477783,7.6790618896484375
1702056381287959600,12.18495947265625,2.9719200134277344,-3.5986087322235107,7.61149787902832
1702056381304953600,12.20195361328125,2.6818861961364746,-4.301187992095947,7.429104804992676
1702056381321946400,12.2189462890625,2.229126453399658,-5.087226390838623,7.032001495361328
1702056381338941700,12.235941650390625,1.6451830863952637,-5.724644184112549,6.287483215332031
1702056381355935000,12.25293505859375,0.8099141120910645,-6.327759742736816,5.271407127380371
1702056381372930800,12.269930908203126,-0.009837627410888672,-6.988187789916992,4.164602756500244
1702056381389923800,12.286923828125,-0.747408390045166,-7.309903144836426,3.251683235168457
1702056381406919200,12.303919189453126,-1.54587984085083,-7.360193729400635,2.7179512977600098
1702056381423910000,12.320909912109375,-2.0964436531066895,-7.435436725616455,2.3740391731262207
1702056381440910000,12.33791015625,-2.334956169128418,-7.55548620223999,1.9167996644973755
1702056381457900500,12.354900634765626,-2.622864007949829,-7.638675212860107,1.2512843608856201
1702056381474896100,12.371896240234374,-2.526931047439575,-7.520744323730469,0.5950350761413574
1702056381491889200,12.38888916015625,-2.1995837688446045,-6.91949987411499,-0.05042457580566406
1702056381508885000,12.405885009765624,-1.949277639389038,-6.491362571716309,-0.3022651672363281
1702056381525877000,12.422876953125,-1.99849534034729,-6.294967174530029,-0.47391271591186523
1702056381542873000,12.439873046875,-2.2041523456573486,-6.102456092834473,-0.7878265380859375
1702056381559866400,12.456866455078124,-2.4086334705352783,-5.8094353675842285,-1.1669459342956543
1702056381576862200,12.4738623046875,-2.260296583175659,-5.277304172515869,-1.7591681480407715
1702056381593854700,12.490854736328124,-2.311109781265259,-4.6546454429626465,-2.5832271575927734
1702056381610850300,12.507850341796875,-2.5837221145629883,-4.1449151039123535,-3.425877571105957
1702056381627843600,12.524843505859375,-2.7648582458496094,-3.741551160812378,-3.763308525085449
1702056381644834800,12.541834716796876,-2.3013782501220703,-3.494129180908203,-4.145904541015625
1702056381661835500,12.55883544921875,-1.4505583047866821,-3.525172710418701,-5.037515640258789
1702056381678827500,12.57582763671875,-0.9208376407623291,-3.449706792831421,-5.9942216873168945
1702056381695820800,12.59282080078125,-0.9680805206298828,-3.4642605781555176,-6.514165878295898
1702056381712816000,12.609816162109375,-1.0354586839675903,-3.439486026763916,-7.033185005187988
1702056381729798700,12.626798583984375,-1.2745074033737183,-3.496314525604248,-7.780448913574219
1702056381746804500,12.643804443359375,-1.747739315032959,-3.5802762508392334,-8.412835121154785
1702056381763797800,12.6607978515625,-2.1958560943603516,-3.6740641593933105,-8.700798988342285
1702056381780793300,12.67779345703125,-2.708820343017578,-3.64255690574646,-8.554596900939941
1702056381797786000,12.6947861328125,-3.1173253059387207,-3.5174808502197266,-7.889402389526367
1702056381814780000,12.71177978515625,-2.9782803058624268,-3.5124762058258057,-7.042189598083496
1702056381831776800,12.72877685546875,-2.5506246089935303,-3.6519768238067627,-6.416524887084961
1702056381848770300,12.745770263671876,-2.2666594982147217,-4.0087456703186035,-6.1305084228515625
1702056381865763000,12.76276318359375,-2.3541486263275146,-4.338818550109863,-6.035678863525391
1702056381882759000,12.779759033203124,-2.9071316719055176,-4.7743988037109375,-5.631573677062988
1702056381899752000,12.796751953125,-3.120897054672241,-5.214987277984619,-5.115835189819336
1702056381916747500,12.81374755859375,-2.595949649810791,-5.72515869140625,-4.713475227355957
1702056381933740300,12.830740234375,-2.025383949279785,-6.296498775482178,-4.1393938064575195
1702056381950736000,12.84773583984375,-2.097038745880127,-6.810079097747803,-3.0219945907592773
1702056381967729200,12.864729248046874,-2.351994514465332,-7.127725124359131,-1.46095609664917
1702056381984724700,12.881724853515625,-2.0144991874694824,-7.189785003662109,-0.3039999008178711
1702056382001714700,12.898714599609375,-1.6027300357818604,-7.099303722381592,0.06388092041015625
1702056382018713000,12.915713134765625,-1.813409686088562,-7.233124732971191,0.1923689842224121
1702056382035709000,12.932708984375,-2.3283896446228027,-7.371354103088379,0.7211625576019287
1702056382052701700,12.94970166015625,-2.761201858520508,-7.6562652587890625,1.6888898611068726
1702056382069694500,12.966694580078125,-2.562208414077759,-7.640079975128174,2.5645952224731445
1702056382086690000,12.98368994140625,-1.6663377285003662,-7.449154376983643,2.884336233139038
1702056382103683300,13.000683349609375,-0.9032068252563477,-7.166006088256836,2.512312650680542
1702056382120679000,13.017678955078125,-0.04157686233520508,-6.873161315917969,2.9912102222442627
1702056382137671400,13.03467138671875,0.585136890411377,-6.2388200759887695,4.115203857421875
1702056382154667300,13.051667236328125,0.2503199577331543,-5.082931041717529,4.417562484741211
1702056382171660500,13.06866064453125,-0.8816971778869629,-4.260921001434326,3.679453134536743
1702056382188656000,13.08565625,-1.3227343559265137,-3.8407249450683594,3.1817612648010254
1702056382205647600,13.102647705078125,-0.8239517211914062,-3.4027929306030273,3.5834596157073975
1702056382222645800,13.119645751953126,-0.3992800712585449,-2.6085290908813477,4.539997100830078
1702056382239637500,13.136637451171875,-0.08379220962524414,-2.0475149154663086,5.59694766998291
1702056382256633000,13.153633056640626,0.05623483657836914,-1.565314769744873,6.514930725097656
1702056382273625900,13.1706259765625,0.7008566856384277,-1.160377025604248,7.282563209533691
1702056382290621400,13.187621337890626,1.855748176574707,-0.8987412452697754,8.148561477661133
1702056382307614700,13.20461474609375,2.954113483428955,-0.45145463943481445,9.021154403686523
1702056382324610300,13.2216103515625,3.850264072418213,-0.14154338836669922,9.50364875793457
1702056382341602800,13.238602783203126,4.7061638832092285,-0.16379308700561523,9.559197425842285
1702056382358598700,13.2555986328125,5.123893737792969,-0.07118844985961914,9.272809982299805
1702056382375591700,13.272591796875,5.091944694519043,0.036261558532714844,8.89529800415039
1702056382392584700,13.289584716796876,4.86059045791626,-0.18234038352966309,8.600691795349121
1702056382409582600,13.30658251953125,4.780082702636719,-0.43408703804016113,8.292567253112793
1702056382426575600,13.32357568359375,4.829168319702148,-0.23557758331298828,7.706012725830078
1702056382443569000,13.34056884765625,4.432756423950195,-0.2826685905456543,7.494805335998535
1702056382460564200,13.357564208984375,3.711970806121826,-0.7054715156555176,7.589836597442627
1702056382477557200,13.37455712890625,2.699601650238037,-1.1925740242004395,7.8314995765686035
1702056382494552600,13.391552490234375,1.716097354888916,-1.7879533767700195,7.916817665100098
1702056382511535600,13.40853564453125,1.2490687370300293,-2.5665950775146484,7.68410062789917
1702056382528531000,13.425531005859375,1.0983314514160156,-2.9798882007598877,7.065527439117432
1702056382545534200,13.4425341796875,0.760587215423584,-3.505347490310669,6.443995475769043
1702056382562529800,13.45952978515625,0.5791959762573242,-4.240084648132324,5.895023345947266
1702056382579523000,13.476523193359375,0.18972158432006836,-5.01984977722168,5.303614139556885
1702056382596517600,13.493517578125,-0.3853926658630371,-5.495210647583008,4.555503845214844
1702056382613512400,13.510512451171875,-1.2136330604553223,-5.712850093841553,3.6076579093933105
1702056382630507000,13.527507080078125,-2.014718532562256,-6.079531669616699,2.8141632080078125
1702056382647500000,13.5445,-2.0732932090759277,-6.655817985534668,2.742000102996826
1702056382664495600,13.56149560546875,-1.458728313446045,-7.043276786804199,2.883296489715576
1702056382681488400,13.57848828125,-1.0331716537475586,-7.191105365753174,2.4845242500305176
1702056382698484000,13.59548388671875,-0.799476146697998,-7.319027423858643,1.7260048389434814
1702056382715477200,13.612477294921876,-0.9351744651794434,-7.349441051483154,0.713686466217041
1702056382732472800,13.629472900390626,-1.4519357681274414,-7.247250556945801,-0.003940582275390625
1702056382749465600,13.646465576171876,-2.133310079574585,-6.630349636077881,-0.09772920608520508
1702056382766461200,13.663461181640624,-3.027120590209961,-6.049261569976807,-0.06534194946289062
1702056382783454500,13.680454345703126,-3.5490050315856934,-5.5305280685424805,-0.2754979133605957
1702056382800450000,13.697449951171874,-3.397372245788574,-5.019765377044678,-0.6353597640991211
1702056382817442600,13.714442626953126,-2.897183895111084,-4.6638922691345215,-1.115297794342041
1702056382834438400,13.7314384765625,-2.4288504123687744,-4.312163352966309,-1.708724021911621
1702056382851431400,13.748431396484374,-2.208590507507324,-3.9907166957855225,-2.563288688659668
1702056382868427000,13.765427001953125,-2.3546407222747803,-3.5297014713287354,-3.655348777770996
1702056382885419800,13.782419677734374,-2.693532943725586,-3.113391399383545,-4.763592720031738
1702056382902415400,13.799415283203125,-2.750850200653076,-2.9315438270568848,-5.700441360473633
1702056382919408400,13.816408447265625,-2.487532615661621,-2.9605765342712402,-6.301321983337402
1702056382936404200,13.833404296875,-2.5606956481933594,-2.6296257972717285,-6.1968488693237305
1702056382953396700,13.850396728515625,-2.651017665863037,-2.471129894256592,-5.602416038513184
1702056382970392300,13.867392333984375,-1.8826805353164673,-2.6302614212036133,-5.309337615966797
1702056382987385300,13.88438525390625,-1.0439162254333496,-2.7920989990234375,-5.637521743774414
1702056383004368000,13.901367919921874,-1.074409008026123,-2.8479387760162354,-6.178184509277344
1702056383021369900,13.918369873046874,-1.9164719581604004,-2.6851210594177246,-6.3122968673706055
1702056383038375200,13.935375244140625,-2.583846092224121,-2.644400119781494,-6.051460266113281
1702056383055358700,13.952358642578124,-2.145577907562256,-2.8364882469177246,-5.834355354309082
1702056383072358400,13.9693583984375,-1.2303357124328613,-3.1476383209228516,-5.6793060302734375
1702056383089351000,13.986350830078125,-0.8504073619842529,-3.4011127948760986,-5.626827239990234
1702056383106346800,14.0033466796875,-0.9700815677642822,-3.6537675857543945,-5.625184059143066
1702056383123321900,14.02032177734375,-1.424912452697754,-3.916109561920166,-5.331242561340332
1702056383140335600,14.037335693359376,-1.8466687202453613,-4.304950714111328,-5.021665573120117
1702056383157320400,14.054320556640626,-1.909740924835205,-4.882147789001465,-4.707735061645508
1702056383174318000,14.071318115234375,-1.786336898803711,-5.210426330566406,-4.220746994018555
1702056383191320000,14.088320068359375,-2.148195266723633,-5.393929481506348,-3.481996536254883
1702056383208307200,14.10530712890625,-2.324660301208496,-5.617101192474365,-2.6004762649536133
1702056383225305000,14.12230517578125,-2.2101049423217773,-5.817199230194092,-2.1803336143493652
1702056383242297900,14.1392978515625,-1.9932048320770264,-6.09470272064209,-2.3110756874084473
1702056383259297000,14.156297119140625,-2.205176830291748,-6.307406425476074,-1.9885058403015137
1702056383276289800,14.173289794921875,-2.7884647846221924,-6.374001979827881,-0.8523349761962891
1702056383293282300,14.1902822265625,-3.108889102935791,-6.133983135223389,0.20943355560302734
1702056383310278000,14.20727783203125,-2.8716416358947754,-5.691777229309082,0.4517068862915039
1702056383327271200,14.224271240234375,-2.728996753692627,-5.706433296203613,0.4589722156524658
1702056383344266800,14.241266845703125,-2.640913248062134,-5.603097915649414,1.2014389038085938
1702056383361256700,14.258256591796876,-2.4583020210266113,-5.1505327224731445,2.0758426189422607
1702056383378257700,14.275257568359375,-2.035860776901245,-4.75100040435791,2.2902770042419434
1702056383395238000,14.29223779296875,-1.5794873237609863,-4.614414691925049,2.2827138900756836
1702056383412242000,14.309241943359375,-1.3014655113220215,-4.819597244262695,2.526210069656372
1702056383429236500,14.326236572265625,-1.1007695198059082,-5.116353988647461,3.053123712539673
1702056383446229200,14.343229248046875,-0.7849502563476562,-5.149474143981934,3.9024901390075684
1702056383463225300,14.360225341796875,0.0023889541625976562,-4.737139701843262,5.084320068359375
1702056383480220700,14.377220703125,1.3639774322509766,-4.351232528686523,6.052099227905273
1702056383497213400,14.39421337890625,3.34818696975708,-4.370144367218018,6.900035381317139
1702056383514206700,14.411206787109375,4.746163368225098,-3.691706657409668,7.720737934112549
1702056383531204900,14.428204833984376,5.013152122497559,-2.705233573913574,7.597818374633789
1702056383548198000,14.445197998046876,4.456272125244141,-1.9193682670593262,6.834339141845703
1702056383565190700,14.462190673828125,3.451470375061035,-1.4004697799682617,5.7930378913879395
1702056383582186200,14.479186279296876,2.6068544387817383,-0.9480419158935547,4.934849262237549
1702056383599179500,14.496179443359376,2.3388471603393555,-0.6928529739379883,4.874979496002197
1702056383616174800,14.5131748046875,2.239130973815918,-0.35788583755493164,5.488211631774902
1702056383633167600,14.530167724609376,2.2292957305908203,0.09689521789550781,6.123361587524414
1702056383650163200,14.5471630859375,2.704435348510742,0.34169530868530273,6.559601306915283
1702056383667156500,14.564156494140626,3.4816293716430664,0.209381103515625,6.802718162536621
1702056383684152000,14.581152099609374,3.8763561248779297,0.0021424293518066406,6.79962158203125
1702056383701144800,14.598144775390624,4.044923782348633,-0.27762317657470703,6.742612838745117
1702056383718137900,14.615137939453126,3.99163818359375,-0.3514537811279297,6.635831356048584
1702056383735136000,14.632135986328125,3.832369804382324,-0.5401787757873535,6.584931373596191
1702056383752129000,14.64912890625,3.6363744735717773,-0.9418668746948242,6.807060718536377
1702056383769121800,14.666121826171874,3.2392044067382812,-1.5095560550689697,7.262105464935303
1702056383786117400,14.683117431640625,2.7103748321533203,-2.1527047157287598,7.548798561096191
1702056383803110700,14.700110595703125,2.4565601348876953,-2.9671216011047363,7.447319984436035
1702056383820106200,14.717106201171875,2.428678035736084,-3.5883126258850098,7.059650897979736
1702056383837099300,14.734099365234375,2.059462547302246,-4.08171272277832,6.404566764831543
1702056383854094600,14.751094482421875,1.3905487060546875,-4.633281707763672,5.660409927368164
1702056383871087600,14.768087646484375,0.7196121215820312,-5.360180854797363,5.01739501953125
1702056383888081000,14.785080810546875,0.056208133697509766,-5.9677653312683105,4.320883274078369
1702056383905078800,14.802078857421876,-0.727938175201416,-6.482609748840332,3.6517040729522705
1702056383922072000,14.819072021484375,-1.5621533393859863,-6.821933746337891,3.2794337272644043
1702056383939064800,14.83606494140625,-2.284176826477051,-7.092531681060791,2.9487204551696777
1702056383956060400,14.853060302734375,-2.489987373352051,-7.387091159820557,2.5234134197235107
1702056383973053200,14.87005322265625,-2.085063934326172,-7.49627685546875,2.062483310699463
1702056383990048500,14.887048583984376,-1.747267246246338,-7.385205268859863,1.3973278999328613
1702056384007042000,14.9040419921875,-1.7667665481567383,-7.187739849090576,0.8619112968444824
1702056384024037400,14.921037353515626,-1.9473605155944824,-6.731377601623535,0.5798211097717285
1702056384041030100,14.938030029296876,-2.3701210021972656,-6.255659103393555,0.018787384033203125
1702056384058025700,14.955025634765626,-2.409759521484375,-5.560128211975098,-1.043593406677246
1702056384075019000,14.97201904296875,-2.4287776947021484,-5.200432777404785,-2.1225547790527344
1702056384092014800,14.989014892578124,-2.072305679321289,-4.514369010925293,-2.558948516845703
1702056384109007400,15.00600732421875,-2.048464775085449,-3.8809003829956055,-2.672335624694824
1702056384126003000,15.0230029296875,-2.246274471282959,-3.482236385345459,-3.0618152618408203
1702056384142986800,15.03998681640625,-2.6679420471191406,-3.2432193756103516,-3.6323471069335938
1702056384159989000,15.056989013671876,-2.950990676879883,-3.385270595550537,-4.513667106628418
1702056384176987000,15.07398681640625,-2.82354736328125,-3.512533187866211,-5.623169898986816
1702056384193980000,15.09097998046875,-3.1092092990875244,-3.441061496734619,-6.822766304016113
1702056384210973400,15.107973388671875,-3.5928006172180176,-3.2641549110412598,-7.887357711791992
1702056384227969800,15.1249697265625,-3.75858736038208,-3.2919511795043945,-8.723776817321777
1702056384244959700,15.141959716796874,-3.5752787590026855,-3.2571232318878174,-9.029401779174805
1702056384261946600,15.158946533203125,-3.092731237411499,-3.406719207763672,-8.957415580749512
1702056384278950000,15.175949951171875,-2.5022616386413574,-3.686908721923828,-8.711329460144043
1702056384295943200,15.192943115234375,-2.2284841537475586,-3.8173508644104004,-7.934814453125
1702056384312941000,15.209941162109375,-2.4011082649230957,-3.836409091949463,-6.993512153625488
1702056384329934000,15.22693408203125,-2.5068063735961914,-3.968639373779297,-6.405370712280273
1702056384346927000,15.243927001953125,-2.6107516288757324,-4.225985527038574,-6.062406539916992
1702056384363923000,15.2609228515625,-2.4154624938964844,-4.539579391479492,-5.600628852844238
1702056384380915500,15.27791552734375,-2.1822915077209473,-4.9019646644592285,-4.986996650695801
1702056384397911000,15.2949111328125,-2.381596088409424,-5.155184745788574,-4.13809871673584
1702056384414904300,15.311904296875,-2.7629709243774414,-5.360474109649658,-3.2784576416015625
1702056384431900000,15.32889990234375,-2.9882495403289795,-5.552712440490723,-2.5998291969299316
1702056384448892700,15.345892578125,-3.0914878845214844,-5.640423774719238,-2.3425235748291016
1702056384465888300,15.36288818359375,-3.1878483295440674,-5.7882399559021,-1.9231204986572266
1702056384482881300,15.37988134765625,-3.305742025375366,-5.953084945678711,-1.0932855606079102
1702056384499874800,15.396874755859375,-2.7978334426879883,-5.967345237731934,-0.2300257682800293
1702056384516872000,15.413871826171874,-1.771852731704712,-5.749717712402344,0.2783699035644531
1702056384533865200,15.430865234375,-1.1519737243652344,-5.435794353485107,0.6281533241271973
1702056384550858500,15.4478583984375,-1.252145528793335,-5.1223578453063965,1.0774831771850586
1702056384567854000,15.46485400390625,-1.5038175582885742,-4.71278190612793,1.5355453491210938
1702056384584846600,15.4818466796875,-1.3968515396118164,-4.402087688446045,1.6658536195755005
1702056384601842400,15.498842529296875,-1.2618145942687988,-4.289195537567139,1.8386462926864624
1702056384618840000,15.515840087890625,-1.8737549781799316,-4.290496826171875,2.1581010818481445
1702056384635831000,15.5328310546875,-2.5918145179748535,-4.434870719909668,2.774566888809204
1702056384652823800,15.54982373046875,-2.7859551906585693,-4.517871856689453,3.373220682144165
1702056384669819400,15.5668193359375,-2.3273582458496094,-4.642417907714844,3.8010356426239014
1702056384686812700,15.583812744140625,-1.1912422180175781,-4.970696449279785,4.166965484619141
1702056384703808300,15.600808349609375,0.8861865997314453,-5.263240814208984,5.328046798706055
1702056384720800800,15.61780078125,3.1029276847839355,-4.583803176879883,7.098918437957764
1702056384737796600,15.634796630859375,4.238250732421875,-3.51924991607666,8.293131828308105
1702056384754789600,15.65178955078125,4.512676239013672,-2.436854124069214,8.332816123962402
1702056384771785200,15.66878515625,4.461188316345215,-1.7593367099761963,7.6215667724609375
1702056384788778000,15.685778076171875,4.402467727661133,-1.6014280319213867,7.019118309020996
1702056384805773600,15.702773681640625,4.215008735656738,-1.4283037185668945,6.454140663146973
1702056384822766800,15.719766845703125,3.8057050704956055,-1.17578125,6.295055389404297
1702056384839762200,15.73676220703125,3.5100231170654297,-1.1379852294921875,6.597637176513672
1702056384856755000,15.7537548828125,3.794074058532715,-1.0342578887939453,6.747081756591797
1702056384873750500,15.77075048828125,4.118932723999023,-1.1713690757751465,6.849595069885254
1702056384890744300,15.787744384765626,4.215256690979004,-1.394512414932251,6.89558744430542
1702056384907739400,15.804739501953126,4.452152252197266,-1.4523468017578125,6.826165199279785
1702056384924732200,15.821732177734376,4.579680442810059,-1.3876636028289795,6.662869453430176
1702056384941727700,15.838727783203124,4.411202430725098,-1.5696425437927246,6.538197040557861
1702056384958720800,15.855720703125,4.030550003051758,-1.7319865226745605,6.5552544593811035
1702056384975716400,15.87271630859375,2.936227798461914,-1.9262285232543945,6.80124568939209
1702056384992709000,15.889709228515626,1.7807283401489258,-2.3052005767822266,7.021450996398926
1702056385009710300,15.90671044921875,1.1510238647460938,-3.0701422691345215,7.187756538391113
1702056385026698000,15.923697998046874,0.729945182800293,-3.6804134845733643,7.050470352172852
1702056385043693600,15.940693603515625,0.5772743225097656,-4.134373188018799,6.5186333656311035
1702056385060686300,15.957686279296874,0.6054697036743164,-4.555395603179932,5.688055992126465
1702056385077681700,15.974681640625,0.29923057556152344,-5.23807430267334,4.940762042999268
1702056385094664400,15.99166455078125,-0.4935569763183594,-5.963352680206299,4.436434745788574
1702056385111668200,16.008668212890626,-1.5363411903381348,-6.649609565734863,4.000414848327637
1702056385128665300,16.025665283203125,-2.1746726036071777,-7.268944263458252,3.6622748374938965
1702056385145659000,16.042658935546875,-2.168555974960327,-8.01207160949707,3.219430446624756
1702056385162641400,16.059641357421874,-1.4558768272399902,-8.686779975891113,2.650378942489624
1702056385179647500,16.0766474609375,-1.0237703323364258,-9.225768089294434,2.128444194793701
1702056385196640300,16.09364013671875,-1.476944923400879,-9.14395809173584,1.463162899017334
1702056385213635800,16.1106357421875,-2.4949450492858887,-8.453771591186523,0.770573616027832
1702056385230629000,16.127629150390625,-3.3486342430114746,-7.533473014831543,-0.17580652236938477
1702056385247624700,16.144624755859375,-3.7389771938323975,-6.5424957275390625,-1.815333366394043
1702056385264617500,16.161617431640625,-4.1647772789001465,-5.693453788757324,-4.0656328201293945
1702056385281613000,16.178613037109375,-4.437007904052734,-4.774130821228027,-6.409207344055176
1702056385298606000,16.195606201171874,-4.427905559539795,-4.025964736938477,-7.695605278015137
1702056385315592200,16.21259228515625,-3.802077293395996,-3.5294206142425537,-7.5570268630981445
1702056385332596200,16.22959619140625,-2.7196273803710938,-3.664285659790039,-6.3109893798828125
1702056385349590300,16.24659033203125,-1.4251675605773926,-3.7106056213378906,-5.034140586853027
1702056385366579500,16.263579345703125,-0.37616872787475586,-3.5098583698272705,-4.323524475097656
1702056385383578600,16.28057861328125,0.04574751853942871,-3.4123597145080566,-4.1413679122924805
1702056385400580000,16.297580078125,-0.09960269927978516,-3.5789434909820557,-4.72874641418457
1702056385417567000,16.31456689453125,-1.0058634281158447,-3.746678113937378,-6.072863578796387
1702056385434560300,16.331560302734374,-2.42818546295166,-3.6013927459716797,-7.579113960266113
1702056385451555800,16.348555908203124,-3.7659006118774414,-3.4687397480010986,-8.465312004089355
1702056385468548600,16.365548583984374,-4.037978649139404,-3.5936388969421387,-8.416010856628418
1702056385485544200,16.382544189453125,-2.9837288856506348,-3.8551745414733887,-7.679041862487793
1702056385502537200,16.399537109375,-1.9201269149780273,-4.05559778213501,-6.893980026245117
1702056385519532300,16.4165322265625,-1.527547836303711,-4.124148368835449,-6.234228134155273
1702056385536528100,16.433528076171875,-1.7955424785614014,-4.272164821624756,-5.665020942687988
1702056385553521400,16.450521484375,-2.218494415283203,-4.402767181396484,-5.096440315246582
1702056385570501600,16.467501708984376,-2.4016411304473877,-4.678065299987793,-4.646718978881836
1702056385587504600,16.484504638671876,-2.4813239574432373,-5.04649019241333,-3.8433055877685547
1702056385604489700,16.50148974609375,-2.4565014839172363,-5.4152936935424805,-2.7532358169555664
1702056385621501000,16.5185009765625,-2.2765848636627197,-5.578621864318848,-1.7938323020935059
1702056385638491400,16.535491455078127,-2.290915012359619,-5.377772808074951,-1.0214624404907227
1702056385655487200,16.5524873046875,-2.4195332527160645,-5.085840225219727,-0.08074569702148438
1702056385672479700,16.569479736328127,-2.2096030712127686,-4.774036407470703,0.7715263366699219
1702056385689475300,16.586475341796874,-1.535384178161621,-4.3355560302734375,1.2737855911254883
1702056385706468600,16.603468505859375,-1.151710033416748,-3.9186666011810303,1.5260019302368164
1702056385723464200,16.620464111328126,-1.2756223678588867,-3.449838399887085,1.584057092666626
1702056385740456700,16.637456787109375,-1.657456874847412,-3.1549880504608154,1.5040316581726074
1702056385757449500,16.654449462890625,-2.1565909385681152,-3.0428552627563477,1.3054141998291016
1702056385774448000,16.6714482421875,-2.7211251258850098,-2.818270206451416,1.0195744037628174
1702056385791451000,16.688450927734376,-3.161252498626709,-2.720308780670166,0.8630399703979492
1702056385808434000,16.705433837890624,-3.21114444732666,-2.814455509185791,0.8367170095443726
1702056385825429200,16.72242919921875,-2.6098551750183105,-3.1431474685668945,1.2486226558685303
1702056385842422500,16.739422607421876,-1.9903764724731445,-3.3909568786621094,2.355576753616333
1702056385859418000,16.756418212890626,-1.7317848205566406,-3.1680192947387695,3.5725831985473633
1702056385876411000,16.773410888671876,-1.90557861328125,-3.146589756011963,4.31511926651001
1702056385893406500,16.790406494140626,-1.512704849243164,-3.451098680496216,5.361453533172607
1702056385910399500,16.8073994140625,-0.21290206909179688,-3.176135301589966,6.804884910583496
1702056385927395300,16.824395263671875,1.381418228149414,-2.480294704437256,7.432839393615723
1702056385944387800,16.841387939453124,2.9307937622070312,-1.9733538627624512,7.6194024085998535
1702056385961383400,16.858383544921875,4.074489593505859,-1.4485535621643066,7.924402713775635
1702056385978374400,16.87537451171875,3.94033145904541,-0.8486771583557129,7.912154674530029
1702056385995364000,16.892364013671877,3.2891812324523926,-0.45718860626220703,7.477190971374512
1702056386012364800,16.90936474609375,2.6211800575256348,-0.24448299407958984,6.93922233581543
1702056386029360600,16.926360595703127,2.3963866233825684,0.0012788772583007812,6.374168395996094
1702056386046353700,16.943353759765625,2.6115565299987793,0.20345211029052734,5.787961006164551
1702056386063349200,16.960349365234375,3.0658488273620605,0.24455022811889648,5.344058990478516
1702056386080342000,16.977342041015625,3.1648478507995605,0.2903003692626953,5.312640190124512
1702056386097337600,16.994337646484375,2.7766494750976562,0.3240165710449219,5.429262638092041
1702056386114331000,17.011330810546873,2.2305808067321777,0.14877843856811523,5.570957183837891
1702056386131330800,17.028330810546876,1.8530025482177734,-0.07396221160888672,5.921230316162109
1702056386148309500,17.0453095703125,1.728302001953125,-0.37331056594848633,6.076748847961426
1702056386165314600,17.062314453125,1.9463739395141602,-0.616361141204834,6.109132766723633
1702056386182297300,17.07929736328125,1.8190040588378906,-0.860480785369873,5.904478073120117
1702056386199300000,17.096300048828127,1.3993549346923828,-1.2771906852722168,5.607535362243652
1702056386216296200,17.113296142578125,0.9691100120544434,-1.5874958038330078,5.203063011169434
1702056386233291800,17.130291748046876,0.3990921974182129,-1.9663844108581543,4.630185604095459
1702056386250284800,17.147284912109374,0.6071195602416992,-2.504509925842285,3.9862380027770996
1702056386267280600,17.16428076171875,0.6714353561401367,-2.8088326454162598,3.5555930137634277
1702056386284273200,17.181273193359374,0.3326988220214844,-2.948826313018799,3.2571351528167725
1702056386301266200,17.19826611328125,0.05523490905761719,-3.2489655017852783,3.048595905303955
1702056386318264600,17.2152646484375,-0.15624570846557617,-3.77504301071167,2.765476703643799
1702056386335257300,17.23225732421875,-0.46294689178466797,-4.3766913414001465,2.5559887886047363
1702056386352247600,17.24924755859375,-0.893589973449707,-4.74424934387207,2.507211685180664
1702056386369248500,17.26624853515625,-1.3647031784057617,-4.946615695953369,2.5714569091796875
1702056386386239000,17.283239013671874,-1.6597046852111816,-5.131430625915527,2.450324535369873
1702056386403234600,17.300234619140625,-1.8416624069213867,-5.238382339477539,2.2028610706329346
1702056386420224500,17.317224609375,-1.8707809448242188,-5.21481466293335,2.072169065475464
1702056386437223000,17.334222900390625,-1.9115495681762695,-5.25477409362793,1.8572874069213867
1702056386454216000,17.3512158203125,-1.9363579750061035,-5.477374076843262,1.3851356506347656
1702056386471211500,17.36821142578125,-2.439082622528076,-5.47693395614624,0.5624122619628906
1702056386488193800,17.38519384765625,-3.296809196472168,-5.06450891494751,-0.6224064826965332
1702056386505190000,17.40218994140625,-4.307008743286133,-4.611765384674072,-1.9092888832092285
1702056386522190600,17.419190673828126,-4.228645324707031,-4.193284034729004,-3.671778678894043
1702056386539191300,17.43619140625,-3.1913044452667236,-3.499567985534668,-5.259799003601074
1702056386556181200,17.45318115234375,-2.4869191646575928,-3.125013828277588,-6.119919776916504
1702056386573166300,17.470166259765627,-1.3447763919830322,-2.7740025520324707,-6.505136489868164
1702056386590170000,17.487170166015623,-0.5076699256896973,-2.626722812652588,-6.444598197937012
1702056386607165700,17.504165771484374,-0.008549213409423828,-2.5291519165039062,-6.266018867492676
1702056386624158500,17.521158447265623,0.0484616756439209,-2.590974807739258,-6.134674072265625
1702056386641156900,17.538156982421874,-0.23649096488952637,-2.5617926120758057,-6.256702423095703
1702056386658144300,17.555144287109375,-0.8941318988800049,-2.605830669403076,-6.616081237792969
1702056386675142700,17.572142578125,-1.6635029315948486,-2.566236972808838,-6.988658905029297
1702056386692135400,17.589135498046875,-2.1483354568481445,-2.604567766189575,-7.25828742980957
1702056386709131000,17.606131103515626,-2.371957778930664,-2.671316623687744,-7.320487976074219
1702056386726124000,17.6231240234375,-2.510737657546997,-2.692922830581665,-7.205824851989746
1702056386743119600,17.64011962890625,-2.540605306625366,-2.8256542682647705,-6.957402229309082
1702056386760112400,17.6571123046875,-2.3814144134521484,-2.982360363006592,-6.558470726013184
1702056386777108000,17.67410791015625,-2.377312660217285,-3.107874870300293,-5.9151458740234375
1702056386794101200,17.691101318359376,-2.6898603439331055,-3.237870931625366,-5.0369157791137695
1702056386811096600,17.7080966796875,-2.820587635040283,-3.494196653366089,-4.206963539123535
1702056386828089300,17.72508935546875,-2.6643519401550293,-3.7643144130706787,-3.6797657012939453
1702056386845085200,17.742085205078126,-2.502842903137207,-4.105434894561768,-3.4942221641540527
1702056386862078200,17.759078125,-2.526949882507324,-4.3918304443359375,-3.1645984649658203
1702056386879069200,17.776069091796874,-2.682797908782959,-4.589102268218994,-2.42891788482666
1702056386896066300,17.79306640625,-2.690096139907837,-4.7232561111450195,-1.4638166427612305
1702056386913059300,17.810059326171874,-2.4301607608795166,-4.781342506408691,-0.5440287590026855
1702056386930057700,17.8270576171875,-2.0623888969421387,-4.857780456542969,0.013859748840332031
1702056386947050800,17.84405078125,-1.7211523056030273,-5.048456192016602,0.5294585227966309
1702056386964034300,17.861034423828126,-1.7974519729614258,-5.089264392852783,1.2422163486480713
1702056386981039000,17.8780390625,-2.1365668773651123,-4.977023124694824,1.9294929504394531
1702056386998033400,17.895033447265625,-2.0926637649536133,-4.834210395812988,2.3728437423706055
1702056387015026700,17.912026611328123,-1.990842342376709,-4.7898969650268555,2.2094550132751465
1702056387032020500,17.9290205078125,-2.0505170822143555,-4.841711044311523,1.9372584819793701
1702056387049016300,17.946016357421875,-1.6085946559906006,-4.731125354766846,1.9396169185638428
1702056387066009300,17.96300927734375,-0.572655200958252,-4.740996837615967,2.149113178253174
1702056387083005000,17.9800048828125,0.31638431549072266,-4.380270957946777,2.709373950958252
1702056387099997400,17.99699755859375,0.1700272560119629,-3.8371458053588867,3.6037075519561768
1702056387116993000,18.013992919921876,-0.33615779876708984,-3.216024398803711,4.492239952087402
1702056387133986300,18.030986328125,-0.5369434356689453,-2.4162721633911133,4.872837543487549
1702056387150982000,18.04798193359375,-0.6791043281555176,-1.645925521850586,4.6426286697387695
1702056387167974700,18.064974609375,-0.35886383056640625,-1.3282990455627441,4.412394046783447
1702056387184970000,18.081969970703124,0.7535815238952637,-0.9716935157775879,4.704339504241943
1702056387201963300,18.09896337890625,1.5793204307556152,-0.1520833969116211,5.297320365905762
1702056387218958800,18.115958740234376,1.7383861541748047,0.5224676132202148,5.703550338745117
1702056387235951600,18.13295166015625,1.3223066329956055,0.7978224754333496,5.903600692749023
1702056387252947200,18.149947265625,0.8747148513793945,1.0375633239746094,6.3150835037231445
1702056387269940200,18.166940185546874,1.1064414978027344,1.2334842681884766,6.8458571434021
1702056387286936000,18.18393603515625,2.0797677040100098,1.294811725616455,7.496121406555176
1702056387303928600,18.200928466796874,2.988222122192383,1.3371210098266602,7.965757369995117
1702056387320906200,18.21790625,3.385305881500244,1.407486915588379,8.197388648986816
1702056387337917400,18.23491748046875,3.2522215843200684,1.3157896995544434,8.09044075012207
1702056387354905000,18.251905029296875,3.0730552673339844,1.144118309020996,7.569282531738281
1702056387371904800,18.26890478515625,2.8590149879455566,0.8174610137939453,6.910618782043457
1702056387388902100,18.285902099609373,2.924032688140869,0.39357519149780273,6.587619781494141
1702056387405894700,18.302894775390627,3.000006675720215,-0.0015292167663574219,6.423829078674316
1702056387422890000,18.319889892578125,3.0714144706726074,-0.4242668151855469,6.3893609046936035
1702056387439882800,18.3368828125,2.8357186317443848,-0.8972358703613281,6.362285614013672
1702056387456878300,18.35387841796875,2.2117223739624023,-1.3088736534118652,6.153972625732422
1702056387473871400,18.370871337890627,1.5027284622192383,-1.731778621673584,5.841927528381348
1702056387490867000,18.387866943359374,0.8783106803894043,-2.156930446624756,5.416979789733887
1702056387507860000,18.40485986328125,0.35616302490234375,-2.5055251121520996,5.0064263343811035
1702056387524852700,18.421852783203125,-0.024579524993896484,-2.863089084625244,4.567601680755615
1702056387541851000,18.438850830078124,-0.12001180648803711,-3.1954121589660645,4.060940265655518
1702056387558844000,18.455843994140626,-0.27634286880493164,-3.614900588989258,3.644098997116089
1702056387575836700,18.472836669921875,-0.7411928176879883,-3.9150774478912354,3.1921610832214355
1702056387592832300,18.489832275390626,-1.0609397888183594,-4.245268821716309,2.7703146934509277
1702056387609824000,18.506823974609375,-1.0992331504821777,-4.572290897369385,2.436616897583008
1702056387626820900,18.52382080078125,-1.1676483154296875,-4.873266220092773,2.090287208557129
1702056387643804200,18.54080419921875,-1.3243975639343262,-5.043610095977783,1.673163652420044
1702056387660809500,18.5578095703125,-1.309415340423584,-5.057601451873779,1.1975760459899902
1702056387677802500,18.574802490234376,-1.2181406021118164,-5.016038417816162,0.9799776077270508
1702056387694798000,18.591798095703126,-1.4203977584838867,-4.669136047363281,1.0342350006103516
1702056387711787300,18.608787353515623,-2.0142645835876465,-4.576753616333008,1.0529699325561523
1702056387728789800,18.625789794921875,-2.3339192867279053,-4.6397504806518555,0.927849292755127
1702056387745766100,18.64276611328125,-2.5771238803863525,-4.697263717651367,0.6258635520935059
1702056387762778400,18.6597783203125,-2.7009308338165283,-4.6047186851501465,0.08080673217773438
1702056387779767800,18.676767822265624,-2.9184679985046387,-4.546391487121582,-0.8437395095825195
1702056387796763100,18.69376318359375,-3.054887294769287,-4.326868057250977,-2.0984058380126953
1702056387813756400,18.71075634765625,-2.9904935359954834,-3.815605640411377,-3.4291763305664062
1702056387830752300,18.727752197265627,-2.87198805809021,-3.3389289379119873,-4.532712936401367
1702056387847734300,18.744734375,-2.585031747817993,-2.9440019130706787,-5.077115058898926
1702056387864740400,18.761740234375,-2.213710308074951,-2.7571706771850586,-5.261569023132324
1702056387881733600,18.778733642578125,-1.9714391231536865,-2.689411163330078,-5.45035457611084
1702056387898729000,18.79572900390625,-1.7522971630096436,-2.555403709411621,-5.713164329528809
1702056387915722200,18.81272216796875,-1.5211849212646484,-2.421921968460083,-6.079540252685547
1702056387932716800,18.829716796875,-1.4643135070800781,-2.4441447257995605,-6.267821311950684
1702056387949710600,18.846710693359373,-1.8173911571502686,-2.4292173385620117,-6.042673110961914
1702056387966703400,18.863703369140627,-2.2659754753112793,-2.336709499359131,-5.760451316833496
1702056387983698700,18.88069873046875,-2.3697590827941895,-2.3212852478027344,-5.856178283691406
1702056388000694500,18.897694580078124,-2.6026368141174316,-2.4447989463806152,-6.108791351318359
1702056388017687600,18.9146875,-2.9739863872528076,-2.657376527786255,-6.133370399475098
1702056388034683100,18.93168310546875,-3.17716121673584,-2.8127455711364746,-6.1493940353393555
1702056388051676000,18.948676025390625,-3.2987380027770996,-3.289487838745117,-6.264064788818359
1702056388068671500,18.96567138671875,-3.3411550521850586,-3.7297861576080322,-6.2476701736450195
1702056388085664500,18.98266455078125,-3.4289822578430176,-4.043547630310059,-5.88062858581543
1702056388102660000,18.99966015625,-3.298194408416748,-4.293059349060059,-5.217090606689453
1702056388119650000,19.016650146484373,-3.133458137512207,-4.6532135009765625,-4.719141960144043
1702056388136641000,19.03364111328125,-3.149242877960205,-5.118028163909912,-4.15462589263916
1702056388153641500,19.050641357421874,-3.1269371509552,-5.673752307891846,-3.2769784927368164
1702056388170637000,19.067636962890624,-3.039108991622925,-6.137128829956055,-2.2772765159606934
1702056388187629800,19.0846298828125,-2.9198312759399414,-6.2616400718688965,-1.3839688301086426
1702056388204622800,19.101622802734376,-2.964791774749756,-6.350161552429199,-0.523552417755127
1702056388221621500,19.11862158203125,-2.935648202896118,-6.4588212966918945,0.24000263214111328
1702056388238614000,19.135614013671876,-2.627734661102295,-6.615509986877441,0.8612570762634277
1702056388255606800,19.152606689453126,-2.295714855194092,-6.450516223907471,1.2221755981445312
1702056388272602600,19.1696025390625,-2.378117084503174,-6.1738104820251465,1.8619105815887451
1702056388289595600,19.186595703125,-2.5468077659606934,-5.733199119567871,2.7207584381103516
1702056388306591500,19.203591552734373,-2.123378276824951,-5.15628719329834,3.1705946922302246
1702056388323583700,19.220583740234375,-1.4130125045776367,-4.916150093078613,3.220578908920288
1702056388340579300,19.237579345703125,-0.45735788345336914,-4.808258056640625,4.226625919342041
1702056388357572600,19.254572509765627,0.24133968353271484,-4.163837432861328,5.97309684753418
1702056388374568400,19.271568359375,0.33905839920043945,-3.2179179191589355,7.115932941436768
1702056388391554800,19.288554931640626,-0.42552709579467773,-2.1676788330078125,6.539444446563721
1702056388408556500,19.305556640625,-0.7805657386779785,-2.016347885131836,5.630349636077881
1702056388425548500,19.322548583984375,0.15839719772338867,-1.9459829330444336,5.801412105560303
1702056388442546200,19.339546142578126,1.3482537269592285,-1.4168806076049805,6.118273735046387
1702056388459538000,19.356537841796875,2.426875591278076,-0.7485718727111816,6.110890865325928
1702056388476533500,19.373533447265626,2.9490771293640137,-0.30404186248779297,5.769920349121094
1702056388493526800,19.39052685546875,2.9132542610168457,-0.01181650161743164,5.492374897003174
1702056388510522000,19.407522216796874,2.7510852813720703,0.13018560409545898,5.6310014724731445
1702056388527504400,19.42450439453125,2.8075790405273438,0.20078516006469727,6.1650495529174805
1702056388544510500,19.441510498046874,3.166369915008545,0.2661466598510742,6.927282333374023
1702056388561503500,19.45850341796875,3.7639589309692383,0.1443471908569336,7.436471939086914
1702056388578494500,19.475494384765625,4.2679123878479,0.13466215133666992,7.37384033203125
1702056388595491800,19.492491943359376,4.427148342132568,0.1369190216064453,7.01628303527832
1702056388612487400,19.5094873046875,4.194258689880371,0.20566511154174805,6.517799377441406
1702056388629480700,19.526480712890624,3.6272616386413574,0.11193418502807617,6.181499481201172
1702056388646476300,19.543476318359374,3.2352914810180664,-0.1619405746459961,6.029082775115967
1702056388663468800,19.56046875,2.9786977767944336,-0.3607640266418457,5.972210884094238
1702056388680464600,19.577464599609375,3.01904296875,-0.49150991439819336,5.756815433502197
1702056388697457700,19.594457763671876,3.0923919677734375,-0.6359834671020508,5.534769058227539
1702056388714453200,19.611453369140627,2.5057168006896973,-0.8143172264099121,5.451112747192383
1702056388731446000,19.628446044921876,1.417116641998291,-1.1024174690246582,5.431615829467773
1702056388748444400,19.6454443359375,0.4968400001525879,-1.5276432037353516,5.341433048248291
1702056388765434600,19.6624345703125,-0.02957630157470703,-2.015481948852539,5.053106307983398
1702056388782430500,19.679430419921875,-0.033247947692871094,-2.373055934906006,4.506059169769287
1702056388799423000,19.696423095703125,0.16265058517456055,-2.633315086364746,4.0273590087890625
1702056388816418300,19.713418212890623,-0.1384129524230957,-2.936250686645508,3.6198039054870605
1702056388833411600,19.73041162109375,-0.8956775665283203,-3.158618927001953,2.931328296661377
1702056388850407200,19.7474072265625,-1.643312931060791,-3.4547924995422363,1.94858980178833
1702056388867400000,19.76439990234375,-1.8521580696105957,-3.8675904273986816,1.1458954811096191
1702056388884395300,19.781395263671875,-1.7284889221191406,-4.156881332397461,0.7903401851654053
1702056388901386000,19.798385986328125,-1.8491239547729492,-4.28038215637207,0.7780067920684814
1702056388918376200,19.815376220703126,-1.9329133033752441,-4.184033393859863,0.8217296600341797
1702056388935377000,19.832376953125,-1.6593687534332275,-4.205018043518066,0.9948067665100098
1702056388952379100,19.849379150390625,-1.4064502716064453,-4.20249080657959,1.2841920852661133
1702056388969365500,19.866365478515625,-1.5053400993347168,-4.097805500030518,1.2910480499267578
1702056388986361000,19.883361083984376,-1.6454448699951172,-4.081088066101074,1.005948543548584
1702056389003353900,19.900353759765625,-1.540842056274414,-4.054666996002197,0.8172078132629395
1702056389020349400,19.917349365234376,-1.5115931034088135,-3.9081003665924072,0.9796414375305176
1702056389037339600,19.934339599609373,-1.5500712394714355,-3.6578407287597656,1.2218213081359863
1702056389054338600,19.951338623046876,-1.9372754096984863,-3.4801688194274902,0.7013726234436035
1702056389071333400,19.96833349609375,-2.5604231357574463,-3.4850258827209473,-0.6393938064575195
1702056389088326400,19.985326416015624,-2.940025806427002,-3.184131622314453,-1.612741470336914
1702056389105311500,20.0023115234375,-2.9446003437042236,-2.87619948387146,-1.9860382080078125
1702056389122304800,20.0193046875,-2.4845130443573,-2.452548027038574,-2.090703010559082
1702056389139307800,20.036307861328126,-2.296802282333374,-2.037105083465576,-2.949413299560547
1702056389156303400,20.053303466796876,-2.3370184898376465,-1.9820475578308105,-4.496005058288574
1702056389173296600,20.070296630859374,-2.3406026363372803,-1.9296400547027588,-5.901042938232422
1702056389190292500,20.08729248046875,-2.816967725753784,-1.7268158197402954,-6.890862464904785
1702056389207285000,20.104284912109375,-3.3716297149658203,-1.5764646530151367,-7.388594627380371
1702056389224277800,20.12127783203125,-3.7370924949645996,-1.551196575164795,-8.001989364624023
1702056389241278700,20.13827880859375,-3.84065580368042,-1.8406072854995728,-8.898512840270996
1702056389258266600,20.1552666015625,-3.6169703006744385,-2.139805555343628,-9.524048805236816
1702056389275262000,20.172261962890627,-3.554955244064331,-2.3959786891937256,-9.324911117553711
1702056389292257800,20.1892578125,-3.528909683227539,-2.6591038703918457,-8.416631698608398
1702056389309240300,20.206240234375,-3.4276061058044434,-3.03611421585083,-7.801392555236816
1702056389326246100,20.22324609375,-3.3301479816436768,-3.6087684631347656,-7.552499771118164
1702056389343238700,20.24023876953125,-3.377023935317993,-4.213779449462891,-7.084057807922363
1702056389360234500,20.257234375,-3.4718985557556152,-4.591516494750977,-6.092638969421387
1702056389377227800,20.274227783203123,-3.3808093070983887,-4.8577680587768555,-5.026510238647461
1702056389394223400,20.291223388671874,-3.317638874053955,-5.239193916320801,-4.085906982421875
1702056389411216000,20.3082158203125,-3.202448844909668,-5.632142066955566,-3.164433479309082
1702056389428211500,20.32521142578125,-3.0488739013671875,-5.981832504272461,-2.277298927307129
1702056389445204500,20.34220458984375,-2.770345449447632,-6.30715274810791,-1.4747076034545898
1702056389462200000,20.359199951171874,-2.5928750038146973,-6.482819080352783,-0.6216554641723633
1702056389479192800,20.37619287109375,-2.530520439147949,-6.5254034996032715,0.11335897445678711
1702056389496188400,20.3931884765625,-2.219294786453247,-6.456186771392822,0.6805152893066406
1702056389513181700,20.410181640625,-2.037885904312134,-6.293240547180176,1.2019579410552979
1702056389530177300,20.42717724609375,-2.1049396991729736,-6.295529842376709,1.848142385482788
1702056389547169800,20.444169677734376,-1.9005751609802246,-6.324492454528809,2.9700088500976562
1702056389564165400,20.461165283203126,-1.3337616920471191,-5.752704620361328,4.1481781005859375
1702056389581149400,20.4781494140625,-0.9172220230102539,-4.969856262207031,4.3672285079956055
1702056389598154000,20.495154052734375,-0.7054800987243652,-4.514413833618164,3.8404674530029297
1702056389615146800,20.512146728515624,-0.6331396102905273,-4.216869354248047,3.0906710624694824
1702056389632142300,20.529142333984375,-0.5665569305419922,-3.9419054985046387,2.3875350952148438
1702056389649135400,20.54613525390625,-0.5950069427490234,-3.3901896476745605,1.9086668491363525
1702056389666128600,20.563128662109374,-0.838749885559082,-2.6353063583374023,2.0637097358703613
1702056389683126300,20.580126220703125,-1.1612930297851562,-2.008729934692383,2.6437177658081055
1702056389700119000,20.597119140625,-1.0757970809936523,-1.9236135482788086,3.353532314300537
1702056389717111600,20.614111572265625,-0.04110431671142578,-2.0157437324523926,4.893960475921631
1702056389734098000,20.631097900390625,1.2435460090637207,-1.6486806869506836,7.273087501525879
1702056389751093500,20.648093505859375,1.9476637840270996,-1.0508737564086914,9.5543851852417
1702056389768096300,20.66509619140625,2.5674800872802734,-0.5182247161865234,10.690077781677246
1702056389785089500,20.682089599609377,3.6804652214050293,-0.12740612030029297,10.634952545166016
1702056389802085000,20.699085205078124,4.455040454864502,0.2769956588745117,10.03546142578125
1702056389819077600,20.71607763671875,4.48364782333374,0.6848974227905273,9.353230476379395
1702056389836073500,20.733073486328124,4.043942451477051,0.9123449325561523,8.660574913024902
1702056389853066500,20.75006640625,3.6429810523986816,1.0830435752868652,7.800737380981445
1702056389870062000,20.76706201171875,3.2017908096313477,1.1187396049499512,6.969755172729492
1702056389887054800,20.784054931640625,3.1736974716186523,0.8016119003295898,6.3479509353637695
1702056389904050400,20.801050537109376,3.4292893409729004,0.4866142272949219,6.170270919799805
1702056389921043500,20.81804345703125,3.721433639526367,0.0966944694519043,6.499441623687744
1702056389938039000,20.8350390625,3.689401626586914,-0.5135478973388672,7.0401811599731445
1702056389955031800,20.85203173828125,3.227843761444092,-1.170708179473877,7.685901641845703
1702056389972027400,20.86902734375,2.655911445617676,-1.6332616806030273,7.938523292541504
1702056389989020400,20.8860205078125,2.3128857612609863,-2.1928176879882812,7.569191932678223
1702056390006016300,20.903016357421876,2.054324150085449,-2.925980567932129,6.836179733276367
1702056390023008300,20.92000830078125,1.5067801475524902,-3.696920871734619,6.082834243774414
1702056390040004900,20.9370048828125,0.7485866546630859,-4.5376877784729,5.504415035247803
1702056390056997400,20.953997314453126,0.0926828384399414,-5.099207878112793,4.768243789672852
1702056390073993000,20.970992919921876,0.1336374282836914,-5.494024276733398,4.2118377685546875
1702056390090972700,20.98797265625,0.39302539825439453,-6.107016563415527,3.834388256072998
1702056390107984000,21.00498388671875,0.08294391632080078,-7.182753086090088,3.394855260848999
1702056390124964000,21.021964111328124,-0.6281695365905762,-8.13204288482666,3.1154260635375977
1702056390141970000,21.038969970703125,-2.0212903022766113,-8.676042556762695,2.735036849975586
1702056390158962700,21.055962646484375,-2.9128103256225586,-8.709190368652344,2.4364993572235107
1702056390175958300,21.072958251953125,-3.1757609844207764,-8.311811447143555,2.107651710510254
1702056390192951600,21.08995166015625,-2.5131735801696777,-7.683311462402344,1.3156118392944336
1702056390209947000,21.10694677734375,-1.7512309551239014,-6.721667766571045,0.2889103889465332
1702056390226939600,21.123939697265627,-1.9197235107421875,-5.774433135986328,-0.8620529174804688
1702056390243932700,21.1409326171875,-2.658996105194092,-4.908150672912598,-1.9969520568847656
1702056390260927700,21.157927734375,-3.4800972938537598,-4.194142818450928,-2.9471330642700195
1702056390277927200,21.17492724609375,-4.0314764976501465,-3.6715478897094727,-3.5099382400512695
1702056390294916600,21.19191650390625,-4.133007526397705,-3.485110282897949,-3.7335758209228516
1702056390311912200,21.208912109375,-3.849668025970459,-3.4703898429870605,-3.4322147369384766
1702056390328905500,21.225905517578123,-3.257511854171753,-3.702385425567627,-2.9119606018066406
1702056390345901000,21.242901123046874,-2.2412912845611572,-3.778118848800659,-2.4770946502685547
1702056390362893600,21.2598935546875,-1.180860996246338,-3.8024141788482666,-2.6439075469970703
1702056390379886600,21.276886474609373,-0.343489408493042,-3.598158836364746,-3.5023460388183594
1702056390396885000,21.293885009765624,-0.12791085243225098,-3.3413636684417725,-4.771512031555176
1702056390413878000,21.3108779296875,-0.5958328247070312,-3.21812105178833,-6.179808616638184
1702056390430870500,21.32787060546875,-1.5936610698699951,-3.200839042663574,-7.4354963302612305
1702056390447866000,21.3448662109375,-2.542003870010376,-3.2758445739746094,-8.404403686523438
1702056390464859600,21.361859619140624,-3.0050463676452637,-3.415980815887451,-9.032708168029785
1702056390481844500,21.378844482421876,-2.909822463989258,-3.517481803894043,-9.208847999572754
1702056390498847500,21.395847412109376,-2.557589054107666,-3.5634219646453857,-8.560107231140137
1702056390515843000,21.412843017578126,-2.3026955127716064,-3.607451915740967,-7.481321334838867
1702056390532836400,21.42983642578125,-2.0546071529388428,-3.751289129257202,-6.758978843688965
1702056390549832000,21.44683203125,-2.125516414642334,-3.885504722595215,-6.463568687438965
1702056390566824700,21.46382470703125,-2.4566264152526855,-4.161740303039551,-6.067486763000488
1702056390583820000,21.480820068359375,-2.629884719848633,-4.58272647857666,-5.208913803100586
1702056390600797700,21.497797607421877,-2.6117448806762695,-4.910437107086182,-3.8412599563598633
1702056390617798400,21.51479833984375,-2.3874263763427734,-5.130186080932617,-2.6824092864990234
1702056390634801400,21.531801513671876,-2.0450847148895264,-5.350975036621094,-2.180482864379883
1702056390651797200,21.54879736328125,-1.9277759790420532,-5.547660827636719,-2.0300960540771484
1702056390668790300,21.565790283203125,-1.972682237625122,-5.679304122924805,-1.56190824508667
1702056390685784000,21.5827841796875,-2.377133846282959,-5.697597026824951,-0.8391714096069336
1702056390702778000,21.599778076171877,-2.8137826919555664,-5.7562408447265625,-0.09651374816894531
1702056390719775000,21.61677490234375,-2.826220750808716,-5.776251792907715,0.3567323684692383
