time,seconds_elapsed,z,y,x
1701058284564125200,0.109125244140625,-0.4385547637939453,0.007268428802490234,0.7618274688720703
1701058284581119500,0.126119384765625,-1.2364888191223145,0.23374176025390625,0.6513962745666504
1701058284598108000,0.14310791015625,-1.7269020080566406,0.4478483200073242,0.6022477149963379
1701058284615103000,0.16010302734375,-1.4225711822509766,0.5459980964660645,0.9521293640136719
1701058284632097300,0.17709716796875,-0.5385756492614746,0.3714561462402344,1.2223684787750244
1701058284649079600,0.19407958984375,0.06006288528442383,0.451632022857666,1.365196704864502
1701058284666080800,0.211080810546875,-0.7267923355102539,0.6224765777587891,1.5006983280181885
1701058284683072800,0.22807275390625,-1.8699746131896973,0.8958077430725098,1.4449162483215332
1701058284700066300,0.24506640625,-2.128910541534424,1.2803387641906738,1.3339173793792725
1701058284717059600,0.2620595703125,-1.4875540733337402,1.4287500381469727,1.9289894104003906
1701058284734051600,0.279051513671875,-0.5620689392089844,1.4863238334655762,2.678525686264038
1701058284751046000,0.2960458984375,-0.7233085632324219,1.6401548385620117,3.3799619674682617
1701058284768034300,0.313034423828125,-1.2745800018310547,1.8149423599243164,3.6270854473114014
1701058284785030700,0.33003076171875,-1.4193549156188965,2.002610206604004,3.6414358615875244
1701058284802000100,0.347000244140625,-0.8684868812561035,1.9249048233032227,3.722778081893921
1701058284819014400,0.364014404296875,-0.014556884765625,1.8898415565490723,4.264096736907959
1701058284836007200,0.381007080078125,-0.35138607025146484,2.260571002960205,5.020727634429932
1701058284852999000,0.3979990234375,-1.9557781219482422,2.3963704109191895,5.374878406524658
1701058284869985300,0.4149853515625,-2.107910633087158,2.3480634689331055,4.540488243103027
1701058284886985700,0.43198583984375,-1.1893959045410156,2.332489490509033,4.736752033233643
1701058284903977500,0.4489775390625,0.3886585235595703,2.319870948791504,5.835165500640869
1701058284920961800,0.4659619140625,1.7013416290283203,2.6013221740722656,6.350996017456055
1701058284937960400,0.48296044921875,1.8637433052062988,2.9206361770629883,6.588679790496826
1701058284954951400,0.499951416015625,-0.12560796737670898,2.801327705383301,6.8436994552612305
1701058284971953200,0.516953125,-0.372403621673584,2.251537799835205,6.726388931274414
1701058284988948700,0.53394873046875,0.6104378700256348,1.9562721252441406,6.533664703369141
1701058285005928700,0.5509287109375,2.0686488151550293,1.723820686340332,6.1257548332214355
1701058285022930400,0.567930419921875,2.9889206886291504,1.8068757057189941,6.078949928283691
1701058285039918800,0.5849189453125,3.5917916297912598,1.4535069465637207,6.42633056640625
1701058285056914700,0.601914794921875,4.537718772888184,0.7431049346923828,7.262151718139648
1701058285073904600,0.618904541015625,5.994879722595215,-0.40901994705200195,7.831352233886719
1701058285090894800,0.635894775390625,6.759965419769287,-1.3610448837280273,7.501442909240723
1701058285107889400,0.652889404296875,6.765487194061279,-2.531221389770508,7.7651262283325195
1701058285124876000,0.6698759765625,7.278142929077148,-3.2821872234344482,8.378314971923828
1701058285141873700,0.686873779296875,7.771714210510254,-4.136263847351074,9.113874435424805
1701058285158867000,0.703866943359375,7.423422813415527,-5.102925777435303,9.715829849243164
1701058285175859700,0.720859619140625,7.717683792114258,-5.582910060882568,9.295217514038086
1701058285192854000,0.73785400390625,8.592015266418457,-6.483777046203613,9.78996467590332
1701058285209837300,0.75483740234375,8.971641540527344,-7.705586910247803,10.513700485229492
1701058285226838300,0.77183837890625,8.693171501159668,-9.085208892822266,10.58967113494873
1701058285243830000,0.788830078125,7.508112907409668,-10.0956392288208,10.132875442504883
1701058285260824600,0.805824462890625,5.846226215362549,-10.684911727905273,9.647297859191895
1701058285277814500,0.822814453125,4.282324314117432,-10.953852653503418,9.320541381835938
1701058285294807800,0.839807861328125,3.0361328125,-11.356775283813477,9.267715454101562
1701058285311802400,0.85680224609375,2.7273688316345215,-11.849374771118164,9.352816581726074
1701058285328790000,0.8737900390625,2.2857232093811035,-12.546202659606934,8.969261169433594
1701058285345787100,0.890787109375,1.2503957748413086,-13.257838249206543,8.3248872756958
1701058285362780200,0.9077802734375,0.5350916385650635,-13.745885848999023,7.6440582275390625
1701058285379768600,0.9247685546875,0.12349867820739746,-13.579153060913086,5.907008647918701
1701058285396762000,0.94176220703125,0.27555108070373535,-12.37751293182373,4.468729019165039
1701058285413756400,0.95875634765625,-0.05935359001159668,-10.6322021484375,3.317262649536133
1701058285430750700,0.975750732421875,-0.16423630714416504,-9.0042085647583,3.1658987998962402
1701058285447739400,0.992739501953125,0.24100399017333984,-7.676517486572266,3.7179336547851562
1701058285464734200,1.009734130859375,0.5244977474212646,-6.96999454498291,4.388446807861328
1701058285481728800,1.026728759765625,0.20682775974273682,-7.152661323547363,4.450109004974365
1701058285498717200,1.04371728515625,-0.5491551160812378,-7.473997116088867,3.0751891136169434
1701058285515712300,1.060712158203125,-2.1454977989196777,-7.579399585723877,0.9568586349487305
1701058285532714500,1.077714599609375,-4.907320976257324,-7.344459533691406,-1.745565414428711
1701058285549694200,1.094694091796875,-7.886213302612305,-7.310853004455566,-4.002011299133301
1701058285566687200,1.111687255859375,-8.957902908325195,-7.282417297363281,-6.470207214355469
1701058285583683600,1.12868359375,-7.650419235229492,-7.304003715515137,-8.845878601074219
1701058285600708600,1.14570849609375,-5.482779502868652,-7.309196949005127,-10.576290130615234
1701058285617673200,1.162673095703125,-3.8656554222106934,-7.393794059753418,-11.630935668945312
1701058285634649900,1.17964990234375,-3.3801987171173096,-7.532851219177246,-12.296980857849121
1701058285651658000,1.196657958984375,-4.647173881530762,-7.8926897048950195,-12.030325889587402
1701058285668637000,1.213636962890625,-5.516514778137207,-8.52499771118164,-11.347450256347656
1701058285685636000,1.230635986328125,-4.740569114685059,-8.951725006103516,-10.457719802856445
1701058285702630100,1.247630126953125,-3.672675132751465,-9.83344554901123,-9.029315948486328
1701058285719621600,1.26462158203125,-3.089754343032837,-10.721901893615723,-7.7059221267700195
1701058285736615400,1.281615478515625,-2.865946054458618,-11.728715896606445,-6.4070844650268555
1701058285753612000,1.298612060546875,-2.9377357959747314,-12.226346969604492,-4.58988094329834
1701058285770600700,1.3156005859375,-4.664155006408691,-12.585100173950195,-2.1703948974609375
1701058285787584800,1.332584716796875,-7.245094299316406,-13.339906692504883,0.45355796813964844
1701058285804599600,1.349599609375,-8.99441146850586,-13.84520149230957,2.6096439361572266
1701058285821581000,1.3665810546875,-9.42379093170166,-14.163812637329102,4.012643814086914
1701058285838569700,1.38356982421875,-7.959664821624756,-13.908105850219727,4.493228912353516
1701058285855564800,1.400564697265625,-5.499191761016846,-13.33361530303955,4.4664764404296875
1701058285872558800,1.417558837890625,-4.418204307556152,-12.820037841796875,4.550079822540283
1701058285889547800,1.4345478515625,-5.082667350769043,-12.563511848449707,4.876833438873291
1701058285906543400,1.45154345703125,-6.709117412567139,-12.709647178649902,5.587010383605957
1701058285923529700,1.46852978515625,-6.190336227416992,-13.629508972167969,8.071014404296875
1701058285940526000,1.485526123046875,-1.7240047454833984,-13.293721199035645,12.207775115966797
1701058285957521200,1.502521240234375,3.1528730392456055,-11.057477951049805,13.902609825134277
1701058285974513200,1.51951318359375,7.356014251708984,-8.850502014160156,12.586485862731934
1701058285991507500,1.536507568359375,10.661589622497559,-7.3596673011779785,11.870718002319336
1701058286008496000,1.55349609375,11.283651351928711,-5.249606609344482,11.591678619384766
1701058286025489000,1.570489013671875,9.328929901123047,-3.2374489307403564,10.201452255249023
1701058286042487000,1.587487060546875,8.359894752502441,-2.0298967361450195,8.724250793457031
1701058286059474000,1.604473876953125,9.380010604858398,-1.2125295400619507,9.911247253417969
1701058286076469800,1.6214697265625,10.243642807006836,-0.6020071506500244,11.205945014953613
1701058286093461800,1.638461669921875,10.523136138916016,-1.0554362535476685,12.613183975219727
1701058286110452700,1.65545263671875,11.835983276367188,-1.546208381652832,13.713250160217285
1701058286127447600,1.672447509765625,12.593218803405762,-1.4383853673934937,13.43017578125
1701058286144437500,1.6894375,11.781329154968262,-1.4470375776290894,12.213253021240234
1701058286161435400,1.706435302734375,9.60352611541748,-2.0530693531036377,11.232766151428223
1701058286178422300,1.72342236328125,6.998468399047852,-3.060899019241333,11.125975608825684
1701058286195417000,1.7404169921875,4.800065994262695,-4.408924102783203,11.558605194091797
1701058286212401000,1.75740087890625,3.18112850189209,-5.789582252502441,12.271587371826172
1701058286229394200,1.774394287109375,1.3183517456054688,-7.367295265197754,12.338994979858398
1701058286246392000,1.79139208984375,-0.7849950790405273,-9.118875503540039,11.713513374328613
1701058286263383600,1.808383544921875,-2.563751697540283,-11.018810272216797,10.95200252532959
1701058286280372500,1.82537255859375,-3.604417324066162,-13.001415252685547,9.893224716186523
1701058286297363200,1.84236328125,-4.37857723236084,-14.557150840759277,7.926169395446777
1701058286314368500,1.859368408203125,-4.021454334259033,-15.165727615356445,5.872043609619141
1701058286331360300,1.8763603515625,-3.4258081912994385,-15.26710319519043,4.263693809509277
1701058286348345000,1.893344970703125,-3.139190435409546,-14.706700325012207,2.8034958839416504
1701058286365346300,1.91034619140625,-3.1950559616088867,-14.007787704467773,1.7797508239746094
1701058286382335200,1.927335205078125,-3.5709731578826904,-13.037857055664062,0.6783900260925293
1701058286399329000,1.9443291015625,-3.9002556800842285,-11.942184448242188,-0.5166559219360352
1701058286416321300,1.9613212890625,-3.966301441192627,-10.44808578491211,-1.7981882095336914
1701058286433313000,1.97831298828125,-3.726119041442871,-9.463957786560059,-3.033604621887207
1701058286450306800,1.995306884765625,-3.643413543701172,-8.995266914367676,-4.152858734130859
1701058286467300000,2.012300048828125,-4.665970802307129,-9.1038179397583,-5.767412185668945
1701058286484291300,2.029291259765625,-6.002469062805176,-8.799291610717773,-7.983279228210449
1701058286501287000,2.046286865234375,-7.064053535461426,-8.61616039276123,-10.005054473876953
1701058286518274800,2.06327490234375,-6.93218469619751,-8.433419227600098,-12.34595012664795
1701058286535270000,2.080269775390625,-6.4745073318481445,-8.475369453430176,-14.010278701782227
1701058286552264200,2.09726416015625,-5.55234432220459,-8.99917984008789,-13.865272521972656
1701058286569241600,2.11424169921875,-4.333914756774902,-9.381248474121094,-12.81688404083252
1701058286586249700,2.131249755859375,-2.8283157348632812,-9.767276763916016,-11.735997200012207
1701058286603239400,2.148239501953125,-2.2916674613952637,-10.112018585205078,-10.973772048950195
1701058286620233200,2.165233154296875,-3.0143375396728516,-11.061041831970215,-9.919245719909668
1701058286637227500,2.1822275390625,-3.6359426975250244,-12.143168449401855,-8.137460708618164
1701058286654217200,2.19921728515625,-3.7190628051757812,-13.724185943603516,-5.6806135177612305
1701058286671212500,2.216212646484375,-3.8889105319976807,-15.08833122253418,-2.7242355346679688
1701058286688194600,2.233194580078125,-4.903916835784912,-15.921530723571777,-0.14130687713623047
1701058286705194500,2.250194580078125,-6.395562171936035,-16.2664794921875,2.006655693054199
1701058286722192100,2.267192138671875,-7.121984004974365,-16.531139373779297,3.384883403778076
1701058286739179000,2.284178955078125,-6.543387413024902,-16.61737060546875,4.0246124267578125
1701058286756174000,2.301174072265625,-5.689910888671875,-16.51481819152832,4.588581085205078
1701058286773168400,2.31816845703125,-4.694715976715088,-16.206729888916016,5.313350200653076
1701058286790156800,2.33515673828125,-3.1049840450286865,-15.359903335571289,6.332720756530762
1701058286807152400,2.35215234375,-0.7442145347595215,-13.266583442687988,7.917755126953125
1701058286824144400,2.369144287109375,0.29938316345214844,-10.76208209991455,8.770163536071777
1701058286841145000,2.38614501953125,0.7581586837768555,-9.020785331726074,11.255016326904297
1701058286858124800,2.403124755859375,0.9602413177490234,-6.915295600891113,13.812928199768066
1701058286875124700,2.420124755859375,1.2806367874145508,-4.6921820640563965,13.641921997070312
1701058286892116700,2.43711669921875,2.305112838745117,-3.4803969860076904,11.71883773803711
1701058286909105200,2.454105224609375,5.516408920288086,-3.049293041229248,11.720762252807617
1701058286926100500,2.4711005859375,8.881333351135254,-2.7257468700408936,13.25056266784668
1701058286943094300,2.48809423828125,11.516846656799316,-2.445296287536621,13.689295768737793
1701058286960083200,2.505083251953125,12.955738067626953,-2.4793074131011963,13.746110916137695
1701058286977079000,2.5220791015625,13.417973518371582,-2.289013624191284,14.378715515136719
1701058286994070800,2.53907080078125,13.509305000305176,-2.1150827407836914,13.997581481933594
1701058287011064800,2.55606494140625,13.258810043334961,-2.3473012447357178,12.944746971130371
1701058287028046300,2.57304638671875,12.518885612487793,-2.761216163635254,12.20152759552002
1701058287045048000,2.590048095703125,11.127345085144043,-3.1619348526000977,11.559608459472656
1701058287062043400,2.60704345703125,9.125588417053223,-3.487412929534912,11.520566940307617
1701058287079031600,2.624031494140625,6.6488752365112305,-4.138336181640625,12.182735443115234
1701058287096016100,2.64101611328125,4.106686592102051,-5.178769111633301,13.025590896606445
1701058287113014300,2.65801416015625,2.138504981994629,-6.457249641418457,13.417747497558594
1701058287130002000,2.675001953125,0.14587783813476562,-8.005901336669922,13.114715576171875
1701058287147008000,2.692008056640625,-1.6139702796936035,-9.679296493530273,12.074348449707031
1701058287164003000,2.709003173828125,-2.6549229621887207,-11.456573486328125,10.867599487304688
1701058287180992000,2.725991943359375,-3.269085168838501,-13.390754699707031,9.757858276367188
1701058287197977300,2.742977294921875,-4.239706039428711,-14.99160099029541,8.415822982788086
1701058287214977500,2.7599775390625,-5.570295333862305,-16.261669158935547,6.735104084014893
1701058287231966700,2.776966796875,-5.7890777587890625,-16.37358856201172,5.176250457763672
1701058287248953300,2.793953369140625,-5.5974440574646,-15.707283020019531,3.7933661937713623
1701058287265951500,2.810951416015625,-5.6215620040893555,-14.488356590270996,2.030442237854004
1701058287282953200,2.827953125,-5.651135444641113,-13.136992454528809,1.1460347175598145
1701058287299929000,2.84492919921875,-5.948588848114014,-12.350624084472656,0.014251708984375
1701058287316926700,2.8619267578125,-5.00016975402832,-11.23947811126709,-1.429295539855957
1701058287333930800,2.8789306640625,-3.890730142593384,-10.275779724121094,-2.961824417114258
1701058287350920700,2.895920654296875,-3.784749984741211,-9.710009574890137,-5.036032676696777
1701058287367909000,2.9129091796875,-5.611547946929932,-9.205780029296875,-7.239587783813477
1701058287384901400,2.9299013671875,-8.37435531616211,-8.893388748168945,-9.744296073913574
1701058287401895700,2.946895751953125,-9.289135932922363,-9.081889152526855,-12.18151569366455
1701058287418884400,2.96388427734375,-8.449604034423828,-9.498597145080566,-14.162610054016113
1701058287435879200,2.980879150390625,-6.718510150909424,-9.555231094360352,-15.09701156616211
1701058287452873500,2.99787353515625,-4.446137428283691,-9.801626205444336,-14.521049499511719
1701058287469862100,3.014862060546875,-2.3573484420776367,-10.096441268920898,-13.35196590423584
1701058287486860000,3.031860107421875,-1.5100624561309814,-10.344210624694824,-11.968530654907227
1701058287503848200,3.04884814453125,-1.868516445159912,-10.882532119750977,-10.379232406616211
1701058287520845600,3.065845458984375,-2.3087825775146484,-11.482559204101562,-8.687796592712402
1701058287537825300,3.0828251953125,-3.266024589538574,-12.191502571105957,-7.095030784606934
1701058287554828500,3.09982861328125,-4.62112283706665,-12.958853721618652,-5.357898712158203
1701058287571811800,3.116811767578125,-6.1794610023498535,-13.802945137023926,-3.3890304565429688
1701058287588813800,3.133813720703125,-7.156789779663086,-14.467025756835938,-1.2593679428100586
1701058287605806600,3.150806640625,-7.069140434265137,-14.862950325012207,0.6788811683654785
1701058287622796300,3.16779638671875,-7.309250831604004,-15.182416915893555,2.3553061485290527
1701058287639794400,3.18479443359375,-7.971118927001953,-15.177648544311523,3.607886552810669
1701058287656784100,3.2017841796875,-8.109184265136719,-14.982597351074219,4.081325531005859
1701058287673777000,3.21877685546875,-7.890266418457031,-14.772207260131836,4.333423137664795
1701058287690765600,3.235765625,-7.593335151672363,-14.382183074951172,4.709227085113525
1701058287707753000,3.2527529296875,-6.624607086181641,-14.068378448486328,5.100768089294434
1701058287724757200,3.26975732421875,-6.098339080810547,-14.346929550170898,6.242916107177734
1701058287741747500,3.28674755859375,-4.1317644119262695,-14.942873001098633,9.236968040466309
1701058287758730000,3.30372998046875,-1.6021685600280762,-13.947304725646973,11.845995903015137
1701058287775730200,3.320730224609375,1.6809988021850586,-12.292577743530273,11.692499160766602
1701058287792728000,3.33772802734375,6.151716232299805,-10.0082426071167,10.472102165222168
1701058287809718000,3.354718017578125,8.588739395141602,-8.75738525390625,10.137420654296875
1701058287826710800,3.371710693359375,9.095664978027344,-7.495968818664551,12.331470489501953
1701058287843703000,3.388703125,8.00650691986084,-5.578624725341797,14.379289627075195
1701058287860695800,3.40569580078125,7.4382781982421875,-3.7496109008789062,14.760115623474121
1701058287877686800,3.422686767578125,7.504603385925293,-3.0506739616394043,14.26447582244873
1701058287894683000,3.439682861328125,9.502378463745117,-2.8951058387756348,13.063680648803711
1701058287911673900,3.456673828125,12.13647747039795,-3.2346885204315186,11.37303352355957
1701058287928656000,3.47365576171875,13.297991752624512,-3.275467872619629,9.92828369140625
1701058287945659000,3.490658935546875,12.928862571716309,-3.213390350341797,9.180057525634766
1701058287962651600,3.507651611328125,11.28254508972168,-3.0833303928375244,9.141695022583008
1701058287979644200,3.52464404296875,9.091894149780273,-3.127774477005005,9.859898567199707
1701058287996624400,3.541624267578125,7.451119422912598,-3.572658061981201,10.711114883422852
1701058288013624000,3.5586240234375,6.444940567016602,-4.474961280822754,11.39935302734375
1701058288030611200,3.575611083984375,5.36030387878418,-5.658761978149414,11.642935752868652
1701058288047604700,3.592604736328125,4.370086669921875,-6.943272590637207,11.292444229125977
1701058288064601000,3.60960107421875,2.8776330947875977,-8.405948638916016,10.7890043258667
1701058288081591000,3.626591064453125,0.7904148101806641,-10.02265739440918,10.299829483032227
1701058288098585600,3.643585693359375,-1.5850648880004883,-11.665778160095215,9.638784408569336
1701058288115577900,3.660577880859375,-3.4553380012512207,-13.103940963745117,8.870553970336914
1701058288132569000,3.677569091796875,-4.783278465270996,-14.295600891113281,7.922030448913574
1701058288149560600,3.694560546875,-5.688436031341553,-15.369739532470703,7.10395622253418
1701058288166556700,3.711556640625,-6.212285041809082,-16.143522262573242,5.999169826507568
1701058288183549700,3.7285498046875,-5.708255767822266,-16.333168029785156,4.814333915710449
1701058288200546000,3.745546142578125,-4.763792037963867,-15.781280517578125,3.5397744178771973
1701058288217531000,3.76253076171875,-3.862579345703125,-14.813836097717285,2.3265318870544434
1701058288234525700,3.779525634765625,-3.3057708740234375,-13.5465087890625,1.1910929679870605
1701058288251526700,3.796526611328125,-3.9745359420776367,-12.679640769958496,0.10888195037841797
1701058288268516400,3.813516357421875,-5.693747043609619,-11.4442777633667,-1.067866325378418
1701058288285511700,3.83051171875,-5.956897735595703,-9.935111999511719,-2.3175783157348633
1701058288302504200,3.847504150390625,-4.442432403564453,-9.012311935424805,-3.794757843017578
1701058288319496700,3.86449658203125,-3.107738494873047,-8.617835998535156,-5.276699066162109
1701058288336485600,3.881485595703125,-3.844388723373413,-8.685927391052246,-6.429970741271973
1701058288353486300,3.898486328125,-5.458893775939941,-8.78097915649414,-8.288342475891113
1701058288370475000,3.91547509765625,-6.599294662475586,-8.914467811584473,-11.045392036437988
1701058288387467500,3.932467529296875,-6.994747161865234,-9.022459030151367,-13.788331985473633
1701058288404449500,3.949449462890625,-6.151432037353516,-9.139408111572266,-15.495887756347656
1701058288421453000,3.966453125,-4.874603271484375,-9.3314208984375,-15.531709671020508
1701058288438445300,3.9834453125,-4.283987522125244,-9.72431755065918,-14.02713394165039
1701058288455441000,4.00044091796875,-3.9477741718292236,-10.51884651184082,-12.114766120910645
1701058288472428000,4.017427978515625,-3.007737159729004,-10.966694831848145,-10.778338432312012
1701058288489412600,4.03441259765625,-2.909396171569824,-11.4993257522583,-9.584717750549316
1701058288506422500,4.051422607421875,-3.9380557537078857,-12.34923267364502,-7.569362640380859
1701058288523408400,4.068408447265625,-5.320250988006592,-13.58854866027832,-4.973667144775391
1701058288540401200,4.085401123046875,-5.992164134979248,-14.724479675292969,-2.525601387023926
1701058288557394000,4.102393798828125,-6.36981725692749,-15.54050350189209,-0.6776742935180664
1701058288574386400,4.119386474609375,-7.140950679779053,-16.057281494140625,0.8100605010986328
1701058288591379000,4.13637890625,-7.267685413360596,-16.260284423828125,1.9017276763916016
1701058288608371700,4.153371826171875,-6.172695159912109,-16.255666732788086,2.5089781284332275
1701058288625364200,4.1703642578125,-5.2767534255981445,-15.955828666687012,3.1449432373046875
1701058288642354700,4.187354736328125,-5.707900524139404,-15.500106811523438,3.9226326942443848
1701058288659349800,4.204349853515625,-6.710246562957764,-15.395954132080078,5.544511318206787
1701058288676342500,4.221342529296875,-5.328908920288086,-14.756328582763672,8.299971580505371
1701058288693335000,4.2383349609375,-2.8523941040039062,-12.930885314941406,9.998635292053223
1701058288710327600,4.25532763671875,0.1074361801147461,-11.25876235961914,11.448267936706543
1701058288727320000,4.272320068359375,1.0014419555664062,-9.578264236450195,13.753744125366211
1701058288744297700,4.289297607421875,0.4666872024536133,-8.395095825195312,14.397889137268066
1701058288761305300,4.306305419921875,4.063072204589844,-7.306571960449219,16.518756866455078
1701058288778300700,4.32330078125,8.021883010864258,-4.719797134399414,17.2250919342041
1701058288795286300,4.340286376953125,9.879827499389648,-3.5117006301879883,16.475345611572266
1701058288812288300,4.357288330078125,10.43168830871582,-3.448237419128418,14.355562210083008
1701058288829289500,4.37428955078125,11.581393241882324,-2.9826886653900146,12.187335968017578
1701058288846268700,4.3912685546875,12.543041229248047,-2.2124438285827637,11.224140167236328
1701058288863261200,4.40826123046875,12.7180757522583,-1.6684879064559937,10.773983001708984
1701058288880253700,4.425253662109375,11.942828178405762,-2.0019354820251465,11.00001335144043
1701058288897244200,4.442244140625,10.296907424926758,-1.988391399383545,11.583738327026367
1701058288914241300,4.4592412109375,8.391789436340332,-1.7424893379211426,12.094968795776367
1701058288931231700,4.476231689453125,6.210217475891113,-2.0004382133483887,12.385592460632324
1701058288948223000,4.493222900390625,4.819828987121582,-2.834629535675049,12.417645454406738
1701058288965216000,4.510216064453125,3.995835304260254,-3.9608685970306396,12.093442916870117
1701058288982201600,4.52720166015625,3.0243892669677734,-5.299736976623535,11.928747177124023
1701058288999199700,4.54419970703125,1.4724187850952148,-6.724644184112549,11.583627700805664
1701058289016197600,4.56119775390625,-0.8078579902648926,-8.366884231567383,10.974906921386719
1701058289033187800,4.578187744140625,-3.028642177581787,-9.87152099609375,10.118697166442871
1701058289050180400,4.595180419921875,-4.768552780151367,-10.83315658569336,8.911835670471191
1701058289067172900,4.6121728515625,-6.001036167144775,-11.548006057739258,7.838623046875
1701058289084165000,4.6291650390625,-6.408191204071045,-12.228469848632812,7.537631034851074
1701058289101158700,4.64615869140625,-6.438746929168701,-13.237884521484375,6.873711585998535
1701058289118151000,4.66315087890625,-5.939210414886475,-13.934630393981934,5.62946081161499
1701058289135143700,4.680143798828125,-5.355869770050049,-14.577187538146973,4.076113700866699
1701058289152136200,4.69713623046875,-4.590579032897949,-14.415094375610352,2.4253721237182617
1701058289169128400,4.71412841796875,-4.95328426361084,-13.487582206726074,0.6383833885192871
1701058289186120200,4.7311201171875,-5.622485160827637,-12.500044822692871,-1.048111915588379
1701058289203115000,4.748114990234375,-5.194215774536133,-11.28940200805664,-2.9351749420166016
1701058289220106800,4.765106689453125,-4.458650588989258,-10.399826049804688,-5.120638847351074
1701058289237099300,4.782099365234375,-4.037957668304443,-9.621041297912598,-6.8456010818481445
1701058289254081300,4.799081298828125,-4.242114067077637,-9.090826988220215,-8.101338386535645
1701058289271084500,4.81608447265625,-4.002762317657471,-8.89505386352539,-9.619547843933105
1701058289288077300,4.833077392578125,-3.492628574371338,-8.902093887329102,-11.118374824523926
1701058289305068300,4.850068359375,-3.8789312839508057,-8.626972198486328,-12.549692153930664
1701058289322064000,4.86706396484375,-4.643160820007324,-8.201226234436035,-13.722855567932129
1701058289339055000,4.88405517578125,-5.138132095336914,-7.984647750854492,-14.598395347595215
1701058289356048000,4.9010478515625,-5.349021911621094,-7.930967330932617,-15.01648998260498
1701058289373037800,4.918037841796875,-4.876720905303955,-8.517840385437012,-14.00578498840332
1701058289390035500,4.935035400390625,-3.95686936378479,-9.096996307373047,-11.860724449157715
1701058289407025400,4.952025390625,-3.738628625869751,-9.738166809082031,-9.760056495666504
1701058289424020700,4.969020751953125,-4.793750762939453,-10.305755615234375,-8.281476020812988
1701058289440992000,4.985991943359375,-6.2774763107299805,-10.743424415588379,-6.430200576782227
1701058289458004500,5.00300439453125,-6.864170074462891,-11.479155540466309,-4.673845291137695
1701058289474995200,5.0199951171875,-7.151908874511719,-12.48705768585205,-2.5247249603271484
1701058289491989000,5.036989013671875,-7.20896053314209,-13.490198135375977,-0.25151538848876953
1701058289508981500,5.0539814453125,-6.679465293884277,-13.935342788696289,1.5258049964904785
1701058289525982200,5.070982177734375,-6.357032775878906,-13.908523559570312,2.7345163822174072
1701058289542966500,5.087966552734375,-7.214358806610107,-13.657087326049805,3.581968069076538
1701058289559959300,5.104959228515625,-8.500052452087402,-13.582673072814941,4.2531538009643555
1701058289576952000,5.1219521484375,-8.301298141479492,-13.523268699645996,4.901497840881348
1701058289593944800,5.13894482421875,-6.836433410644531,-13.471878051757812,5.283891677856445
1701058289610937300,5.155937255859375,-4.30997371673584,-13.103864669799805,7.084295272827148
1701058289627920100,5.172920166015625,-1.9772653579711914,-11.823341369628906,9.27689266204834
1701058289644918300,5.189918212890625,-0.31072425842285156,-10.63062858581543,10.543535232543945
1701058289661919500,5.20691943359375,1.6278705596923828,-10.05639934539795,10.182038307189941
1701058289678907600,5.22390771484375,3.494868278503418,-9.724496841430664,9.158808708190918
1701058289695890000,5.240889892578125,6.17757511138916,-9.130457878112793,9.506885528564453
1701058289712893200,5.25789306640625,8.525494575500488,-8.01209831237793,10.51574420928955
1701058289729885700,5.2748857421875,9.450992584228516,-7.39564847946167,11.63593578338623
1701058289746875600,5.291875732421875,9.568511009216309,-6.598116874694824,13.551268577575684
1701058289763861800,5.30886181640625,10.284563064575195,-5.2498064041137695,14.059883117675781
1701058289780856800,5.32585693359375,11.771368026733398,-4.10910701751709,12.863118171691895
1701058289797848300,5.342848388671875,12.409128189086914,-3.4354805946350098,11.583978652954102
1701058289814839000,5.359839111328125,10.957501411437988,-3.2689096927642822,10.31005859375
1701058289831835600,5.376835693359375,8.843478202819824,-3.12070894241333,8.986968040466309
1701058289848820700,5.39382080078125,7.269130706787109,-2.9555559158325195,8.170633316040039
1701058289865829400,5.410829345703125,6.651264190673828,-3.0368223190307617,8.086325645446777
1701058289882819300,5.4278193359375,6.806371688842773,-3.284357786178589,8.812679290771484
1701058289899812000,5.44481201171875,5.88167667388916,-4.162134170532227,10.175644874572754
1701058289916796000,5.4617958984375,3.502800941467285,-5.362065315246582,11.086869239807129
1701058289933797400,5.47879736328125,0.8928747177124023,-6.809669494628906,11.1740140914917
1701058289950790100,5.4957900390625,-1.165872573852539,-8.350564956665039,10.509675025939941
1701058289967782700,5.51278271484375,-2.54184627532959,-9.714310646057129,9.418850898742676
1701058289984775200,5.529775146484375,-3.4254088401794434,-11.415121078491211,7.903296947479248
1701058290001767700,5.546767578125,-3.8195245265960693,-13.303682327270508,6.474051475524902
1701058290018758400,5.56375830078125,-4.13875150680542,-14.52562141418457,5.239384651184082
1701058290035755500,5.580755615234375,-4.255549430847168,-14.972901344299316,4.283907413482666
1701058290052743400,5.597743408203125,-4.529825210571289,-15.133448600769043,3.3868303298950195
1701058290069741000,5.614740966796875,-4.966897010803223,-14.925420761108398,2.4292244911193848
1701058290086720500,5.631720458984375,-5.766286849975586,-14.157252311706543,1.3459744453430176
1701058290103723800,5.648723876953125,-6.417876720428467,-12.700048446655273,0.05681896209716797
1701058290120716500,5.665716552734375,-6.183027267456055,-11.054220199584961,-1.2660856246948242
1701058290137709000,5.682708984375,-5.11833381652832,-9.923592567443848,-2.511664390563965
1701058290154701800,5.699701904296875,-3.893374443054199,-8.862959861755371,-3.652724266052246
1701058290171694300,5.7166943359375,-3.515005111694336,-7.953840732574463,-4.629243850708008
1701058290188695800,5.73369580078125,-3.456624984741211,-6.902688026428223,-5.757960319519043
1701058290205679400,5.750679443359375,-3.1062071323394775,-6.666276454925537,-6.90633487701416
1701058290222672100,5.767672119140625,-3.327436923980713,-6.951416969299316,-8.3156156539917
1701058290239665000,5.784664794921875,-3.925800323486328,-7.155974388122559,-10.021140098571777
1701058290256651800,5.80165185546875,-4.469905853271484,-7.407413005828857,-12.136316299438477
1701058290273639700,5.8186396484375,-4.97847843170166,-7.465375900268555,-14.284181594848633
1701058290290642700,5.835642578125,-4.683577537536621,-7.42500114440918,-15.828564643859863
1701058290307634400,5.852634521484375,-3.6105756759643555,-7.590112209320068,-15.941337585449219
1701058290324629000,5.86962890625,-2.5706419944763184,-7.821817398071289,-14.334891319274902
1701058290341610200,5.8866103515625,-2.0010576248168945,-8.158594131469727,-11.814936637878418
1701058290358613200,5.90361328125,-2.346344232559204,-8.592071533203125,-9.386153221130371
1701058290375603500,5.920603515625,-3.305959701538086,-9.144996643066406,-7.414023399353027
1701058290392601300,5.937601318359375,-4.270112991333008,-9.825552940368652,-5.9371795654296875
1701058290409574700,5.95457470703125,-4.902693748474121,-10.436381340026855,-4.452976226806641
1701058290426586000,5.971586181640625,-5.214993953704834,-11.164517402648926,-2.7574386596679688
1701058290443576300,5.988576416015625,-5.304477214813232,-11.85054874420166,-0.8443179130554199
1701058290460569000,6.005569091796875,-5.567773818969727,-12.703487396240234,0.9424691200256348
1701058290477561600,6.0225615234375,-5.61801815032959,-13.458684921264648,2.2315917015075684
1701058290494554000,6.03955419921875,-5.182103633880615,-13.731986999511719,2.9527204036712646
1701058290511547100,6.056547119140625,-4.930893421173096,-13.555717468261719,3.501913547515869
1701058290528536300,6.073536376953125,-5.25703763961792,-13.455987930297852,4.089081764221191
1701058290545532400,6.090532470703125,-5.571206569671631,-13.56600570678711,4.804759979248047
1701058290562525000,6.10752490234375,-4.852574825286865,-13.548233032226562,5.562936782836914
1701058290579517700,6.124517578125,-4.104348659515381,-13.063687324523926,6.279896259307861
1701058290596497200,6.1414970703125,-3.0992226600646973,-12.243017196655273,6.9638352394104
1701058290613492500,6.158492431640625,-1.5457773208618164,-11.114463806152344,7.258140563964844
1701058290630486000,6.175486083984375,0.8145723342895508,-10.392518997192383,7.896609783172607
1701058290647479600,6.1924794921875,3.7566699981689453,-9.285518646240234,9.960227012634277
1701058290664472300,6.209472412109375,5.316066741943359,-7.386580467224121,11.62302017211914
1701058290681471700,6.2264716796875,6.538297653198242,-5.454386234283447,11.995556831359863
1701058290698462500,6.24346240234375,8.017457962036133,-3.80340576171875,11.843048095703125
1701058290715452000,6.260451904296875,9.02318000793457,-2.26930570602417,11.509876251220703
1701058290732448500,6.277448486328125,9.29988956451416,-1.4086058139801025,11.15756607055664
1701058290749433600,6.29443359375,9.250903129577637,-1.1944653987884521,10.967988967895508
1701058290766436600,6.3114365234375,10.01458740234375,-1.4439393281936646,10.818317413330078
1701058290783429400,6.328429443359375,11.22893238067627,-0.9063262939453125,10.542826652526855
1701058290800419300,6.34541943359375,11.497027397155762,-0.1881110668182373,10.369309425354004
1701058290817417200,6.362417236328125,10.429287910461426,-0.18771159648895264,10.812017440795898
1701058290834407200,6.3794072265625,8.867390632629395,-0.8960523009300232,11.55208969116211
1701058290851400000,6.39639990234375,7.224281311035156,-1.8573737144470215,12.033299446105957
1701058290868388600,6.413388671875,5.842635154724121,-3.0880374908447266,12.234039306640625
1701058290885372200,6.4303720703125,4.973024368286133,-4.520436763763428,12.042728424072266
1701058290902372900,6.447372802734375,4.08145809173584,-5.852971076965332,11.592386245727539
1701058290919370500,6.46437060546875,2.317819595336914,-7.3699235916137695,11.088167190551758
1701058290936363000,6.481363037109375,-0.18089675903320312,-9.046476364135742,10.572000503540039
1701058290953353000,6.49835302734375,-2.6852669715881348,-10.631877899169922,9.88504409790039
1701058290970350800,6.515350830078125,-4.587464332580566,-12.023979187011719,8.949455261230469
1701058290987338800,6.5323388671875,-5.612511157989502,-13.179915428161621,7.818891525268555
1701058291004333300,6.549333251953125,-5.563603401184082,-14.374526977539062,6.885602951049805
1701058291021318100,6.566318115234375,-5.076141357421875,-15.316316604614258,5.728321552276611
1701058291038318800,6.58331884765625,-4.77544641494751,-15.678496360778809,4.472082138061523
1701058291055311600,6.6003115234375,-4.3465776443481445,-15.180603981018066,3.228062391281128
1701058291072304000,6.61730419921875,-4.015702247619629,-14.375703811645508,2.1383252143859863
1701058291089290500,6.63429052734375,-4.1824846267700195,-13.267373085021973,1.0652756690979004
1701058291106292000,6.6512919921875,-4.26808500289917,-12.278080940246582,-0.2888822555541992
1701058291123282000,6.668281982421875,-4.297152996063232,-11.392935752868652,-1.8171167373657227
1701058291140274400,6.6852744140625,-4.231151103973389,-10.415840148925781,-3.9218883514404297
1701058291157271300,6.702271240234375,-4.085202217102051,-9.749812126159668,-6.213560104370117
1701058291174260200,6.71926025390625,-4.23225736618042,-9.274774551391602,-8.530892372131348
1701058291191242000,6.736241943359375,-4.506120204925537,-8.887946128845215,-11.032696723937988
1701058291208234500,6.753234375,-4.651951313018799,-8.455559730529785,-13.081354141235352
1701058291225237800,6.77023779296875,-4.410674571990967,-8.154699325561523,-13.750083923339844
1701058291242230300,6.787230224609375,-3.3095524311065674,-8.153746604919434,-13.885000228881836
1701058291259212500,6.804212646484375,-2.8185935020446777,-8.19874382019043,-13.987459182739258
1701058291276215800,6.8212158203125,-3.6675643920898438,-8.103537559509277,-13.471260070800781
1701058291293208600,6.83820849609375,-3.9281318187713623,-8.160665512084961,-12.578253746032715
1701058291310201000,6.855201171875,-3.4130773544311523,-8.416888236999512,-11.463207244873047
1701058291327193900,6.87219384765625,-2.963022232055664,-9.070345878601074,-9.740222930908203
1701058291344184600,6.8891845703125,-3.0838277339935303,-10.080743789672852,-7.876137733459473
1701058291361180700,6.9061806640625,-3.4992215633392334,-11.0010986328125,-6.128068923950195
1701058291378169900,6.923169921875,-3.8773183822631836,-11.880416870117188,-4.1176300048828125
1701058291395166000,6.940166015625,-3.909174919128418,-12.664092063903809,-2.122554302215576
1701058291412157000,6.957156982421875,-4.179266929626465,-13.298200607299805,-0.08954620361328125
1701058291429148400,6.9741484375,-4.905991554260254,-13.897388458251953,1.4737701416015625
1701058291446141000,6.991140869140625,-5.44010066986084,-14.22109603881836,2.674969434738159
1701058291463137500,7.008137451171875,-5.923095703125,-14.356584548950195,3.3250346183776855
1701058291480115500,7.025115478515625,-5.900527000427246,-14.15342903137207,3.7383642196655273
1701058291497109500,7.042109619140625,-5.899337291717529,-14.34228515625,3.975165605545044
1701058291514103600,7.059103515625,-5.520136833190918,-14.61572265625,4.473397254943848
1701058291531097000,7.07609716796875,-4.960598945617676,-14.443498611450195,5.3282856941223145
1701058291548091600,7.093091552734375,-4.27047061920166,-13.97354507446289,7.126712322235107
1701058291565082000,7.11008203125,-2.5239405632019043,-12.180862426757812,8.510683059692383
1701058291582075100,7.1270751953125,-0.6790695190429688,-10.401593208312988,9.424007415771484
1701058291599068200,7.144068115234375,0.9998893737792969,-9.60278606414795,11.052037239074707
1701058291616061200,7.161061279296875,3.1106672286987305,-8.425629615783691,13.917842864990234
1701058291633053400,7.178053466796875,5.471203804016113,-6.726831436157227,15.220388412475586
1701058291650058500,7.19505859375,8.171737670898438,-4.623025894165039,14.338285446166992
1701058291667048200,7.212048095703125,9.774898529052734,-2.1867990493774414,12.591259956359863
1701058291684036400,7.229036376953125,9.570940017700195,-0.4711751937866211,11.185062408447266
1701058291701034500,7.246034423828125,8.530254364013672,0.16691601276397705,10.482016563415527
1701058291718024200,7.263024169921875,7.831604957580566,0.69581139087677,10.2401762008667
1701058291735017000,7.280016845703125,8.577150344848633,1.3915327787399292,10.449851036071777
1701058291752009700,7.297009765625,10.035162925720215,1.944698452949524,11.056629180908203
1701058291769002200,7.314002197265625,10.997490882873535,1.67233407497406,11.982328414916992
1701058291785995000,7.3309951171875,10.997578620910645,0.7666776180267334,13.339018821716309
1701058291802976800,7.347976806640625,9.92432975769043,-0.40848004817962646,14.433732986450195
1701058291819980300,7.364980224609375,8.155232429504395,-1.6177010536193848,14.722209930419922
1701058291836972800,7.381972900390625,5.799797058105469,-3.1150219440460205,14.24494457244873
1701058291853965600,7.398965576171875,3.3234081268310547,-4.966823101043701,13.313666343688965
1701058291870958000,7.4159580078125,1.217240333557129,-6.952512741088867,12.363725662231445
1701058291887940900,7.43294091796875,-0.48995018005371094,-9.023860931396484,11.562670707702637
1701058291904943000,7.449943115234375,-2.1493048667907715,-11.033851623535156,10.643637657165527
1701058291921936100,7.46693603515625,-3.8544278144836426,-12.99319839477539,9.513253211975098
1701058291938928600,7.4839287109375,-5.372570037841797,-14.774181365966797,8.169539451599121
1701058291955921400,7.50092138671875,-5.957422256469727,-16.11925506591797,6.875606536865234
1701058291972914000,7.517913818359375,-5.469940185546875,-16.806243896484375,5.400275230407715
1701058291989906700,7.53490673828125,-4.565927505493164,-16.365276336669922,3.9503116607666016
1701058292006899500,7.5518994140625,-4.27143669128418,-15.5454740524292,3.1132915019989014
1701058292023892000,7.56889208984375,-4.670254230499268,-14.586021423339844,2.381516933441162
1701058292040884500,7.585884521484375,-5.1268839836120605,-13.593731880187988,1.7435426712036133
1701058292057877000,7.602876953125,-4.958366870880127,-12.344265937805176,0.9820780754089355
1701058292074869800,7.619869873046875,-4.490216255187988,-11.47460651397705,-0.10834884643554688
1701058292091862500,7.636862548828125,-3.2671899795532227,-10.438468933105469,-1.2938299179077148
1701058292108855000,7.65385498046875,-2.5305538177490234,-9.682694435119629,-2.469911575317383
1701058292125848000,7.67084814453125,-2.3078017234802246,-9.431615829467773,-4.004919052124023
1701058292142840000,7.687840087890625,-3.524080276489258,-9.800829887390137,-6.485318183898926
1701058292159832800,7.704832763671875,-5.377041816711426,-9.419476509094238,-9.645564079284668
1701058292176825600,7.72182568359375,-6.862019062042236,-8.880718231201172,-13.012102127075195
1701058292193818000,7.738818115234375,-6.3535261154174805,-8.56170654296875,-14.774402618408203
1701058292210809000,7.75580908203125,-4.436844825744629,-8.993494987487793,-14.850823402404785
1701058292227805200,7.77280517578125,-2.3547744750976562,-9.022514343261719,-14.443543434143066
1701058292244796700,7.789796630859375,-0.9966166019439697,-8.6943941116333,-14.026585578918457
1701058292261789200,7.8067890625,-1.1898744106292725,-8.571273803710938,-13.691970825195312
1701058292278781400,7.823781494140625,-2.676267147064209,-8.888521194458008,-12.363740921020508
1701058292295774000,7.84077392578125,-3.279815196990967,-9.645357131958008,-9.7047758102417
1701058292312757500,7.857757568359375,-3.0833351612091064,-10.351320266723633,-7.069868087768555
1701058292329751800,7.874751708984375,-3.0695695877075195,-10.991865158081055,-4.934243202209473
1701058292346752000,7.891751953125,-3.785776138305664,-11.853340148925781,-2.845071792602539
1701058292363744800,7.908744873046875,-4.522494316101074,-12.408507347106934,-0.985321044921875
1701058292380737300,7.9257373046875,-4.979218482971191,-12.93313217163086,0.5866003036499023
1701058292397739500,7.942739501953125,-5.499351978302002,-13.580103874206543,1.878066062927246
1701058292414723300,7.959723388671875,-5.785095691680908,-14.176029205322266,2.7201273441314697
1701058292431696600,7.976696533203125,-5.927060604095459,-14.438596725463867,3.597370147705078
1701058292448707800,7.993707763671875,-6.458456516265869,-14.179733276367188,4.2081074714660645
1701058292465700400,8.010700439453124,-6.847686767578125,-14.14400863647461,4.602640628814697
1701058292482692900,8.02769287109375,-5.914384365081787,-13.93208122253418,4.526082992553711
1701058292499686000,8.044685791015626,-4.0566205978393555,-13.36781120300293,4.641180992126465
1701058292516678400,8.061678466796875,-2.120722770690918,-12.375787734985352,4.8678178787231445
1701058292533671000,8.0786708984375,-0.2977633476257324,-11.927475929260254,7.8287153244018555
1701058292550653400,8.0956533203125,0.8610639572143555,-10.18471908569336,12.71080207824707
1701058292567656400,8.112656494140625,1.2707958221435547,-7.593947410583496,15.711128234863281
1701058292584649000,8.12964892578125,1.9979000091552734,-5.643274784088135,15.818194389343262
1701058292601641700,8.146641845703124,3.730489730834961,-4.559158802032471,15.188793182373047
1701058292618631700,8.163631591796875,6.571331977844238,-3.697385787963867,15.231592178344727
1701058292635629300,8.18062939453125,9.300673484802246,-3.056344747543335,14.749926567077637
1701058292652619500,8.19761962890625,11.503399848937988,-2.7092766761779785,14.035542488098145
1701058292669599500,8.214599609375,13.069036483764648,-2.246699810028076,13.078863143920898
1701058292686607400,8.231607421875,13.359837532043457,-2.0652244091033936,12.232616424560547
1701058292703597600,8.24859765625,12.298922538757324,-2.4249701499938965,12.031232833862305
1701058292720591000,8.265591064453124,10.611113548278809,-2.5805203914642334,11.614768028259277
1701058292737579300,8.282579345703125,9.042435646057129,-2.424032688140869,10.860919952392578
1701058292754578000,8.299577880859376,7.1449384689331055,-2.6939749717712402,10.261209487915039
1701058292771568000,8.316568115234375,4.956972122192383,-3.652167797088623,10.193692207336426
1701058292788550100,8.333550048828124,3.45290470123291,-4.668736934661865,10.423709869384766
1701058292805553200,8.35055322265625,2.280078887939453,-5.850508689880371,10.688427925109863
1701058292822546200,8.367546142578124,1.2898588180541992,-7.014197826385498,10.850834846496582
1701058292839538700,8.38453857421875,-0.17092323303222656,-8.442455291748047,10.537872314453125
1701058292856531200,8.40153125,-2.0203332901000977,-10.12355899810791,9.833152770996094
1701058292873523700,8.418523681640625,-3.6922388076782227,-11.775793075561523,8.898432731628418
1701058292890506000,8.435506103515625,-4.952678203582764,-13.198291778564453,8.215385437011719
1701058292907509000,8.452509033203125,-5.485550880432129,-14.181276321411133,7.993456840515137
1701058292924501500,8.46950146484375,-6.043612957000732,-14.965642929077148,7.593968868255615
1701058292941494300,8.486494384765624,-7.065467834472656,-15.456509590148926,6.188925743103027
1701058292958486800,8.50348681640625,-7.2861433029174805,-15.20984935760498,4.288108825683594
1701058292975479600,8.5204794921875,-6.494481086730957,-14.253426551818848,2.0267443656921387
1701058292992469800,8.5374697265625,-4.9283952713012695,-12.808635711669922,0.16491222381591797
1701058293009457000,8.554456787109375,-4.677756309509277,-11.461377143859863,-0.6725225448608398
1701058293026457900,8.571457763671875,-4.789947509765625,-10.715085983276367,-1.7527637481689453
1701058293043450000,8.5884501953125,-3.9509387016296387,-10.075905799865723,-3.068103790283203
1701058293060442600,8.605442626953124,-2.2985432147979736,-9.341572761535645,-5.063595771789551
1701058293077435400,8.622435302734376,-1.0195486545562744,-8.67052173614502,-7.221743583679199
1701058293094428200,8.63942822265625,-0.8650903701782227,-8.02791690826416,-9.411609649658203
1701058293111421000,8.6564208984375,-2.4601869583129883,-7.674278259277344,-11.11231803894043
1701058293128412400,8.673412353515625,-5.0223069190979,-7.455006122589111,-11.976804733276367
1701058293145403400,8.6904033203125,-5.754037380218506,-7.437222480773926,-12.131731986999512
1701058293162401300,8.7074013671875,-4.482438564300537,-7.571296691894531,-12.007332801818848
1701058293179391500,8.7243916015625,-3.3103530406951904,-7.761567115783691,-11.643656730651855
1701058293196383700,8.7413837890625,-2.6386191844940186,-7.698956489562988,-11.270371437072754
1701058293213376800,8.758376708984375,-2.1921334266662598,-7.551084518432617,-11.117755889892578
1701058293230369300,8.775369384765625,-2.5259907245635986,-7.681553840637207,-10.32997989654541
1701058293247360500,8.792360595703125,-3.0758190155029297,-8.19775390625,-8.721652030944824
1701058293264344600,8.809344482421874,-3.5363168716430664,-8.848676681518555,-6.76699161529541
1701058293281340200,8.826340087890625,-3.60206937789917,-9.235429763793945,-4.784479141235352
1701058293298332700,8.843332763671874,-3.7596731185913086,-9.720175743103027,-2.749037742614746
1701058293315324400,8.860324462890626,-4.02784538269043,-10.153650283813477,-0.6010961532592773
1701058293332317000,8.87731689453125,-3.559720039367676,-10.404467582702637,2.080582618713379
1701058293349314300,8.894314208984374,-3.120734691619873,-9.729931831359863,4.2816572189331055
1701058293366310400,8.911310302734375,-3.3766391277313232,-8.815839767456055,5.50960636138916
1701058293383303000,8.928302978515624,-4.32819938659668,-7.962602138519287,4.536508083343506
1701058293400295700,8.945295654296874,-4.673966407775879,-7.765886306762695,4.358071327209473
1701058293417286100,8.9622861328125,-4.0313825607299805,-7.049042701721191,5.155296802520752
1701058293434283300,8.979283203125,-3.6040799617767334,-6.084534168243408,5.396514892578125
1701058293451273700,8.996273681640625,-3.967583417892456,-5.343079566955566,4.254448890686035
1701058293468268300,9.013268310546875,-4.553177356719971,-5.363230228424072,2.384751319885254
1701058293485259000,9.030259033203125,-3.5025293827056885,-5.667017459869385,3.223114013671875
1701058293502249000,9.0472490234375,-2.1098227500915527,-4.91084098815918,5.433002948760986
1701058293519246800,9.064246826171875,-1.7213644981384277,-3.6798064708709717,7.081570625305176
1701058293536236800,9.08123681640625,-1.9155259132385254,-2.9325015544891357,8.894843101501465
1701058293553229600,9.0982294921875,-1.8358869552612305,-1.9392800331115723,11.43409252166748
1701058293570219500,9.115219482421875,-0.9436764717102051,-0.9442977905273438,12.582388877868652
1701058293587217200,9.132217041015625,1.4790644645690918,-0.34589433670043945,13.51126766204834
1701058293604204800,9.149204833984374,5.269684791564941,0.8622679710388184,14.62709903717041
1701058293621192000,9.16619189453125,8.236146926879883,2.3672127723693848,14.909904479980469
1701058293638192600,9.183192626953126,9.034955978393555,2.8594608306884766,14.861867904663086
1701058293655185400,9.200185302734376,8.2750244140625,2.8015284538269043,14.517428398132324
1701058293672178000,9.217177978515625,6.49504280090332,2.9310054779052734,13.585214614868164
1701058293689159200,9.2341591796875,5.208154678344727,2.726590633392334,12.152429580688477
1701058293706163000,9.251162841796875,4.166336536407471,1.9694747924804688,10.743595123291016
1701058293723155700,9.26815576171875,3.45888090133667,1.304877758026123,9.759366989135742
1701058293740148500,9.2851484375,2.811946392059326,0.5563368797302246,9.167048454284668
1701058293757131300,9.30213134765625,1.8109378814697266,-0.21227407455444336,8.81794261932373
1701058293774133500,9.319133544921876,0.8447718620300293,-1.2100176811218262,8.751482009887695
1701058293791127600,9.33612744140625,-0.46277475357055664,-2.562703847885132,9.068323135375977
1701058293808115500,9.353115478515624,-1.5751729011535645,-4.016948699951172,9.421100616455078
1701058293825111300,9.370111328125,-2.3269572257995605,-5.490453720092773,9.286049842834473
1701058293842106600,9.387106689453125,-2.9601263999938965,-6.751725673675537,8.764113426208496
1701058293859084800,9.404084716796875,-3.397519826889038,-7.927978515625,8.283418655395508
1701058293876089600,9.421089599609376,-3.6251678466796875,-9.066585540771484,8.11862564086914
1701058293893082000,9.43808203125,-4.172703742980957,-10.397882461547852,7.950152397155762
1701058293910075000,9.455074951171875,-4.565528392791748,-11.569252014160156,7.3649210929870605
1701058293927067400,9.4720673828125,-4.689310073852539,-12.000211715698242,6.295464992523193
1701058293944057600,9.4890576171875,-4.527069091796875,-11.903860092163086,5.225595951080322
1701058293961055200,9.50605517578125,-4.4588704109191895,-11.402580261230469,4.204331398010254
1701058293978035700,9.52303564453125,-4.359152793884277,-11.06663703918457,2.542862892150879
1701058293995038200,9.5400380859375,-3.755654811859131,-10.428540229797363,0.3609285354614258
1701058294012030700,9.55703076171875,-3.3820981979370117,-9.145646095275879,-1.6465044021606445
1701058294029023200,9.574023193359375,-3.355851888656616,-8.626147270202637,-3.4159440994262695
1701058294046016000,9.59101611328125,-3.5130693912506104,-8.841474533081055,-5.56488037109375
1701058294063008300,9.60800830078125,-4.378206253051758,-9.103686332702637,-8.329583168029785
1701058294080001300,9.625001220703124,-5.185133457183838,-9.233646392822266,-11.235278129577637
1701058294096996000,9.64199609375,-4.480442047119141,-9.155022621154785,-13.74603271484375
1701058294113984000,9.65898388671875,-3.297915458679199,-9.191818237304688,-15.40495777130127
1701058294130969300,9.67596923828125,-4.159508228302002,-9.553130149841309,-15.912413597106934
1701058294147964200,9.692964111328125,-5.163970470428467,-9.441412925720215,-15.981147766113281
1701058294164953000,9.709953125,-5.218331813812256,-9.357831954956055,-15.176898956298828
1701058294181948400,9.726948486328125,-4.666400909423828,-9.48564338684082,-12.928149223327637
1701058294198942200,9.743942138671875,-4.034206390380859,-9.837048530578613,-10.268838882446289
1701058294215931100,9.76093115234375,-4.047565460205078,-9.952738761901855,-8.13647747039795
1701058294232935200,9.77793505859375,-4.547295570373535,-10.309192657470703,-6.284030914306641
1701058294249929700,9.7949296875,-5.188746452331543,-10.555967330932617,-4.692025184631348
1701058294266920200,9.811920166015625,-6.1356329917907715,-11.050976753234863,-3.0789356231689453
1701058294283900000,9.82889990234375,-7.3139190673828125,-11.724000930786133,-1.0530290603637695
1701058294300908000,9.845907958984375,-7.6424336433410645,-12.017292976379395,0.698859691619873
1701058294317898200,9.862898193359374,-7.346090316772461,-12.485166549682617,2.219921112060547
1701058294334890800,9.879890869140626,-6.877402305603027,-12.952223777770996,3.2999308109283447
1701058294351883500,9.896883544921875,-6.440801620483398,-12.777746200561523,4.005810260772705
1701058294368876000,9.9138759765625,-6.036993503570557,-11.847078323364258,4.08688497543335
1701058294385868500,9.93086865234375,-7.173448085784912,-11.041966438293457,3.6891119480133057
1701058294402861800,9.94786181640625,-9.037571907043457,-11.124822616577148,3.2225780487060547
1701058294419851500,9.9648515625,-10.570446014404297,-11.629884719848633,3.3559274673461914
1701058294436849400,9.981849365234375,-9.026628494262695,-12.814207077026367,4.407814025878906
1701058294453839400,9.99883935546875,-5.0725016593933105,-12.613438606262207,6.112444877624512
1701058294470832000,10.01583203125,-1.8017592430114746,-11.256357192993164,8.84323501586914
1701058294487824400,10.032824462890625,0.5563907623291016,-9.809469223022461,12.187250137329102
1701058294504817400,10.0498173828125,2.688666343688965,-7.921111583709717,14.77150821685791
1701058294521809400,10.066809326171875,4.213522911071777,-5.694025039672852,15.065454483032227
1701058294538803000,10.083802978515624,5.506929397583008,-4.498743057250977,14.974967956542969
1701058294555795200,10.100795166015626,6.855899810791016,-3.013073444366455,15.021093368530273
1701058294572790300,10.117790283203124,7.964785575866699,-2.1748528480529785,14.657434463500977
1701058294589778000,10.13477783203125,8.676301002502441,-1.6499172449111938,13.984431266784668
1701058294606771200,10.151771240234375,8.472893714904785,-1.269700527191162,13.300973892211914
1701058294623765500,10.168765625,8.199394226074219,-0.9413614273071289,12.194154739379883
1701058294640755700,10.185755615234376,7.93791389465332,-0.7564769983291626,11.010658264160156
1701058294657753300,10.20275341796875,7.270959854125977,-0.7614225149154663,10.275328636169434
1701058294674743600,10.21974365234375,5.874336242675781,-0.783960223197937,10.096301078796387
1701058294691736300,10.236736328125,4.5802764892578125,-1.1608250141143799,10.353433609008789
1701058294708718600,10.253718505859375,3.94741153717041,-1.8019874095916748,10.583518981933594
1701058294725721600,10.2707216796875,3.4454336166381836,-2.5508289337158203,10.775812149047852
1701058294742714000,10.287714111328125,2.3205509185791016,-3.5353658199310303,10.914224624633789
1701058294759707100,10.30470703125,0.43886661529541016,-4.85563850402832,10.799968719482422
1701058294776699600,10.32169970703125,-1.8866448402404785,-6.233983516693115,10.280858993530273
1701058294793691100,10.338691162109376,-3.9170918464660645,-7.623274326324463,9.526652336120605
1701058294810685700,10.355685791015626,-4.813228607177734,-8.771964073181152,8.757598876953125
1701058294827666700,10.372666748046875,-5.531881332397461,-9.980084419250488,8.186038970947266
1701058294844667400,10.38966748046875,-6.354973793029785,-10.926260948181152,7.626011371612549
1701058294861665000,10.4066650390625,-7.207261562347412,-11.653322219848633,6.767180442810059
1701058294878655200,10.4236552734375,-7.34101676940918,-12.535253524780273,5.7558159828186035
1701058294895647700,10.440647705078124,-6.665836334228516,-13.054098129272461,4.5107622146606445
1701058294912640800,10.457640869140626,-5.374044418334961,-12.75790786743164,3.6350739002227783
1701058294929633000,10.474633056640625,-4.839649200439453,-11.97708797454834,3.1649670600891113
1701058294946623500,10.49162353515625,-5.1804351806640625,-11.564826011657715,2.8065061569213867
1701058294963608600,10.508608642578125,-5.458680152893066,-10.838772773742676,1.6820569038391113
1701058294980603600,10.525603759765625,-5.443241596221924,-10.04083251953125,0.31652164459228516
1701058294997596400,10.542596435546875,-5.286171913146973,-9.160331726074219,-1.0831146240234375
1701058295014586000,10.559586181640626,-4.988802909851074,-8.569247245788574,-2.6222639083862305
1701058295031579000,10.576578857421875,-4.80225133895874,-8.127925872802734,-4.660064697265625
1701058295048571400,10.5935712890625,-4.974417686462402,-7.896190643310547,-7.368657112121582
1701058295065567200,10.610567138671875,-4.75747013092041,-8.162519454956055,-9.755502700805664
1701058295082559200,10.627559326171875,-3.5438954830169678,-8.649431228637695,-12.415119171142578
1701058295099550000,10.644550048828124,-2.7268152236938477,-8.942666053771973,-14.972888946533203
1701058295116544000,10.6615439453125,-2.476926326751709,-8.962109565734863,-16.948204040527344
1701058295133536800,10.678536865234374,-2.3339896202087402,-8.942375183105469,-17.089380264282227
1701058295150539300,10.695539306640624,-1.3847074508666992,-9.147777557373047,-14.89214038848877
1701058295167530500,10.712530517578125,-0.6511459350585938,-9.572184562683105,-11.934110641479492
1701058295184522800,10.729522705078125,-0.9078350067138672,-9.605687141418457,-9.473440170288086
1701058295201515500,10.746515625,-1.9970970153808594,-9.934405326843262,-8.007246017456055
1701058295218504700,10.763504638671876,-3.3659141063690186,-10.295398712158203,-7.462320804595947
1701058295235504000,10.780504150390625,-4.4739813804626465,-10.707889556884766,-6.693539142608643
1701058295252485400,10.7974853515625,-5.002557277679443,-11.05483627319336,-5.376338958740234
1701058295269486800,10.81448681640625,-4.689233779907227,-11.813828468322754,-3.3051252365112305
1701058295286476300,10.831476318359375,-4.606958389282227,-12.342576026916504,-1.0511741638183594
1701058295303474000,10.848473876953125,-5.543659210205078,-12.975951194763184,1.030867576599121
1701058295320464000,10.8654638671875,-6.572646141052246,-12.936237335205078,2.4542899131774902
1701058295337454000,10.8824541015625,-7.0960493087768555,-12.94974422454834,3.314971685409546
1701058295354451700,10.89945166015625,-6.681038856506348,-12.761098861694336,3.664146900177002
1701058295371442000,10.91644189453125,-5.95812463760376,-12.62342643737793,3.650571823120117
1701058295388426000,10.933426025390625,-6.143810272216797,-12.273427963256836,3.650998592376709
1701058295405429200,10.95042919921875,-7.191261291503906,-12.123510360717773,4.16140604019165
1701058295422425000,10.967425048828124,-7.661612033843994,-11.895490646362305,4.909915924072266
1701058295439412500,10.98441259765625,-6.682884216308594,-11.808273315429688,5.9672627449035645
1701058295456405000,11.001405029296874,-3.9894189834594727,-11.614334106445312,8.722955703735352
1701058295473397500,11.0183974609375,-1.3132472038269043,-10.413076400756836,11.566034317016602
1701058295490390300,11.035390380859376,1.2054939270019531,-9.166550636291504,12.993480682373047
1701058295507380500,11.05238037109375,4.599874496459961,-7.246163845062256,14.120336532592773
1701058295524375600,11.06937548828125,6.009102821350098,-4.966390609741211,13.521743774414062
1701058295541370600,11.08637060546875,6.284058570861816,-3.323148250579834,13.13400650024414
1701058295558360800,11.10336083984375,5.664600372314453,-2.4824976921081543,13.13071346282959
1701058295575353300,11.120353271484374,5.229711532592773,-1.7908425331115723,13.180974006652832
1701058295592346000,11.13734619140625,5.031037330627441,-1.287351369857788,12.693924903869629
1701058295609328000,11.154328125,5.760894775390625,-0.9428844451904297,12.551071166992188
1701058295626331400,11.171331298828125,7.062323570251465,-0.3807046413421631,11.565384864807129
1701058295643324200,11.18832421875,8.101044654846191,-0.39528346061706543,10.004894256591797
1701058295660316700,11.205316650390625,8.509839057922363,-0.18241393566131592,8.398214340209961
1701058295677309200,11.22230908203125,7.403175354003906,-0.04370284080505371,7.507088661193848
1701058295694288600,11.23928857421875,5.530585289001465,-0.1650831699371338,7.6334919929504395
1701058295711297300,11.25629736328125,3.9614295959472656,-0.7574125528335571,8.965620040893555
1701058295728276700,11.27327685546875,3.4805068969726562,-1.841709017753601,10.689251899719238
1701058295745273000,11.290273193359376,4.013369560241699,-3.3676562309265137,12.002070426940918
1701058295762272500,11.3072724609375,4.378318786621094,-4.627162456512451,12.12730884552002
1701058295779265300,11.324265380859375,3.7302074432373047,-5.958384037017822,11.404047012329102
1701058295796257800,11.3412578125,1.8051786422729492,-7.476017951965332,10.28962516784668
1701058295813250600,11.35825048828125,-0.7525677680969238,-9.018228530883789,8.991769790649414
1701058295830243000,11.3752431640625,-3.270237445831299,-10.272194862365723,7.879379749298096
1701058295847235800,11.39223583984375,-5.029211044311523,-11.021869659423828,7.149510383605957
1701058295864226800,11.409226806640625,-6.0133466720581055,-11.321434020996094,6.766770362854004
1701058295881218600,11.426218505859374,-6.502857685089111,-11.708381652832031,6.354483604431152
1701058295898217700,11.4432177734375,-6.4388508796691895,-12.501070022583008,6.044041633605957
1701058295915206100,11.4602060546875,-5.7794880867004395,-13.822572708129883,5.801727294921875
1701058295932199200,11.47719921875,-4.616378307342529,-14.543339729309082,4.949385166168213
1701058295949191700,11.494191650390626,-3.448882579803467,-13.75041389465332,3.6871190071105957
1701058295966184200,11.51118408203125,-3.5264532566070557,-12.543643951416016,2.654595375061035
1701058295983166500,11.52816650390625,-4.362789154052734,-11.501230239868164,2.104325294494629
1701058296000169700,11.545169677734375,-5.1920881271362305,-10.81094741821289,1.0196113586425781
1701058296017162000,11.562161865234375,-5.173529624938965,-9.901097297668457,-0.6271915435791016
1701058296034154800,11.57915478515625,-4.2017388343811035,-8.567886352539062,-2.3293495178222656
1701058296051144700,11.596144775390625,-3.243142604827881,-7.534632682800293,-3.4263124465942383
1701058296068142600,11.613142578125,-3.110104560852051,-7.02350378036499,-3.9539527893066406
1701058296085130200,11.630130126953125,-4.530182361602783,-6.7865986824035645,-4.489492416381836
1701058296102128000,11.647128173828126,-5.816872596740723,-7.098815441131592,-5.315133094787598
1701058296119115500,11.664115478515624,-5.852602481842041,-7.317883014678955,-7.667469024658203
1701058296136113200,11.681113037109375,-5.677636623382568,-7.593332767486572,-10.043294906616211
1701058296153103400,11.698103271484374,-5.288208961486816,-7.970386028289795,-12.093469619750977
1701058296170095900,11.715095947265626,-4.7977399826049805,-8.408105850219727,-13.340993881225586
1701058296187085800,11.7320859375,-4.267410755157471,-8.680839538574219,-14.05485725402832
1701058296204085500,11.74908544921875,-3.605476140975952,-8.911840438842773,-13.85419750213623
1701058296221072100,11.766072021484375,-2.963622808456421,-9.061102867126465,-12.830018997192383
1701058296238066400,11.78306640625,-2.835033655166626,-9.261474609375,-11.113715171813965
1701058296255059000,11.800058837890624,-2.379655361175537,-9.21931266784668,-9.275236129760742
1701058296272052000,11.817052001953124,-2.419970989227295,-9.251238822937012,-7.670465469360352
1701058296289044500,11.83404443359375,-3.205256223678589,-9.789519309997559,-5.895384788513184
1701058296306037200,11.851037353515625,-4.137476444244385,-10.230934143066406,-4.130099296569824
1701058296323021000,11.86802099609375,-5.147871971130371,-11.028267860412598,-2.2540454864501953
1701058296340022500,11.8850224609375,-5.74675178527832,-11.85239315032959,-0.4217386245727539
1701058296357014800,11.902014892578125,-5.676111698150635,-12.409982681274414,1.1604056358337402
1701058296374007300,11.91900732421875,-5.211244583129883,-12.781310081481934,2.495565414428711
1701058296390997800,11.935997802734375,-5.111388206481934,-13.36823558807373,3.632168769836426
1701058296407995400,11.952995361328124,-5.450230598449707,-13.470300674438477,4.526410102844238
1701058296424976600,11.9699765625,-5.812741279602051,-13.13637924194336,5.070636749267578
1701058296441976300,11.986976318359375,-5.742067337036133,-12.699786186218262,4.920583248138428
1701058296458970600,12.003970703125,-5.318803787231445,-12.361711502075195,4.4821977615356445
1701058296475963600,12.020963623046875,-4.654963493347168,-12.184385299682617,4.136702537536621
1701058296492956200,12.0379560546875,-3.8149940967559814,-11.687129974365234,3.958845615386963
1701058296509948700,12.05494873046875,-3.6188526153564453,-11.445180892944336,4.259300708770752
1701058296526941700,12.071941650390626,-3.724681854248047,-11.693230628967285,5.837829113006592
1701058296543928300,12.08892822265625,-2.7219958305358887,-11.097055435180664,8.343585014343262
1701058296560928300,12.10592822265625,-1.1245551109313965,-9.426918029785156,10.425960540771484
1701058296577920000,12.122919921875,0.9780216217041016,-8.00367259979248,11.536544799804688
1701058296594912300,12.139912353515625,4.131204605102539,-6.827244758605957,13.66476821899414
1701058296611907600,12.156907470703125,6.925727844238281,-5.218830585479736,15.203803062438965
1701058296628894200,12.173894287109375,7.813963890075684,-3.535820960998535,14.704477310180664
1701058296645889800,12.190889892578125,7.427745819091797,-1.8407028913497925,13.081867218017578
1701058296662882800,12.2078828125,6.768894195556641,-0.6485433578491211,11.113687515258789
1701058296679875000,12.224875,5.877834320068359,0.6461901664733887,9.249604225158691
1701058296696867600,12.24186767578125,5.4064130783081055,1.5057902336120605,8.491073608398438
1701058296713860600,12.258860595703124,5.505404472351074,2.3134100437164307,8.53442096710205
1701058296730853000,12.27585302734375,5.822297096252441,2.702014446258545,9.167724609375
1701058296747843000,12.292843017578125,6.064208030700684,3.026737689971924,9.90632438659668
1701058296764831000,12.3098310546875,5.973715782165527,2.811248779296875,10.805320739746094
1701058296781822200,12.326822265625,5.600401878356934,2.1565136909484863,11.70016860961914
1701058296798814700,12.343814697265625,5.180855751037598,1.2310361862182617,12.26321029663086
1701058296815809000,12.36080908203125,4.821314811706543,-0.11987757682800293,12.442045211791992
1701058296832802600,12.377802490234375,4.441498756408691,-1.7771159410476685,12.167535781860352
1701058296849804300,12.39480419921875,3.6795616149902344,-3.574897050857544,11.74584674835205
1701058296866791400,12.41179150390625,2.2270851135253906,-5.348517417907715,11.306377410888672
1701058296883786800,12.428786865234375,0.5486431121826172,-7.003537654876709,10.829878807067871
1701058296900779500,12.445779541015625,-1.156935691833496,-8.655523300170898,10.105048179626465
1701058296917772300,12.462772216796875,-2.648007392883301,-10.207337379455566,9.210661888122559
1701058296934764800,12.479764892578125,-3.855849027633667,-11.590587615966797,8.15624713897705
1701058296951757600,12.496757568359374,-4.2889299392700195,-12.843902587890625,6.997828483581543
1701058296968749800,12.513749755859376,-4.1108317375183105,-13.913139343261719,5.882338047027588
1701058296985742800,12.530742919921876,-3.7641665935516357,-14.348649978637695,4.90894079208374
1701058297002735400,12.5477353515625,-3.5222465991973877,-14.76858139038086,4.296402931213379
1701058297019739600,12.56473974609375,-3.3978447914123535,-15.44925308227539,3.827548027038574
1701058297036718000,12.581718017578124,-4.136451244354248,-16.05365562438965,3.155179977416992
1701058297053715700,12.5987158203125,-4.7136383056640625,-15.214237213134766,1.7615103721618652
1701058297070692900,12.61569287109375,-3.442187547683716,-12.970462799072266,0.026090145111083984
1701058297087701200,12.632701171875,-1.471817970275879,-10.505751609802246,-1.5828347206115723
1701058297104691200,12.649691162109375,-1.3869857788085938,-9.085257530212402,-2.113471508026123
1701058297121684000,12.66668408203125,-2.6802825927734375,-8.001800537109375,-2.699282169342041
1701058297138676500,12.683676513671875,-4.093497276306152,-7.07267427444458,-3.522855758666992
1701058297155669000,12.7006689453125,-5.040067672729492,-6.190501689910889,-4.297021389007568
1701058297172661800,12.717661865234374,-5.4405083656311035,-6.342860221862793,-5.309877872467041
1701058297189654300,12.734654296875,-5.38177490234375,-6.152722358703613,-6.802839279174805
1701058297206647000,12.75164697265625,-5.014352798461914,-5.852273941040039,-8.32514762878418
1701058297223639800,12.768639892578125,-4.180417537689209,-5.895540237426758,-9.74997329711914
1701058297240644600,12.78564453125,-3.3830959796905518,-5.939794063568115,-11.31386947631836
1701058297257612500,12.802612548828124,-3.2737765312194824,-5.998314380645752,-12.805442810058594
1701058297274612000,12.819612060546875,-3.529697895050049,-6.4167094230651855,-13.496023178100586
1701058297291610000,12.836610107421874,-3.6200146675109863,-6.81108283996582,-13.636423110961914
1701058297308592400,12.85359228515625,-3.729671001434326,-7.150938034057617,-13.105733871459961
1701058297325593600,12.870593505859375,-3.7410595417022705,-7.542940616607666,-11.736928939819336
1701058297342590000,12.88758984375,-4.0490803718566895,-8.298709869384766,-9.758021354675293
1701058297359580700,12.90458056640625,-4.077585697174072,-9.15231704711914,-7.9148406982421875
1701058297376573400,12.921573486328125,-3.935898780822754,-10.005136489868164,-6.408273696899414
1701058297393563400,12.9385634765625,-4.172328948974609,-11.050811767578125,-4.717355728149414
1701058297410561300,12.955561279296875,-4.864792823791504,-11.931072235107422,-2.599961280822754
1701058297427547100,12.972547119140625,-5.152175426483154,-12.62380599975586,-0.6143741607666016
1701058297444548400,12.98954833984375,-5.026228904724121,-13.359211921691895,0.9547405242919922
1701058297461536800,13.006536865234375,-4.97054386138916,-13.960494041442871,2.1925759315490723
1701058297478529000,13.023529052734375,-4.752096176147461,-14.18980884552002,3.041611909866333
1701058297495521800,13.040521728515625,-4.059500694274902,-14.07339096069336,3.2444205284118652
1701058297512514600,13.0575146484375,-3.4755687713623047,-13.684782981872559,3.180065393447876
1701058297529507000,13.074507080078124,-3.969644784927368,-13.364669799804688,3.4030990600585938
1701058297546499800,13.091499755859376,-4.552518844604492,-12.738504409790039,3.4834492206573486
1701058297563492600,13.10849267578125,-5.107748985290527,-12.613142967224121,3.1625030040740967
1701058297580485400,13.1254853515625,-5.779583930969238,-13.120859146118164,3.2821364402770996
1701058297597477600,13.1424775390625,-5.3955607414245605,-13.112970352172852,4.667016506195068
1701058297614470400,13.159470458984375,-3.9477152824401855,-12.616024017333984,6.436065673828125
1701058297631451400,13.176451416015626,-1.1752748489379883,-11.980192184448242,8.090874671936035
1701058297648440600,13.193440673828125,0.8805456161499023,-10.542222023010254,9.697203636169434
1701058297665443600,13.210443603515625,2.401604652404785,-9.397829055786133,11.301987648010254
1701058297682431500,13.227431396484375,5.209728240966797,-7.852354049682617,12.63198184967041
1701058297699425000,13.244425048828125,8.24804401397705,-5.445706844329834,13.183526039123535
1701058297716415500,13.26141552734375,9.54904842376709,-2.985583782196045,13.551058769226074
1701058297733408500,13.278408447265624,9.114587783813477,-1.9041801691055298,13.781085968017578
1701058297750414000,13.2954140625,8.579123497009277,-2.084902286529541,13.55185604095459
1701058297767396000,13.31239599609375,8.35381031036377,-2.3346734046936035,12.727471351623535
1701058297784394200,13.329394287109375,8.554555892944336,-2.555204153060913,11.73009204864502
1701058297801392000,13.34639208984375,9.500545501708984,-2.8981497287750244,10.679098129272461
1701058297818379500,13.363379638671875,9.860466003417969,-3.441662073135376,10.02701187133789
1701058297835377400,13.38037744140625,9.704042434692383,-3.9700205326080322,9.710538864135742
1701058297852367600,13.39736767578125,9.194953918457031,-4.736731052398682,9.687942504882812
1701058297869349400,13.414349365234376,8.377469062805176,-5.514144420623779,9.966282844543457
1701058297886352600,13.4313525390625,6.574454307556152,-6.274816036224365,10.557703018188477
1701058297903343000,13.448343017578125,4.45623779296875,-7.080119609832764,10.784485816955566
1701058297920340500,13.465340576171876,2.4185266494750977,-8.02267074584961,10.549179077148438
1701058297937330700,13.48233056640625,0.38776111602783203,-9.014071464538574,9.984734535217285
1701058297954320600,13.499320556640624,-1.4755711555480957,-10.086566925048828,9.170329093933105
1701058297971318500,13.516318603515625,-2.9192276000976562,-11.00932502746582,8.139313697814941
1701058297988298000,13.533298095703126,-3.8521862030029297,-11.852252006530762,6.994071006774902
1701058298005301000,13.550301025390626,-4.45943546295166,-12.514331817626953,5.849905967712402
1701058298022293800,13.567293701171875,-4.560050010681152,-13.056940078735352,5.29782772064209
1701058298039286300,13.584286376953125,-4.965372085571289,-13.605326652526855,4.865331172943115
1701058298056279000,13.601279052734375,-5.300467491149902,-13.870681762695312,3.975628614425659
1701058298073272000,13.61827197265625,-5.4019904136657715,-13.655073165893555,2.8615589141845703
1701058298090264300,13.635264404296874,-5.40407657623291,-13.14451789855957,2.170854091644287
1701058298107257000,13.652257080078124,-5.288698673248291,-12.051816940307617,1.253169059753418
1701058298124246800,13.669246826171875,-5.228062152862549,-10.741634368896484,0.3208198547363281
1701058298141245000,13.686244873046874,-4.694023132324219,-9.581991195678711,-0.29392004013061523
1701058298158235100,13.703235107421875,-3.6167352199554443,-9.195950508117676,-1.0337066650390625
1701058298175227600,13.7202275390625,-2.6692416667938232,-9.24393081665039,-1.9428744316101074
1701058298192220200,13.73722021484375,-2.599078416824341,-9.07364273071289,-3.56491756439209
1701058298209202700,13.75420263671875,-2.1364378929138184,-8.43365478515625,-6.028955936431885
1701058298226205400,13.771205322265626,-2.435441732406616,-7.768101692199707,-8.789042472839355
1701058298243198200,13.7881982421875,-3.9223878383636475,-7.137027263641357,-11.162683486938477
1701058298260190500,13.8051904296875,-5.645152568817139,-6.9552693367004395,-12.915278434753418
1701058298277183500,13.82218359375,-6.138263702392578,-7.027469158172607,-13.690347671508789
1701058298294176300,13.83917626953125,-4.825990200042725,-7.323060989379883,-13.688657760620117
1701058298311172400,13.85617236328125,-2.5766046047210693,-7.4887847900390625,-13.650513648986816
1701058298328161300,13.873161376953124,-1.5229511260986328,-7.631402969360352,-13.716588973999023
1701058298345151200,13.890151123046875,-2.237288236618042,-7.937775611877441,-13.632859230041504
1701058298362155500,13.907155517578126,-3.3602285385131836,-8.690181732177734,-13.167252540588379
1701058298379139000,13.92413916015625,-3.801753520965576,-9.718514442443848,-11.585540771484375
1701058298396131800,13.9411318359375,-3.7680506706237793,-10.774802207946777,-8.768671035766602
1701058298413124400,13.958124267578125,-3.7788612842559814,-11.712409973144531,-5.689054012298584
1701058298430117000,13.9751171875,-4.30621337890625,-12.530763626098633,-3.0628743171691895
1701058298447097600,13.99209765625,-5.14144229888916,-13.192018508911133,-0.8476805686950684
1701058298464093400,14.009093505859376,-5.80076789855957,-13.911299705505371,0.8352646827697754
1701058298481089000,14.026089111328124,-5.661043643951416,-14.682743072509766,2.27341890335083
1701058298498079500,14.04307958984375,-5.560258865356445,-14.91299819946289,3.2894322872161865
1701058298515073300,14.0600732421875,-5.030689716339111,-14.661731719970703,3.873692035675049
1701058298532060700,14.077060791015626,-4.087690353393555,-14.13188362121582,4.112193584442139
1701058298549054200,14.09405419921875,-3.734800100326538,-13.387787818908691,4.215689182281494
1701058298566051000,14.111051025390625,-4.062986850738525,-12.638992309570312,4.891426086425781
1701058298583043600,14.128043701171874,-3.7590246200561523,-11.88434886932373,6.30696964263916
1701058298600035300,14.145035400390626,-2.8010191917419434,-10.780115127563477,7.261502265930176
1701058298617028400,14.1620283203125,-1.5981287956237793,-9.908374786376953,8.249981880187988
1701058298634021000,14.179021240234375,0.2357635498046875,-8.590347290039062,9.5350341796875
1701058298651021600,14.196021484375,2.252756118774414,-7.227258682250977,10.076252937316895
1701058298668014000,14.21301416015625,4.950922012329102,-5.793726444244385,10.826241493225098
1701058298685005300,14.23000537109375,6.100024223327637,-4.740385055541992,11.519026756286621
1701058298702001400,14.24700146484375,6.588196754455566,-3.8917179107666016,12.331888198852539
1701058298718992100,14.2639921875,7.385713577270508,-3.234323263168335,13.11584186553955
1701058298735985000,14.28098486328125,8.890768051147461,-3.043285846710205,14.276995658874512
1701058298752977400,14.297977294921875,9.697405815124512,-2.4563019275665283,15.142319679260254
1701058298769970200,14.31497021484375,9.936917304992676,-1.9507546424865723,14.679581642150879
1701058298786962400,14.33196240234375,10.220932006835938,-2.034532070159912,13.235502243041992
1701058298803950800,14.348950927734375,9.949851989746094,-2.4996259212493896,11.518415451049805
1701058298820948000,14.365947998046876,8.98702335357666,-2.8072807788848877,10.31478500366211
1701058298837940700,14.382940673828125,7.8015289306640625,-3.00045108795166,9.664776802062988
1701058298854933200,14.399933349609375,6.567880630493164,-3.3562519550323486,9.860885620117188
1701058298871917600,14.41691748046875,5.121925354003906,-4.165981769561768,10.602703094482422
1701058298888907800,14.43390771484375,3.312991142272949,-5.376780033111572,11.329625129699707
1701058298905911000,14.4509111328125,1.534306526184082,-6.896341323852539,11.50219440460205
1701058298922903800,14.46790380859375,0.08102130889892578,-8.674201965332031,11.17441177368164
1701058298939896600,14.484896484375,-1.1779956817626953,-10.389764785766602,10.419936180114746
1701058298956889000,14.50188916015625,-2.652902603149414,-12.200401306152344,9.463483810424805
1701058298973881600,14.518881591796875,-4.177837371826172,-13.877510070800781,8.333956718444824
1701058298990874400,14.535874267578125,-5.234293460845947,-15.312347412109375,7.076963901519775
1701058299007867100,14.5528671875,-5.454239845275879,-16.573993682861328,6.262453079223633
1701058299024862500,14.569862548828125,-5.308133602142334,-17.45334243774414,5.080713748931885
1701058299041849000,14.58684912109375,-4.897724151611328,-17.745540618896484,3.895299196243286
1701058299058844700,14.6038447265625,-4.466104507446289,-17.32501792907715,2.6381797790527344
1701058299075823400,14.6208232421875,-4.377811431884766,-15.987180709838867,0.9876937866210938
1701058299092828000,14.637827880859374,-4.160235404968262,-13.848427772521973,-0.88677978515625
1701058299109825300,14.6548251953125,-3.8880503177642822,-11.317347526550293,-2.365067958831787
1701058299126815500,14.6718154296875,-4.000435829162598,-9.627213478088379,-3.405229091644287
1701058299143808300,14.688808349609374,-3.7229466438293457,-8.747065544128418,-4.337748050689697
1701058299160800800,14.70580078125,-3.7856504917144775,-8.404008865356445,-5.527286529541016
1701058299177793300,14.722793212890625,-4.872932434082031,-8.166131973266602,-7.516688346862793
1701058299194777600,14.739777587890625,-6.032944202423096,-8.128694534301758,-10.266210556030273
1701058299211778800,14.75677880859375,-6.1272993087768555,-7.645876884460449,-13.70483684539795
1701058299228767000,14.77376708984375,-6.078042030334473,-7.478717803955078,-15.958178520202637
1701058299245766100,14.79076611328125,-4.992618560791016,-7.669455528259277,-15.87287712097168
1701058299262759400,14.807759521484375,-2.9132423400878906,-7.9193291664123535,-14.107715606689453
1701058299279749400,14.824749267578126,-1.5975620746612549,-8.025181770324707,-12.370735168457031
1701058299296742000,14.841741943359375,-1.5792982578277588,-7.980558395385742,-11.137541770935059
1701058299313734400,14.858734375,-2.4679038524627686,-8.277229309082031,-10.500699043273926
1701058299330727200,14.87572705078125,-3.4292311668395996,-9.003089904785156,-9.345965385437012
1701058299347720200,14.89272021484375,-3.6274752616882324,-9.825302124023438,-7.876340866088867
1701058299364712700,14.909712646484374,-3.4578404426574707,-10.284114837646484,-6.334047317504883
1701058299381705200,14.926705322265626,-3.940178155899048,-10.966450691223145,-4.308020114898682
1701058299398695400,14.9436953125,-4.925197601318359,-11.969494819641113,-2.101020336151123
1701058299415682600,14.9606826171875,-5.650394439697266,-12.656778335571289,-0.1388711929321289
1701058299432683000,14.97768310546875,-5.959110260009766,-12.926478385925293,1.0529122352600098
1701058299449673000,14.9946728515625,-6.05545711517334,-13.328958511352539,1.9598054885864258
1701058299466667800,15.011667724609374,-5.783785820007324,-13.506128311157227,2.8667590618133545
1701058299483664400,15.028664306640625,-6.161623477935791,-13.412818908691406,3.2133073806762695
1701058299500653800,15.04565380859375,-6.625460624694824,-13.263628005981445,2.9306795597076416
1701058299517646600,15.062646484375,-7.284675121307373,-13.710206985473633,2.5300991535186768
1701058299534639000,15.07963916015625,-7.683934688568115,-13.972028732299805,3.085392951965332
1701058299551631600,15.096631591796875,-6.658884048461914,-14.186691284179688,4.539444446563721
1701058299568613600,15.113613525390624,-4.904975891113281,-13.388427734375,6.353081226348877
1701058299585616600,15.13061669921875,-3.434359550476074,-12.549553871154785,7.725154399871826
1701058299602609700,15.147609619140624,-1.6490240097045898,-11.873132705688477,9.071586608886719
1701058299619602200,15.164602294921876,1.169541358947754,-11.290594100952148,10.054451942443848
1701058299636595000,15.181594970703125,4.016331672668457,-10.280179023742676,10.800265312194824
1701058299653587500,15.19858740234375,7.670445442199707,-8.7941312789917,11.90617847442627
1701058299670580000,15.215580078125,11.017715454101562,-6.532448768615723,13.334449768066406
1701058299687572500,15.232572509765625,12.077255249023438,-5.103007793426514,14.734089851379395
1701058299704560600,15.249560546875,11.339126586914062,-4.593716621398926,15.612458229064941
1701058299721555500,15.266555419921875,9.91537094116211,-4.427797317504883,14.951111793518066
1701058299738553300,15.28355322265625,9.128983497619629,-4.289191722869873,12.9981050491333
1701058299755543300,15.300543212890625,9.485797882080078,-4.056344509124756,10.519330978393555
1701058299772536000,15.3175361328125,9.743160247802734,-3.664053440093994,8.709752082824707
1701058299789528600,15.334528564453125,9.091014862060547,-3.6444828510284424,7.818839073181152
1701058299806521000,15.35152099609375,7.760973930358887,-3.826981782913208,8.017828941345215
1701058299823513600,15.368513671875,5.719086647033691,-3.9696080684661865,8.592435836791992
1701058299840506400,15.38550634765625,3.957808494567871,-4.2338762283325195,9.470196723937988
1701058299857499000,15.402498779296875,3.113600730895996,-4.900488376617432,10.287189483642578
1701058299874481000,15.41948095703125,2.729548454284668,-5.866006851196289,10.51079273223877
1701058299891484400,15.436484375,2.3433942794799805,-7.065337181091309,10.360942840576172
1701058299908469500,15.453469482421875,0.9907064437866211,-8.402443885803223,9.791900634765625
1701058299925472000,15.470471923828125,-0.9388036727905273,-9.978261947631836,9.077483177185059
1701058299942462200,15.487462158203124,-2.7358345985412598,-11.496175765991211,8.222687721252441
1701058299959455200,15.504455322265626,-4.1407599449157715,-12.566206932067871,7.3154401779174805
1701058299976447700,15.52144775390625,-5.276285171508789,-13.089306831359863,6.299910545349121
1701058299993440500,15.5384404296875,-5.943714141845703,-13.249458312988281,5.688797950744629
1701058300010433000,15.55543310546875,-6.125890731811523,-13.35630989074707,5.108980178833008
1701058300027425500,15.572425537109375,-6.083799839019775,-13.379629135131836,4.263167381286621
1701058300044415700,15.589415771484376,-5.674899101257324,-13.420799255371094,3.2688751220703125
1701058300061403000,15.60640283203125,-5.4905266761779785,-13.044301986694336,2.1868371963500977
1701058300078403300,15.6234033203125,-5.24683952331543,-11.602499961853027,0.5448503494262695
1701058300095396000,15.64039599609375,-4.337698459625244,-9.810115814208984,-0.7446994781494141
1701058300112388900,15.657388916015625,-3.6358768939971924,-8.969306945800781,-1.4019951820373535
1701058300129371000,15.674370849609375,-3.5065388679504395,-8.845049858093262,-2.3557262420654297
1701058300146375700,15.691375732421875,-2.8516032695770264,-8.357159614562988,-3.203780174255371
1701058300163369200,15.708369140625,-1.8346095085144043,-8.141999244689941,-4.556156158447266
1701058300180356900,15.72535693359375,-1.2280685901641846,-7.90098762512207,-6.246356964111328
1701058300197352000,15.74235205078125,-2.1870687007904053,-7.610745429992676,-8.484804153442383
1701058300214344400,15.759344482421875,-4.46823787689209,-7.1158599853515625,-11.054481506347656
1701058300231337200,15.776337158203125,-6.604678153991699,-6.980113983154297,-13.049577713012695
1701058300248334800,15.7933349609375,-6.929089546203613,-7.233766078948975,-13.767093658447266
1701058300265318000,15.81031787109375,-5.345395565032959,-7.793630599975586,-13.078254699707031
1701058300282305300,15.82730517578125,-3.5829689502716064,-8.258393287658691,-12.43178653717041
1701058300299302400,15.844302490234375,-2.5310678482055664,-8.249753952026367,-12.060108184814453
1701058300316294700,15.861294677734374,-2.7846689224243164,-8.562542915344238,-11.67719841003418
1701058300333282000,15.878281982421875,-3.5448403358459473,-9.278135299682617,-10.723448753356934
1701058300350279000,15.89527880859375,-3.6116321086883545,-10.103996276855469,-9.656489372253418
1701058300367278600,15.912278564453125,-3.854462146759033,-10.908292770385742,-7.752820014953613
1701058300384269600,15.92926953125,-4.181998252868652,-11.513636589050293,-5.395572662353516
1701058300401265200,15.94626513671875,-4.214059829711914,-11.95577335357666,-3.0985774993896484
1701058300418256400,15.96325634765625,-4.420782566070557,-12.240787506103516,-1.0613503456115723
1701058300435249200,15.980249267578126,-5.416227340698242,-12.905659675598145,0.789555549621582
1701058300452242400,15.997242431640625,-5.995840072631836,-13.25629711151123,2.2119178771972656
1701058300469241300,16.014241455078125,-6.267256259918213,-13.335119247436523,2.9151761531829834
1701058300486227000,16.03122705078125,-6.4015421867370605,-13.303117752075195,3.267155408859253
1701058300503219700,16.0482197265625,-5.972965717315674,-13.125541687011719,3.449009895324707
1701058300520209400,16.06520947265625,-4.590292930603027,-12.488454818725586,3.496990203857422
1701058300537205000,16.082205078125,-3.8084566593170166,-12.145647048950195,4.148526668548584
1701058300554198500,16.099198486328124,-3.657762289047241,-11.983960151672363,5.388986110687256
1701058300571181800,16.116181884765624,-4.123326301574707,-11.613397598266602,6.7877631187438965
1701058300588182800,16.133182861328127,-3.286579132080078,-10.67885971069336,7.886667728424072
1701058300605172700,16.1501728515625,-1.6086211204528809,-9.146604537963867,9.087729454040527
1701058300622170400,16.16717041015625,-0.3249235153198242,-7.415771961212158,9.39084243774414
1701058300639160600,16.18416064453125,0.2832059860229492,-5.818121910095215,9.716043472290039
1701058300656153000,16.201153076171874,0.14833831787109375,-4.468772888183594,10.344700813293457
1701058300673145900,16.218145751953124,0.5013284683227539,-3.7585501670837402,12.118840217590332
1701058300690138600,16.235138671875,2.0634727478027344,-3.4046590328216553,13.477581024169922
1701058300707131400,16.25213134765625,4.8224945068359375,-3.1051554679870605,13.551207542419434
1701058300724123600,16.26912353515625,7.8376874923706055,-2.1194961071014404,13.290889739990234
1701058300741116400,16.286116455078126,9.734683990478516,-0.9887272715568542,12.839963912963867
1701058300758109000,16.30310888671875,10.258772850036621,-0.7994283437728882,12.568455696105957
1701058300775090400,16.32009033203125,9.796198844909668,-1.0328537225723267,12.43947982788086
1701058300792092200,16.337092041015627,8.768264770507812,-0.8881325125694275,12.134878158569336
1701058300809089800,16.35408984375,7.843418121337891,-0.9736703634262085,11.914210319519043
1701058300826079700,16.371079833984375,7.211675643920898,-1.2513383626937866,11.628674507141113
1701058300843061800,16.388061767578126,6.610164642333984,-1.8371357917785645,11.524116516113281
1701058300860065000,16.40506494140625,5.768864631652832,-2.7260141372680664,11.518451690673828
1701058300877057500,16.4220576171875,4.715489387512207,-3.797250270843506,11.616793632507324
1701058300894050300,16.43905029296875,3.3022241592407227,-5.277739524841309,11.812880516052246
1701058300911043000,16.45604296875,1.7668962478637695,-6.909606456756592,11.802950859069824
1701058300928035600,16.47303564453125,0.3218498229980469,-8.429033279418945,11.480823516845703
1701058300945030700,16.49003076171875,-1.0718741416931152,-10.043108940124512,10.853433609008789
1701058300962018300,16.507018310546876,-2.7570571899414062,-11.672555923461914,10.07614517211914
1701058300979014000,16.524013916015626,-4.532835960388184,-13.304645538330078,9.228012084960938
1701058300996006100,16.541006103515624,-6.12161922454834,-14.556884765625,8.09970760345459
1701058301012996000,16.55799609375,-6.8944993019104,-15.312100410461426,6.838384628295898
1701058301029981200,16.574981201171877,-6.752776145935059,-15.77215576171875,5.809314250946045
1701058301046984200,16.591984130859377,-6.218323230743408,-16.061494827270508,4.721086025238037
1701058301063976700,16.608976806640626,-5.546964645385742,-15.938594818115234,3.88815975189209
1701058301080969700,16.6259697265625,-5.414715766906738,-15.033296585083008,2.7606961727142334
1701058301097962000,16.6429619140625,-5.538064002990723,-13.997289657592773,1.8690543174743652
1701058301114946600,16.659946533203126,-5.697320461273193,-12.458870887756348,0.617121696472168
1701058301131934500,16.6769345703125,-5.839400768280029,-11.187108039855957,-0.5376467704772949
1701058301148930800,16.693930908203125,-5.448486328125,-10.294994354248047,-2.1317219734191895
1701058301165926000,16.71092578125,-4.432418346405029,-9.511531829833984,-3.9842967987060547
1701058301182920000,16.727919921875,-2.8377432823181152,-8.638506889343262,-6.596780776977539
1701058301199908900,16.744908935546874,-2.980185031890869,-8.485454559326172,-9.090555191040039
1701058301216900600,16.761900634765624,-4.163719177246094,-8.365541458129883,-11.324743270874023
1701058301233895200,16.778895263671874,-4.453138828277588,-8.601287841796875,-12.976005554199219
1701058301250896000,16.795895751953125,-3.840930461883545,-8.986812591552734,-14.28415298461914
1701058301267900000,16.81289990234375,-2.921102523803711,-9.133049011230469,-15.140373229980469
1701058301284883000,16.829883056640625,-2.2234480381011963,-8.964615821838379,-15.651925086975098
1701058301301872000,16.8468720703125,-2.094510555267334,-8.674386024475098,-14.992673873901367
1701058301318866200,16.8638662109375,-2.5246074199676514,-8.625951766967773,-13.354515075683594
1701058301335859200,16.880859130859374,-3.004509210586548,-8.823833465576172,-11.017531394958496
1701058301352851700,16.897851806640624,-3.0501344203948975,-9.1400146484375,-8.613652229309082
1701058301369844200,16.91484423828125,-2.7166433334350586,-9.336577415466309,-6.479121208190918
1701058301386839300,16.93183935546875,-3.1094226837158203,-9.558884620666504,-4.622835159301758
1701058301403816700,16.948816650390626,-4.209250450134277,-10.10983657836914,-3.3973302841186523
1701058301420820000,16.965820068359374,-5.029927730560303,-10.524774551391602,-2.2562856674194336
1701058301437817300,16.9828173828125,-5.506322860717773,-11.003751754760742,-0.9796614646911621
1701058301454807600,16.9998076171875,-6.159846305847168,-11.703508377075195,0.7329201698303223
1701058301471798800,17.016798828125,-6.594148635864258,-12.203605651855469,2.5755743980407715
1701058301488794400,17.03379443359375,-6.07559871673584,-12.376285552978516,3.58518648147583
1701058301505785300,17.050785400390627,-5.324995517730713,-12.028234481811523,4.360696792602539
1701058301522778000,17.067778076171876,-5.155714988708496,-11.226640701293945,4.879711627960205
1701058301539771000,17.08477099609375,-5.0777482986450195,-10.29780387878418,4.799556732177734
1701058301556763400,17.101763427734376,-4.234941482543945,-9.653162956237793,4.188969135284424
1701058301573756200,17.118756103515626,-3.413431167602539,-9.309194564819336,3.8894920349121094
1701058301590748700,17.135748779296875,-3.8871874809265137,-9.31297492980957,4.346858501434326
1701058301607741700,17.15274169921875,-4.296690940856934,-9.14506721496582,5.685507297515869
1701058301624734200,17.169734130859375,-3.491420269012451,-8.284204483032227,6.78741455078125
1701058301641726500,17.1867265625,-2.1788158416748047,-7.32379150390625,7.436341285705566
1701058301658719200,17.20371923828125,-1.5646367073059082,-6.012201309204102,8.767162322998047
1701058301675711700,17.220711669921876,-1.7985749244689941,-4.754214763641357,9.828401565551758
1701058301692704800,17.237704833984374,-1.536667823791504,-4.362457752227783,10.492911338806152
1701058301709697300,17.254697265625,0.2246265411376953,-4.1293253898620605,11.671708106994629
1701058301726687200,17.271687255859376,3.2886743545532227,-3.5091068744659424,12.393730163574219
1701058301743685400,17.288685302734375,6.543646812438965,-2.51967716217041,12.575796127319336
1701058301760675300,17.30567529296875,8.641356468200684,-1.8010601997375488,12.182534217834473
1701058301777667800,17.322667724609374,9.213751792907715,-1.2395323514938354,11.946199417114258
1701058301794659800,17.339659912109376,8.733221054077148,-0.5934545397758484,11.604342460632324
1701058301811652900,17.35665283203125,7.457006454467773,-0.369160532951355,11.657693862915039
1701058301828635400,17.373635498046873,6.558215141296387,-0.6183685064315796,11.540288925170898
1701058301845638100,17.39063818359375,6.401943206787109,-0.43984973430633545,10.995368957519531
1701058301862634000,17.407634033203124,6.317068099975586,-0.5051781535148621,10.562175750732422
1701058301879620600,17.42462060546875,6.2662858963012695,-1.024234414100647,10.595817565917969
1701058301896616200,17.4416162109375,6.017616271972656,-1.731468677520752,10.630535125732422
1701058301913608700,17.458608642578124,5.369870185852051,-2.598816156387329,10.82223892211914
1701058301930589400,17.47558935546875,4.058967590332031,-3.649109363555908,10.961477279663086
1701058301947584300,17.492584228515625,2.5249557495117188,-4.660353660583496,10.889230728149414
1701058301964579800,17.509579833984375,0.9106950759887695,-5.9020795822143555,10.584659576416016
1701058301981571800,17.52657177734375,-0.7074899673461914,-7.114444732666016,10.019220352172852
1701058301998564600,17.543564697265627,-1.7489347457885742,-8.146089553833008,9.400372505187988
1701058302015555800,17.560555908203124,-2.6513586044311523,-9.265262603759766,8.620118141174316
1701058302032549600,17.577549560546874,-3.6770339012145996,-10.451205253601074,7.888543128967285
1701058302049540000,17.5945400390625,-4.457930564880371,-11.49775505065918,7.568385124206543
1701058302066534100,17.6115341796875,-5.047156810760498,-12.211564064025879,7.447453498840332
1701058302083528000,17.62852783203125,-5.732600212097168,-13.04681396484375,7.318578720092773
1701058302100520400,17.6455205078125,-5.860978603363037,-14.055910110473633,7.0189666748046875
1701058302117528600,17.662528564453126,-5.644071578979492,-15.417144775390625,6.142613887786865
1701058302134513700,17.679513671875,-4.697174072265625,-15.999259948730469,4.561835765838623
1701058302151508200,17.69650830078125,-4.112848281860352,-15.505511283874512,3.0239756107330322
1701058302168488000,17.713488037109375,-4.351276874542236,-14.590554237365723,1.2998299598693848
1701058302185491200,17.7304912109375,-4.7284932136535645,-12.835548400878906,-0.41099023818969727
1701058302202484000,17.74748388671875,-5.071242332458496,-11.080947875976562,-2.04386043548584
1701058302219476700,17.764476806640626,-4.998080253601074,-9.914710998535156,-4.1463236808776855
1701058302236469200,17.78146923828125,-3.9928903579711914,-9.420831680297852,-6.311455249786377
1701058302253462000,17.7984619140625,-2.812138795852661,-8.971161842346191,-8.384671211242676
1701058302270454800,17.815454833984376,-2.778424024581909,-8.866061210632324,-10.501890182495117
1701058302287447000,17.832447021484374,-3.4706525802612305,-8.826103210449219,-12.409039497375488
1701058302304438500,17.8494384765625,-3.595686435699463,-8.686018943786621,-14.254249572753906
1701058302321433300,17.866433349609373,-2.928121566772461,-8.595634460449219,-15.361732482910156
1701058302338424800,17.8834248046875,-2.4565320014953613,-8.480758666992188,-15.639762878417969
1701058302355417600,17.90041748046875,-2.9441380500793457,-8.624917984008789,-14.931604385375977
1701058302372410400,17.917410400390626,-3.7762656211853027,-8.744295120239258,-13.440237045288086
1701058302389392600,17.934392578125,-3.954984188079834,-9.03418254852295,-11.657060623168945
1701058302406395400,17.9513955078125,-3.725778102874756,-9.490324974060059,-9.93009090423584
1701058302423388400,17.968388427734375,-3.7788825035095215,-10.006924629211426,-7.866158485412598
1701058302440380700,17.985380615234376,-3.959578037261963,-10.490942001342773,-6.079410552978516
1701058302457373700,18.002373779296875,-3.9591751098632812,-11.004339218139648,-4.626718521118164
1701058302474366200,18.0193662109375,-4.358417510986328,-11.701593399047852,-2.9590845108032227
1701058302491358700,18.036358642578126,-5.232852935791016,-12.2823486328125,-1.3694725036621094
1701058302508341200,18.05334130859375,-5.6878342628479,-12.574695587158203,0.2303638458251953
1701058302525348600,18.0703486328125,-5.796786308288574,-12.889163970947266,1.5083746910095215
1701058302542337000,18.0873369140625,-6.030185699462891,-13.049335479736328,2.5700621604919434
1701058302559329300,18.104329345703125,-5.956057548522949,-12.88264274597168,3.325068235397339
1701058302576326400,18.121326416015624,-5.763827800750732,-12.068655014038086,3.6800360679626465
1701058302593314600,18.138314453125,-5.864558219909668,-11.402464866638184,3.8650269508361816
1701058302610307300,18.155307373046874,-6.339633464813232,-11.040217399597168,3.828961133956909
1701058302627300000,18.172300048828124,-6.683238983154297,-10.759868621826172,3.865054130554199
1701058302644291000,18.189291015625,-5.637495517730713,-10.847625732421875,5.977565765380859
1701058302661287000,18.206286865234375,-3.397207736968994,-9.490927696228027,9.205389976501465
1701058302678278000,18.22327783203125,-1.372100830078125,-7.085206031799316,11.735915184020996
1701058302695272200,18.240272216796875,-0.3800539970397949,-4.979208469390869,12.68902587890625
1701058302712261400,18.257261474609376,-0.5356011390686035,-3.7639927864074707,13.061338424682617
1701058302729248800,18.274248779296876,-0.8897294998168945,-2.870295524597168,12.795905113220215
1701058302746248700,18.291248779296875,0.31137943267822266,-2.422118902206421,12.275952339172363
1701058302763241200,18.3082412109375,3.3400039672851562,-1.9657106399536133,11.815011024475098
1701058302780233700,18.325233642578127,6.4741973876953125,-1.048607587814331,11.792485237121582
1701058302797224200,18.34222412109375,8.05363941192627,-0.35902953147888184,11.59872817993164
1701058302814221300,18.35922119140625,8.207159996032715,-0.2611672878265381,12.036349296569824
1701058302831211800,18.376211669921876,7.800545692443848,0.1388249397277832,12.59733772277832
1701058302848204300,18.393204345703126,7.200438499450684,0.23688936233520508,12.70549488067627
1701058302865194500,18.410194580078127,7.081662178039551,0.28220081329345703,12.775765419006348
1701058302882192400,18.4271923828125,7.258461952209473,0.1581566333770752,12.467460632324219
1701058302899182300,18.444182373046875,6.987651824951172,-0.19261479377746582,12.042994499206543
1701058302916172500,18.461172607421876,6.200342178344727,-0.5925306081771851,11.59981918334961
1701058302933170200,18.478170166015627,5.061614036560059,-1.1295907497406006,11.110292434692383
1701058302950160100,18.49516015625,3.346409797668457,-1.9634102582931519,11.186513900756836
1701058302967142100,18.51214208984375,1.4772062301635742,-3.14506196975708,11.914878845214844
1701058302984142800,18.529142822265626,0.5335369110107422,-4.660358905792236,12.441762924194336
1701058303001140700,18.546140625,0.2423553466796875,-6.272046089172363,12.755017280578613
1701058303018118100,18.5631181640625,-0.6751079559326172,-8.140889167785645,12.238004684448242
1701058303035123500,18.58012353515625,-2.451249599456787,-10.007804870605469,11.037276268005371
1701058303052116000,18.597115966796874,-4.910605430603027,-11.583269119262695,9.30935001373291
1701058303069108700,18.614108642578124,-6.486981391906738,-12.832712173461914,7.96449089050293
1701058303086101500,18.6311015625,-6.995558261871338,-13.74185562133789,7.036231994628906
1701058303103094000,18.648093994140623,-7.474484920501709,-14.879169464111328,6.114082336425781
1701058303120086800,18.665086669921877,-6.667874336242676,-15.940786361694336,5.093321323394775
1701058303137077200,18.6820771484375,-5.0093889236450195,-15.889861106872559,3.187058925628662
1701058303154071800,18.69907177734375,-3.543414354324341,-14.739291191101074,0.28332090377807617
1701058303171067400,18.7160673828125,-3.187523603439331,-12.837772369384766,-2.742403507232666
1701058303188057000,18.73305712890625,-3.0406582355499268,-11.113720893859863,-4.618350982666016
1701058303205048300,18.75004833984375,-4.2648420333862305,-10.326692581176758,-5.371704578399658
1701058303222039600,18.76703955078125,-6.086681842803955,-9.438029289245605,-6.390532970428467
1701058303239039700,18.784039794921874,-6.835899829864502,-8.290319442749023,-7.814003944396973
1701058303256028000,18.80102783203125,-5.778905391693115,-7.689131736755371,-9.387036323547363
1701058303273020400,18.8180205078125,-4.4231696128845215,-7.384538173675537,-10.597132682800293
1701058303290013400,18.835013427734374,-3.9991822242736816,-7.2552337646484375,-10.948647499084473
1701058303307006000,18.852005859375,-4.044147968292236,-7.582416534423828,-11.248138427734375
1701058303323997200,18.8689970703125,-4.129195213317871,-7.7244133949279785,-12.004833221435547
1701058303340992000,18.885991943359375,-4.856182098388672,-7.99656343460083,-12.097193717956543
1701058303357971700,18.9029716796875,-5.123752117156982,-8.207780838012695,-11.40174388885498
1701058303374976500,18.9199765625,-4.282697677612305,-8.6234712600708,-10.419219017028809
1701058303391969000,18.936968994140624,-3.233860492706299,-9.162370681762695,-9.216423988342285
1701058303408961800,18.9539619140625,-2.663161277770996,-9.640090942382812,-7.837532997131348
1701058303425954300,18.970954345703124,-2.8267242908477783,-10.288674354553223,-6.300519943237305
1701058303442947000,18.987947021484374,-3.8088550567626953,-11.151412010192871,-4.7572407722473145
1701058303459939600,19.004939697265623,-4.900111675262451,-11.859015464782715,-2.8831825256347656
1701058303476932000,19.02193212890625,-5.854323387145996,-12.674572944641113,-1.2884612083435059
1701058303493924900,19.0389248046875,-6.212390422821045,-13.668529510498047,0.21136808395385742
1701058303510917600,19.055917724609376,-6.17462682723999,-14.275131225585938,1.6646366119384766
1701058303527910100,19.07291015625,-5.662954807281494,-14.30270767211914,2.585414409637451
1701058303544902700,19.089902587890624,-4.869883060455322,-13.506126403808594,3.0497806072235107
1701058303561895400,19.1068955078125,-4.651050090789795,-12.529729843139648,3.427206039428711
1701058303578888000,19.123887939453127,-5.249001502990723,-11.597634315490723,3.4843828678131104
1701058303595881000,19.140880859375,-5.769287109375,-11.023826599121094,3.985342502593994
1701058303612873500,19.15787353515625,-5.940488815307617,-10.176473617553711,5.446185111999512
1701058303629853000,19.17485302734375,-4.892304420471191,-9.060394287109375,7.309123516082764
1701058303646852400,19.191852294921876,-3.2610812187194824,-7.5713019371032715,9.405219078063965
1701058303663857200,19.208857177734377,-2.7773070335388184,-5.747967720031738,10.846640586853027
1701058303680840400,19.22584033203125,-2.5932493209838867,-4.35551643371582,11.922364234924316
1701058303697826300,19.242826416015625,-2.0725221633911133,-2.758988380432129,13.003105163574219
1701058303714829000,19.2598291015625,-1.07403564453125,-1.45914626121521,13.697620391845703
1701058303731821800,19.27682177734375,1.446634292602539,-0.34648776054382324,14.79460334777832
1701058303748812000,19.29381201171875,4.274106025695801,0.7040295600891113,14.879718780517578
1701058303765798100,19.310798095703124,6.1921892166137695,1.323364019393921,14.623661041259766
1701058303782791700,19.327791748046874,7.000444412231445,1.5713567733764648,14.458434104919434
1701058303799785200,19.34478515625,6.859867095947266,1.6901750564575195,13.907587051391602
1701058303816778200,19.3617783203125,6.542126655578613,1.7592642307281494,13.970648765563965
1701058303833769700,19.378769775390627,6.068819999694824,1.847667932510376,13.90250015258789
1701058303850772700,19.395772705078127,6.040699005126953,1.6476502418518066,13.40241527557373
1701058303867763500,19.412763427734376,6.1562299728393555,1.061568021774292,12.835256576538086
1701058303884755000,19.4297548828125,5.82996940612793,0.10194134712219238,12.532113075256348
1701058303901748500,19.44674853515625,4.841370582580566,-0.8028695583343506,12.386953353881836
1701058303918741000,19.463740966796873,3.4797582626342773,-2.1014554500579834,12.683530807495117
1701058303935732700,19.480732666015626,1.6430130004882812,-3.5151541233062744,13.013298034667969
1701058303952727600,19.4977275390625,-0.20341110229492188,-4.89322566986084,12.939997673034668
1701058303969719000,19.514718994140626,-1.674105167388916,-6.511354923248291,12.679549217224121
1701058303986711600,19.531711669921876,-2.889930248260498,-8.365427017211914,12.02104663848877
1701058304003704300,19.548704345703126,-4.06547212600708,-10.229888916015625,11.229745864868164
1701058304020697000,19.565697021484375,-5.188480377197266,-12.074746131896973,9.962983131408691
1701058304037689300,19.582689453125,-6.173449516296387,-13.342596054077148,8.625833511352539
1701058304054682000,19.59968212890625,-6.643944263458252,-14.260311126708984,7.537873268127441
1701058304071670800,19.6166708984375,-7.013455867767334,-15.017672538757324,6.492330074310303
1701058304088657000,19.633656982421876,-6.643306255340576,-15.352807998657227,5.300093173980713
1701058304105660000,19.650659912109376,-5.938190460205078,-14.910547256469727,4.189398765563965
1701058304122652700,19.667652587890625,-5.675034523010254,-13.857270240783691,2.7454638481140137
1701058304139645200,19.684645263671875,-5.580155372619629,-12.89761734008789,1.1808457374572754
1701058304156638000,19.701637939453125,-5.261909484863281,-11.951127052307129,-0.9555354118347168
1701058304173630700,19.718630615234375,-4.7143449783325195,-10.893816947937012,-3.104231357574463
1701058304190622700,19.735622802734376,-4.608537197113037,-10.498780250549316,-4.549239158630371
1701058304207616500,19.752616455078126,-3.726496934890747,-10.078605651855469,-6.390954494476318
1701058304224608500,19.7696083984375,-2.381221294403076,-9.929327011108398,-8.276199340820312
1701058304241601300,19.786601318359374,-1.4122505187988281,-9.621363639831543,-10.310327529907227
1701058304258593800,19.80359375,-1.6572291851043701,-9.655177116394043,-12.254802703857422
1701058304275586800,19.8205869140625,-2.447964668273926,-9.623821258544922,-14.14494800567627
1701058304292579000,19.8375791015625,-3.0432159900665283,-9.258768081665039,-15.317713737487793
1701058304309559000,19.85455908203125,-3.3533883094787598,-9.258824348449707,-15.300634384155273
1701058304326564400,19.871564453125,-3.3888611793518066,-9.248807907104492,-14.73896598815918
1701058304343560000,19.888559814453124,-3.7784149646759033,-9.116512298583984,-13.264795303344727
1701058304360549600,19.905549560546874,-4.062065124511719,-9.522782325744629,-11.262748718261719
1701058304377542400,19.92254248046875,-3.4193484783172607,-9.922893524169922,-9.49648666381836
1701058304394535000,19.939534912109377,-3.0315845012664795,-10.500164985656738,-8.037403106689453
1701058304411517400,19.956517333984376,-3.5082879066467285,-10.86723804473877,-6.363720893859863
1701058304428515300,19.973515380859375,-4.368412017822266,-11.466818809509277,-4.274477958679199
1701058304445513200,19.99051318359375,-5.836614608764648,-12.699546813964844,-1.7703766822814941
1701058304462505700,20.007505615234376,-6.947352409362793,-13.523245811462402,0.31854915618896484
1701058304479498200,20.024498291015625,-6.9070844650268555,-13.988072395324707,1.3890390396118164
1701058304496490800,20.04149072265625,-5.976362228393555,-13.839273452758789,1.9702434539794922
1701058304513476600,20.0584765625,-5.485694885253906,-13.800985336303711,2.8194549083709717
1701058304530476000,20.07547607421875,-5.449853420257568,-13.906219482421875,4.823495864868164
1701058304547466000,20.092466064453124,-5.2783098220825195,-13.303154945373535,6.384925842285156
1701058304564464400,20.10946435546875,-4.155810356140137,-11.63303279876709,7.09246826171875
1701058304581443600,20.126443603515625,-3.2491536140441895,-10.07834529876709,6.8879547119140625
1701058304598446800,20.14344677734375,-4.072729110717773,-9.071782112121582,6.339717864990234
1701058304615437000,20.16043701171875,-5.825301170349121,-9.056265830993652,5.4252142906188965
1701058304632422100,20.177422119140626,-7.035190582275391,-9.965320587158203,4.86958646774292
1701058304649414700,20.19441455078125,-4.709403991699219,-10.168298721313477,6.319366931915283
1701058304666409200,20.2114091796875,-0.474029541015625,-8.521934509277344,7.388392925262451
1701058304683402800,20.22840283203125,2.1059465408325195,-6.584773063659668,8.057312965393066
1701058304700395500,20.2453955078125,1.9766807556152344,-5.888689994812012,9.347063064575195
1701058304717384000,20.262384033203126,0.3792228698730469,-6.09736967086792,11.85451889038086
1701058304734392300,20.279392333984376,0.8402090072631836,-5.221472263336182,14.346114158630371
1701058304751380500,20.29638037109375,3.927628517150879,-3.879631519317627,16.809371948242188
1701058304768373200,20.313373291015626,7.223694801330566,-2.371232032775879,17.961605072021484
1701058304785365800,20.33036572265625,8.964133262634277,-1.0587961673736572,17.911069869995117
1701058304802358500,20.347358642578126,9.604375839233398,-0.5547339916229248,16.597347259521484
1701058304819351300,20.364351318359375,9.554755210876465,-0.7047916054725647,14.625635147094727
1701058304836344000,20.381343994140625,8.820106506347656,-0.6503763794898987,13.013986587524414
1701058304853336600,20.398336669921875,7.5757904052734375,-0.5797298550605774,12.036947250366211
1701058304870329000,20.4153291015625,6.470371246337891,-0.995076596736908,12.00820541381836
1701058304887321600,20.432321533203126,5.409788131713867,-1.63641357421875,12.460649490356445
1701058304904311600,20.4493115234375,3.8502769470214844,-2.5496509075164795,13.040423393249512
1701058304921310000,20.46631005859375,2.5953617095947266,-3.808795928955078,13.055924415588379
1701058304938299600,20.483299560546875,1.8832035064697266,-5.369034767150879,12.78709888458252
1701058304955285500,20.500285400390624,1.2611589431762695,-7.074092864990234,12.371917724609375
1701058304972285200,20.51728515625,0.07954692840576172,-8.894548416137695,11.5616455078125
1701058304989267200,20.53426708984375,-1.5256786346435547,-10.845495223999023,10.562554359436035
1701058305006270500,20.5512705078125,-3.356924057006836,-12.764303207397461,9.407759666442871
1701058305023262700,20.5682626953125,-5.170513153076172,-14.344040870666504,8.141955375671387
1701058305040255500,20.58525537109375,-6.735605239868164,-15.21181583404541,7.047895431518555
1701058305057248500,20.60224853515625,-7.699551105499268,-15.659324645996094,5.672745704650879
1701058305074240800,20.61924072265625,-7.256642818450928,-16.132694244384766,4.602943420410156
1701058305091233500,20.636233642578127,-5.371153831481934,-16.588085174560547,3.3484444618225098
1701058305108226300,20.653226318359376,-3.7484841346740723,-15.57729721069336,1.809868574142456
1701058305125221400,20.670221435546875,-4.025144577026367,-13.526028633117676,0.34353208541870117
1701058305142208800,20.687208740234375,-4.373997688293457,-12.347521781921387,-0.27593326568603516
1701058305159204000,20.7042041015625,-3.7182958126068115,-11.667692184448242,-1.0194716453552246
1701058305176184600,20.7211845703125,-3.3431711196899414,-10.841233253479004,-1.9738426208496094
1701058305193188000,20.73818798828125,-2.5850064754486084,-9.217345237731934,-2.8571314811706543
1701058305210174700,20.7551748046875,-2.354308843612671,-8.339705467224121,-3.7288994789123535
1701058305227174700,20.772174560546876,-2.9680957794189453,-8.19588851928711,-4.467592239379883
1701058305244164900,20.789164794921874,-4.268531799316406,-8.896903991699219,-6.171967506408691
1701058305261162500,20.80616259765625,-5.740599632263184,-9.00805377960205,-9.353240013122559
1701058305278152400,20.82315234375,-7.558830738067627,-8.787458419799805,-13.668994903564453
1701058305295145000,20.84014501953125,-8.392560005187988,-8.408219337463379,-17.227622985839844
1701058305312138000,20.857137939453125,-6.553745746612549,-8.734711647033691,-18.06894302368164
1701058305329130500,20.874130615234375,-3.8230223655700684,-9.405938148498535,-16.442989349365234
1701058305346123300,20.891123291015624,-2.181804895401001,-9.758279800415039,-14.43016529083252
1701058305363112000,20.90811181640625,-1.5495362281799316,-9.691981315612793,-13.01197338104248
1701058305380108500,20.925108642578124,-2.4093499183654785,-9.798079490661621,-11.846294403076172
1701058305397101000,20.94210107421875,-4.014492034912109,-10.496828079223633,-9.955851554870605
1701058305414081300,20.959081298828124,-5.332908630371094,-11.520757675170898,-7.721207618713379
1701058305431077000,20.9760771484375,-6.382781982421875,-12.35274887084961,-5.500568389892578
1701058305448068900,20.99306884765625,-6.844076156616211,-12.699214935302734,-2.9717769622802734
1701058305465064000,21.01006396484375,-6.976077079772949,-13.031044960021973,-0.5858888626098633
1701058305482059300,21.027059326171877,-7.13714599609375,-13.524222373962402,1.350944995880127
1701058305499047200,21.044047119140625,-7.4819865226745605,-14.102211952209473,2.7862069606781006
1701058305516040000,21.0610400390625,-7.278045177459717,-13.765487670898438,3.5511672496795654
1701058305533034200,21.0780341796875,-6.464723110198975,-13.184150695800781,3.8869614601135254
1701058305550025200,21.095025146484375,-5.683332443237305,-12.9265718460083,3.764294147491455
1701058305567017000,21.112016845703124,-5.253522872924805,-13.025386810302734,4.074836730957031
1701058305584016600,21.1290166015625,-4.82380485534668,-13.111675262451172,5.027878761291504
1701058305601004000,21.146004150390624,-3.481447696685791,-12.874452590942383,5.951375961303711
1701058305618002400,21.16300244140625,-1.0821585655212402,-11.774412155151367,7.025917053222656
1701058305634998300,21.179998291015625,1.2020206451416016,-10.455005645751953,7.849093914031982
1701058305651988200,21.19698828125,2.416006088256836,-9.227577209472656,8.74826717376709
1701058305668986000,21.213986083984373,2.686878204345703,-8.206497192382812,9.269025802612305
1701058305685976000,21.23097607421875,3.154916763305664,-7.493846893310547,10.21194076538086
1701058305702968800,21.24796875,4.465724945068359,-5.29170036315918,12.116022109985352
1701058305719961300,21.26496142578125,4.643148422241211,-3.4396917819976807,14.36084270477295
1701058305736954000,21.2819541015625,5.028619766235352,-2.9147515296936035,16.341506958007812
1701058305753946600,21.298946533203125,6.942377090454102,-2.984524965286255,16.665441513061523
1701058305770939400,21.315939453125,10.432950973510742,-2.5050954818725586,14.81152629852295
1701058305787929600,21.3329296875,12.590556144714355,-1.7566137313842773,12.226306915283203
1701058305804929000,21.349928955078123,11.497570037841797,-1.1145288944244385,10.029814720153809
1701058305821915400,21.366915283203124,8.14161205291748,-1.3531666994094849,9.448104858398438
1701058305838910000,21.383909912109374,5.911527633666992,-1.9585096836090088,10.021968841552734
1701058305855902700,21.40090283203125,5.3633317947387695,-2.3871238231658936,10.919635772705078
1701058305872895200,21.417895263671873,5.771844863891602,-2.9154927730560303,11.782173156738281
1701058305889885200,21.43488525390625,6.0485734939575195,-4.088660717010498,12.249850273132324
1701058305906883000,21.451883056640625,5.614467620849609,-5.677514553070068,12.32278060913086
1701058305923873300,21.468873291015626,4.617002487182617,-7.203098773956299,11.825908660888672
1701058305940865800,21.48586572265625,2.6702566146850586,-8.947359085083008,11.279356956481934
1701058305957858300,21.5028583984375,0.020934104919433594,-10.773776054382324,10.960018157958984
1701058305974851300,21.519851318359375,-2.8137125968933105,-12.606623649597168,10.46757698059082
1701058305991843600,21.536843505859373,-5.166810035705566,-14.265140533447266,9.424633026123047
1701058306008836400,21.55383642578125,-6.713495254516602,-15.56015396118164,8.135268211364746
1701058306025829000,21.5708291015625,-7.183332920074463,-16.68628692626953,6.561490535736084
1701058306042821600,21.587821533203126,-6.215189456939697,-17.990642547607422,5.365292549133301
1701058306059813400,21.6048134765625,-4.704468250274658,-19.213424682617188,3.821631669998169
