time,seconds_elapsed,z,y,x
1702071031409097000,0.125096923828125,9.387035369873047,2.399744749069214,1.5365278720855713
1702071031426088700,0.142088623046875,9.18838882446289,2.7369155883789062,2.078199625015259
1702071031443068000,0.15906787109375,8.935609817504883,3.0732057094573975,2.6356029510498047
1702071031460065500,0.1760654296875,8.630583763122559,3.4005115032196045,3.191497325897217
1702071031477061000,0.19306103515625,8.24229907989502,3.727633476257324,3.795440673828125
1702071031494045200,0.210045166015625,7.7373762130737305,4.044888019561768,4.473029136657715
1702071031511037700,0.22703759765625,7.151797771453857,4.285898685455322,5.169039249420166
1702071031528029400,0.244029541015625,6.587310791015625,4.389400959014893,5.794532299041748
1702071031545013200,0.26101318359375,6.112730503082275,4.357156753540039,6.315523147583008
1702071031562005000,0.2780048828125,5.752496719360352,4.228811740875244,6.727707386016846
1702071031579004700,0.295004638671875,5.402113914489746,4.065125465393066,7.108307361602783
1702071031596005600,0.312005615234375,5.060392379760742,3.886228561401367,7.451560974121094
1702071031612971800,0.3289716796875,4.765473365783691,3.68172025680542,7.744115352630615
1702071031629971500,0.345971435546875,4.524168491363525,3.462737560272217,7.98607873916626
1702071031646965200,0.36296533203125,4.332018852233887,3.254866123199463,8.177748680114746
1702071031663945200,0.3799453125,4.222951889038086,3.077281951904297,8.302597045898438
1702071031680941800,0.39694189453125,4.219345569610596,2.9151687622070312,8.362716674804688
1702071031697929500,0.413929443359375,4.284992218017578,2.7526915073394775,8.384368896484375
1702071031714919000,0.4309189453125,4.375535488128662,2.596250057220459,8.387507438659668
1702071031731909600,0.44790966796875,4.4506025314331055,2.4622139930725098,8.38843059539795
1702071031748900600,0.464900634765625,4.479925632476807,2.369523048400879,8.399508476257324
1702071031765891800,0.481891845703125,4.4589715003967285,2.325444459915161,8.422944068908691
1702071031782879500,0.49887939453125,4.41016960144043,2.326704502105713,8.44825267791748
1702071031799870700,0.51587060546875,4.356141567230225,2.355785369873047,8.46820068359375
1702071031816859600,0.532859619140625,4.299698829650879,2.397056818008423,8.485447883605957
1702071031833851000,0.549850830078125,4.228809833526611,2.4431545734405518,8.507895469665527
1702071031850840800,0.5668408203125,4.128890037536621,2.4924395084381104,8.542607307434082
1702071031867832800,0.583832763671875,3.9917259216308594,2.539041757583618,8.59392261505127
1702071031884816400,0.60081640625,3.807587146759033,2.5723366737365723,8.667264938354492
1702071031901804300,0.61780419921875,3.5683932304382324,2.5880584716796875,8.763825416564941
1702071031918801200,0.63480126953125,3.2616488933563232,2.5807993412017822,8.884663581848145
1702071031935793200,0.651793212890625,2.8692867755889893,2.522892713546753,9.035392761230469
1702071031952779300,0.668779296875,2.4004065990448,2.3954243659973145,9.205222129821777
1702071031969771800,0.685771728515625,1.8957165479660034,2.191073179244995,9.372384071350098
1702071031986763800,0.702763671875,1.3969945907592773,1.897903561592102,9.522734642028809
1702071032003751000,0.7197509765625,0.9661945700645447,1.5096417665481567,9.644871711730957
1702071032020743400,0.736743408203125,0.669785737991333,1.0364561080932617,9.732074737548828
1702071032037729500,0.7537294921875,0.5363084077835083,0.5166298747062683,9.781696319580078
1702071032054722800,0.770722900390625,0.5568596124649048,-0.01330884825438261,9.794174194335938
1702071032071714800,0.78771484375,0.6807469129562378,-0.5561573505401611,9.770537376403809
1702071032088701700,0.80470166015625,0.8552061915397644,-1.1406172513961792,9.70586109161377
1702071032105696300,0.8216962890625,1.0243836641311646,-1.7747668027877808,9.593589782714844
1702071032122682400,0.838682373046875,1.1348516941070557,-2.4368226528167725,9.434517860412598
1702071032139670500,0.85567041015625,1.1738075017929077,-3.076573371887207,9.240832328796387
1702071032156663300,0.872663330078125,1.1608343124389648,-3.6467032432556152,9.03272533416748
1702071032173653000,0.889653076171875,1.135590672492981,-4.149224281311035,8.816489219665527
1702071032190655200,0.9066552734375,1.1248430013656616,-4.613996982574463,8.583815574645996
1702071032207635500,0.923635498046875,1.1311161518096924,-5.066565990447998,8.323859214782715
1702071032224621800,0.940621826171875,1.1408488750457764,-5.516716003417969,8.031214714050293
1702071032241615000,0.957614990234375,1.1499152183532715,-5.9481611251831055,7.715775489807129
1702071032258605000,0.97460498046875,1.1628080606460571,-6.327604293823242,7.405767917633057
1702071032275592000,0.991592041015625,1.1764259338378906,-6.640360355377197,7.124447345733643
1702071032292577500,1.00857763671875,1.1880358457565308,-6.896848678588867,6.874457836151123
1702071032309574700,1.02557470703125,1.192964792251587,-7.11517333984375,6.6473493576049805
1702071032326557700,1.0425576171875,1.1840521097183228,-7.3090596199035645,6.43519926071167
1702071032343552800,1.059552734375,1.1618552207946777,-7.480904579162598,6.238773345947266
1702071032360543500,1.07654345703125,1.1293988227844238,-7.628033638000488,6.064131736755371
1702071032377538800,1.093538818359375,1.089195966720581,-7.749372482299805,5.915824890136719
1702071032394523100,1.110523193359375,1.0452239513397217,-7.849760055541992,5.790068626403809
1702071032411516400,1.127516357421875,1.0004504919052124,-7.935787200927734,5.679657459259033
1702071032428507600,1.144507568359375,0.9574037194252014,-8.0130033493042,5.5777482986450195
1702071032445485000,1.161485107421875,0.9166237711906433,-8.081779479980469,5.484592437744141
1702071032462487000,1.178487060546875,0.881598174571991,-8.136019706726074,5.409630298614502
1702071032479476700,1.195476806640625,0.8597418665885925,-8.168707847595215,5.3636884689331055
1702071032496467500,1.212467529296875,0.853348970413208,-8.179159164428711,5.348763942718506
1702071032513438200,1.229438232421875,0.8636975288391113,-8.171308517456055,5.35909366607666
1702071032530449400,1.246449462890625,0.8932046294212341,-8.151203155517578,5.384810924530029
1702071032547437800,1.263437744140625,0.932013750076294,-8.11583137512207,5.431459426879883
1702071032564417300,1.280417236328125,0.9790031313896179,-8.053828239440918,5.514847278594971
1702071032581414100,1.2974140625,1.0360405445098877,-7.95885705947876,5.640863418579102
1702071032598413300,1.314413330078125,1.1026417016983032,-7.826879501342773,5.810359001159668
1702071032615394600,1.33139453125,1.170614242553711,-7.657039642333984,6.019594669342041
1702071032632388400,1.348388427734375,1.2188386917114258,-7.455398082733154,6.258403301239014
1702071032649377800,1.365377685546875,1.2309646606445312,-7.236111164093018,6.508421897888184
1702071032666359600,1.382359619140625,1.225429654121399,-7.017458915710449,6.744606971740723
1702071032683356400,1.3993564453125,1.2218464612960815,-6.7971510887146,6.96720552444458
1702071032700348200,1.41634814453125,1.230661153793335,-6.551180362701416,7.197473049163818
1702071032717340000,1.43333984375,1.2393250465393066,-6.23976469039917,7.46763277053833
1702071032734326300,1.450326171875,1.2222447395324707,-5.84281063079834,7.784843444824219
1702071032751306500,1.467306396484375,1.178515076637268,-5.369848251342773,8.124774932861328
1702071032768312000,1.48431201171875,1.1224523782730103,-4.845665454864502,8.45551586151123
1702071032785296400,1.50129638671875,1.0632820129394531,-4.300467491149902,8.752801895141602
1702071032802279400,1.518279541015625,1.0105029344558716,-3.7571210861206055,9.005500793457031
1702071032819287600,1.53528759765625,0.9645316004753113,-3.235581398010254,9.21069049835205
1702071032836271000,1.55227099609375,0.9166440367698669,-2.7515738010406494,9.371484756469727
1702071032853257000,1.569257080078125,0.8637782335281372,-2.3166325092315674,9.493324279785156
1702071032870249700,1.586249755859375,0.812610387802124,-1.9436721801757812,9.581122398376465
1702071032887241700,1.60324169921875,0.7627997398376465,-1.635186791419983,9.6426362991333
1702071032904227600,1.6202275390625,0.7033721208572388,-1.3803168535232544,9.686903953552246
1702071032921220000,1.63722021484375,0.6252802014350891,-1.1635541915893555,9.720662117004395
1702071032938212000,1.654212158203125,0.5212482810020447,-0.9711257815361023,9.747888565063477
1702071032955198000,1.671197998046875,0.3915424346923828,-0.794302761554718,9.769948959350586
1702071032972181000,1.688180908203125,0.2455906718969345,-0.6336946487426758,9.786430358886719
1702071032989180700,1.7051806640625,0.11029135435819626,-0.49781179428100586,9.796740531921387
1702071033006172700,1.722172607421875,0.0020225520711392164,-0.39187806844711304,9.802169799804688
1702071033023158800,1.73915869140625,-0.07900349050760269,-0.31944042444229126,9.804481506347656
1702071033040150500,1.756150634765625,-0.14285333454608917,-0.2786034643650055,9.80500316619873
1702071033057142000,1.77314208984375,-0.20098985731601715,-0.2653554379940033,9.804351806640625
1702071033074129000,1.79012890625,-0.24693962931632996,-0.2806093394756317,9.802877426147461
1702071033091121700,1.80712158203125,-0.2725621163845062,-0.32764932513237,9.800739288330078
1702071033108113700,1.82411376953125,-0.27515244483947754,-0.4176865220069885,9.797243118286133
1702071033125099500,1.841099609375,-0.23374947905540466,-0.5893265604972839,9.789494514465332
1702071033142090500,1.858090576171875,-0.1051773801445961,-0.8469899892807007,9.772802352905273
1702071033159084800,1.875084716796875,0.12684600055217743,-1.1517021656036377,9.74133586883545
1702071033176063500,1.8920634765625,0.4107622504234314,-1.4644259214401245,9.691380500793457
1702071033193057300,1.909057373046875,0.6801756620407104,-1.7391794919967651,9.630613327026367
1702071033210055400,1.926055419921875,0.8973979353904724,-1.9595502614974976,9.570316314697266
1702071033227031800,1.94303173828125,1.0379059314727783,-2.2140798568725586,9.500353813171387
1702071033244030700,1.96003076171875,1.1005980968475342,-2.5545151233673096,9.407403945922852
1702071033261026600,1.977026611328125,1.0891532897949219,-2.964118719100952,9.287833213806152
1702071033278009300,1.99400927734375,1.046349287033081,-3.3572819232940674,9.158053398132324
1702071033295001000,2.0110009765625,1.0078612565994263,-3.673548460006714,9.040209770202637
1702071033312006000,2.028005859375,0.9777269959449768,-3.92330265045166,8.938000679016113
1702071033328975000,2.04497509765625,0.9509543776512146,-4.153423309326172,8.836337089538574
1702071033345975600,2.0619755859375,0.9233066439628601,-4.40577507019043,8.716236114501953
1702071033362963700,2.078963623046875,0.8789879679679871,-4.704452037811279,8.563387870788574
1702071033379954700,2.09595458984375,0.8168376684188843,-5.041962623596191,8.375410079956055
1702071033396946700,2.11294677734375,0.7488275170326233,-5.385446071624756,8.165312767028809
1702071033413932000,2.12993212890625,0.6917961239814758,-5.705020904541016,7.950488567352295
1702071033430927400,2.14692724609375,0.661355197429657,-5.986356258392334,7.743529796600342
1702071033447913700,2.163913818359375,0.6622559428215027,-6.2351274490356445,7.544581890106201
1702071033464902700,2.180902587890625,0.6809138655662537,-6.463467597961426,7.348202228546143
1702071033481896200,2.197896240234375,0.710551917552948,-6.680177688598633,7.1488776206970215
1702071033498885400,2.214885498046875,0.7454168200492859,-6.889307975769043,6.943911075592041
1702071033515877000,2.231877197265625,0.784469485282898,-7.0867719650268555,6.737833499908447
1702071033532864500,2.248864501953125,0.8298658132553101,-7.263148307800293,6.541719913482666
1702071033549854000,2.26585400390625,0.8762029409408569,-7.4117302894592285,6.3666839599609375
1702071033566839000,2.282839111328125,0.9155313372612,-7.534718990325928,6.214975357055664
1702071033583833600,2.29983349609375,0.9418449997901917,-7.637718677520752,6.0839362144470215
1702071033600826000,2.316826171875,0.9585197567939758,-7.724658012390137,5.970513820648193
1702071033617815300,2.333815185546875,0.979108989238739,-7.7960662841796875,5.873570919036865
1702071033634807000,2.35080712890625,1.0047166347503662,-7.8503522872924805,5.796432971954346
1702071033651797500,2.367797607421875,1.0308291912078857,-7.888816833496094,5.739344120025635
1702071033668787000,2.384786865234375,1.0603899955749512,-7.913463115692139,5.699894905090332
1702071033685774600,2.401774658203125,1.0979526042938232,-7.919917583465576,5.68379545211792
1702071033702765800,2.418765869140625,1.1398690938949585,-7.89864444732666,5.705107688903809
1702071033719757000,2.435757080078125,1.1741458177566528,-7.844976425170898,5.771816253662109
1702071033736751400,2.45275146484375,1.1888155937194824,-7.764938831329346,5.876101970672607
1702071033753732400,2.469732421875,1.1805534362792969,-7.6793694496154785,5.989131450653076
1702071033770728700,2.486728759765625,1.1555873155593872,-7.598283290863037,6.096459865570068
1702071033787720200,2.50372021484375,1.1197888851165771,-7.498612403869629,6.225192070007324
1702071033804706300,2.520706298828125,1.0972238779067993,-7.347239017486572,6.4070515632629395
1702071033821697500,2.537697509765625,1.1072957515716553,-7.116425037384033,6.660818099975586
1702071033838690300,2.554690185546875,1.1439043283462524,-6.795993804931641,6.981552600860596
1702071033855679200,2.57167919921875,1.179675817489624,-6.402191162109375,7.338693141937256
1702071033872667100,2.588667236328125,1.1873760223388672,-5.966115951538086,7.696213722229004
1702071033889660000,2.605659912109375,1.1575356721878052,-5.519620895385742,8.026830673217773
1702071033906652200,2.622652099609375,1.0951671600341797,-5.078061580657959,8.321660041809082
1702071033923636700,2.63963671875,1.000848650932312,-4.650716304779053,8.579349517822266
1702071033940629200,2.656629150390625,0.8818467259407043,-4.243556022644043,8.80060863494873
1702071033957621200,2.673621337890625,0.7495101690292358,-3.8646974563598633,8.985458374023438
1702071033974606800,2.69060693359375,0.6115813851356506,-3.52521014213562,9.13427448272705
1702071033991600400,2.707600341796875,0.4720194339752197,-3.228414535522461,9.251522064208984
1702071034008590000,2.724590087890625,0.335459440946579,-2.971564769744873,9.343094825744629
1702071034025580300,2.741580322265625,0.21015362441539764,-2.740321636199951,9.417143821716309
1702071034042571000,2.758571044921875,0.09430214762687683,-2.5206968784332275,9.480154037475586
1702071034059560400,2.775560546875,-0.018198873847723007,-2.309319019317627,9.534296989440918
1702071034076552200,2.79255224609375,-0.13162434101104736,-2.105725049972534,9.58043384552002
1702071034093538300,2.809538330078125,-0.24610872566699982,-1.905735731124878,9.619963645935059
1702071034110530600,2.826530517578125,-0.3544032573699951,-1.7074081897735596,9.653770446777344
1702071034127522800,2.843522705078125,-0.4482499063014984,-1.5241470336914062,9.680505752563477
1702071034144501500,2.86050146484375,-0.5253910422325134,-1.3702666759490967,9.699610710144043
1702071034161494000,2.877493896484375,-0.5899606943130493,-1.2537082433700562,9.711657524108887
1702071034178492700,2.89449267578125,-0.6562739610671997,-1.1833926439285278,9.716224670410156
1702071034195478500,2.911478515625,-0.7443546652793884,-1.1631057262420654,9.712326049804688
1702071034212472300,2.928472412109375,-0.8451419472694397,-1.2002841234207153,9.699543952941895
1702071034229462000,2.9454619140625,-0.9322280883789062,-1.3031868934631348,9.678263664245605
1702071034246453800,2.962453857421875,-0.99736487865448,-1.4733027219772339,9.647317886352539
1702071034263438600,2.9794384765625,-1.0429894924163818,-1.6894431114196777,9.606980323791504
1702071034280433400,2.996433349609375,-1.0750024318695068,-1.9200907945632935,9.56000804901123
1702071034297423400,3.01342333984375,-1.0877751111984253,-2.157745838165283,9.507734298706055
1702071034314410500,3.030410400390625,-1.0571141242980957,-2.422433853149414,9.447245597839355
1702071034331402200,3.04740234375,-0.9725884795188904,-2.7333645820617676,9.371174812316895
1702071034348395500,3.0643955078125,-0.8422896862030029,-3.091135263442993,9.272085189819336
1702071034365380400,3.08138037109375,-0.6852627396583557,-3.4728052616119385,9.149106979370117
1702071034382383400,3.09838330078125,-0.5233702659606934,-3.839695453643799,9.012154579162598
1702071034399374000,3.1153740234375,-0.3788650929927826,-4.161047458648682,8.875711441040039
1702071034416354600,3.1323544921875,-0.2534949481487274,-4.421972751617432,8.753171920776367
1702071034433344800,3.1493447265625,-0.13769374787807465,-4.636284351348877,8.644189834594727
1702071034450324000,3.166323974609375,-0.018731556832790375,-4.844542503356934,8.530309677124023
1702071034467314000,3.18331396484375,0.1075858473777771,-5.0837531089782715,8.38927936553955
1702071034484326100,3.200326171875,0.2340213656425476,-5.351466178894043,8.218465805053711
1702071034501305300,3.217305419921875,0.3522517681121826,-5.619333744049072,8.033376693725586
1702071034518295600,3.234295654296875,0.4601908028125763,-5.8707146644592285,7.845958232879639
1702071034535288600,3.25128857421875,0.5561646819114685,-6.099712371826172,7.662917137145996
1702071034552262100,3.26826220703125,0.6400073170661926,-6.308413505554199,7.485347747802734
1702071034569254000,3.28525390625,0.7155419588088989,-6.503678321838379,7.309328079223633
1702071034586258700,3.3022587890625,0.7886534929275513,-6.688074588775635,7.13328742980957
1702071034603246000,3.31924609375,0.853609025478363,-6.855660438537598,6.964725494384766
1702071034620233700,3.336233642578125,0.9019467830657959,-7.001626491546631,6.811740875244141
1702071034637229300,3.353229248046875,0.9343491196632385,-7.12526273727417,6.677855014801025
1702071034654216400,3.370216552734375,0.9424598217010498,-7.219355583190918,6.574859142303467
1702071034671206700,3.38720654296875,0.9135549664497375,-7.28289270401001,6.508533477783203
1702071034688196900,3.40419677734375,0.8574565052986145,-7.326345920562744,6.467265605926514
1702071034705187000,3.42118701171875,0.7919831871986389,-7.35900354385376,6.438474655151367
1702071034722169300,3.43816943359375,0.7236300706863403,-7.380984306335449,6.421334266662598
1702071034739167200,3.455167236328125,0.6434437036514282,-7.385061740875244,6.425182819366455
1702071034756157700,3.47215771484375,0.5444371700286865,-7.369898319244385,6.451691150665283
1702071034773147600,3.489147705078125,0.4406973421573639,-7.344146251678467,6.488870143890381
1702071034790127400,3.50612744140625,0.3565024137496948,-7.317076206207275,6.5245232582092285
1702071034807128000,3.523128173828125,0.3064812421798706,-7.285818099975586,6.561939716339111
1702071034824118300,3.5401181640625,0.2849240005016327,-7.2417192459106445,6.611539363861084
1702071034841108500,3.5571083984375,0.2851637601852417,-7.178094863891602,6.6805500984191895
1702071034858085600,3.574085693359375,0.2935211658477783,-7.092051982879639,6.7714667320251465
1702071034875086600,3.591086669921875,0.30612924695014954,-7.00151252746582,6.864491939544678
1702071034892067800,3.60806787109375,0.3437826633453369,-6.919171333312988,6.945718765258789
1702071034909059300,3.625059326171875,0.41589316725730896,-6.826184272766113,7.03323221206665
1702071034926050600,3.642050537109375,0.5131022334098816,-6.683692932128906,7.162478923797607
1702071034943043600,3.659043701171875,0.6015466451644897,-6.4491095542907715,7.3677167892456055
1702071034960032000,3.676031982421875,0.6420857310295105,-6.1006903648376465,7.655416965484619
1702071034977025800,3.69302587890625,0.5990864634513855,-5.650210857391357,7.9970197677612305
1702071034994020000,3.71002001953125,0.48317328095436096,-5.147495269775391,8.33702278137207
1702071035011005700,3.727005615234375,0.35064175724983215,-4.645182132720947,8.633392333984375
1702071035027993900,3.743993896484375,0.249293714761734,-4.16896390914917,8.876583099365234
1702071035044986400,3.760986328125,0.19296923279762268,-3.7059595584869385,9.081010818481445
1702071035061963300,3.77796337890625,0.14715629816055298,-3.227773904800415,9.262609481811523
1702071035078969300,3.79496923828125,0.08809298276901245,-2.7379775047302246,9.419756889343262
1702071035095954000,3.811953857421875,0.01442683581262827,-2.252812385559082,9.54781436920166
1702071035112940800,3.82894091796875,-0.05156542733311653,-1.7885788679122925,9.645437240600586
1702071035129941800,3.845941650390625,-0.0824410691857338,-1.3581717014312744,9.715179443359375
1702071035146928000,3.86292822265625,-0.0798659548163414,-0.9674201011657715,9.761856079101562
1702071035163924000,3.879924072265625,-0.062313780188560486,-0.6220493316650391,9.790060997009277
1702071035180911400,3.896911376953125,-0.060702286660671234,-0.3334909975528717,9.804143905639648
1702071035197901600,3.913901611328125,-0.10224207490682602,-0.10361909866333008,9.808920860290527
1702071035214891500,3.9308916015625,-0.1943328082561493,0.07500398904085159,9.807788848876953
1702071035231882200,3.94788232421875,-0.32528647780418396,0.21016590297222137,9.802353858947754
1702071035248872000,3.964871826171875,-0.4667429029941559,0.30716389417648315,9.794075965881348
1702071035265862000,3.98186181640625,-0.5927878022193909,0.36838483810424805,9.785143852233887
1702071035282852400,3.998852294921875,-0.6924337148666382,0.39733967185020447,9.777462005615234
1702071035299842600,4.015842529296875,-0.7651982307434082,0.3887445330619812,9.772383689880371
1702071035316832500,4.03283251953125,-0.8237271308898926,0.33300742506980896,9.769681930541992
1702071035333828400,4.049828369140625,-0.8714433312416077,0.22303853929042816,9.768671989440918
1702071035350813200,4.066813232421875,-0.9007484316825867,0.052887190133333206,9.768417358398438
1702071035367803100,4.08380322265625,-0.9103413224220276,-0.1847793310880661,9.765924453735352
1702071035384793300,4.10079345703125,-0.9112669825553894,-0.49185553193092346,9.755193710327148
1702071035401783300,4.117783203125,-0.9125785231590271,-0.8435611724853516,9.730968475341797
1702071035418773200,4.134773193359375,-0.9087111353874207,-1.2054883241653442,9.693150520324707
1702071035435753000,4.1517529296875,-0.8807953596115112,-1.5739983320236206,9.642762184143066
1702071035452753700,4.168753662109375,-0.8147703409194946,-1.9793611764907837,9.573631286621094
1702071035469743900,4.185743896484375,-0.6960578560829163,-2.4436419010162354,9.475242614746094
1702071035486734300,4.202734375,-0.531083345413208,-2.926429271697998,9.3482666015625
1702071035503724300,4.219724365234375,-0.34735268354415894,-3.3624351024627686,9.209207534790039
1702071035520714500,4.236714599609375,-0.16749116778373718,-3.7187023162841797,9.07630443572998
1702071035537704400,4.253704345703125,-0.015475241467356682,-4.012262344360352,8.951963424682617
1702071035554684700,4.2706845703125,0.09513712674379349,-4.287345886230469,8.823022842407227
1702071035571674400,4.28767431640625,0.1726016253232956,-4.59066915512085,8.667876243591309
1702071035588675300,4.30467529296875,0.23552732169628143,-4.941816806793213,8.471074104309082
1702071035605665300,4.321665283203125,0.2944260239601135,-5.3200860023498535,8.236875534057617
1702071035622646000,4.33864599609375,0.3607942759990692,-5.6828932762146,7.988157749176025
1702071035639645700,4.355645751953125,0.4359578788280487,-6.012449264526367,7.739283561706543
1702071035656636000,4.372635986328125,0.5200820565223694,-6.314095497131348,7.489849090576172
1702071035673625600,4.38962548828125,0.6124300956726074,-6.5973219871521,7.234389305114746
1702071035690616000,4.406615966796875,0.7094544172286987,-6.86154317855835,6.975098609924316
1702071035707606300,4.423606201171875,0.8021512031555176,-7.0965704917907715,6.725425720214844
1702071035724596200,4.44059619140625,0.8895328640937805,-7.292471885681152,6.501132488250732
1702071035741586400,4.45758642578125,0.9748121500015259,-7.44393253326416,6.314565181732178
1702071035758574000,4.474573974609375,1.0491057634353638,-7.556242942810059,6.1675519943237305
1702071035775569400,4.4915693359375,1.1064479351043701,-7.643424987792969,6.048964023590088
1702071035792569300,4.5085693359375,1.142350673675537,-7.713533401489258,5.952524185180664
1702071035809547000,4.525547119140625,1.157008171081543,-7.763898849487305,5.88381814956665
1702071035826534700,4.54253466796875,1.1610231399536133,-7.790826320648193,5.847321510314941
1702071035843530000,4.559530029296875,1.1531645059585571,-7.794469356536865,5.844019889831543
1702071035860517400,4.576517333984375,1.1450073719024658,-7.78533411026001,5.857785701751709
1702071035877507800,4.5935078125,1.148703694343567,-7.774600505828857,5.87130069732666
1702071035894497500,4.61049755859375,1.1761189699172974,-7.762686252593994,5.881629467010498
1702071035911488000,4.627488037109375,1.223382592201233,-7.73746395111084,5.905177593231201
1702071035928478000,4.64447802734375,1.2667595148086548,-7.683243274688721,5.966508388519287
1702071035945468400,4.661468505859375,1.2813644409179688,-7.60272741317749,6.065704345703125
1702071035962458600,4.678458740234375,1.257867693901062,-7.508151531219482,6.18720817565918
1702071035979438000,4.69543798828125,1.2132651805877686,-7.411540985107422,6.311352729797363
1702071035996439000,4.71243896484375,1.1806721687316895,-7.314742088317871,6.429359436035156
1702071036013428700,4.7294287109375,1.1891082525253296,-7.202974319458008,6.55280876159668
1702071036030419000,4.7464189453125,1.2232881784439087,-7.034463405609131,6.727259159088135
1702071036047406600,4.763406494140625,1.2452055215835571,-6.776155471801758,6.98350191116333
1702071036064398800,4.78039892578125,1.2171152830123901,-6.422181606292725,7.315075397491455
1702071036081392000,4.79739208984375,1.1285901069641113,-5.993343830108643,7.68389368057251
1702071036098379500,4.814379638671875,1.0102039575576782,-5.526087760925293,8.04226016998291
1702071036115369700,4.83136962890625,0.8991474509239197,-5.047449111938477,8.363666534423828
1702071036132360200,4.848360107421875,0.8160129189491272,-4.561588764190674,8.646510124206543
1702071036149350400,4.865350341796875,0.7600468397140503,-4.0676422119140625,8.89453411102295
1702071036166344200,4.88234423828125,0.7165833115577698,-3.5812971591949463,9.104775428771973
1702071036183330600,4.89933056640625,0.6692635416984558,-3.125840425491333,9.274553298950195
1702071036200319500,4.916319580078125,0.6107387542724609,-2.709627628326416,9.408562660217285
1702071036217309400,4.933309326171875,0.5411545634269714,-2.3333334922790527,9.51308822631836
1702071036234286800,4.950286865234375,0.46507176756858826,-1.9944411516189575,9.593854904174805
1702071036251291100,4.967291015625,0.3865506649017334,-1.6822636127471924,9.656949996948242
1702071036268268000,4.98426806640625,0.31166887283325195,-1.3923007249832153,9.705693244934082
1702071036285274000,5.001274169921875,0.24352309107780457,-1.1267582178115845,9.742034912109375
1702071036302262000,5.018261962890625,0.1732325404882431,-0.8958358764648438,9.767475128173828
1702071036319252000,5.035251953125,0.08939632773399353,-0.7020570635795593,9.784439086914062
1702071036336241700,5.05224169921875,-0.011213790625333786,-0.5400576591491699,9.795119285583496
1702071036353232100,5.069232177734375,-0.11650343984365463,-0.3991987705230713,9.801180839538574
1702071036370222300,5.086222412109375,-0.21159613132476807,-0.2732316255569458,9.803913116455078
1702071036387212500,5.103212646484375,-0.29437047243118286,-0.16639451682567596,9.80417251586914
1702071036404202500,5.120202392578125,-0.363236665725708,-0.09886852651834488,9.802776336669922
1702071036421192700,5.137192626953125,-0.41431909799575806,-0.08868063241243362,9.800846099853516
1702071036438182700,5.1541826171875,-0.4511875510215759,-0.14340443909168243,9.79857063293457
1702071036455172900,5.1711728515625,-0.4676281809806824,-0.2567170560359955,9.795486450195312
1702071036472163000,5.1881630859375,-0.45574429631233215,-0.4165091812610626,9.79055404663086
1702071036489150700,5.205150634765625,-0.4263140857219696,-0.6087828874588013,9.781806945800781
1702071036506146000,5.22214599609375,-0.39611145853996277,-0.8312811255455017,9.76668643951416
1702071036523137000,5.239136962890625,-0.35978737473487854,-1.0945909023284912,9.742100715637207
1702071036540125200,5.256125244140625,-0.28360167145729065,-1.425731897354126,9.701700210571289
1702071036557112600,5.273112548828125,-0.14384618401527405,-1.8595699071884155,9.631065368652344
1702071036574103800,5.290103759765625,0.03566860035061836,-2.3797481060028076,9.516914367675781
1702071036591094300,5.30709423828125,0.19499938189983368,-2.9057278633117676,9.367753982543945
1702071036608084500,5.32408447265625,0.3241942226886749,-3.3430633544921875,9.217101097106934
1702071036625074400,5.341074462890625,0.4284477233886719,-3.65667462348938,9.092925071716309
1702071036642063000,5.35806298828125,0.5095006823539734,-3.8873331546783447,8.99250602722168
1702071036659054600,5.3750546875,0.5753636956214905,-4.087366104125977,8.899353981018066
1702071036676034600,5.39203466796875,0.6214649081230164,-4.296194553375244,8.797307014465332
1702071036693035300,5.40903515625,0.6345047950744629,-4.543336868286133,8.671311378479004
1702071036710023000,5.42602294921875,0.6205714344978333,-4.836395740509033,8.512360572814941
1702071036727005200,5.443005126953125,0.6030590534210205,-5.159484386444092,8.32178783416748
1702071036743995400,5.459995361328125,0.6042635440826416,-5.480205535888672,8.114083290100098
1702071036760994800,5.476994873046875,0.6392114758491516,-5.783709526062012,7.897861957550049
1702071036777979100,5.493979248046875,0.7071260213851929,-6.0644025802612305,7.678484916687012
1702071036794968800,5.51096875,0.7917600870132446,-6.323210716247559,7.458299160003662
1702071036811960300,5.527960205078125,0.8788125514984131,-6.566264629364014,7.23519229888916
1702071036828942600,5.544942626953125,0.9652528166770935,-6.78890323638916,7.015354156494141
1702071036845939000,5.56193896484375,1.0479804277420044,-6.974778175354004,6.8183817863464355
1702071036862925600,5.578925537109375,1.1215603351593018,-7.121964454650879,6.6525068283081055
1702071036879917600,5.59591748046875,1.1854630708694458,-7.243345737457275,6.5088210105896
1702071036896907500,5.612907470703125,1.2430222034454346,-7.351798057556152,6.375113010406494
1702071036913897200,5.629897216796875,1.2944086790084839,-7.44836950302124,6.251591205596924
1702071036930897400,5.6468974609375,1.3370939493179321,-7.522350788116455,6.15325403213501
1702071036947890000,5.663889892578125,1.3702722787857056,-7.56583309173584,6.092341899871826
1702071036964877600,5.680877685546875,1.3953036069869995,-7.576018333435059,6.073973178863525
1702071036981867800,5.69786767578125,1.4153248071670532,-7.556517124176025,6.093603610992432
1702071036998857700,5.714857666015625,1.4287374019622803,-7.517414093017578,6.138672351837158
1702071037015848200,5.73184814453125,1.441929578781128,-7.45545768737793,6.210726261138916
1702071037032838000,5.748837890625,1.4545923471450806,-7.3750410079956055,6.303098201751709
1702071037049828400,5.765828369140625,1.4648808240890503,-7.282584190368652,6.407358169555664
1702071037066818600,5.782818603515625,1.4731031656265259,-7.178050518035889,6.522398948669434
1702071037083808500,5.79980859375,1.4745970964431763,-7.055503845214844,6.654438018798828
1702071037100798700,5.816798828125,1.4577468633651733,-6.909386157989502,6.809661865234375
1702071037117786000,5.8337861328125,1.4174922704696655,-6.740201473236084,6.985448837280273
1702071037134781700,5.85078173828125,1.3696609735488892,-6.5602803230285645,7.163997173309326
1702071037151766800,5.867766845703125,1.3390650749206543,-6.389204978942871,7.322640895843506
1702071037168759800,5.884759765625,1.3351064920425415,-6.226737022399902,7.461994647979736
1702071037185753600,5.901753662109375,1.341509222984314,-6.052013397216797,7.603262901306152
1702071037202738000,5.918738037109375,1.312989354133606,-5.8397746086120605,7.772335529327393
1702071037219730000,5.93572998046875,1.2057298421859741,-5.5806050300598145,7.9774169921875
1702071037236719900,5.952719970703125,1.0239907503128052,-5.289299488067627,8.198223114013672
1702071037253710000,5.9697099609375,0.8194709420204163,-4.981359481811523,8.41133975982666
1702071037270700300,5.9867001953125,0.6329014897346497,-4.658502578735352,8.61010456085205
1702071037287690500,6.0036904296875,0.4830665588378906,-4.314896583557129,8.796842575073242
1702071037304666600,6.02066650390625,0.34940388798713684,-3.9388184547424316,8.977736473083496
1702071037321669000,6.037669189453125,0.20907773077487946,-3.529453992843628,9.150701522827148
1702071037338662700,6.05466259765625,0.0649070218205452,-3.1007368564605713,9.306842803955078
1702071037355654700,6.071654541015625,-0.06731782853603363,-2.676368474960327,9.43761920928955
1702071037372641300,6.088641357421875,-0.17571526765823364,-2.2765700817108154,9.540570259094238
1702071037389631500,6.105631591796875,-0.26479291915893555,-1.9071779251098633,9.619183540344238
1702071037406621400,6.122621337890625,-0.35330983996391296,-1.5536211729049683,9.6797513961792
1702071037423611600,6.139611572265625,-0.44254302978515625,-1.1899993419647217,9.727497100830078
1702071037440601900,6.156601806640625,-0.5136083364486694,-0.8130977749824524,9.76274585723877
1702071037457592000,6.173592041015625,-0.5473982095718384,-0.43813809752464294,9.784912109375
1702071037474582000,6.19058203125,-0.5381748080253601,-0.08914899080991745,9.794821739196777
1702071037491572200,6.207572265625,-0.5053450465202332,0.21799184381961823,9.794549942016602
1702071037508562400,6.2245625,-0.470657616853714,0.4889287054538727,9.786497116088867
1702071037525552400,6.241552490234375,-0.4519599676132202,0.7251482009887695,9.772719383239746
1702071037542540000,6.2585400390625,-0.45748794078826904,0.9254941344261169,9.755524635314941
1702071037559535600,6.27553564453125,-0.4927840530872345,1.0834397077560425,9.737526893615723
1702071037576523000,6.29252294921875,-0.5499265789985657,1.190081000328064,9.722007751464844
1702071037593513000,6.309512939453125,-0.6161579489707947,1.2388797998428345,9.711933135986328
1702071037610503200,6.326503173828125,-0.6773719191551208,1.231606364250183,9.708781242370605
1702071037627493400,6.343493408203125,-0.7214932441711426,1.170764684677124,9.713129997253418
1702071037644473000,6.36047314453125,-0.7479472160339355,1.055315375328064,9.724350929260254
1702071037661473300,6.377473388671875,-0.7586055397987366,0.8820316195487976,9.740775108337402
1702071037678464300,6.39446435546875,-0.7510415315628052,0.6442760825157166,9.759967803955078
1702071037695454000,6.411453857421875,-0.723619282245636,0.35542067885398865,9.77681827545166
1702071037712444400,6.4284443359375,-0.6726034879684448,0.027060184627771378,9.78687858581543
1702071037729434600,6.4454345703125,-0.5945957899093628,-0.34761595726013184,9.785791397094727
1702071037746421800,6.462421875,-0.500358521938324,-0.7772215008735657,9.766355514526367
1702071037763417000,6.4794169921875,-0.4123140871524811,-1.2593563795089722,9.72008991241455
1702071037780404700,6.49640478515625,-0.35212811827659607,-1.7760334014892578,9.641464233398438
1702071037797392400,6.513392333984375,-0.32877492904663086,-2.3126654624938965,9.52783203125
1702071037814387500,6.530387451171875,-0.34335318207740784,-2.8681833744049072,9.375060081481934
1702071037831375400,6.547375244140625,-0.3939228355884552,-3.4416403770446777,9.178020477294922
1702071037848365600,6.564365478515625,-0.44848495721817017,-4.01986837387085,8.937318801879883
1702071037865355500,6.58135546875,-0.4517933130264282,-4.569649696350098,8.668928146362305
1702071037882335500,6.59833544921875,-0.38958945870399475,-5.039636611938477,8.40752124786377
1702071037899333000,6.6153330078125,-0.30117663741111755,-5.394540309906006,8.18806266784668
1702071037916328700,6.63232861328125,-0.23379741609096527,-5.639510631561279,8.023551940917969
1702071037933305600,6.6493056640625,-0.19216875731945038,-5.813100337982178,7.899815082550049
1702071037950306300,6.666306396484375,-0.16876643896102905,-5.955535411834717,7.793539047241211
1702071037967296500,6.683296630859375,-0.15631011128425598,-6.10467004776001,7.677544116973877
1702071037984271600,6.700271728515625,-0.15641243755817413,-6.272782802581787,7.5408124923706055
1702071038001281300,6.71728125,-0.17068549990653992,-6.440638065338135,7.397645950317383
1702071038018264000,6.73426416015625,-0.18031936883926392,-6.582139492034912,7.271797180175781
1702071038035257000,6.751257080078125,-0.17016743123531342,-6.68562126159668,7.17702054977417
1702071038052249900,6.768249755859375,-0.14908529818058014,-6.751583099365234,7.115477561950684
1702071038069237500,6.785237548828125,-0.12769033014774323,-6.784877777099609,7.084155082702637
1702071038086227500,6.8022275390625,-0.11086847633123398,-6.793437480926514,7.076231479644775
1702071038103217700,6.8192177734375,-0.10530134290456772,-6.782639980316162,7.086666107177734
1702071038120205300,6.836205322265625,-0.10436403006315231,-6.746775150299072,7.120831489562988
1702071038137200600,6.85320068359375,-0.10237013548612595,-6.673846244812012,7.189257621765137
1702071038154188000,6.87018798828125,-0.10502418130636215,-6.5681304931640625,7.2859296798706055
1702071038171178200,6.88717822265625,-0.12429485470056534,-6.446256160736084,7.393677711486816
1702071038188168400,6.90416845703125,-0.17064866423606873,-6.3215179443359375,7.499693870544434
1702071038205158700,6.92115869140625,-0.2332846224308014,-6.195774078369141,7.602239608764648
1702071038222134800,6.938134765625,-0.3019624948501587,-6.065295219421387,7.704357147216797
1702071038239141400,6.955141357421875,-0.3716011047363281,-5.9240875244140625,7.810455322265625
1702071038256128800,6.972128662109375,-0.43250977993011475,-5.773263931274414,7.919501781463623
1702071038273119500,6.989119384765625,-0.4907030463218689,-5.621287822723389,8.024740219116211
1702071038290109200,7.006109130859375,-0.5537745952606201,-5.471141815185547,8.123796463012695
1702071038307099600,7.023099609375,-0.6216818690299988,-5.318535804748535,8.219660758972168
1702071038324089600,7.040089599609375,-0.6849627494812012,-5.160818099975586,8.314620971679688
1702071038341079600,7.05707958984375,-0.7396494150161743,-4.999506950378418,8.40797233581543
1702071038358057500,7.074057373046875,-0.7894314527511597,-4.833287715911865,8.500133514404297
1702071038375052000,7.091052001953125,-0.8379826545715332,-4.659510612487793,8.592024803161621
1702071038392042500,7.10804248046875,-0.9031270742416382,-4.47194242477417,8.68459701538086
1702071038409030100,7.125030029296875,-0.9907750487327576,-4.265888214111328,8.778194427490234
1702071038426024000,7.14202392578125,-1.077301025390625,-4.040218353271484,8.874242782592773
1702071038443011600,7.159011474609375,-1.1309328079223633,-3.8026037216186523,8.972028732299805
1702071038460005600,7.176005615234375,-1.1195634603500366,-3.5609781742095947,9.072052001953125
1702071038476988400,7.192988525390625,-1.0459253787994385,-3.297002077102661,9.179974555969238
1702071038493983500,7.2099833984375,-0.9872328042984009,-2.9785819053649902,9.294598579406738
1702071038510975000,7.22697509765625,-1.0200613737106323,-2.608792781829834,9.401585578918457
1702071038527963600,7.243963623046875,-1.118201732635498,-2.2296762466430664,9.48758602142334
1702071038544950500,7.260950439453125,-1.2136539220809937,-1.8643608093261719,9.554439544677734
1702071038561943600,7.277943603515625,-1.2716765403747559,-1.5073350667953491,9.609728813171387
1702071038578942000,7.29494189453125,-1.3010517358779907,-1.159523367881775,9.653956413269043
1702071038595929600,7.3119296875,-1.335395336151123,-0.8318503499031067,9.683018684387207
1702071038612908800,7.32890869140625,-1.3845347166061401,-0.5318352580070496,9.697234153747559
1702071038629912300,7.345912353515625,-1.439434289932251,-0.2567509710788727,9.700424194335938
1702071038646902500,7.362902587890625,-1.4867359399795532,0.001405086019076407,9.696686744689941
1702071038663882000,7.379882080078125,-1.5242151021957397,0.24855081737041473,9.687679290771484
1702071038680869400,7.396869384765625,-1.5508719682693481,0.4891418218612671,9.674278259277344
1702071038697875700,7.413875732421875,-1.5634695291519165,0.7241852879524231,9.657496452331543
1702071038714872600,7.43087255859375,-1.5657323598861694,0.9418388605117798,9.638337135314941
1702071038731853300,7.447853271484375,-1.5634723901748657,1.1280597448349,9.61868667602539
1702071038748843500,7.464843505859375,-1.5794140100479126,1.2682584524154663,9.598597526550293
1702071038765831400,7.48183154296875,-1.6457465887069702,1.3566417694091797,9.57534122467041
1702071038782823700,7.49882373046875,-1.7612992525100708,1.3873449563980103,9.5503511428833
1702071038799813600,7.515813720703125,-1.898713231086731,1.362024188041687,9.527637481689453
1702071038816810800,7.532810791015625,-2.040555953979492,1.2998343706130981,9.506980895996094
1702071038833794000,7.5497939453125,-2.176410436630249,1.203622817993164,9.489501953125
1702071038850784300,7.5667841796875,-2.291343927383423,1.0492773056030273,9.48076343536377
1702071038867774500,7.5837744140625,-2.3830647468566895,0.8160260319709778,9.481097221374512
1702071038884762000,7.60076220703125,-2.4610753059387207,0.5093056559562683,9.482606887817383
1702071038901754600,7.617754638671875,-2.535109758377075,0.15630631148815155,9.475489616394043
1702071038918747400,7.634747314453125,-2.59302020072937,-0.22817502915859222,9.458346366882324
1702071038935734800,7.65173486328125,-2.6162919998168945,-0.6343112587928772,9.433384895324707
1702071038952725500,7.6687255859375,-2.5819499492645264,-1.0441482067108154,9.406349182128906
1702071038969715200,7.685715087890625,-2.47621488571167,-1.450379729270935,9.380877494812012
1702071038986705400,7.702705322265625,-2.285132884979248,-1.8630174398422241,9.356464385986328
1702071039003694600,7.719694580078125,-2.0153756141662598,-2.2645394802093506,9.329856872558594
1702071039020686600,7.7366865234375,-1.7187371253967285,-2.631744384765625,9.292791366577148
1702071039037670000,7.753669921875,-1.4556450843811035,-2.9693057537078857,9.235823631286621
1702071039054666200,7.770666259765625,-1.266884684562683,-3.2936060428619385,9.1533203125
1702071039071656200,7.78765625,-1.1601495742797852,-3.626302480697632,9.041023254394531
1702071039088637400,7.804637451171875,-1.1049045324325562,-3.9772703647613525,8.899250030517578
1702071039105633800,7.8216337890625,-1.0553539991378784,-4.332441806793213,8.7379789352417
1702071039122629000,7.838629150390625,-0.9840940237045288,-4.663642883300781,8.574272155761719
1702071039139616800,7.85561669921875,-0.8849492073059082,-4.954052925109863,8.420827865600586
1702071039156606500,7.8726064453125,-0.7688363790512085,-5.205603122711182,8.279294967651367
1702071039173597700,7.88959765625,-0.6496151685714722,-5.423604965209961,8.14853286743164
1702071039190587000,7.9065869140625,-0.5350202322006226,-5.602667331695557,8.034923553466797
1702071039207577600,7.92357763671875,-0.4193360209465027,-5.74393367767334,7.941507339477539
1702071039224564700,7.940564697265625,-0.2957504391670227,-5.850916385650635,7.8686370849609375
1702071039241557500,7.9575576171875,-0.16984817385673523,-5.923938274383545,7.817560195922852
1702071039258548000,7.9745478515625,-0.05611748620867729,-5.964241027832031,7.7885050773620605
1702071039275538400,7.991538330078125,0.042471837252378464,-5.973956108093262,7.78114128112793
1702071039292527600,8.008527587890624,0.11694958060979843,-5.950581073760986,7.7982707023620605
1702071039309518000,8.02551806640625,0.15841862559318542,-5.894993305206299,7.83964729309082
1702071039326508500,8.042508544921875,0.16857114434242249,-5.817863941192627,7.896843910217285
1702071039343504100,8.059504150390625,0.14760653674602509,-5.729721546173096,7.961445331573486
1702071039360486100,8.076486083984374,0.09807652235031128,-5.634122371673584,8.03014087677002
1702071039377481200,8.093481201171874,0.01946830563247204,-5.525453090667725,8.105867385864258
1702071039394469000,8.11046923828125,-0.08478229492902756,-5.395758628845215,8.19235897064209
1702071039411459300,8.127459228515624,-0.1917945295572281,-5.248443603515625,8.285720825195312
1702071039428449300,8.14444921875,-0.27064892649650574,-5.09088134765625,8.381278038024902
1702071039445439500,8.161439453125,-0.31205013394355774,-4.919137477874756,8.481794357299805
1702071039462422000,8.178422119140626,-0.3327176868915558,-4.738263130187988,8.58337116241455
1702071039479421400,8.19542138671875,-0.3647066354751587,-4.589138507843018,8.66273307800293
1702071039496415000,8.2124150390625,-0.41557565331459045,-4.513944625854492,8.699868202209473
1702071039513397200,8.229397216796874,-0.48407989740371704,-4.498475551605225,8.704337120056152
1702071039530392600,8.246392578125,-0.574591875076294,-4.479159355163574,8.708794593811035
1702071039547380200,8.263380126953125,-0.6907602548599243,-4.396821975708008,8.742249488830566
1702071039564377900,8.2803779296875,-0.8444145917892456,-4.235534191131592,8.80813980102539
1702071039581360400,8.2973603515625,-1.0369482040405273,-4.0074262619018555,8.893895149230957
1702071039598350800,8.314350830078125,-1.2509840726852417,-3.7370269298553467,8.98363971710205
1702071039615340500,8.331340576171876,-1.4632368087768555,-3.452465295791626,9.065073013305664
1702071039632331300,8.348331298828125,-1.6541045904159546,-3.168837785720825,9.135562896728516
1702071039649321200,8.3653212890625,-1.8172591924667358,-2.8807759284973145,9.199719429016113
1702071039666300700,8.38230078125,-1.9558607339859009,-2.578627586364746,9.26074504852295
1702071039683301400,8.39930126953125,-2.0797014236450195,-2.259716749191284,9.316902160644531
1702071039700293000,8.416293212890626,-2.195650100708008,-1.9353276491165161,9.363213539123535
1702071039717272000,8.43327197265625,-2.3035624027252197,-1.6215423345565796,9.396824836730957
1702071039734272000,8.45027197265625,-2.4117190837860107,-1.3395384550094604,9.414106369018555
1702071039751262000,8.467261962890625,-2.52738356590271,-1.0971224308013916,9.41513442993164
1702071039768239600,8.484239501953125,-2.641444206237793,-0.8859122395515442,9.406064987182617
1702071039785242400,8.501242431640625,-2.742168664932251,-0.7030917406082153,9.392672538757324
1702071039802241300,8.5182412109375,-2.826857805252075,-0.5520353317260742,9.377645492553711
1702071039819222500,8.535222412109375,-2.8960604667663574,-0.42714613676071167,9.363042831420898
1702071039836202000,8.552201904296876,-2.9546923637390137,-0.3238413333892822,9.34885311126709
1702071039853203000,8.569202880859375,-3.015864133834839,-0.24179816246032715,9.331786155700684
1702071039870191000,8.586191162109374,-3.0843701362609863,-0.18518775701522827,9.310664176940918
1702071039887183400,8.603183349609376,-3.145904541015625,-0.16198600828647614,9.290487289428711
1702071039904173300,8.62017333984375,-3.1947457790374756,-0.18311171233654022,9.273414611816406
1702071039921163500,8.63716357421875,-3.2318334579467773,-0.25200390815734863,9.258933067321777
1702071039938155800,8.65415576171875,-3.249894857406616,-0.36861228942871094,9.248699188232422
1702071039955141400,8.671141357421876,-3.2467756271362305,-0.5386244654655457,9.241451263427734
1702071039972124700,8.688124755859375,-3.2353358268737793,-0.7700388431549072,9.229069709777832
1702071039989124400,8.705124267578125,-3.225132703781128,-1.0581575632095337,9.204071998596191
1702071040006113800,8.72211376953125,-3.2125537395477295,-1.378547191619873,9.165982246398926
1702071040023104300,8.739104248046875,-3.1909713745117188,-1.7071473598480225,9.118086814880371
1702071040040098000,8.75609814453125,-3.149785041809082,-2.0322251319885254,9.065595626831055
1702071040057081000,8.7730810546875,-3.077127695083618,-2.3368613719940186,9.017010688781738
1702071040074080000,8.790080078125,-2.964972972869873,-2.6156203746795654,8.977951049804688
1702071040091065000,8.807065185546875,-2.8054752349853516,-2.900101661682129,8.941747665405273
1702071040108056600,8.824056640625,-2.57779860496521,-3.230437994003296,8.896929740905762
1702071040125034800,8.84103466796875,-2.2785959243774414,-3.602647542953491,8.835443496704102
1702071040142024700,8.858024658203124,-1.9427146911621094,-3.9744677543640137,8.755888938903809
1702071040159025000,8.87502490234375,-1.6103414297103882,-4.308475017547607,8.66486930847168
1702071040176016100,8.89201611328125,-1.3012475967407227,-4.592832088470459,8.570225715637207
1702071040193005800,8.909005859375,-1.0153281688690186,-4.847696781158447,8.46788501739502
1702071040209995800,8.925995849609375,-0.7505252361297607,-5.10066556930542,8.34601879119873
1702071040226973400,8.942973388671875,-0.5233205556869507,-5.364846706390381,8.19638442993164
1702071040243968000,8.959968017578126,-0.3658246397972107,-5.628502368927002,8.026349067687988
1702071040260967400,8.976967529296875,-0.2792840898036957,-5.865128040313721,7.8586506843566895
1702071040277945000,8.993945068359375,-0.24880780279636383,-6.067180156707764,7.704774856567383
1702071040294939600,9.010939697265625,-0.25113558769226074,-6.238280773162842,7.566831588745117
1702071040311931000,9.027930908203125,-0.26387491822242737,-6.3831787109375,7.444563388824463
1702071040328916700,9.044916748046875,-0.2713470757007599,-6.503416061401367,7.339487552642822
1702071040345908700,9.06190869140625,-0.2612582743167877,-6.593051910400391,7.2594451904296875
1702071040362896100,9.078896240234375,-0.2415631115436554,-6.648221969604492,7.209639549255371
1702071040379887900,9.095887939453124,-0.2367333024740219,-6.67169189453125,7.188088893890381
1702071040396877600,9.112877685546875,-0.25321075320243835,-6.672872066497803,7.18643045425415
1702071040413869000,9.129869140625,-0.2885168492794037,-6.661376476287842,7.195758819580078
1702071040430858800,9.146858642578126,-0.33284398913383484,-6.642905235290527,7.210903644561768
1702071040447850000,9.16385009765625,-0.37672677636146545,-6.622013092041016,7.227941036224365
1702071040464838000,9.180837890625,-0.4154294729232788,-6.597166538238525,7.2485127449035645
1702071040481835500,9.19783544921875,-0.4462326169013977,-6.563242435455322,7.277420997619629
1702071040498830800,9.214830810546875,-0.47454074025154114,-6.513327121734619,7.320348739624023
1702071040515818200,9.231818359375,-0.5119962692260742,-6.445409297943115,7.37771463394165
1702071040532808700,9.24880859375,-0.5630711317062378,-6.357973098754883,7.449513912200928
1702071040549798700,9.265798583984376,-0.6289002299308777,-6.25948429107666,7.527247428894043
1702071040566788900,9.282788818359375,-0.6933640241622925,-6.156955718994141,7.605737209320068
1702071040583778800,9.29977880859375,-0.7386893033981323,-6.050328254699707,7.686610221862793
1702071040600769300,9.316769287109375,-0.7537611126899719,-5.95306921005249,7.760731220245361
1702071040617756700,9.333756591796876,-0.7311703562736511,-5.874981880187988,7.822154521942139
1702071040634752000,9.350751953125,-0.6714808344841003,-5.80023193359375,7.883053302764893
1702071040651739600,9.36773974609375,-0.5908050537109375,-5.692502021789551,7.967589855194092
1702071040668729900,9.384729736328126,-0.5158653855323792,-5.521088600158691,8.092440605163574
1702071040685717200,9.40171728515625,-0.4803008437156677,-5.279697895050049,8.254104614257812
1702071040702712600,9.418712646484375,-0.5110811591148376,-4.982086181640625,8.435267448425293
1702071040719700200,9.4357001953125,-0.5986756682395935,-4.653884410858154,8.615050315856934
1702071040736690200,9.452690185546874,-0.7181155681610107,-4.316518783569336,8.779983520507812
1702071040753680100,9.46968017578125,-0.8538762331008911,-3.978483200073242,8.92629337310791
1702071040770670300,9.48667041015625,-0.9947543740272522,-3.643632650375366,9.053756713867188
1702071040787660500,9.50366064453125,-1.131732702255249,-3.316735029220581,9.162672996520996
1702071040804650800,9.520650634765625,-1.2546751499176025,-3.002079963684082,9.254698753356934
1702071040821641200,9.53764111328125,-1.3562456369400024,-2.710505485534668,9.33005428314209
1702071040838631200,9.554631103515625,-1.4335432052612305,-2.4406113624572754,9.392789840698242
1702071040855621000,9.57162109375,-1.4972527027130127,-2.187372922897339,9.44509220123291
1702071040872611300,9.588611328125,-1.5549825429916382,-1.9450740814208984,9.488669395446777
1702071040889590800,9.6055908203125,-1.6110833883285522,-1.7065339088439941,9.525137901306152
1702071040906591700,9.622591796875,-1.6719841957092285,-1.4726967811584473,9.55362606048584
1702071040923569200,9.639569091796876,-1.7369673252105713,-1.2532966136932373,9.573310852050781
1702071040940564000,9.65656396484375,-1.8009215593338013,-1.0637141466140747,9.584429740905762
1702071040957555000,9.673554931640625,-1.8631807565689087,-0.9109877347946167,9.588262557983398
1702071040974552000,9.690552001953124,-1.9207110404968262,-0.7963817715644836,9.587114334106445
1702071040991542300,9.707542236328125,-1.9666986465454102,-0.7205600142478943,9.583789825439453
1702071041008532700,9.72453271484375,-1.9972704648971558,-0.6911342144012451,9.579633712768555
1702071041025522700,9.741522705078125,-2.009774684906006,-0.7197864055633545,9.574904441833496
1702071041042512600,9.7585126953125,-1.9979803562164307,-0.8157488703727722,9.569680213928223
1702071041059502800,9.7755029296875,-1.9697881937026978,-0.9690845012664795,9.5612211227417
1702071041076492800,9.792492919921875,-1.9527314901351929,-1.1625381708145142,9.543137550354004
1702071041093474800,9.809474853515624,-1.9623674154281616,-1.4014633893966675,9.509004592895508
1702071041110473500,9.826473388671875,-1.977545976638794,-1.7032580375671387,9.45644474029541
1702071041127463400,9.84346337890625,-1.9684559106826782,-2.0628037452697754,9.386487007141113
1702071041144443400,9.860443359375,-1.9301469326019287,-2.4332892894744873,9.305360794067383
1702071041161443800,9.87744384765625,-1.8582215309143066,-2.788914442062378,9.219820976257324
1702071041178433800,9.894433837890626,-1.7494860887527466,-3.1294667720794678,9.131365776062012
1702071041195421700,9.911421630859374,-1.6015989780426025,-3.4706406593322754,9.034690856933594
1702071041212417000,9.9284169921875,-1.4088506698608398,-3.801138162612915,8.93323040008545
1702071041229404200,9.945404052734375,-1.186270833015442,-4.088680267333984,8.838074684143066
1702071041246394400,9.962394287109374,-0.9598774909973145,-4.314310550689697,8.757936477661133
1702071041263384600,9.979384521484375,-0.7608505487442017,-4.4826250076293945,8.692715644836426
1702071041280374500,9.99637451171875,-0.6105192303657532,-4.62900972366333,8.627608299255371
1702071041297364500,10.013364501953125,-0.5019378662109375,-4.801755428314209,8.539749145507812
1702071041314351900,10.030351806640626,-0.4243459105491638,-5.022791862487793,8.415914535522461
1702071041331348000,10.047347900390625,-0.3697580397129059,-5.278477191925049,8.26057243347168
1702071041348335400,10.06433544921875,-0.3237696886062622,-5.532638072967529,8.09451961517334
1702071041365324300,10.08132421875,-0.27180197834968567,-5.752852439880371,7.941468715667725
1702071041382306000,10.09830615234375,-0.21737901866436005,-5.930080413818359,7.811722755432129
1702071041399298800,10.115298828125,-0.1745002120733261,-6.075156211853027,7.700528621673584
1702071041416296000,10.1322958984375,-0.15241177380084991,-6.2028889656066895,7.598488807678223
1702071041433286000,10.149285888671875,-0.1412476897239685,-6.3227858543396,7.499237060546875
1702071041450275800,10.16627587890625,-0.12585723400115967,-6.4384942054748535,7.400411128997803
1702071041467263700,10.183263671875,-0.09904365241527557,-6.537639141082764,7.313383102416992
1702071041484248000,10.200248046875,-0.06541221588850021,-6.602711200714111,7.255072116851807
1702071041501244700,10.21724462890625,-0.03442840650677681,-6.6385178565979,7.222534656524658
1702071041518236400,10.234236328125,-0.013806446455419064,-6.660377025604248,7.202450752258301
1702071041535227000,10.251226806640625,0.0031808854546397924,-6.683233261108398,7.1812591552734375
1702071041552216800,10.268216796875,0.01994134485721588,-6.715341091156006,7.151218891143799
1702071041569211400,10.28521142578125,0.033663008362054825,-6.749122142791748,7.119294166564941
1702071041586197000,10.302197021484375,0.035333555191755295,-6.770740985870361,7.098728656768799
1702071041603187200,10.319187255859376,0.018083684146404266,-6.772969722747803,7.09666633605957
1702071041620174800,10.3361748046875,-0.017807696014642715,-6.756570816040039,7.112283229827881
1702071041637170000,10.353169921875,-0.070068359375,-6.725982189178467,7.14089298248291
1702071041654157600,10.370157470703125,-0.1340491771697998,-6.682181358337402,7.180989742279053
1702071041671147800,10.387147705078124,-0.20345328748226166,-6.620883464813232,7.235925197601318
1702071041688138000,10.404137939453125,-0.27260538935661316,-6.540639400482178,7.306288242340088
1702071041705128200,10.421128173828125,-0.32733356952667236,-6.443148136138916,7.390183925628662
1702071041722115300,10.438115234375,-0.3593546748161316,-6.327254295349121,7.488181114196777
1702071041739111000,10.45511083984375,-0.37363651394844055,-6.176372528076172,7.61242151260376
1702071041756088000,10.472088134765626,-0.3781523108482361,-5.967787742614746,7.776802062988281
1702071041773090800,10.4890908203125,-0.3709877133369446,-5.682908058166504,7.987681865692139
1702071041790078500,10.506078369140624,-0.3599499464035034,-5.320167541503906,8.234220504760742
1702071041807069000,10.52306884765625,-0.3625747561454773,-4.905518054962158,8.487669944763184
1702071041824059100,10.54005908203125,-0.3912182152271271,-4.478114128112793,8.71949291229248
1702071041841037300,10.557037353515625,-0.4396746754646301,-4.072440147399902,8.913924217224121
1702071041858035000,10.574034912109376,-0.5019147992134094,-3.7029759883880615,9.070402145385742
1702071041875025400,10.591025390625,-0.5794970989227295,-3.368699789047241,9.195225715637207
1702071041892013600,10.608013671875,-0.6789062023162842,-3.0649983882904053,9.294137954711914
1702071041908999700,10.624999755859376,-0.7903614640235901,-2.7884466648101807,9.372088432312012
1702071041925990400,10.641990478515625,-0.9005835056304932,-2.5395348072052,9.432699203491211
1702071041942979000,10.65897900390625,-1.0109941959381104,-2.316046714782715,9.478920936584473
1702071041959970600,10.675970458984375,-1.1257206201553345,-2.112518787384033,9.513472557067871
1702071041976966000,10.6929658203125,-1.2493410110473633,-1.9264904260635376,9.537501335144043
1702071041993956000,10.7099560546875,-1.3896006345748901,-1.7631019353866577,9.549691200256348
1702071042010940200,10.726940185546875,-1.5414284467697144,-1.6233301162719727,9.55117416381836
1702071042027934700,10.743934814453125,-1.6976356506347656,-1.5105215311050415,9.543191909790039
1702071042044921300,10.76092138671875,-1.8577016592025757,-1.4249390363693237,9.526522636413574
1702071042061916400,10.77791650390625,-2.0312294960021973,-1.364613652229309,9.499898910522461
1702071042078906400,10.79490625,-2.226231813430786,-1.3194928169250488,9.462503433227539
1702071042095896300,10.811896240234375,-2.434109926223755,-1.277180790901184,9.417009353637695
1702071042112894000,10.82889404296875,-2.6287240982055664,-1.23028564453125,9.37082576751709
1702071042129881300,10.84588134765625,-2.7757110595703125,-1.1841256618499756,9.334314346313477
1702071042146871600,10.86287158203125,-2.854423761367798,-1.1600761413574219,9.31357192993164
1702071042163860700,10.87986083984375,-2.8596222400665283,-1.1796488761901855,9.309516906738281
1702071042180843300,10.89684326171875,-2.805083751678467,-1.2425678968429565,9.317922592163086
1702071042197842200,10.91384228515625,-2.7210276126861572,-1.3281675577163696,9.331029891967773
1702071042214831900,10.930831787109375,-2.6207938194274902,-1.4341542720794678,9.344025611877441
1702071042231811600,10.9478115234375,-2.5132315158843994,-1.5629786252975464,9.35290813446045
1702071042248799500,10.964799560546876,-2.4070842266082764,-1.7174652814865112,9.353736877441406
1702071042265806600,10.981806640625,-2.2961506843566895,-1.9108425378799438,9.344114303588867
1702071042282792700,10.998792724609375,-2.1770546436309814,-2.154841899871826,9.319507598876953
1702071042299782700,11.01578271484375,-2.037104606628418,-2.447007656097412,9.278924942016602
1702071042316769800,11.032769775390625,-1.8547558784484863,-2.770571708679199,9.22604751586914
1702071042333762800,11.0497626953125,-1.6234043836593628,-3.0914924144744873,9.16751766204834
1702071042350753300,11.066753173828126,-1.369414210319519,-3.384829044342041,9.10515022277832
1702071042367743500,11.083743408203125,-1.1351691484451294,-3.638949394226074,9.039112091064453
1702071042384733400,11.1007333984375,-0.9444727301597595,-3.8676116466522217,8.965806007385254
1702071042401713200,11.117713134765625,-0.8055341243743896,-4.101229190826416,8.875085830688477
1702071042418709500,11.13470947265625,-0.7132606506347656,-4.36061954498291,8.758562088012695
1702071042435707600,11.151707763671874,-0.653792679309845,-4.646251678466797,8.61516284942627
1702071042452693800,11.16869384765625,-0.6092252135276794,-4.937829971313477,8.454750061035156
1702071042469684200,11.185684326171875,-0.5663379430770874,-5.2066497802734375,8.294949531555176
1702071042486674400,11.20267431640625,-0.5154794454574585,-5.43896484375,8.147887229919434
1702071042503664400,11.219664306640626,-0.4571897089481354,-5.6434831619262695,8.011129379272461
1702071042520652500,11.236652587890624,-0.4017481803894043,-5.831432342529297,7.8783955574035645
1702071042537646600,11.253646484375,-0.3608012795448303,-6.005565643310547,7.7484917640686035
1702071042554634800,11.270634765625,-0.3403524160385132,-6.163720607757568,7.624228000640869
1702071042571624700,11.287624755859374,-0.33783283829689026,-6.302706241607666,7.509851932525635
1702071042588615000,11.304614990234375,-0.3427480161190033,-6.419562816619873,7.409984111785889
1702071042605605000,11.321605224609375,-0.35109958052635193,-6.518768787384033,7.322464942932129
1702071042622582000,11.33858203125,-0.3665561079978943,-6.604816436767578,7.244182586669922
1702071042639587800,11.355587890625,-0.3918915092945099,-6.677635192871094,7.175772190093994
1702071042656575200,11.3725751953125,-0.4250592589378357,-6.732017993927002,7.122878074645996
1702071042673555000,11.389554931640625,-0.4516453742980957,-6.77130651473999,7.083892822265625
1702071042690555600,11.4065556640625,-0.4571698307991028,-6.80672550201416,7.0495100021362305
1702071042707544800,11.423544921875,-0.4407309889793396,-6.840593338012695,7.017704010009766
1702071042724525300,11.440525390625,-0.4255445897579193,-6.8692097663879395,6.990636825561523
1702071042741526300,11.4575263671875,-0.4304743707180023,-6.882981777191162,6.976774215698242
1702071042758516500,11.4745166015625,-0.4500584602355957,-6.874938488006592,6.983463764190674
1702071042775506400,11.49150634765625,-0.46312522888183594,-6.842724323272705,7.01418399810791
1702071042792496400,11.508496337890625,-0.46502965688705444,-6.783916473388672,7.070951461791992
1702071042809486800,11.52548681640625,-0.4797126054763794,-6.700845241546631,7.148753643035889
1702071042826477000,11.54247705078125,-0.5206753015518188,-6.607022285461426,7.232722282409668
1702071042843456300,11.559456298828126,-0.5588780641555786,-6.52240514755249,7.306301116943359
1702071042860457200,11.576457275390625,-0.5405517220497131,-6.453699588775635,7.3684258460998535
1702071042877447200,11.593447265625,-0.4499835968017578,-6.378325939178467,7.4397993087768555
1702071042894436600,11.6104365234375,-0.32213306427001953,-6.259984970092773,7.546189308166504
1702071042911428400,11.627428466796875,-0.2239600569009781,-6.072005748748779,7.7017340660095215
1702071042928417800,11.644417724609376,-0.19668865203857422,-5.8167924880981445,7.896985054016113
1702071042945407700,11.66140771484375,-0.22801686823368073,-5.516338348388672,8.108893394470215
1702071042962387200,11.67838720703125,-0.28540846705436707,-5.1964521408081055,8.315741539001465
1702071042979388200,11.69538818359375,-0.3374738097190857,-4.888137340545654,8.498725891113281
1702071042996384500,11.712384521484376,-0.37824705243110657,-4.596364974975586,8.658319473266602
1702071043013368300,11.729368408203126,-0.4240140914916992,-4.308568000793457,8.802987098693848
1702071043030358500,11.746358642578125,-0.48173603415489197,-4.021749973297119,8.934741020202637
1702071043047348500,11.763348388671876,-0.5505966544151306,-3.73917818069458,9.05270767211914
1702071043064328000,11.780327880859375,-0.6288803219795227,-3.466992139816284,9.155359268188477
1702071043081328600,11.79732861328125,-0.7039767503738403,-3.209723949432373,9.243278503417969
1702071043098318800,11.81431884765625,-0.7723720669746399,-2.969029188156128,9.317961692810059
1702071043115309000,11.83130908203125,-0.8356319069862366,-2.752012014389038,9.378928184509277
1702071043132299300,11.84829931640625,-0.903214156627655,-2.565183639526367,9.425505638122559
1702071043149289200,11.865289306640625,-0.9917214512825012,-2.4031834602355957,9.459244728088379
1702071043166279400,11.882279541015626,-1.1076335906982422,-2.2594969272613525,9.481767654418945
1702071043183269400,11.899269287109375,-1.2401875257492065,-2.137110471725464,9.493725776672363
1702071043200257000,11.916257080078125,-1.3656573295593262,-2.046494245529175,9.49647045135498
1702071043217252400,11.93325244140625,-1.4735463857650757,-1.9882737398147583,9.492709159851074
1702071043234240000,11.950239990234374,-1.5598632097244263,-1.9623550176620483,9.484309196472168
1702071043251230200,11.967230224609375,-1.6245194673538208,-1.9754114151000977,9.470734596252441
1702071043268220200,11.98422021484375,-1.6704586744308472,-2.0280959606170654,9.451586723327637
1702071043285207800,12.001207763671875,-1.7197821140289307,-2.1116280555725098,9.424409866333008
1702071043302192000,12.018192138671875,-1.7768685817718506,-2.2242608070373535,9.38784122467041
1702071043319190500,12.0351904296875,-1.832524299621582,-2.3694982528686523,9.341489791870117
1702071043336180500,12.052180419921875,-1.8627442121505737,-2.5494472980499268,9.287981986999512
1702071043353182500,12.069182373046875,-1.8373452425003052,-2.766207218170166,9.230839729309082
1702071043370161000,12.086160888671875,-1.7588634490966797,-2.998159646987915,9.173524856567383
1702071043387151000,12.103151123046874,-1.6543926000595093,-3.223235845565796,9.116459846496582
1702071043404141000,12.12014111328125,-1.5516124963760376,-3.4366812705993652,9.056370735168457
1702071043421131500,12.137131591796875,-1.4758937358856201,-3.6503653526306152,8.985136985778809
1702071043438118700,12.15411865234375,-1.4170538187026978,-3.9084832668304443,8.885485649108887
1702071043455117000,12.171116943359374,-1.3419698476791382,-4.260688304901123,8.7339448928833
1702071043472098600,12.1880986328125,-1.2081269025802612,-4.686923503875732,8.532835960388184
1702071043489091800,12.205091796875,-1.0255967378616333,-5.121133804321289,8.304110527038574
1702071043506082000,12.22208203125,-0.8186745643615723,-5.515814304351807,8.071039199829102
1702071043523072300,12.239072265625,-0.6280108690261841,-5.848646640777588,7.850797653198242
1702071043540059600,12.2560595703125,-0.5045655965805054,-6.117690086364746,7.652149200439453
1702071043557055000,12.273054931640624,-0.4755093455314636,-6.34070348739624,7.470307350158691
1702071043574042600,12.290042724609375,-0.5286192893981934,-6.5386786460876465,7.2939958572387695
1702071043591032600,12.307032470703126,-0.6203428506851196,-6.721827030181885,7.118168354034424
1702071043608022500,12.3240224609375,-0.711371123790741,-6.892810344696045,6.944007873535156
1702071043625012700,12.3410126953125,-0.7736310958862305,-7.045248985290527,6.782482624053955
1702071043642002000,12.358001953125,-0.793181836605072,-7.172586441040039,6.645374774932861
1702071043658980400,12.37498046875,-0.7723318338394165,-7.266634941101074,6.544895172119141
1702071043675982800,12.39198291015625,-0.7253541350364685,-7.333108425140381,6.475763320922852
1702071043692976000,12.40897607421875,-0.6719053387641907,-7.383970260620117,6.423521518707275
1702071043709963500,12.425963623046876,-0.6274881362915039,-7.424832820892334,6.380772590637207
1702071043726953500,12.442953369140625,-0.5926223397254944,-7.455181121826172,6.34863805770874
1702071043743932400,12.459932373046875,-0.5621635913848877,-7.474569797515869,6.328578948974609
1702071043760915500,12.47691552734375,-0.5284754633903503,-7.4844560623168945,6.319790840148926
1702071043777919700,12.493919677734375,-0.4897440969944,-7.482143878936768,6.325645446777344
1702071043794910700,12.51091064453125,-0.44650977849960327,-7.461954593658447,6.352638244628906
1702071043811900200,12.527900146484376,-0.40938228368759155,-7.421194553375244,6.402688026428223
1702071043828887000,12.544886962890626,-0.3833165764808655,-7.36366605758667,6.470363616943359
1702071043845875200,12.561875244140625,-0.37081053853034973,-7.293377876281738,6.550209045410156
1702071043862866400,12.578866455078124,-0.36507120728492737,-7.216307640075684,6.635341644287109
1702071043879862800,12.59586279296875,-0.35421937704086304,-7.139827728271484,6.718148708343506
1702071043896850000,12.612849853515625,-0.33406519889831543,-7.067942142486572,6.79475736618042
1702071043913840400,12.62984033203125,-0.3111572563648224,-6.99767541885376,6.86817741394043
1702071043930823200,12.6468232421875,-0.2983158826828003,-6.921996593475342,6.945003032684326
1702071043947825400,12.663825439453126,-0.29772621393203735,-6.837800979614258,7.027941703796387
1702071043964818000,12.68081787109375,-0.302016019821167,-6.756874084472656,7.105601787567139
1702071043981805300,12.697805419921876,-0.29515838623046875,-6.691324234008789,7.1676483154296875
1702071043998795500,12.71479541015625,-0.2681886851787567,-6.644804954528809,7.211849212646484
1702071044015786000,12.731785888671874,-0.212716743350029,-6.610734939575195,7.244932174682617
1702071044032776000,12.74877587890625,-0.13757972419261932,-6.57141637802124,7.2824225425720215
1702071044049766100,12.76576611328125,-0.06441614776849747,-6.516027450561523,7.333030700683594
1702071044066756000,12.782756103515625,-0.010645149275660515,-6.451878070831299,7.389808654785156
1702071044083746300,12.799746337890625,0.018724247813224792,-6.392637729644775,7.441099643707275
1702071044100736500,12.816736572265626,0.03525432571768761,-6.338926792144775,7.4868483543396
1702071044117721300,12.833721435546876,0.03379252180457115,-6.277903079986572,7.538097381591797
1702071044134710300,12.850710205078125,0.014485892839729786,-6.206393241882324,7.597145080566406
1702071044151707000,12.867706787109375,0.009374256245791912,-6.133307933807373,7.656277179718018
1702071044168696800,12.88469677734375,0.041160307824611664,-6.071907043457031,7.704958438873291
1702071044185687000,12.90168701171875,0.11090180277824402,-6.026419639587402,7.739902019500732
1702071044202677200,12.91867724609375,0.19833697378635406,-5.986766815185547,7.768874645233154
1702071044219667200,12.935667236328126,0.27831578254699707,-5.937990188598633,7.80377721786499
1702071044236657200,12.9526572265625,0.32715025544166565,-5.864969730377197,7.856922149658203
1702071044253647600,12.969647705078126,0.33916160464286804,-5.762792110443115,7.931664943695068
1702071044270627000,12.986626953125,0.3201710283756256,-5.644819259643555,8.016833305358887
1702071044287628000,13.0036279296875,0.27492791414260864,-5.5266499519348145,8.10041332244873
1702071044304618000,13.020617919921875,0.2089429497718811,-5.4151201248168945,8.177343368530273
1702071044321608000,13.03760791015625,0.13049757480621338,-5.30386209487915,8.251553535461426
1702071044338598100,13.05459814453125,0.024701271206140518,-5.1750946044921875,8.333901405334473
1702071044355588400,13.07158837890625,-0.12249347567558289,-5.014812469482422,8.430466651916504
1702071044372578300,13.088578369140626,-0.2929706573486328,-4.828927040100098,8.534152030944824
1702071044389568300,13.105568359375,-0.4328347444534302,-4.639117240905762,8.63292407989502
1702071044406558500,13.122558349609376,-0.5153851509094238,-4.45309591293335,8.725849151611328
1702071044423547100,13.139547119140625,-0.5484834909439087,-4.269400596618652,8.815185546875
1702071044440540400,13.15654052734375,-0.561713695526123,-4.084625244140625,8.901485443115234
1702071044457529900,13.17352978515625,-0.5929945111274719,-3.8928029537200928,8.985018730163574
1702071044474519300,13.190519287109375,-0.652911365032196,-3.689511299133301,9.066274642944336
1702071044491509200,13.20750927734375,-0.7244547009468079,-3.4806265830993652,9.14311408996582
1702071044508499500,13.22449951171875,-0.7814343571662903,-3.275416612625122,9.213963508605957
1702071044525491700,13.24149169921875,-0.8054572343826294,-3.0820391178131104,9.2783842086792
1702071044542479600,13.258479736328125,-0.8026414513587952,-2.9048445224761963,9.335618019104004
1702071044559469800,13.2754697265625,-0.7965586185455322,-2.7407572269439697,9.385621070861816
1702071044576457500,13.29245751953125,-0.8020474314689636,-2.5889205932617188,9.428168296813965
1702071044593452300,13.309452392578125,-0.8247243762016296,-2.450953722000122,9.463022232055664
1702071044610440200,13.326440185546875,-0.8627002239227295,-2.337524652481079,9.488301277160645
1702071044627429400,13.343429443359375,-0.9025279879570007,-2.2639293670654297,9.50243091583252
1702071044644411000,13.360410888671876,-0.9352731704711914,-2.2387266159057617,9.50523567199707
1702071044661410800,13.377410888671875,-0.9631560444831848,-2.2640860080718994,9.496439933776855
1702071044678400800,13.39440087890625,-0.9907041192054749,-2.3286147117614746,9.477985382080078
1702071044695391000,13.411390869140625,-1.0160720348358154,-2.415470838546753,9.453530311584473
1702071044712380200,13.428380126953124,-1.035490870475769,-2.521787643432617,9.423614501953125
1702071044729372000,13.445371826171876,-1.046285629272461,-2.6524415016174316,9.38647747039795
1702071044746361000,13.462361083984375,-1.0484787225723267,-2.807798385620117,9.340934753417969
1702071044763351300,13.479351318359376,-1.0435431003570557,-2.978098154067993,9.288599014282227
1702071044780341500,13.496341552734375,-1.0300383567810059,-3.151667594909668,9.232666969299316
1702071044797331500,13.51333154296875,-1.0073978900909424,-3.322604179382324,9.17505168914795
1702071044814313500,13.5303134765625,-0.9762873649597168,-3.4935851097106934,9.114705085754395
1702071044831312000,13.547311767578124,-0.9388355612754822,-3.6758482456207275,9.046704292297363
1702071044848301800,13.5643017578125,-0.8985899090766907,-3.878836154937744,8.965673446655273
1702071044865292000,13.5812919921875,-0.8677576780319214,-4.097094535827637,8.871129035949707
1702071044882279200,13.598279052734375,-0.8535463809967041,-4.316441535949707,8.767891883850098
1702071044899272000,13.61527197265625,-0.8604186773300171,-4.519618034362793,8.664229393005371
1702071044916262400,13.632262451171876,-0.9020531177520752,-4.698286056518555,8.564376831054688
1702071044933252600,13.649252685546875,-0.9738128185272217,-4.873994827270508,8.457658767700195
1702071044950242600,13.66624267578125,-1.037842035293579,-5.078705787658691,8.32861042022705
1702071044967232800,13.683232666015625,-1.055531620979309,-5.310787677764893,8.180312156677246
1702071044984223000,13.700222900390624,-1.0275335311889648,-5.528764724731445,8.038223266601562
1702071045001213000,13.717212890625,-0.9856805205345154,-5.682642459869385,7.935500144958496
1702071045018203000,13.734202880859375,-0.977077841758728,-5.733714580535889,7.89974308013916
1702071045035182600,13.7511826171875,-1.019069790840149,-5.686553001403809,7.928478240966797
1702071045052183600,13.76818359375,-1.0789343118667603,-5.590794563293457,7.98843240737915
1702071045069173500,13.785173583984376,-1.1202175617218018,-5.508923053741455,8.03946590423584
1702071045086163500,13.80216357421875,-1.1299049854278564,-5.477194786071777,8.059764862060547
1702071045103149800,13.81914990234375,-1.1260147094726562,-5.4866719245910645,8.053860664367676
1702071045120140500,13.836140625,-1.1311945915222168,-5.51699686050415,8.032389640808105
1702071045137137700,13.8531376953125,-1.134901762008667,-5.559122562408447,8.002767562866211
1702071045154124000,13.8701240234375,-1.120273232460022,-5.603985786437988,7.973484039306641
1702071045171102000,13.88710205078125,-1.0834044218063354,-5.637335777282715,7.955049991607666
1702071045188104400,13.9041044921875,-1.0321353673934937,-5.648352146148682,7.954051971435547
1702071045205094700,13.9210947265625,-0.9797222018241882,-5.63565731048584,7.969669818878174
1702071045222084400,13.93808447265625,-0.9342538118362427,-5.61139440536499,7.992218971252441
1702071045239074600,13.955074462890625,-0.895283579826355,-5.587390422821045,8.013467788696289
1702071045256065000,13.97206494140625,-0.8611244559288025,-5.571275234222412,8.028417587280273
1702071045273054700,13.9890546875,-0.8260360360145569,-5.565304279327393,8.036242485046387
1702071045290045000,14.006044921875,-0.7885027527809143,-5.568293571472168,8.03794002532959
1702071045307032800,14.02303271484375,-0.7577295303344727,-5.575730800628662,8.035745620727539
1702071045324028000,14.04002783203125,-0.7431790232658386,-5.585690498352051,8.030184745788574
1702071045341003000,14.0570029296875,-0.7465947270393372,-5.598294258117676,8.021087646484375
1702071045357996800,14.073996826171875,-0.7540919780731201,-5.61383056640625,8.009516716003418
1702071045374988800,14.09098876953125,-0.7507984042167664,-5.629750728607178,7.998645782470703
1702071045391978500,14.107978515625,-0.733666181564331,-5.640988826751709,7.992313861846924
1702071045408966100,14.124966064453124,-0.7131863832473755,-5.643496036529541,7.992398262023926
1702071045425957600,14.14195751953125,-0.6986663341522217,-5.638844966888428,7.996962547302246
1702071045442947000,14.158947021484375,-0.6958216428756714,-5.631106376647949,8.002662658691406
1702071045459938000,14.17593798828125,-0.7055627703666687,-5.621267795562744,8.008722305297852
1702071045476929500,14.192929443359375,-0.716035783290863,-5.612460613250732,8.013967514038086
1702071045493920800,14.209920654296875,-0.7148320078849792,-5.605505466461182,8.018941879272461
1702071045510905300,14.2269052734375,-0.7083006501197815,-5.593308925628662,8.028033256530762
1702071045527896800,14.243896728515624,-0.7134599089622498,-5.566791534423828,8.045988082885742
1702071045544899600,14.260899658203124,-0.7258254289627075,-5.527126789093018,8.072183609008789
1702071045561876500,14.27787646484375,-0.7212759256362915,-5.484983444213867,8.101286888122559
1702071045578877400,14.29487744140625,-0.7007191181182861,-5.445933818817139,8.129386901855469
1702071045595867400,14.311867431640625,-0.6883240342140198,-5.410083770751953,8.15434455871582
1702071045612857600,14.328857666015624,-0.6948202848434448,-5.380626201629639,8.173261642456055
1702071045629847300,14.345847412109375,-0.7019687294960022,-5.362168312072754,8.184771537780762
1702071045646837800,14.362837646484374,-0.7135209441184998,-5.335196018218994,8.201383590698242
1702071045663827700,14.37982763671875,-0.7637631893157959,-5.266721248626709,8.241022109985352
1702071045680818200,14.396818115234375,-0.8617348074913025,-5.151671409606934,8.303842544555664
1702071045697809400,14.413809326171876,-0.9828903675079346,-5.014920711517334,8.37380599975586
1702071045714796500,14.430796630859374,-1.0937258005142212,-4.880782127380371,8.439065933227539
1702071045731788300,14.447788330078126,-1.1687805652618408,-4.754401206970215,8.500926971435547
1702071045748778500,14.464778564453125,-1.2104114294052124,-4.620289325714111,8.568778991699219
1702071045765768400,14.4817685546875,-1.2360610961914062,-4.457647323608398,8.650875091552734
1702071045782758700,14.498758544921875,-1.2620339393615723,-4.259906768798828,8.746232032775879
1702071045799748600,14.51574853515625,-1.2961814403533936,-4.031756401062012,8.848783493041992
1702071045816738600,14.532738525390625,-1.335571527481079,-3.781311511993408,8.95287799835205
1702071045833729000,14.54972900390625,-1.3741717338562012,-3.524139642715454,9.051419258117676
1702071045850719000,14.566718994140626,-1.398605227470398,-3.2798702716827393,9.139062881469727
1702071045867709200,14.583709228515625,-1.41590416431427,-3.0566651821136475,9.213475227355957
1702071045884699400,14.600699462890624,-1.4307920932769775,-2.8697495460510254,9.271111488342285
1702071045901680000,14.61768017578125,-1.44248366355896,-2.733004570007324,9.310534477233887
1702071045918679600,14.634679443359374,-1.4498674869537354,-2.653552532196045,9.332345008850098
1702071045935669500,14.65166943359375,-1.445602536201477,-2.6244351863861084,9.341238021850586
1702071045952659700,14.66865966796875,-1.4158211946487427,-2.6268863677978516,9.345107078552246
1702071045969639400,14.685639404296875,-1.3670650720596313,-2.628333806991577,9.351959228515625
1702071045986637600,14.702637451171874,-1.3225382566452026,-2.6081011295318604,9.36401653289795
1702071046003633000,14.7196328125,-1.2584471702575684,-2.5846076011657715,9.379351615905762
1702071046020620500,14.73662060546875,-1.1371870040893555,-2.5810742378234863,9.395796775817871
1702071046037610500,14.753610595703124,-0.9725168347358704,-2.6071743965148926,9.407071113586426
1702071046054600700,14.7706005859375,-0.8315922021865845,-2.6786246299743652,9.400506019592285
1702071046071590700,14.787590576171874,-0.7737135291099548,-2.8278439044952393,9.361664772033691
1702071046088580900,14.804580810546875,-0.8010036945343018,-3.069007396697998,9.283086776733398
1702071046105571000,14.821571044921875,-0.8564618825912476,-3.37595796585083,9.170907020568848
1702071046122561800,14.838561767578126,-0.8928115367889404,-3.6847259998321533,9.047750473022461
1702071046139549400,14.855549560546875,-0.9001274108886719,-3.9466421604156494,8.935877799987793
1702071046156543200,14.872543212890625,-0.8955746293067932,-4.168724060058594,8.834919929504395
1702071046173531400,14.889531494140625,-0.9074810147285461,-4.396426677703857,8.722616195678711
1702071046190521300,14.906521240234374,-0.9375088214874268,-4.673442363739014,8.5741548538208
1702071046207511800,14.92351171875,-0.9684638381004333,-5.006067752838135,8.380782127380371
1702071046224492000,14.940491943359374,-0.9828295707702637,-5.358026027679443,8.158535957336426
1702071046241492000,14.957491943359376,-0.9665958285331726,-5.673767566680908,7.9441914558410645
1702071046258482200,14.974482177734375,-0.907271146774292,-5.925307750701904,7.7655463218688965
1702071046275472100,14.99147216796875,-0.8149200677871704,-6.117050647735596,7.625858306884766
1702071046292451800,15.008451904296875,-0.7076826691627502,-6.273166656494141,7.508839130401611
1702071046309442000,15.025442138671876,-0.5995144844055176,-6.415090560913086,7.397521018981934
1702071046326442800,15.04244287109375,-0.5041372776031494,-6.548624038696289,7.286801815032959
1702071046343430400,15.059430419921876,-0.4281853437423706,-6.658441543579102,7.191518783569336
1702071046360425000,15.076425048828124,-0.37050196528434753,-6.732349872589111,7.125611305236816
1702071046377412600,15.09341259765625,-0.3272891342639923,-6.781059741973877,7.081401824951172
1702071046394403000,15.110403076171876,-0.2917062044143677,-6.82179069519043,7.043732166290283
1702071046411395300,15.127395263671875,-0.25842443108558655,-6.859434604644775,7.008387565612793
1702071046428381400,15.14438134765625,-0.22362691164016724,-6.8851189613342285,6.984357833862305
1702071046445373400,15.16137353515625,-0.18149714171886444,-6.883245468139648,6.987424850463867
1702071046462353000,15.178352783203126,-0.13535048067569733,-6.847185134887695,7.023806571960449
1702071046479353600,15.195353515625,-0.09064149111509323,-6.784073829650879,7.0854973793029785
1702071046496343600,15.212343505859375,-0.04369054362177849,-6.701798915863037,7.1638031005859375
1702071046513333800,15.229333740234376,-0.007668623700737953,-6.599216938018799,7.258540153503418
1702071046530324200,15.24632421875,-0.013747243210673332,-6.474925994873047,7.369616508483887
1702071046547314200,15.263314208984376,-0.06308882683515549,-6.346931457519531,7.479878902435303
1702071046564294100,15.280294189453125,-0.11353597790002823,-6.2376837730407715,7.570635795593262
1702071046581294300,15.29729443359375,-0.12181241810321808,-6.130734443664551,7.657372951507568
1702071046598273800,15.314273681640625,-0.1022224873304367,-5.982723236083984,7.7738447189331055
1702071046615266000,15.33126611328125,-0.10047417134046555,-5.752786636352539,7.945531368255615
1702071046632264700,15.3482646484375,-0.16370889544487,-5.431463718414307,8.16752815246582
1702071046649252400,15.36525244140625,-0.2835642397403717,-5.045353412628174,8.408334732055664
1702071046666237000,15.38223681640625,-0.4277600944042206,-4.633309841156006,8.636295318603516
1702071046683235000,15.399235107421875,-0.5802367925643921,-4.219908714294434,8.836956977844238
1702071046700221200,15.41622119140625,-0.726022481918335,-3.816030263900757,9.008157730102539
1702071046717219000,15.433218994140624,-0.8615726232528687,-3.4200117588043213,9.15408706665039
1702071046734205400,15.450205322265624,-0.9853464961051941,-3.030982732772827,9.27784252166748
1702071046751185000,15.467184814453125,-1.081282377243042,-2.656057834625244,9.381486892700195
1702071046768185900,15.484185791015625,-1.1320847272872925,-2.3110361099243164,9.466446876525879
1702071046785174500,15.501174560546875,-1.1327413320541382,-2.0098652839660645,9.5348539352417
1702071046802154000,15.518154052734374,-1.0916167497634888,-1.7602204084396362,9.588854789733887
1702071046819145700,15.535145751953126,-1.0261472463607788,-1.5605791807174683,9.630563735961914
1702071046836146000,15.55214599609375,-0.9508350491523743,-1.3979705572128296,9.663215637207031
1702071046853125600,15.569125732421876,-0.8867729902267456,-1.2587769031524658,9.688408851623535
1702071046870126300,15.586126220703125,-0.8633806109428406,-1.141525387763977,9.705031394958496
1702071046887116500,15.603116455078125,-0.8998379707336426,-1.0538463592529297,9.711634635925293
1702071046904107000,15.62010693359375,-0.9879964590072632,-1.0122737884521484,9.707486152648926
1702071046921094400,15.637094482421874,-1.103990077972412,-1.0233112573623657,9.693821907043457
1702071046938086700,15.654086669921876,-1.232505440711975,-1.084754467010498,9.67162799835205
1702071046955079400,15.671079345703125,-1.3609600067138672,-1.193104863166809,9.64159870147705
1702071046972065800,15.688065673828126,-1.4820961952209473,-1.3469023704528809,9.603404998779297
1702071046989058300,15.705058349609375,-1.5846340656280518,-1.5497385263442993,9.55632495880127
1702071047006047700,15.7220478515625,-1.6513595581054688,-1.7857239246368408,9.50369930267334
1702071047023037200,15.739037109375,-1.6822609901428223,-2.0233118534088135,9.450519561767578
1702071047040027400,15.75602734375,-1.695432424545288,-2.245924949645996,9.397735595703125
1702071047056999400,15.77299951171875,-1.69884192943573,-2.4678711891174316,9.341288566589355
1702071047074005200,15.790005126953124,-1.6760249137878418,-2.729119062423706,9.272485733032227
1702071047090998000,15.806998046875,-1.602687954902649,-3.060458183288574,9.181561470031738
1702071047107990500,15.823990478515626,-1.4684042930603027,-3.4518849849700928,9.064458847045898
1702071047124978200,15.840978271484374,-1.3023825883865356,-3.8584370613098145,8.924817085266113
1702071047141968400,15.857968505859375,-1.1207334995269775,-4.229360103607178,8.780238151550293
1702071047158958300,15.874958251953124,-0.9399405121803284,-4.5383381843566895,8.646162986755371
1702071047175948500,15.891948486328126,-0.786969780921936,-4.790111541748047,8.524765014648438
1702071047192938800,15.908938720703125,-0.6848659515380859,-5.015251159667969,8.403233528137207
1702071047209928200,15.92592822265625,-0.6295352578163147,-5.2533087730407715,8.260907173156738
1702071047226916900,15.942916748046875,-0.5940142869949341,-5.520044803619385,8.087791442871094
1702071047243908900,15.959908935546874,-0.5488243699073792,-5.8052802085876465,7.88883113861084
1702071047260888600,15.976888671875,-0.48497334122657776,-6.08595085144043,7.678680896759033
1702071047277877200,15.993877197265626,-0.4019569158554077,-6.3436689376831055,7.472110271453857
1702071047294871300,16.010871337890624,-0.3019002377986908,-6.57735538482666,7.272096633911133
1702071047311864600,16.027864501953125,-0.18839788436889648,-6.797416687011719,7.070767879486084
1702071047328852200,16.044852294921874,-0.06699974089860916,-7.009819507598877,6.862513542175293
1702071047345839400,16.06183935546875,0.04937184602022171,-7.211392879486084,6.650524616241455
1702071047362830600,16.07883056640625,0.14696596562862396,-7.390250205993652,6.44970703125
1702071047379830500,16.09583056640625,0.2184356153011322,-7.532788276672363,6.280567646026611
1702071047396819500,16.1128193359375,0.2653798460960388,-7.635666370391846,6.153234481811523
1702071047413807400,16.129807373046877,0.3001690208911896,-7.70445442199707,6.065263271331787
1702071047430790700,16.146790771484376,0.31716907024383545,-7.741218090057373,6.017397403717041
1702071047447785000,16.163784912109374,0.305288702249527,-7.748208999633789,6.009006023406982
1702071047464771300,16.180771240234375,0.26829731464385986,-7.731414794921875,6.0323615074157715
1702071047481767400,16.197767333984373,0.21624480187892914,-7.695633888244629,6.080014228820801
1702071047498749000,16.2147490234375,0.15891431272029877,-7.644692897796631,6.14569091796875
1702071047515751200,16.231751220703124,0.10426287353038788,-7.584794521331787,6.220624923706055
1702071047532743400,16.248743408203126,0.056491706520318985,-7.518598556518555,6.301077842712402
1702071047549720600,16.265720458984376,0.02006530575454235,-7.441335201263428,6.392356872558594
1702071047566721300,16.28272119140625,-0.0004021422646474093,-7.342499256134033,6.505676746368408
1702071047583711200,16.299711181640625,-0.009309937246143818,-7.212930202484131,6.649036884307861
1702071047600698600,16.31669873046875,-0.0195867121219635,-7.05769157409668,6.813570499420166
1702071047617694000,16.33369384765625,-0.030472181737422943,-6.896695137023926,6.97644567489624
1702071047634681600,16.350681640625,-0.025915153324604034,-6.751228332519531,7.11732816696167
1702071047651667700,16.367667724609376,0.011167013086378574,-6.612131595611572,7.246772289276123
1702071047668662000,16.384662109375,0.07736802101135254,-6.445884704589844,7.3946404457092285
1702071047685652200,16.40165234375,0.1563212275505066,-6.218939781188965,7.5852789878845215
1702071047702631700,16.418631591796874,0.21234457194805145,-5.915621757507324,7.82281494140625
1702071047719629800,16.4356298828125,0.2112739384174347,-5.541233062744141,8.092354774475098
1702071047736625000,16.452625,0.14686335623264313,-5.118022441864014,8.367819786071777
1702071047753612500,16.469612548828124,0.041753798723220825,-4.679316997528076,8.621971130371094
1702071047770602800,16.486602783203125,-0.0760500580072403,-4.249824523925781,8.841341972351074
1702071047787592700,16.5035927734375,-0.18639111518859863,-3.8407142162323,9.024981498718262
1702071047804583000,16.5205830078125,-0.2828017771244049,-3.46014404296875,9.175158500671387
1702071047821570800,16.53757080078125,-0.3630717694759369,-3.1137022972106934,9.29565143585205
1702071047838566000,16.55456591796875,-0.4228174388408661,-2.8093206882476807,9.389625549316406
1702071047855553300,16.57155322265625,-0.45916491746902466,-2.5541858673095703,9.460519790649414
1702071047872543200,16.588543212890624,-0.4835185706615448,-2.3456215858459473,9.513169288635254
1702071047889531000,16.60553076171875,-0.5170804262161255,-2.177016496658325,9.551405906677246
1702071047906526000,16.62252587890625,-0.5737615823745728,-2.0379321575164795,9.578818321228027
1702071047923503000,16.639503173828125,-0.6559576392173767,-1.9251128435134888,9.59686279296875
1702071047940503000,16.6565029296875,-0.750659167766571,-1.8380711078643799,9.606983184814453
1702071047957493800,16.67349365234375,-0.8489625453948975,-1.7774518728256226,9.61020565032959
1702071047974488000,16.690488037109375,-0.9555643200874329,-1.7400540113449097,9.60704231262207
1702071047991474200,16.70747412109375,-1.0818477869033813,-1.7233972549438477,9.596647262573242
1702071048008464100,16.724464111328125,-1.2258267402648926,-1.733617901802063,9.577476501464844
1702071048025454300,16.741454345703126,-1.3777601718902588,-1.782469391822815,9.547812461853027
1702071048042444500,16.758444580078127,-1.5208591222763062,-1.879456877708435,9.507404327392578
1702071048059434800,16.775434814453124,-1.640708327293396,-2.029271125793457,9.456544876098633
1702071048076424700,16.7924248046875,-1.7226523160934448,-2.228722095489502,9.396883010864258
1702071048093415000,16.809414794921874,-1.7722946405410767,-2.453744649887085,9.331357955932617
1702071048110404900,16.82640478515625,-1.8007442951202393,-2.672727346420288,9.265525817871094
1702071048127376600,16.843376708984376,-1.8138595819473267,-2.8710906505584717,9.20341682434082
1702071048144378000,16.860378173828124,-1.816839337348938,-3.06252121925354,9.140908241271973
1702071048161375200,16.877375244140627,-1.8157026767730713,-3.2566494941711426,9.073785781860352
1702071048178365400,16.894365478515624,-1.805781602859497,-3.4576339721679688,9.001112937927246
1702071048195353300,16.911353271484376,-1.764997959136963,-3.6738548278808594,8.923210144042969
1702071048212348200,16.92834814453125,-1.661237359046936,-3.89900541305542,8.847270011901855
1702071048229331700,16.945331787109374,-1.48605477809906,-4.109433174133301,8.78295612335205
1702071048246325800,16.96232568359375,-1.292757511138916,-4.293407917022705,8.725340843200684
1702071048263316000,16.97931591796875,-1.1468466520309448,-4.440493106842041,8.671958923339844
1702071048280308500,16.99630859375,-1.0839592218399048,-4.548318386077881,8.624032020568848
1702071048297293800,17.0132939453125,-1.085594654083252,-4.636660575866699,8.576654434204102
1702071048314283800,17.03028369140625,-1.1017814874649048,-4.7442450523376465,8.515533447265625
1702071048331279000,17.047279052734375,-1.101544737815857,-4.894317626953125,8.430206298828125
1702071048348264400,17.064264404296875,-1.0817352533340454,-5.083537578582764,8.320073127746582
1702071048365258800,17.0812587890625,-1.058953881263733,-5.288517951965332,8.194286346435547
1702071048382233600,17.098233642578126,-1.041030764579773,-5.483188152313232,8.067652702331543
1702071048399236900,17.11523681640625,-1.024000644683838,-5.6576738357543945,7.948477268218994
1702071048416226800,17.132226806640624,-0.9980255961418152,-5.808812141418457,7.842050552368164
1702071048433217300,17.14921728515625,-0.9589852094650269,-5.943561553955078,7.745356559753418
1702071048450197000,17.166197021484376,-0.9140526056289673,-6.06608772277832,7.655272006988525
1702071048467197400,17.183197509765623,-0.8706197738647461,-6.174066066741943,7.573575019836426
1702071048484187400,17.2001875,-0.8342199325561523,-6.261915683746338,7.505239486694336
1702071048501167000,17.2171669921875,-0.8030499219894409,-6.324044227600098,7.456387996673584
1702071048518169300,17.23416943359375,-0.7746052742004395,-6.355735778808594,7.432410717010498
1702071048535156500,17.251156494140623,-0.7526980638504028,-6.357867240905762,7.432840347290039
1702071048552147700,17.268147705078125,-0.7390655875205994,-6.338293552398682,7.450901985168457
1702071048569144800,17.285144775390624,-0.7265616059303284,-6.31254768371582,7.473952293395996
1702071048586128600,17.302128662109375,-0.7107595205307007,-6.293363094329834,7.4916300773620605
1702071048603121000,17.319120849609376,-0.6928980350494385,-6.282013893127441,7.502821922302246
1702071048620106500,17.3361064453125,-0.6747821569442749,-6.27021598815918,7.5143303871154785
1702071048637100300,17.353100341796875,-0.6555190682411194,-6.260985374450684,7.523728370666504
1702071048654088400,17.37008837890625,-0.6219826936721802,-6.259701728820801,7.527642726898193
1702071048671079000,17.387078857421876,-0.5635119676589966,-6.264470100402832,7.528278350830078
1702071048688068900,17.40406884765625,-0.48539698123931885,-6.273957252502441,7.525821208953857
1702071048705059000,17.42105908203125,-0.40244224667549133,-6.286609649658203,7.520153522491455
1702071048722062600,17.4380625,-0.3340429663658142,-6.294081211090088,7.517251968383789
1702071048739028700,17.45502880859375,-0.2881794571876526,-6.29301118850708,7.520044803619385
1702071048756029400,17.472029541015626,-0.24622070789337158,-6.304494857788086,7.511913776397705
1702071048773019400,17.489019287109375,-0.19209828972816467,-6.350612163543701,7.474552154541016
1702071048790012700,17.5060126953125,-0.12534648180007935,-6.408904075622559,7.426059722900391
1702071048806986800,17.52298681640625,-0.07036539912223816,-6.4138054847717285,7.422551155090332
1702071048823979000,17.53997900390625,-0.04223356395959854,-6.299464225769043,7.520045757293701
1702071048840970000,17.556969970703125,-0.04782700911164284,-6.03094482421875,7.737024307250977
1702071048857962500,17.57396240234375,-0.08064363151788712,-5.639147758483887,8.026806831359863
1702071048874954500,17.59095458984375,-0.1290515661239624,-5.180916786193848,8.32931900024414
1702071048891943000,17.60794287109375,-0.17308109998703003,-4.704466819763184,8.606634140014648
1702071048908933000,17.62493310546875,-0.20283173024654388,-4.231279373168945,8.848234176635742
1702071048925920800,17.641920654296875,-0.21730826795101166,-3.7724363803863525,9.053045272827148
1702071048942920200,17.658920166015626,-0.22055639326572418,-3.339158535003662,9.221578598022461
1702071048959904800,17.67590478515625,-0.20945020020008087,-2.9297335147857666,9.35996150970459
1702071048976892200,17.69289208984375,-0.17701511085033417,-2.5505683422088623,9.470974922180176
1702071048993884200,17.70988427734375,-0.12998653948307037,-2.2056658267974854,9.557942390441895
1702071049010864400,17.726864501953123,-0.08834148943424225,-1.8908954858779907,9.625635147094727
1702071049027872800,17.743872802734376,-0.06553617864847183,-1.596259593963623,9.679038047790527
1702071049044862000,17.760862060546874,-0.07243121415376663,-1.3224372863769531,9.72018814086914
1702071049061851100,17.77785107421875,-0.11450368911027908,-1.0748109817504883,9.75027084350586
1702071049078841600,17.794841552734376,-0.19604896008968353,-0.8571538925170898,9.770516395568848
1702071049095831600,17.81183154296875,-0.308390349149704,-0.6737764477729797,9.781975746154785
1702071049112821800,17.82882177734375,-0.4365677535533905,-0.5211708545684814,9.78641414642334
1702071049129812000,17.84581201171875,-0.5667828917503357,-0.39523670077323914,9.78563404083252
1702071049146802000,17.862802001953124,-0.686825692653656,-0.3001337945461273,9.781323432922363
1702071049163792000,17.8797919921875,-0.7903816103935242,-0.24803246557712555,9.77496337890625
1702071049180779300,17.896779296875,-0.8770174980163574,-0.24444636702537537,9.767661094665527
1702071049197769500,17.91376953125,-0.9452229142189026,-0.3001384735107422,9.759745597839355
1702071049214764800,17.930764892578125,-1.0022209882736206,-0.428432822227478,9.749260902404785
1702071049231752400,17.94775244140625,-1.0597277879714966,-0.6297702789306641,9.732239723205566
1702071049248730000,17.964730224609376,-1.1216374635696411,-0.8976446986198425,9.704239845275879
1702071049265732400,17.981732421875,-1.186914086341858,-1.2200586795806885,9.661200523376465
1702071049282722800,17.998722900390625,-1.250657558441162,-1.5695260763168335,9.602529525756836
1702071049299712800,18.015712646484374,-1.2938193082809448,-1.922792911529541,9.532315254211426
1702071049316700400,18.032700439453127,-1.2875568866729736,-2.28200101852417,9.453611373901367
1702071049333695500,18.049695556640625,-1.2191468477249146,-2.6621482372283936,9.362838745117188
1702071049350683400,18.066683349609374,-1.1063646078109741,-3.060640573501587,9.254434585571289
1702071049367673300,18.08367333984375,-0.9719979166984558,-3.4481680393218994,9.132442474365234
1702071049384660700,18.10066064453125,-0.8283733129501343,-3.7999584674835205,9.006122589111328
1702071049401655800,18.11765576171875,-0.6806761622428894,-4.1033935546875,8.88453483581543
1702071049418644000,18.13464404296875,-0.5378093719482422,-4.362639427185059,8.770075798034668
1702071049435633700,18.151633544921875,-0.41697782278060913,-4.59690523147583,8.65625286102295
1702071049452624000,18.168623779296876,-0.3246941566467285,-4.841249942779541,8.526019096374512
1702071049469613000,18.185613037109373,-0.2582484185695648,-5.113170623779297,8.368088722229004
1702071049486604000,18.20260400390625,-0.2064681202173233,-5.404987335205078,8.184106826782227
1702071049503594200,18.21959423828125,-0.15306636691093445,-5.6896209716796875,7.990049839019775
1702071049520584400,18.23658447265625,-0.09795781970024109,-5.9481024742126465,7.800424575805664
1702071049537574400,18.253574462890626,-0.04516331106424332,-6.177191734313965,7.620786190032959
1702071049554564400,18.270564453125,-0.0036281973589211702,-6.384010314941406,7.448526382446289
1702071049571554600,18.287554443359376,0.022620540112257004,-6.574794769287109,7.280638694763184
1702071049588544500,18.30454443359375,0.03234299644827843,-6.746335983276367,7.121938228607178
1702071049605535000,18.321534912109374,0.0308694988489151,-6.897645473480225,6.975503921508789
1702071049622526200,18.338526123046876,0.023613104596734047,-7.023292064666748,6.849009990692139
1702071049639513600,18.355513671875,0.012350781820714474,-7.118559837341309,6.749969482421875
1702071049656505300,18.37250537109375,-0.009060845710337162,-7.190110683441162,6.673707008361816
1702071049673495300,18.389495361328127,-0.0446750670671463,-7.241420269012451,6.617850303649902
1702071049690478300,18.406478271484374,-0.09913954883813858,-7.27238130569458,6.583217144012451
1702071049707475500,18.423475341796873,-0.16047479212284088,-7.285128593444824,6.567898273468018
1702071049724455400,18.440455322265624,-0.2158999741077423,-7.276584625244141,6.575777053833008
1702071049741455600,18.45745556640625,-0.252792090177536,-7.248656749725342,6.605238437652588
1702071049758446000,18.474446044921876,-0.2651662826538086,-7.210452556610107,6.646441459655762
1702071049775435800,18.491435791015626,-0.2550055682659149,-7.169868469238281,6.690596103668213
1702071049792426000,18.508426025390627,-0.2248741239309311,-7.130140781402588,6.733992576599121
1702071049809416200,18.525416259765624,-0.179987832903862,-7.087172508239746,6.780540466308594
1702071049826406100,18.54240625,-0.1301351934671402,-7.027224063873291,6.84377908706665
1702071049843390000,18.559389892578125,-0.09038026630878448,-6.941110610961914,6.931735515594482
1702071049860375800,18.576375732421877,-0.06719254702329636,-6.847616672515869,7.024367332458496
1702071049877372400,18.593372314453124,-0.04800271987915039,-6.775450706481934,7.094158172607422
1702071049894368000,18.610367919921874,-0.013477248139679432,-6.732148170471191,7.135412693023682
1702071049911359500,18.627359375,0.038281723856925964,-6.68049430847168,7.1837077140808105
1702071049928347000,18.644346923828124,0.10460435599088669,-6.567998886108398,7.286053657531738
1702071049945337000,18.661337158203125,0.17038553953170776,-6.3579421043396,7.468846321105957
1702071049962316500,18.678316650390624,0.22092244029045105,-6.046054363250732,7.722209930419922
1702071049979317000,18.69531689453125,0.24327048659324646,-5.659796714782715,8.008973121643066
1702071049996307500,18.712307373046876,0.24127601087093353,-5.259252548217773,8.277570724487305
1702071050013297700,18.729297607421874,0.21846047043800354,-4.89410400390625,8.499183654785156
1702071050030287400,18.746287353515626,0.17253613471984863,-4.557462692260742,8.685382843017578
1702071050047277800,18.76327783203125,0.1031501516699791,-4.202209949493408,8.863797187805176
1702071050064274000,18.78027392578125,0.022265613079071045,-3.8016624450683594,9.043395042419434
1702071050081260500,18.797260498046874,-0.06088238209486008,-3.3745336532592773,9.21113109588623
1702071050098248000,18.814248046875,-0.1346929520368576,-2.9541590213775635,9.353657722473145
1702071050115238000,18.83123779296875,-0.18732550740242004,-2.5688650608062744,9.46583080291748
1702071050132220400,18.848220458984375,-0.22309759259223938,-2.224534034729004,9.551848411560059
1702071050149218600,18.865218505859374,-0.2600063979625702,-1.9178578853607178,9.61719036102295
1702071050166204400,18.882204345703126,-0.3177073001861572,-1.645980715751648,9.665709495544434
1702071050183202800,18.899202880859374,-0.40385082364082336,-1.4050955772399902,9.700450897216797
1702071050200185900,18.916185791015625,-0.5085253715515137,-1.1938997507095337,9.723790168762207
1702071050217181200,18.93318115234375,-0.617220401763916,-1.0111976861953735,9.738205909729004
1702071050234164700,18.950164794921875,-0.7263668775558472,-0.8638594746589661,9.74485969543457
1702071050251159000,18.967158935546873,-0.8432626724243164,-0.76176917552948,9.743959426879883
1702071050268149200,18.984149169921874,-0.9614407420158386,-0.7126861810684204,9.736726760864258
1702071050285145900,19.001145751953125,-1.0774115324020386,-0.7150475382804871,9.724401473999023
1702071050302129200,19.018129150390624,-1.1914163827896118,-0.7559359669685364,9.70799732208252
1702071050319108900,19.03510888671875,-1.3101699352264404,-0.8222223520278931,9.687287330627441
1702071050336099000,19.05209912109375,-1.4256383180618286,-0.913887083530426,9.662739753723145
1702071050353099500,19.069099609375,-1.5046195983886719,-1.050134301185608,9.636880874633789
1702071050370071000,19.086071044921876,-1.5174139738082886,-1.2535439729690552,9.61052417755127
1702071050387079700,19.10307958984375,-1.4744269847869873,-1.5179615020751953,9.5790376663208
1702071050404070100,19.120070068359375,-1.4103121757507324,-1.8034731149673462,9.539112091064453
1702071050421060000,19.13706005859375,-1.346329689025879,-2.0836167335510254,9.491157531738281
1702071050438050000,19.154050048828125,-1.2787381410598755,-2.3700437545776367,9.433125495910645
1702071050455040300,19.171040283203126,-1.1996773481369019,-2.7033164501190186,9.353553771972656
1702071050472030500,19.188030517578124,-1.1036503314971924,-3.1213998794555664,9.234441757202148
1702071050489007400,19.20500732421875,-0.9783707857131958,-3.600806713104248,9.072657585144043
1702071050506013200,19.22201318359375,-0.8109012842178345,-4.06998348236084,8.888970375061035
1702071050523000600,19.23900048828125,-0.6064708828926086,-4.473187446594238,8.709700584411621
1702071050539988200,19.25598828125,-0.4182431697845459,-4.797271251678467,8.546775817871094
1702071050556983300,19.2729833984375,-0.3244204819202423,-5.069977283477783,8.3920316696167
1702071050573971000,19.289970947265626,-0.36495399475097656,-5.332964897155762,8.225715637207031
1702071050590958300,19.306958251953127,-0.5113013386726379,-5.612326622009277,8.029725074768066
1702071050607954200,19.3239541015625,-0.6988829374313354,-5.914233207702637,7.795482158660889
1702071050624940500,19.3409404296875,-0.8631014227867126,-6.217437267303467,7.538875102996826
1702071050641931500,19.357931640625,-0.9643997550010681,-6.496214866638184,7.2873358726501465
1702071050658921700,19.374921630859376,-0.9919880628585815,-6.7499775886535645,7.049105167388916
1702071050675911700,19.39191162109375,-0.9721516966819763,-6.984187602996826,6.819984436035156
1702071050692907500,19.408907470703124,-0.9375408291816711,-7.199827671051025,6.596941947937012
1702071050709892000,19.42589208984375,-0.9156473875045776,-7.39354133605957,6.38226318359375
1702071050726882000,19.442882080078125,-0.9168247580528259,-7.558740615844727,6.185547351837158
1702071050743869400,19.459869384765625,-0.9346668124198914,-7.6916046142578125,6.016787052154541
1702071050760852000,19.47685205078125,-0.9612724781036377,-7.822301864624023,5.841547012329102
1702071050777842000,19.493842041015625,-0.9698994755744934,-7.885173320770264,5.754948139190674
1702071050794841600,19.510841552734377,-0.9714786410331726,-7.951441287994385,5.6627655029296875
1702071050811828700,19.527828857421873,-0.9650644063949585,-8.00239372253418,5.5916428565979
1702071050828814300,19.544814453125,-0.9503313302993774,-8.039909362792969,5.5401129722595215
1702071050845810400,19.561810546875,-0.9325919151306152,-8.064023971557617,5.507986545562744
1702071050862791700,19.578791748046875,-0.9178756475448608,-8.071962356567383,5.498824596405029
1702071050879782700,19.59578271484375,-0.908610999584198,-8.060134887695312,5.517679691314697
1702071050896779500,19.612779541015627,-0.8972678780555725,-8.027861595153809,5.56636905670166
1702071050913761500,19.629761474609374,-0.8731331825256348,-7.975256443023682,5.645264148712158
1702071050930761000,19.646760986328125,-0.8405321836471558,-7.893425941467285,5.763978004455566
1702071050947755800,19.663755859375,-0.8177780508995056,-7.774503231048584,5.926589488983154
1702071050964744200,19.680744140625,-0.8205710649490356,-7.625038146972656,6.1173176765441895
1702071050981722400,19.697722412109375,-0.8390845656394958,-7.462526798248291,6.312110424041748
1702071050998723600,19.7147236328125,-0.8236344456672668,-7.305138111114502,6.4955925941467285
1702071051015713800,19.7317138671875,-0.7256757616996765,-7.150454521179199,6.676862716674805
1702071051032704000,19.7487041015625,-0.5504106879234314,-6.971195220947266,6.880087852478027
1702071051049693700,19.765693603515626,-0.3525920808315277,-6.730583667755127,7.128188133239746
1702071051066684200,19.78268408203125,-0.19804111123085022,-6.410396575927734,7.42318868637085
1702071051083674400,19.79967431640625,-0.12189515680074692,-6.016384601593018,7.747540473937988
1702071051100664300,19.816664306640625,-0.11842834204435349,-5.5711236000061035,8.073701858520508
1702071051117654300,19.833654296875,-0.16216668486595154,-5.102900505065918,8.376766204833984
1702071051134642000,19.850641845703127,-0.23286011815071106,-4.62877893447876,8.646172523498535
1702071051151637000,19.867636962890625,-0.3170424699783325,-4.154351234436035,8.881272315979004
1702071051168624600,19.884624755859374,-0.40029630064964294,-3.6874191761016846,9.08178424835205
1702071051185614800,19.90161474609375,-0.47239950299263,-3.2452995777130127,9.245593070983887
1702071051202605000,19.91860498046875,-0.5211564898490906,-2.8346402645111084,9.377062797546387
1702071051219595300,19.93559521484375,-0.5428367853164673,-2.4318885803222656,9.488274574279785
1702071051236574500,19.952574462890624,-0.5380906462669373,-1.9993358850479126,9.589016914367676
1702071051253575200,19.9695751953125,-0.4974261522293091,-1.5243715047836304,9.678065299987793
1702071051270578400,19.986578369140624,-0.40986061096191406,-1.0266953706741333,9.747512817382812
1702071051287555600,20.0035556640625,-0.26446372270584106,-0.5469649434089661,9.791169166564941
1702071051304535000,20.02053515625,-0.07480986416339874,-0.11971765011548996,9.80898380279541
1702071051321535700,20.03753564453125,0.11224257200956345,0.22663195431232452,9.806739807128906
1702071051338525700,20.054525634765625,0.2490522265434265,0.4823356568813324,9.79496955871582
1702071051355505400,20.07150537109375,0.31328505277633667,0.6604655385017395,9.78272819519043
1702071051372505900,20.088505859375,0.326065331697464,0.7842897176742554,9.773160934448242
1702071051389486800,20.10548681640625,0.3123003840446472,0.8534368276596069,9.767814636230469
1702071051406477800,20.122477783203124,0.29022714495658875,0.85086989402771,9.768721580505371
1702071051423476200,20.139476318359375,0.26967477798461914,0.7606172561645508,9.776750564575195
1702071051440466400,20.156466552734376,0.2313205450773239,0.5892260074615479,9.789556503295898
1702071051457452500,20.17345263671875,0.1529865562915802,0.3599005341529846,9.802204132080078
1702071051474446600,20.190446533203126,0.054094348102808,0.0913633331656456,9.809427261352539
1702071051491436800,20.207436767578123,-0.036528728902339935,-0.2238594889640808,9.807377815246582
1702071051508427000,20.224427001953124,-0.09157909452915192,-0.6125414967536926,9.79043197631836
1702071051525417000,20.2414169921875,-0.10238709300756454,-1.0921891927719116,9.748472213745117
1702071051542396400,20.258396484375,-0.10053176432847977,-1.6582705974578857,9.668307304382324
1702071051559397000,20.275397216796875,-0.1338585615158081,-2.2805347442626953,9.540302276611328
1702071051576387000,20.292386962890625,-0.2140887975692749,-2.9382920265197754,9.357175827026367
1702071051593375000,20.309375,-0.3035874366760254,-3.632230281829834,9.107735633850098
1702071051610369800,20.326369873046875,-0.3357342779636383,-4.346819877624512,8.78797721862793
1702071051627357700,20.343357666015624,-0.2737087607383728,-5.033685207366943,8.415653228759766
1702071051644334300,20.360334228515626,-0.13504788279533386,-5.634678363800049,8.029214859008789
1702071051661337600,20.377337646484374,0.020804978907108307,-6.128907680511475,7.65977668762207
1702071051678327800,20.394327880859375,0.1324370950460434,-6.537938117980957,7.312589168548584
1702071051695318000,20.411318115234376,0.18408790230751038,-6.902215003967285,6.968620300292969
1702071051712308200,20.42830810546875,0.17837399244308472,-7.241069793701172,6.615981578826904
1702071051729298000,20.4452978515625,0.11016155034303665,-7.548562049865723,6.264438152313232
1702071051746288000,20.4622880859375,-0.011525447480380535,-7.811723232269287,5.934052467346191
1702071051763278300,20.4792783203125,-0.1623438596725464,-8.013528823852539,5.656243324279785
1702071051780254000,20.49625390625,-0.31108883023262024,-8.134827613830566,5.473931789398193
1702071051797261300,20.51326123046875,-0.44092920422554016,-8.178094863891602,5.400045394897461
1702071051814238200,20.53023828125,-0.5526554584503174,-8.168610572814941,5.404120445251465
1702071051831243000,20.547242919921874,-0.6627565026283264,-8.127885818481445,5.452922821044922
1702071051848226300,20.564226318359374,-0.779162585735321,-8.062185287475586,5.534457683563232
1702071051865221600,20.5812216796875,-0.892909049987793,-7.971015930175781,5.6481614112854
1702071051882203100,20.598203125,-0.9899353981018066,-7.855645656585693,5.791801452636719
1702071051899199700,20.61519970703125,-1.0614737272262573,-7.718851089477539,5.960600852966309
1702071051916188400,20.6321884765625,-1.1090455055236816,-7.5721282958984375,6.137509822845459
1702071051933179400,20.649179443359376,-1.1413227319717407,-7.425071716308594,6.308866500854492
1702071051950169600,20.666169677734374,-1.1637812852859497,-7.2819294929504395,6.469564437866211
1702071051967159600,20.68315966796875,-1.177971363067627,-7.1456522941589355,6.61726188659668
1702071051984149800,20.700149658203124,-1.1814124584197998,-7.014026165008545,6.756021976470947
1702071052001140000,20.717139892578125,-1.171412467956543,-6.882996559143066,6.891173362731934
1702071052018127000,20.734127197265625,-1.1472349166870117,-6.756237030029297,7.0194902420043945
1702071052035122700,20.751122802734375,-1.1077866554260254,-6.642448425292969,7.133498191833496
1702071052052100000,20.76810009765625,-1.0530338287353516,-6.544773578643799,7.231403350830078
1702071052069089800,20.78508984375,-0.9845969080924988,-6.45808744430542,7.318458080291748
1702071052086090200,20.80209033203125,-0.9033018946647644,-6.374076843261719,7.402115821838379
1702071052103080400,20.81908056640625,-0.8093991279602051,-6.288117408752441,7.486025810241699
1702071052120079400,20.836079345703126,-0.7051683664321899,-6.201755046844482,7.5681633949279785
1702071052137058800,20.853058837890625,-0.5995272994041443,-6.119423866271973,7.643909931182861
1702071052154050600,20.870050537109375,-0.501329779624939,-6.055242538452148,7.701871395111084
1702071052171040800,20.887040771484376,-0.4216059148311615,-6.027662754058838,7.728237152099609
1702071052188031000,20.904031005859373,-0.37108302116394043,-6.034986972808838,7.7251129150390625
1702071052205021200,20.921021240234374,-0.35698363184928894,-6.050128936767578,7.71392297744751
1702071052222002000,20.938001953125,-0.3885100781917572,-6.041196823120117,7.7193989753723145
1702071052239001000,20.9550009765625,-0.45611149072647095,-5.99619722366333,7.7507219314575195
1702071052255986700,20.971986572265624,-0.5445494651794434,-5.9246015548706055,7.799915313720703
1702071052272985900,20.98898583984375,-0.6363220810890198,-5.84442663192749,7.853272438049316
1702071052289971500,21.005971435546876,-0.6937984824180603,-5.77858829498291,7.8970046043396
1702071052306961400,21.02296142578125,-0.6887283325195312,-5.721397399902344,7.938979148864746
1702071052323939600,21.039939697265623,-0.6303865909576416,-5.649777412414551,7.99492073059082
1702071052340935200,21.05693505859375,-0.557804524898529,-5.5455451011657715,8.07291316986084
1702071052357924000,21.073924072265626,-0.5042843818664551,-5.398158073425293,8.175678253173828
1702071052374914300,21.090914306640624,-0.4903767704963684,-5.207801818847656,8.299064636230469
1702071052391905800,21.10790576171875,-0.506722629070282,-4.994307041168213,8.428300857543945
1702071052408894700,21.124894775390626,-0.5322024822235107,-4.7838335037231445,8.547969818115234
1702071052425882600,21.141882568359375,-0.5460650324821472,-4.593842506408691,8.650694847106934
1702071052442871600,21.15887158203125,-0.5501832365989685,-4.430540561676025,8.735200881958008
1702071052459863600,21.175863525390625,-0.5619221329689026,-4.288502216339111,8.805061340332031
1702071052476854500,21.1928544921875,-0.5962651371955872,-4.157605171203613,8.865376472473145
1702071052493847800,21.209847900390624,-0.6587333083152771,-4.028545379638672,8.920371055603027
1702071052510845000,21.226844970703127,-0.7513286471366882,-3.897684335708618,8.971046447753906
1702071052527832800,21.243832763671875,-0.8563955426216125,-3.7716915607452393,9.01537799835205
1702071052544823000,21.260822998046876,-0.9518162608146667,-3.6563501358032227,9.05324649810791
1702071052561813000,21.27781298828125,-1.0396502017974854,-3.5441792011260986,9.088126182556152
1702071052578803200,21.29480322265625,-1.1326758861541748,-3.431180477142334,9.120316505432129
1702071052595793400,21.31179345703125,-1.2332690954208374,-3.316967725753784,9.149476051330566
1702071052612783600,21.32878369140625,-1.3311058282852173,-3.2097742557525635,9.173966407775879
1702071052629773600,21.345773681640626,-1.4103829860687256,-3.1184325218200684,9.193603515625
1702071052646763800,21.362763671875,-1.4543359279632568,-3.048194646835327,9.210295677185059
1702071052663753700,21.379753662109376,-1.4569180011749268,-3.001004695892334,9.225371360778809
1702071052680744000,21.396743896484374,-1.4305646419525146,-2.9818313121795654,9.23570728302002
1702071052697713000,21.413712890625,-1.4011718034744263,-2.9909415245056152,9.23726749420166
1702071052714726700,21.4307265625,-1.379648208618164,-3.0204336643218994,9.23090934753418
1702071052731714800,21.44771484375,-1.3645981550216675,-3.0591254234313965,9.22039794921875
1702071052748704500,21.46470458984375,-1.3545198440551758,-3.101682186126709,9.207659721374512
1702071052765692400,21.4816923828125,-1.3365665674209595,-3.1560864448547363,9.191781044006348
1702071052782687200,21.498687255859377,-1.293637990951538,-3.2480263710021973,9.165857315063477
1702071052799674400,21.51567431640625,-1.2285796403884888,-3.391507625579834,9.122739791870117
1702071052816664600,21.53266455078125,-1.1567881107330322,-3.57177996635437,9.063132286071777
1702071052833654800,21.54965478515625,-1.0896192789077759,-3.763054132461548,8.993790626525879
1702071052850645000,21.56664501953125,-1.0422253608703613,-3.935781478881836,8.925217628479004
1702071052867635000,21.583635009765626,-1.0157275199890137,-4.082918643951416,8.861953735351562
1702071052884625200,21.600625244140623,-0.9917936325073242,-4.226638317108154,8.79704475402832
1702071052901615400,21.617615478515624,-0.9349089860916138,-4.405694961547852,8.715041160583496
1702071052918605000,21.63460498046875,-0.8381949067115784,-4.633056163787842,8.606294631958008
1702071052935581400,21.65158154296875,-0.7273486256599426,-4.874018669128418,8.482396125793457
1702071052952582700,21.668582763671875,-0.6269987225532532,-5.091490745544434,8.361801147460938
