time,seconds_elapsed,z,y,x
1701911140892568600,0.111568603515625,7.2818684577941895,6.256232738494873,2.01743745803833
1701911140909568800,0.12856884765625,7.169450759887695,6.353865623474121,2.1126933097839355
1701911140926553300,0.14555322265625,7.103806495666504,6.40634822845459,2.175025224685669
1701911140943558000,0.162557861328125,7.0880231857299805,6.400773525238037,2.241905689239502
1701911140960544000,0.1795439453125,7.0919575691223145,6.3643083572387695,2.3314855098724365
1701911140977535500,0.196535400390625,7.075038909912109,6.336851596832275,2.4544334411621094
1701911140994518800,0.213518798828125,7.017358779907227,6.342031955718994,2.602194309234619
1701911141011515100,0.23051513671875,6.928882598876953,6.369413375854492,2.767178535461426
1701911141028511500,0.247511474609375,6.840843677520752,6.3927741050720215,2.92769718170166
1701911141045502500,0.26450244140625,6.76914119720459,6.405910491943359,3.0625383853912354
1701911141062494700,0.28149462890625,6.70059061050415,6.4171223640441895,3.1872775554656982
1701911141079489000,0.298489013671875,6.619974613189697,6.429255962371826,3.3281688690185547
1701911141096479200,0.315479248046875,6.524051189422607,6.429558277130127,3.511930227279663
1701911141113474000,0.33247412109375,6.421309471130371,6.404670715332031,3.739396810531616
1701911141130468400,0.34946826171875,6.302700042724609,6.354963779449463,4.015783786773682
1701911141147451400,0.366451416015625,6.137707233428955,6.300583362579346,4.343652248382568
1701911141164450600,0.383450439453125,5.8911261558532715,6.261857986450195,4.724391460418701
1701911141181442600,0.400442626953125,5.57103967666626,6.219560146331787,5.1494364738464355
1701911141198438100,0.417438232421875,5.241380214691162,6.128883361816406,5.585771083831787
1701911141215432200,0.43443212890625,4.965715408325195,5.988173484802246,5.9765849113464355
1701911141232418300,0.451418212890625,4.7397966384887695,5.824059963226318,6.312747478485107
1701911141249412400,0.468412353515625,4.477011680603027,5.631208419799805,6.669479846954346
1701911141266406000,0.485406005859375,4.092170715332031,5.446259021759033,7.058932304382324
1701911141283394600,0.50239453125,3.550811290740967,5.286202907562256,7.462165355682373
1701911141300391000,0.519390869140625,2.9504847526550293,5.085854530334473,7.852696895599365
1701911141317381600,0.536381591796875,2.4535794258117676,4.797707557678223,8.197442054748535
1701911141334371000,0.55337109375,2.1328258514404297,4.436901569366455,8.485344886779785
1701911141351361800,0.57036181640625,1.9836971759796143,4.04543924331665,8.714096069335938
1701911141368361200,0.587361328125,1.8931262493133545,3.688601016998291,8.890806198120117
1701911141385352700,0.604352783203125,1.7222518920898438,3.3879950046539307,9.043863296508789
1701911141402340900,0.6213408203125,1.4397178888320923,3.106288433074951,9.19316577911377
1701911141419332400,0.638332275390625,1.1185379028320312,2.742086172103882,9.352323532104492
1701911141436329700,0.655329833984375,0.8453624248504639,2.2732770442962646,9.505455017089844
1701911141453318000,0.67231787109375,0.6400707364082336,1.7263866662979126,9.635664939880371
1701911141470311000,0.689310791015625,0.4715978503227234,1.1674081087112427,9.728867530822754
1701911141487307000,0.70630712890625,0.29352906346321106,0.6640241742134094,9.783100128173828
1701911141504280800,0.72328076171875,0.10670701414346695,0.20685988664627075,9.807239532470703
1701911141521283800,0.740283935546875,-0.05796695873141289,-0.2777872085571289,9.805895805358887
1701911141538281500,0.757281494140625,-0.18820667266845703,-0.8235873579978943,9.773555755615234
1701911141555275800,0.77427587890625,-0.2928788661956787,-1.4319770336151123,9.7005033493042
1701911141572264000,0.791263916015625,-0.37636834383010864,-2.083010196685791,9.578911781311035
1701911141589258800,0.8082587890625,-0.42817291617393494,-2.744934558868408,9.408406257629395
1701911141606248700,0.825248779296875,-0.44370487332344055,-3.362600564956665,9.205007553100586
1701911141623241700,0.84224169921875,-0.4461905062198639,-3.888298273086548,8.995452880859375
1701911141640236300,0.859236328125,-0.4585252106189728,-4.3130316734313965,8.799070358276367
1701911141657226200,0.876226318359375,-0.48437225818634033,-4.666361331939697,8.615485191345215
1701911141674225700,0.8932255859375,-0.5189088582992554,-4.987601280212402,8.431529998779297
1701911141691212000,0.9102119140625,-0.5595949292182922,-5.294515609741211,8.239603996276855
1701911141708206300,0.927206298828125,-0.6095038652420044,-5.586820602416992,8.0406494140625
1701911141725201000,0.944200927734375,-0.66115403175354,-5.829377174377441,7.862401485443115
1701911141742187300,0.961187255859375,-0.7179235219955444,-6.007793426513672,7.721860408782959
1701911141759171300,0.97817138671875,-0.7684232592582703,-6.142089366912842,7.610545635223389
1701911141776171800,0.995171875,-0.8053659796714783,-6.2419843673706055,7.524968147277832
1701911141793156900,1.012156982421875,-0.8325690031051636,-6.304300785064697,7.469854354858398
1701911141810159400,1.029159423828125,-0.856414794921875,-6.330514430999756,7.444946765899658
1701911141827147300,1.046147216796875,-0.8785760402679443,-6.325906276702881,7.44628381729126
1701911141844144400,1.063144287109375,-0.8981425762176514,-6.299775123596191,7.466075420379639
1701911141861136000,1.080135986328125,-0.9034395813941956,-6.270752429962158,7.489832401275635
1701911141878131000,1.097130859375,-0.885662853717804,-6.248112678527832,7.510847091674805
1701911141895122700,1.114122802734375,-0.8377148509025574,-6.227746486663818,7.533230304718018
1701911141912103000,1.13110302734375,-0.7592361569404602,-6.200957775115967,7.563582897186279
1701911141929101600,1.1481015625,-0.6662440299987793,-6.154973983764648,7.609764575958252
1701911141946088400,1.16508837890625,-0.5805180072784424,-6.090596675872803,7.668361663818359
1701911141963086800,1.1820869140625,-0.5048825144767761,-6.020423412322998,7.728887557983398
1701911141980083000,1.1990830078125,-0.4275244474411011,-5.956649303436279,7.782779216766357
1701911141997074400,1.216074462890625,-0.33814653754234314,-5.899158477783203,7.830817222595215
1701911142014064400,1.233064453125,-0.22787155210971832,-5.839692115783691,7.879225254058838
1701911142031057000,1.250056884765625,-0.09264358133077621,-5.76912260055542,7.933773994445801
1701911142048053800,1.2670537109375,0.07162225246429443,-5.679784297943115,7.998189926147461
1701911142065044700,1.284044677734375,0.23480314016342163,-5.584339141845703,8.062017440795898
1701911142082033200,1.301033203125,0.36232420802116394,-5.5112624168396,8.107455253601074
1701911142099028000,1.318028076171875,0.44134172797203064,-5.46238899230957,8.136563301086426
1701911142116029000,1.33502880859375,0.4903007447719574,-5.43297815322876,8.153433799743652
1701911142133011000,1.352010986328125,0.5378512144088745,-5.419780731201172,8.15921688079834
1701911142150004700,1.369004638671875,0.6071333885192871,-5.416196346282959,8.15673542022705
1701911142166988000,1.385988037109375,0.6953462362289429,-5.396434783935547,8.162788391113281
1701911142183987700,1.40298779296875,0.7747365236282349,-5.320911407470703,8.205106735229492
1701911142200982500,1.419982421875,0.8180059194564819,-5.162208557128906,8.301722526550293
1701911142217974000,1.43697412109375,0.8228889107704163,-4.918885707855225,8.447693824768066
1701911142234967000,1.453967041015625,0.7941566109657288,-4.624037265777588,8.61531925201416
1701911142251953700,1.47095361328125,0.7493961453437805,-4.320833206176758,8.77524471282959
1701911142268953600,1.48795361328125,0.6917677521705627,-4.02885103225708,8.917731285095215
1701911142285945000,1.504945068359375,0.6110212206840515,-3.743337631225586,9.047109603881836
1701911142302932200,1.52193212890625,0.4991680383682251,-3.4578375816345215,9.166803359985352
1701911142319929000,1.53892919921875,0.3583407700061798,-3.1759352684020996,9.274759292602539
1701911142336921300,1.55592138671875,0.18950827419757843,-2.910134792327881,9.366499900817871
1701911142353910000,1.572909912109375,0.006108001805841923,-2.67039155960083,9.43954849243164
1701911142370905600,1.589905517578125,-0.17920547723770142,-2.4544780254364014,9.49629020690918
1701911142387897900,1.60689794921875,-0.3603960871696472,-2.2579355239868164,9.539810180664062
1701911142404880000,1.6238798828125,-0.5432712435722351,-2.0814712047576904,9.5712308883667
1701911142421879300,1.64087939453125,-0.7364550828933716,-1.9209994077682495,9.591845512390137
1701911142438871800,1.657871826171875,-0.94498610496521,-1.7799216508865356,9.600781440734863
1701911142455858400,1.6748583984375,-1.1525704860687256,-1.6701264381408691,9.597831726074219
1701911142472856300,1.691856201171875,-1.3560612201690674,-1.5932914018630981,9.584290504455566
1701911142489851100,1.70885107421875,-1.5647313594818115,-1.5457713603973389,9.560246467590332
1701911142506834700,1.725834716796875,-1.7866308689117432,-1.519525170326233,9.525497436523438
1701911142523833300,1.742833251953125,-2.02138614654541,-1.5148857831954956,9.479199409484863
1701911142540828700,1.75982861328125,-2.2582948207855225,-1.5358775854110718,9.422170639038086
1701911142557820400,1.7768203125,-2.4820613861083984,-1.5922411680221558,9.356294631958008
1701911142574814500,1.793814453125,-2.6853396892547607,-1.6991171836853027,9.281059265136719
1701911142591802600,1.810802734375,-2.843625545501709,-1.8640061616897583,9.201922416687012
1701911142608793900,1.8277939453125,-2.927917957305908,-2.0580971240997314,9.133874893188477
1701911142625790200,1.844790283203125,-2.941277027130127,-2.225285530090332,9.090275764465332
1701911142642780200,1.8617802734375,-2.8973703384399414,-2.317509412765503,9.081328392028809
1701911142659774200,1.878774169921875,-2.786175489425659,-2.3065085411071777,9.11884593963623
1701911142676768300,1.895768310546875,-2.602978229522705,-2.223818063735962,9.193219184875488
1701911142693753900,1.91275390625,-2.350684881210327,-2.1586813926696777,9.276341438293457
1701911142710754600,1.929754638671875,-2.0473990440368652,-2.178337335586548,9.343399047851562
1701911142727743700,1.94674365234375,-1.7445098161697388,-2.279468059539795,9.38066291809082
1701911142744737000,1.963737060546875,-1.4867125749588013,-2.4171581268310547,9.39058780670166
1701911142761725400,1.980725341796875,-1.2920371294021606,-2.5435502529144287,9.386006355285645
1701911142778720500,1.997720458984375,-1.1552239656448364,-2.628497838973999,9.380435943603516
1701911142795704300,2.014704345703125,-1.0578882694244385,-2.682823657989502,9.376537322998047
1701911142812701700,2.03170166015625,-0.9739795327186584,-2.7530226707458496,9.365272521972656
1701911142829696300,2.0486962890625,-0.887160062789917,-2.890472412109375,9.332428932189941
1701911142846693000,2.065693115234375,-0.7958464026451111,-3.1140873432159424,9.26850700378418
1701911142863679700,2.0826796875,-0.7183825373649597,-3.414609670639038,9.168452262878418
1701911142880675000,2.099675048828125,-0.6643097996711731,-3.76434588432312,9.034628868103027
1701911142897666600,2.11666650390625,-0.6209912896156311,-4.129397869110107,8.876856803894043
1701911142914660600,2.13366064453125,-0.5669717788696289,-4.486806869506836,8.705355644226074
1701911142931648800,2.150648681640625,-0.4835934042930603,-4.840865135192871,8.518701553344727
1701911142948640300,2.16764013671875,-0.3651299774646759,-5.20449686050415,8.307587623596191
1701911142965637400,2.184637451171875,-0.22537772357463837,-5.5680389404296875,8.073554992675781
1701911142982619000,2.201618896484375,-0.08994538336992264,-5.911718845367432,7.828127384185791
1701911142999622000,2.218621826171875,0.013416728936135769,-6.228118896484375,7.579344272613525
1701911143016610600,2.235610595703125,0.06352648884057999,-6.51721715927124,7.331981658935547
1701911143033599000,2.252598876953125,0.0722268596291542,-6.779162883758545,7.090405464172363
1701911143050602500,2.2696025390625,0.06365600973367691,-7.003833770751953,6.868651866912842
1701911143067579100,2.2865791015625,0.05511673539876938,-7.1832451820373535,6.680873394012451
1701911143084583700,2.303583740234375,0.05759799852967262,-7.314899444580078,6.536441326141357
1701911143101571800,2.32057177734375,0.0797332227230072,-7.386890888214111,6.454734802246094
1701911143118566700,2.337566650390625,0.11345119029283524,-7.394484519958496,6.44552755355835
1701911143135559700,2.3545595703125,0.14344915747642517,-7.355735778808594,6.489121437072754
1701911143152549400,2.37154931640625,0.16906289756298065,-7.294528007507324,6.557239055633545
1701911143169543400,2.38854345703125,0.1841823309659958,-7.216263294219971,6.6428728103637695
1701911143186537500,2.405537353515625,0.19575397670269012,-7.105794429779053,6.760584354400635
1701911143203527400,2.42252734375,0.21662209928035736,-6.943063259124756,6.926980495452881
1701911143220505600,2.439505615234375,0.2545608878135681,-6.718959331512451,7.143311977386475
1701911143237504000,2.45650390625,0.29998263716697693,-6.433590412139893,7.399664402008057
1701911143254496000,2.47349609375,0.3284650146961212,-6.097846984863281,7.67753267288208
1701911143271496000,2.490495849609375,0.33386433124542236,-5.722992420196533,7.9606547355651855
1701911143288486700,2.507486572265625,0.3134709894657135,-5.321293830871582,8.235392570495605
1701911143305485300,2.5244853515625,0.2723732590675354,-4.906120300292969,8.490694999694824
1701911143322473200,2.54147314453125,0.21815085411071777,-4.4838128089904785,8.722613334655762
1701911143339462400,2.55846240234375,0.1590980738401413,-4.063395977020264,8.927464485168457
1701911143356450800,2.575450927734375,0.09436704963445663,-3.6598050594329834,9.101266860961914
1701911143373445600,2.592445556640625,0.02399171143770218,-3.288874864578247,9.242230415344238
1701911143390450000,2.609449951171875,-0.05017144978046417,-2.957901954650879,9.353309631347656
1701911143407438600,2.6264384765625,-0.13226869702339172,-2.6636316776275635,9.440532684326172
1701911143424432400,2.643432373046875,-0.22459565103054047,-2.40173077583313,9.508805274963379
1701911143441418000,2.66041796875,-0.33052441477775574,-2.1589081287384033,9.563785552978516
1701911143458409500,2.677409423828125,-0.46177393198013306,-1.9198905229568481,9.609209060668945
1701911143475404300,2.694404296875,-0.6270478367805481,-1.6895452737808228,9.643047332763672
1701911143492397300,2.711397216796875,-0.8242036700248718,-1.4811421632766724,9.662453651428223
1701911143509389600,2.7283896484375,-1.041990876197815,-1.3034844398498535,9.667021751403809
1701911143526372400,2.745372314453125,-1.2602732181549072,-1.1596274375915527,9.65935230255127
1701911143543373600,2.76237353515625,-1.4667775630950928,-1.043026328086853,9.643484115600586
1701911143560366300,2.779366455078125,-1.6503527164459229,-0.9397981762886047,9.624407768249512
1701911143577358800,2.79635888671875,-1.8224859237670898,-0.8460240364074707,9.602025985717773
1701911143594342100,2.813342041015625,-2.004122734069824,-0.7824095487594604,9.571178436279297
1701911143611344400,2.830344482421875,-2.2155532836914062,-0.778208315372467,9.524801254272461
1701911143628333800,2.847333740234375,-2.451526641845703,-0.8542435765266418,9.460254669189453
1701911143645329700,2.86432958984375,-2.6777195930480957,-1.0019495487213135,9.384138107299805
1701911143662318000,2.881318115234375,-2.862919807434082,-1.176265835762024,9.308932304382324
1701911143679313000,2.89831298828125,-2.9794371128082275,-1.3262794017791748,9.252029418945312
1701911143696306700,2.915306640625,-3.0149245262145996,-1.453490972518921,9.221370697021484
1701911143713293300,2.932293212890625,-2.955702066421509,-1.598326563835144,9.21657657623291
1701911143730289400,2.949289306640625,-2.7990376949310303,-1.8065935373306274,9.227011680603027
1701911143747284700,2.96628466796875,-2.5483546257019043,-2.105314254760742,9.236323356628418
1701911143764276000,2.98327587890625,-2.2168614864349365,-2.463681697845459,9.233196258544922
1701911143781264000,3.000263916015625,-1.8247418403625488,-2.801128625869751,9.222804069519043
1701911143798259000,3.017259033203125,-1.4311423301696777,-3.0733067989349365,9.205580711364746
1701911143815253000,3.0342529296875,-1.091748833656311,-3.2909045219421387,9.176827430725098
1701911143832241200,3.0512412109375,-0.8372394442558289,-3.481994152069092,9.132955551147461
1701911143849232400,3.068232421875,-0.6693922281265259,-3.67720365524292,9.070073127746582
1701911143866228200,3.085228271484375,-0.5738434195518494,-3.8989927768707275,8.9835786819458
1701911143883220200,3.10222021484375,-0.5314856171607971,-4.1613240242004395,8.867753028869629
1701911143900215600,3.119215576171875,-0.5257459878921509,-4.463279724121094,8.720026016235352
1701911143917201000,3.136200927734375,-0.5367522239685059,-4.786843299865723,8.546002388000488
1701911143934190000,3.153190185546875,-0.5274562835693359,-5.119356155395508,8.351654052734375
1701911143951190800,3.170190673828125,-0.4767773151397705,-5.4578399658203125,8.137616157531738
1701911143968183000,3.18718310546875,-0.4029085636138916,-5.7850141525268555,7.912482261657715
1701911143985175300,3.20417529296875,-0.3409844934940338,-6.086235046386719,7.6861958503723145
1701911144002167800,3.221167724609375,-0.31024977564811707,-6.364226818084717,7.458987712860107
1701911144019159800,3.238159912109375,-0.30233234167099,-6.625762939453125,7.227999687194824
1701911144036139500,3.255139404296875,-0.28865689039230347,-6.868710041046143,6.9981160163879395
1701911144053133300,3.27213330078125,-0.24917618930339813,-7.086394309997559,6.7791643142700195
1701911144070138400,3.289138427734375,-0.18653817474842072,-7.2692461013793945,6.584784984588623
1701911144087130000,3.306130126953125,-0.11103015393018723,-7.423702716827393,6.411899089813232
1701911144104121300,3.323121337890625,-0.051662199199199677,-7.555813789367676,6.2564473152160645
1701911144121113600,3.340113525390625,-0.025577183812856674,-7.660482406616211,6.128007888793945
1701911144138105900,3.35710595703125,-0.01997847482562065,-7.732450008392334,6.0369648933410645
1701911144155080400,3.37408056640625,-0.015103651210665703,-7.764733791351318,5.995397090911865
1701911144172091000,3.3910908203125,-0.004088080953806639,-7.752357482910156,6.011412143707275
1701911144189083100,3.408083251953125,0.017184382304549217,-7.697520732879639,6.081446170806885
1701911144206075400,3.425075439453125,0.03419247269630432,-7.6106743812561035,6.1897149085998535
1701911144223067000,3.44206689453125,0.04182220995426178,-7.502959728240967,6.319808006286621
1701911144240061000,3.45906103515625,0.047948338091373444,-7.380897521972656,6.4619011878967285
1701911144257052200,3.47605224609375,0.0679393857717514,-7.237458229064941,6.621987342834473
1701911144274044400,3.49304443359375,0.10802000761032104,-7.048702239990234,6.8220415115356445
1701911144291037000,3.510036865234375,0.15598851442337036,-6.800174236297607,7.068903923034668
1701911144308029000,3.52702880859375,0.19844895601272583,-6.497568607330322,7.3469953536987305
1701911144325010700,3.5440107421875,0.22280816733837128,-6.150563716888428,7.639178276062012
1701911144341999900,3.560999755859375,0.21906623244285583,-5.763622283935547,7.935286998748779
1701911144358998500,3.57799853515625,0.18277987837791443,-5.344628810882568,8.224211692810059
1701911144375987500,3.594987548828125,0.1166817769408226,-4.905770778656006,8.494462966918945
1701911144392996900,3.611996826171875,0.035316597670316696,-4.4611005783081055,8.736902236938477
1701911144409963300,3.62896337890625,-0.036359742283821106,-4.039200782775879,8.939780235290527
1701911144426969000,3.645968994140625,-0.09521138668060303,-3.655740261077881,9.102890968322754
1701911144443957200,3.662957275390625,-0.1511739194393158,-3.312567710876465,9.232558250427246
1701911144460949200,3.67994921875,-0.2156219333410263,-3.0030863285064697,9.336544036865234
1701911144477942000,3.69694189453125,-0.30064278841018677,-2.723879814147949,9.419458389282227
1701911144494934000,3.71393408203125,-0.4175145924091339,-2.4699931144714355,9.484774589538574
1701911144511932400,3.730932373046875,-0.5649608969688416,-2.234086036682129,9.535502433776855
1701911144528918500,3.74791845703125,-0.7397119998931885,-2.0121405124664307,9.572891235351562
1701911144545913300,3.764913330078125,-0.9559993147850037,-1.7986056804656982,9.596207618713379
1701911144562907600,3.78190771484375,-1.2185977697372437,-1.5999314785003662,9.60163402557373
1701911144579895600,3.7988955078125,-1.517594575881958,-1.4295628070831299,9.585896492004395
1701911144596891600,3.8158916015625,-1.829073429107666,-1.288640022277832,9.55143928527832
1701911144613883400,3.83288330078125,-2.1385414600372314,-1.1811245679855347,9.500932693481445
1701911144630876000,3.8498759765625,-2.4251959323883057,-1.1014913320541382,9.441466331481934
1701911144647866400,3.866866455078125,-2.6786394119262695,-1.0425697565078735,9.379446983337402
1701911144664860400,3.8838603515625,-2.8896632194519043,-1.0102895498275757,9.320154190063477
1701911144681860400,3.9008603515625,-3.049362897872925,-1.019760251045227,9.268095970153809
1701911144698851600,3.9178515625,-3.1510868072509766,-1.0811809301376343,9.227014541625977
1701911144715834400,3.93483447265625,-3.2004520893096924,-1.1806600093841553,9.197784423828125
1701911144732836000,3.951836181640625,-3.2131996154785156,-1.2967300415039062,9.177688598632812
1701911144749827800,3.968827880859375,-3.1811907291412354,-1.423784852027893,9.170004844665527
1701911144766821600,3.985821533203125,-3.073211193084717,-1.5693840980529785,9.18305778503418
1701911144783815700,4.002815673828125,-2.8478970527648926,-1.7579255104064941,9.22145938873291
1701911144800806000,4.019805908203125,-2.4953343868255615,-2.0184669494628906,9.270125389099121
1701911144817798100,4.036798095703125,-2.0848190784454346,-2.3311715126037598,9.298133850097656
1701911144834790700,4.053790771484375,-1.7178471088409424,-2.65033221244812,9.287673950195312
1701911144851783000,4.070782958984375,-1.459139347076416,-2.9313461780548096,9.247391700744629
1701911144868772000,4.087772216796875,-1.3083081245422363,-3.172713279724121,9.190120697021484
1701911144885767400,4.104767333984375,-1.2233942747116089,-3.4010252952575684,9.119892120361328
1701911144902759700,4.121759765625,-1.1554291248321533,-3.641838788986206,9.035382270812988
1701911144919752200,4.138752197265625,-1.0716466903686523,-3.906318426132202,8.934671401977539
1701911144936741400,4.155741455078125,-0.9682416319847107,-4.187727451324463,8.818251609802246
1701911144953736400,4.172736328125,-0.8429755568504333,-4.469490051269531,8.691903114318848
1701911144970728700,4.189728759765625,-0.6982037425041199,-4.749837875366211,8.554978370666504
1701911144987721500,4.206721435546875,-0.5556948184967041,-5.028087139129639,8.405097007751465
1701911145004699600,4.22369970703125,-0.43401777744293213,-5.302889823913574,8.241789817810059
1701911145021706000,4.2407060546875,-0.34167739748954773,-5.572078227996826,8.066679000854492
1701911145038696000,4.257696044921875,-0.2823386788368225,-5.825662612915039,7.88784122467041
1701911145055703600,4.27470361328125,-0.2535966634750366,-6.053142070770264,7.7156524658203125
1701911145072683800,4.291683837890625,-0.23218359053134918,-6.249406337738037,7.5582499504089355
1701911145089675000,4.308675048828125,-0.19296427071094513,-6.424619674682617,7.411016464233398
1701911145106667300,4.325667236328125,-0.1289653182029724,-6.58648157119751,7.268957138061523
1701911145123659000,4.342658935546875,-0.05222119390964508,-6.7372260093688965,7.130438327789307
1701911145140653000,4.359653076171875,0.01348865032196045,-6.876476287841797,6.996429920196533
1701911145157644300,4.376644287109375,0.05719366669654846,-6.996845245361328,6.875827789306641
1701911145174636500,4.393636474609375,0.08355934917926788,-7.0969014167785645,6.772231578826904
1701911145191632000,4.4106318359375,0.09421736001968384,-7.179481029510498,6.684481143951416
1701911145208618500,4.427618408203125,0.08949514478445053,-7.245697975158691,6.612712383270264
1701911145225609200,4.444609130859375,0.07320071011781693,-7.288217067718506,6.566024303436279
1701911145242610200,4.461610107421875,0.04875759407877922,-7.309111595153809,6.542984485626221
1701911145259600100,4.47860009765625,0.023403773084282875,-7.308505535125732,6.543799877166748
1701911145276589600,4.495589599609375,0.0024450132623314857,-7.2907209396362305,6.563649654388428
1701911145293584100,4.512584228515625,-0.0031642208341509104,-7.251078128814697,6.607417583465576
1701911145310575000,4.5295751953125,0.015279944986104965,-7.170478820800781,6.69478178024292
1701911145327567600,4.546567626953125,0.06695851683616638,-7.023709297180176,6.84829568862915
1701911145344559900,4.563559814453125,0.1419566571712494,-6.798015117645264,7.071276664733887
1701911145361552100,4.58055224609375,0.2120940089225769,-6.507332801818848,7.337966442108154
1701911145378541300,4.597541259765625,0.24593010544776917,-6.173428535461426,7.620002269744873
1701911145395536600,4.61453662109375,0.22919858992099762,-5.814509391784668,7.897789001464844
1701911145412529200,4.631529052734375,0.16414538025856018,-5.4445929527282715,8.158772468566895
1701911145429521400,4.648521484375,0.07258324325084686,-5.071812629699707,8.396878242492676
1701911145446509800,4.665509765625,-0.017514165490865707,-4.705247402191162,8.607930183410645
1701911145463506200,4.682506103515625,-0.08844615519046783,-4.358670711517334,8.788076400756836
1701911145480487700,4.69948779296875,-0.14184117317199707,-4.044671535491943,8.936254501342773
1701911145497480000,4.71647998046875,-0.20322933793067932,-3.759016990661621,9.058953285217285
1701911145514472200,4.73347216796875,-0.29379162192344666,-3.491607427597046,9.162886619567871
1701911145531475000,4.750474853515625,-0.417076051235199,-3.232875108718872,9.252602577209473
1701911145548467500,4.767467529296875,-0.5620642304420471,-2.983738660812378,9.32831859588623
1701911145565459700,4.784459716796875,-0.7193952798843384,-2.751492738723755,9.388710975646973
1701911145582452000,4.801451904296875,-0.880020022392273,-2.545614004135132,9.433001518249512
1701911145599441700,4.818441650390625,-1.0433439016342163,-2.37125825881958,9.461748123168945
1701911145616439300,4.835439208984375,-1.21250319480896,-2.222555160522461,9.477668762207031
1701911145633428200,4.85242822265625,-1.3932254314422607,-2.091909646987915,9.482562065124512
1701911145650420500,4.86942041015625,-1.583685040473938,-1.979315161705017,9.476834297180176
1701911145667414800,4.886414794921875,-1.774564504623413,-1.8929747343063354,9.460636138916016
1701911145684395800,4.903395751953125,-1.9491448402404785,-1.8475972414016724,9.435219764709473
1701911145701398000,4.92039794921875,-2.092272996902466,-1.858839988708496,9.402300834655762
1701911145718390300,4.937390380859375,-2.2055318355560303,-1.9263718128204346,9.362736701965332
1701911145735382800,4.9543828125,-2.2981393337249756,-2.0423150062561035,9.315773010253906
1701911145752374800,4.971374755859375,-2.346698760986328,-2.208127021789551,9.265707015991211
1701911145769364000,4.988364013671875,-2.365023374557495,-2.4206931591033936,9.207769393920898
1701911145786359600,5.005359619140625,-2.404127359390259,-2.648616075515747,9.134611129760742
1701911145803351800,5.022351806640625,-2.4699366092681885,-2.869410753250122,9.049972534179688
1701911145820344300,5.03934423828125,-2.519226312637329,-3.0761570930480957,8.968104362487793
1701911145837336600,5.056336669921875,-2.50423264503479,-3.2788405418395996,8.900235176086426
1701911145854322400,5.073322509765625,-2.406233310699463,-3.497525453567505,8.843839645385742
1701911145871320300,5.0903203125,-2.2396509647369385,-3.7420387268066406,8.787332534790039
1701911145888316200,5.107316162109375,-2.048006057739258,-3.99314022064209,8.723337173461914
1701911145905305600,5.1243056640625,-1.8713511228561401,-4.217118740081787,8.65737247467041
1701911145922298000,5.141298095703125,-1.7369786500930786,-4.381758213043213,8.603443145751953
1701911145939290400,5.158290283203125,-1.643171787261963,-4.480334281921387,8.571038246154785
1701911145956278800,5.17527880859375,-1.5745295286178589,-4.523991584777832,8.560986518859863
1701911145973276000,5.19227587890625,-1.5102627277374268,-4.54415225982666,8.56188678741455
1701911145990264600,5.2092646484375,-1.4211716651916504,-4.574404239654541,8.561029434204102
1701911146007262000,5.226261962890625,-1.293729305267334,-4.642217636108398,8.544717788696289
1701911146024252000,5.243251953125,-1.1448264122009277,-4.750996112823486,8.506087303161621
1701911146041244400,5.260244384765625,-0.9851073622703552,-4.8972086906433105,8.4429292678833
1701911146058236700,5.277236572265625,-0.820759654045105,-5.078622817993164,8.352848052978516
1701911146075229000,5.29422900390625,-0.6759954690933228,-5.28640079498291,8.23608684539795
1701911146092221000,5.311220947265625,-0.5784217715263367,-5.507798671722412,8.097264289855957
1701911146109213200,5.328213134765625,-0.5447739958763123,-5.721779823303223,7.949880123138428
1701911146126205400,5.345205322265625,-0.5538798570632935,-5.9168596267700195,7.805133819580078
1701911146143181000,5.36218115234375,-0.5742223262786865,-6.0969743728637695,7.663764476776123
1701911146160189700,5.379189697265625,-0.5919241905212402,-6.257205009460449,7.53214168548584
1701911146177184000,5.39618408203125,-0.6060668230056763,-6.396870136260986,7.41274881362915
1701911146194170600,5.413170654296875,-0.615596354007721,-6.519098281860352,7.304693698883057
1701911146211167200,5.430167236328125,-0.6193926334381104,-6.628912448883057,7.204858779907227
1701911146228159500,5.447159423828125,-0.617544949054718,-6.727398872375488,7.113147735595703
1701911146245151500,5.4641513671875,-0.6180276274681091,-6.813074588775635,7.031086444854736
1701911146262144000,5.48114404296875,-0.6212330460548401,-6.883813381195068,6.961557865142822
1701911146279132400,5.49813232421875,-0.61798495054245,-6.938365936279297,6.907480239868164
1701911146296126500,5.51512646484375,-0.6082990169525146,-6.9740519523620605,6.872312545776367
1701911146313122300,5.532122314453125,-0.5936128497123718,-6.994106292724609,6.8531904220581055
1701911146330110700,5.54911083984375,-0.5701324939727783,-7.00603723526001,6.842989921569824
1701911146347107800,5.56610791015625,-0.5372217297554016,-7.010319709777832,6.841268539428711
1701911146364098000,5.58309814453125,-0.4916768968105316,-7.006827354431152,6.848266124725342
1701911146381090000,5.600090087890625,-0.43677183985710144,-6.988021373748779,6.871165752410889
1701911146398082300,5.617082275390625,-0.3701387047767639,-6.94172477722168,6.921819686889648
1701911146415074800,5.63407470703125,-0.2898885905742645,-6.8542046546936035,7.01227331161499
1701911146432067000,5.651067138671875,-0.2055506855249405,-6.714818000793457,7.148782253265381
1701911146449059600,5.6680595703125,-0.1396326869726181,-6.524625301361084,7.324334144592285
1701911146466051000,5.685051025390625,-0.10946134477853775,-6.292723655700684,7.525010108947754
1701911146483043600,5.702043701171875,-0.1162426546216011,-6.0301642417907715,7.736907482147217
1701911146500037600,5.71903759765625,-0.1544279009103775,-5.739741802215576,7.954094886779785
1701911146517012200,5.73601220703125,-0.2047923058271408,-5.428150653839111,8.168805122375488
1701911146534020000,5.75302001953125,-0.25458720326423645,-5.106818675994873,8.372078895568848
1701911146551003600,5.770003662109375,-0.2973414659500122,-4.787858486175537,8.557108879089355
1701911146568005400,5.78700537109375,-0.32895034551620483,-4.479098796844482,8.721559524536133
1701911146584998000,5.803997802734375,-0.3625279664993286,-4.182226657867432,8.866436958312988
1701911146601990100,5.820990234375,-0.4137718081474304,-3.8933680057525635,8.9948091506958
1701911146618982400,5.837982421875,-0.4900878965854645,-3.607849359512329,9.10930061340332
1701911146635974700,5.854974609375,-0.5960307121276855,-3.324866533279419,9.210111618041992
1701911146652966100,5.871966064453125,-0.7219709753990173,-3.0513339042663574,9.295389175415039
1701911146669957400,5.888957275390625,-0.853405237197876,-2.795618772506714,9.364418983459473
1701911146686954200,5.905954345703125,-0.9928455948829651,-2.560328722000122,9.417807579040527
1701911146703940600,5.922940673828125,-1.1726784706115723,-2.3394360542297363,9.454522132873535
1701911146720927200,5.93992724609375,-1.442937970161438,-2.1220521926879883,9.468419075012207
1701911146737919500,5.95691943359375,-1.8022569417953491,-1.9132288694381714,9.451323509216309
1701911146754923000,5.973923095703125,-2.181864023208618,-1.731935977935791,9.406167984008789
1701911146771910400,5.990910400390625,-2.5084667205810547,-1.5839372873306274,9.350661277770996
1701911146788897500,6.0078974609375,-2.7606420516967773,-1.4521077871322632,9.300878524780273
1701911146805887000,6.024886962890625,-2.940347909927368,-1.3295726776123047,9.264054298400879
1701911146822883300,6.04188330078125,-3.046898365020752,-1.2230055332183838,9.244283676147461
1701911146839876000,6.0588759765625,-3.068366289138794,-1.1546638011932373,9.2459716796875
1701911146856864300,6.0758642578125,-3.021925449371338,-1.1332242488861084,9.263899803161621
1701911146873864200,6.0928642578125,-2.9441802501678467,-1.1554393768310547,9.286166191101074
1701911146890854400,6.1098544921875,-2.8619959354400635,-1.21293306350708,9.304509162902832
1701911146907854600,6.1268544921875,-2.782280683517456,-1.3044155836105347,9.316305160522461
1701911146924843000,6.143843017578125,-2.692328929901123,-1.4194257259368896,9.32591438293457
1701911146941836000,6.1608359375,-2.5913591384887695,-1.5333845615386963,9.336471557617188
1701911146958826500,6.177826416015625,-2.476985216140747,-1.6239510774612427,9.352189064025879
1701911146975811000,6.19481103515625,-2.3694889545440674,-1.69713294506073,9.367037773132324
1701911146992803000,6.211802978515625,-2.289513111114502,-1.7732892036437988,9.372815132141113
1701911147009805300,6.228805419921875,-2.2454559803009033,-1.8582260608673096,9.367019653320312
1701911147026797300,6.24579736328125,-2.226407051086426,-1.9478631019592285,9.35334587097168
1701911147043789000,6.2627890625,-2.205951690673828,-2.050842761993408,9.336163520812988
1701911147060780000,6.279780029296875,-2.166447401046753,-2.1879804134368896,9.314257621765137
1701911147077771000,6.29677099609375,-2.1069624423980713,-2.375231981277466,9.281977653503418
1701911147094766800,6.313766845703125,-2.030352830886841,-2.6169183254241943,9.23393440246582
1701911147111756800,6.3307568359375,-1.939905047416687,-2.903534173965454,9.167462348937988
1701911147128755700,6.347755615234375,-1.8378571271896362,-3.2252604961395264,9.080533981323242
1701911147145741800,6.364741943359375,-1.7331738471984863,-3.568953275680542,8.97188949584961
1701911147162735900,6.38173583984375,-1.6250085830688477,-3.929439067840576,8.840529441833496
1701911147179725300,6.398725341796875,-1.5091605186462402,-4.296382904052734,8.68905258178711
1701911147196718000,6.415718017578125,-1.3941569328308105,-4.657179355621338,8.520746231079102
1701911147213715500,6.432715576171875,-1.296770453453064,-5.007296085357666,8.335555076599121
1701911147230691800,6.44969189453125,-1.219208836555481,-5.335848808288574,8.141153335571289
1701911147247700200,6.4667001953125,-1.1545310020446777,-5.633046627044678,7.948079586029053
1701911147264689700,6.483689697265625,-1.0950045585632324,-5.886875152587891,7.77057409286499
1701911147281682000,6.500681884765625,-1.0337824821472168,-6.092780113220215,7.618756294250488
1701911147298671400,6.51767138671875,-0.96993088722229,-6.253996849060059,7.495523452758789
1701911147315656000,6.534656005859375,-0.900032103061676,-6.376902103424072,7.400079727172852
1701911147332656600,6.55165673828125,-0.8233569860458374,-6.469387531280518,7.328384876251221
1701911147349651500,6.5686513671875,-0.7440722584724426,-6.524288654327393,7.288082599639893
1701911147366643000,6.585642822265625,-0.6792792677879333,-6.534719467163086,7.285065174102783
1701911147383635700,6.6026357421875,-0.6311356425285339,-6.5255656242370605,7.2975873947143555
1701911147400628200,6.619628173828125,-0.5800227522850037,-6.533006191253662,7.29517126083374
1701911147417618000,6.636617919921875,-0.5169348120689392,-6.563102722167969,7.272867202758789
1701911147434615300,6.653615234375,-0.4564225673675537,-6.592596530914307,7.250205039978027
1701911147451591700,6.670591796875,-0.4040519595146179,-6.594812393188477,7.251297473907471
1701911147468600000,6.68760009765625,-0.3479801118373871,-6.5644145011901855,7.28172492980957
1701911147485589500,6.704589599609375,-0.2762289047241211,-6.512175559997559,7.331534385681152
1701911147502582300,6.721582275390625,-0.1830921173095703,-6.464528560638428,7.376480579376221
1701911147519574300,6.73857421875,-0.0561964213848114,-6.447269916534424,7.393621921539307
1701911147536566500,6.75556640625,0.09818176925182343,-6.46531867980957,7.377408504486084
1701911147553558000,6.77255810546875,0.26063379645347595,-6.501270771026611,7.341775894165039
1701911147570551800,6.7895517578125,0.4000782072544098,-6.519314289093018,7.319467067718506
1701911147587543300,6.806543212890625,0.46694931387901306,-6.481664657592773,7.348884582519531
1701911147604535600,6.82353564453125,0.4222683906555176,-6.376347064971924,7.443119525909424
1701911147621528300,6.8405283203125,0.271916002035141,-6.223849296569824,7.5779876708984375
1701911147638517500,6.857517578125,0.04481130838394165,-6.049849510192871,7.722270488739014
1701911147655515100,6.87451513671875,-0.18850897252559662,-5.876502990722656,7.852852821350098
1701911147672504800,6.8915048828125,-0.3665730655193329,-5.705477237701416,7.971780300140381
1701911147689494300,6.908494384765625,-0.4777193069458008,-5.513795852661133,8.099751472473145
1701911147706478800,6.925478759765625,-0.5649358034133911,-5.30706787109375,8.231161117553711
1701911147723481900,6.94248193359375,-0.6861240267753601,-5.114319324493408,8.343208312988281
1701911147740474000,6.95947412109375,-0.849728524684906,-4.9565911293029785,8.422959327697754
1701911147757466400,6.97646630859375,-1.016275405883789,-4.84276819229126,8.470590591430664
1701911147774448000,6.9934482421875,-1.1631942987442017,-4.760433197021484,8.498315811157227
1701911147791451400,7.010451416015625,-1.2926949262619019,-4.6738691329956055,8.527602195739746
1701911147808442600,7.027442626953125,-1.4176995754241943,-4.554352760314941,8.572288513183594
1701911147825435400,7.044435302734375,-1.5383440256118774,-4.393754959106445,8.635074615478516
1701911147842418200,7.061418212890625,-1.6426215171813965,-4.208032131195068,8.708063125610352
1701911147859411200,7.0784111328125,-1.7133886814117432,-4.019812107086182,8.7830228805542
1701911147876402200,7.095402099609375,-1.761522889137268,-3.8374996185302734,8.854758262634277
1701911147893394000,7.112393798828125,-1.8136993646621704,-3.6520140171051025,8.922409057617188
1701911147910390800,7.129390869140625,-1.866788625717163,-3.4623701572418213,8.986833572387695
1701911147927382800,7.1463828125,-1.896588921546936,-3.2792952060699463,9.049049377441406
1701911147944372500,7.16337255859375,-1.887318730354309,-3.110924482345581,9.110231399536133
1701911147961363700,7.18036376953125,-1.8392341136932373,-2.962226152420044,9.16943645477295
1701911147978359800,7.19735986328125,-1.7748879194259644,-2.8340072631835938,9.222488403320312
1701911147995349500,7.214349609375,-1.7125455141067505,-2.7268383502960205,9.266480445861816
1701911148012339500,7.23133935546875,-1.6561274528503418,-2.637895345687866,9.302412033081055
1701911148029338600,7.248338623046875,-1.5962022542953491,-2.571974754333496,9.331302642822266
1701911148046327300,7.265327392578125,-1.5322015285491943,-2.5448503494262695,9.34945011138916
1701911148063320000,7.282320068359375,-1.4703017473220825,-2.5684945583343506,9.352921485900879
1701911148080319700,7.29931982421875,-1.4224364757537842,-2.6395864486694336,9.340520858764648
1701911148097314600,7.316314453125,-1.404429316520691,-2.7490437030792236,9.311628341674805
1701911148114304500,7.333304443359375,-1.4134024381637573,-2.896771192550659,9.265372276306152
1701911148131297000,7.350297119140625,-1.431575059890747,-3.08241605758667,9.202468872070312
1701911148148289300,7.367289306640625,-1.4406914710998535,-3.302748441696167,9.124275207519531
1701911148165281500,7.384281494140625,-1.4262809753417969,-3.5571300983428955,9.030428886413574
1701911148182273800,7.401273681640625,-1.390269160270691,-3.8370509147644043,8.92077922821045
1701911148199262700,7.4182626953125,-1.3418121337890625,-4.127252578735352,8.797808647155762
1701911148216256300,7.43525634765625,-1.2772161960601807,-4.426671504974365,8.660797119140625
1701911148233242000,7.4522421875,-1.2032371759414673,-4.743457317352295,8.50223159790039
1701911148250240300,7.469240234375,-1.1319350004196167,-5.074521064758301,8.31889820098877
1701911148267238400,7.48623828125,-1.0589957237243652,-5.416993141174316,8.109922409057617
1701911148284217600,7.503217529296875,-0.9598923921585083,-5.765314102172852,7.8788251876831055
1701911148301209300,7.520209228515625,-0.8216969966888428,-6.09962797164917,7.63907527923584
1701911148318211000,7.537211181640625,-0.6566089987754822,-6.397443771362305,7.407949447631836
1701911148335205600,7.55420556640625,-0.5020466446876526,-6.64981746673584,7.194720268249512
1701911148352194000,7.571194091796875,-0.3915804624557495,-6.854602336883545,7.00693941116333
1701911148369191700,7.588191650390625,-0.32777854800224304,-7.021023273468018,6.843530178070068
1701911148386177300,7.60517724609375,-0.2938149869441986,-7.161735534667969,6.697710037231445
1701911148403174400,7.62217431640625,-0.2651560306549072,-7.290203094482422,6.558869361877441
1701911148420161800,7.639161865234375,-0.23355476558208466,-7.413030624389648,6.420947074890137
1701911148437160700,7.65616064453125,-0.1960717737674713,-7.528526782989502,6.286412715911865
1701911148454138400,7.673138427734375,-0.16470730304718018,-7.625339508056641,6.1695356369018555
1701911148471143400,7.690143310546875,-0.14395610988140106,-7.696825981140137,6.0806450843811035
1701911148488135000,7.707135009765625,-0.13147640228271484,-7.738324165344238,6.028032302856445
1701911148505127200,7.724127197265625,-0.1173735037446022,-7.747218608856201,6.016888618469238
1701911148522109400,7.741109375,-0.09447405487298965,-7.728657245635986,6.0411152839660645
1701911148539112200,7.7581123046875,-0.06024561822414398,-7.691155433654785,6.089222431182861
1701911148556107300,7.775107177734375,-0.017935166135430336,-7.642444610595703,6.150514125823975
1701911148573094400,7.792094482421875,0.024410372599959373,-7.5886454582214355,6.216750144958496
1701911148590087000,7.8090869140625,0.0659022182226181,-7.533539295196533,6.283115386962891
1701911148607084800,7.826084716796875,0.09978624433279037,-7.478643894195557,6.347915172576904
1701911148624073500,7.843073486328125,0.12645715475082397,-7.422039031982422,6.413539409637451
1701911148641065700,7.860065673828125,0.1447361409664154,-7.361218452453613,6.4828715324401855
1701911148658057700,7.8770576171875,0.14975538849830627,-7.28891134262085,6.563952445983887
1701911148675050800,7.89405078125,0.14648094773292542,-7.197903633117676,6.663697719573975
1701911148692039000,7.911038818359375,0.1500033140182495,-7.094551086425781,6.773548603057861
1701911148709032000,7.928031982421875,0.15935008227825165,-6.9884419441223145,6.882763862609863
1701911148726027000,7.945027099609375,0.1555996835231781,-6.879684925079346,6.9915547370910645
1701911148743009000,7.962009033203125,0.11987903714179993,-6.763256072998047,7.1049370765686035
1701911148760013800,7.979013916015625,0.050166189670562744,-6.632147312164307,7.228294372558594
1701911148776999000,7.9959990234375,-0.025163494050502777,-6.48740816116333,7.3586015701293945
1701911148793996500,8.01299658203125,-0.08469341695308685,-6.338704586029053,7.486639022827148
1701911148810988500,8.029988525390625,-0.12662087380886078,-6.199042797088623,7.602103233337402
1701911148827981000,8.04698095703125,-0.18240272998809814,-6.054078102111816,7.716927528381348
1701911148844973000,8.06397314453125,-0.2599315643310547,-5.8883185386657715,7.841955661773682
1701911148861965300,8.08096533203125,-0.33494430780410767,-5.720400333404541,7.962471961975098
1701911148878943700,8.09794384765625,-0.36041009426116943,-5.578409671783447,8.061485290527344
1701911148895953200,8.114953125,-0.31763187050819397,-5.475935459136963,8.133225440979004
1701911148912943000,8.131943115234375,-0.26419124007225037,-5.38278865814209,8.197067260742188
1701911148929932000,8.14893212890625,-0.259805828332901,-5.260202407836914,8.276405334472656
1701911148946919200,8.165919189453126,-0.313057005405426,-5.1007304191589355,8.373808860778809
1701911148963918600,8.182918701171875,-0.4026147425174713,-4.923572540283203,8.475403785705566
1701911148980912000,8.199912109375,-0.48984408378601074,-4.755174160003662,8.566475868225098
1701911148997904000,8.21690380859375,-0.5607708096504211,-4.602594375610352,8.645100593566895
1701911149014896000,8.233896240234374,-0.6212351322174072,-4.450220108032227,8.720419883728027
1701911149031888000,8.250887939453126,-0.6731894016265869,-4.280210018157959,8.801292419433594
1701911149048881400,8.26788134765625,-0.7247554063796997,-4.080266952514648,8.891695976257324
1701911149065873000,8.284872802734375,-0.7855898141860962,-3.844414472579956,8.991074562072754
1701911149082846700,8.3018466796875,-0.8393228054046631,-3.5840232372283936,9.093207359313965
1701911149099854600,8.3188544921875,-0.8714824914932251,-3.3155758380889893,9.191496849060059
1701911149116850200,8.33585009765625,-0.8733243942260742,-3.0495128631591797,9.282989501953125
1701911149133842000,8.352842041015625,-0.8670345544815063,-2.792835235595703,9.363998413085938
1701911149150834400,8.36983447265625,-0.8941474556922913,-2.5454134941101074,9.431727409362793
1701911149167827000,8.386826904296875,-0.9409456849098206,-2.3316965103149414,9.482294082641602
1701911149184819000,8.40381884765625,-0.9773861169815063,-2.1793341636657715,9.514796257019043
1701911149201811500,8.4208115234375,-0.99843430519104,-2.085793972015381,9.533556938171387
1701911149218800400,8.43780029296875,-1.0110087394714355,-2.0377755165100098,9.54261302947998
1701911149235785500,8.454785400390625,-1.0356396436691284,-2.0071258544921875,9.546464920043945
1701911149252788000,8.4717880859375,-1.0665417909622192,-1.9920426607131958,9.546221733093262
1701911149269768700,8.488768798828126,-1.0960127115249634,-2.023939609527588,9.536170959472656
1701911149286769700,8.505769775390625,-1.1229244470596313,-2.1317598819732666,9.509510040283203
1701911149303765200,8.52276513671875,-1.138142704963684,-2.3161003589630127,9.464482307434082
1701911149320746800,8.539746826171875,-1.1382263898849487,-2.5496268272399902,9.404253005981445
1701911149337749800,8.556749755859375,-1.1033269166946411,-2.820793390274048,9.330698013305664
1701911149354744600,8.57374462890625,-1.0255768299102783,-3.115556001663208,9.24541187286377
1701911149371731500,8.5907314453125,-0.911521315574646,-3.4136860370635986,9.151613235473633
1701911149388716300,8.60771630859375,-0.7659999132156372,-3.7234601974487305,9.04351806640625
1701911149405718800,8.62471875,-0.5972831845283508,-4.064151763916016,8.908536911010742
1701911149422711600,8.641711669921875,-0.4131075441837311,-4.42216157913208,8.746996879577637
1701911149439703300,8.658703369140625,-0.21901623904705048,-4.756574630737305,8.576894760131836
1701911149456695800,8.67569580078125,-0.04559366777539253,-5.023502826690674,8.426056861877441
1701911149473687300,8.692687255859376,0.07760775834321976,-5.21612548828125,8.307955741882324
1701911149490681000,8.70968115234375,0.14132019877433777,-5.361515522003174,8.214030265808105
1701911149507672600,8.726672607421875,0.16033650934696198,-5.486350059509277,8.130827903747559
1701911149524664600,8.74366455078125,0.16054584085941315,-5.6100239753723145,8.045990943908691
1701911149541655000,8.760655029296874,0.15790699422359467,-5.745359897613525,7.949971675872803
1701911149558655200,8.7776552734375,0.15799294412136078,-5.883859634399414,7.848016738891602
1701911149575647200,8.794647216796875,0.16504819691181183,-6.007637977600098,7.753527641296387
1701911149592634000,8.811634033203125,0.17940661311149597,-6.104662895202637,7.67704439163208
1701911149609623300,8.828623291015624,0.19844865798950195,-6.169424533843994,7.62462854385376
1701911149626618400,8.845618408203125,0.2208259552717209,-6.208896636962891,7.59190034866333
1701911149643610600,8.862610595703124,0.2483932375907898,-6.220546722412109,7.581507205963135
1701911149660603100,8.87960302734375,0.30020248889923096,-6.178840160369873,7.6136674880981445
1701911149677595600,8.896595703125,0.3621227443218231,-6.076107501983643,7.693235874176025
1701911149694589400,8.91358935546875,0.3864167630672455,-5.950563907623291,7.789583206176758
1701911149711577600,8.93057763671875,0.3656568229198456,-5.843301773071289,7.871356964111328
1701911149728575000,8.947574951171875,0.3310371935367584,-5.762104511260986,7.932507514953613
1701911149745564400,8.964564453125,0.3004153370857239,-5.6924920082092285,7.983821392059326
1701911149762556700,8.981556640625,0.27621662616729736,-5.609958648681641,8.042896270751953
1701911149779549000,8.998548828125,0.2629989981651306,-5.494354724884033,8.122746467590332
1701911149796538400,9.015538330078124,0.250476598739624,-5.343050003051758,8.223455429077148
1701911149813533700,9.03253369140625,0.22963127493858337,-5.1613264083862305,8.339309692382812
1701911149830526000,9.04952587890625,0.2103307843208313,-4.9532246589660645,8.465071678161621
1701911149847510300,9.06651025390625,0.2089473307132721,-4.72804069519043,8.592909812927246
1701911149864508400,9.08350830078125,0.21011853218078613,-4.495920658111572,8.716573715209961
1701911149881503000,9.1005029296875,0.19266751408576965,-4.26511287689209,8.832202911376953
1701911149898495200,9.1174951171875,0.1638372391462326,-4.0431647300720215,8.936558723449707
1701911149915477200,9.134477294921876,0.15192031860351562,-3.847994565963745,9.022526741027832
1701911149932480000,9.15147998046875,0.17811642587184906,-3.693946123123169,9.086206436157227
1701911149949472300,9.16847216796875,0.24477322399616241,-3.5825157165527344,9.129173278808594
1701911149966467800,9.1854677734375,0.3280317485332489,-3.4786949157714844,9.166634559631348
1701911149983452200,9.2024521484375,0.3980270028114319,-3.3277902603149414,9.219736099243164
1701911150000449500,9.219449462890625,0.4237152934074402,-3.1047868728637695,9.296067237854004
1701911150017433300,9.236433349609374,0.3846801519393921,-2.8301870822906494,9.38499641418457
1701911150034430000,9.253429931640625,0.2980062961578369,-2.5400729179382324,9.470763206481934
1701911150051421700,9.270421630859374,0.1948254257440567,-2.267936944961548,9.542255401611328
1701911150068422100,9.287422119140626,0.09293945133686066,-2.0263731479644775,9.597984313964844
1701911150085410000,9.30441015625,0.009115663357079029,-1.7994128465652466,9.643555641174316
1701911150102402800,9.32140283203125,-0.0659785196185112,-1.5821458101272583,9.681352615356445
1701911150119392000,9.33839208984375,-0.1586913913488388,-1.372893214225769,9.712162971496582
1701911150136387000,9.355386962890625,-0.2674545645713806,-1.1785492897033691,9.735278129577637
1701911150153379300,9.37237939453125,-0.36655715107917786,-1.0074939727783203,9.751239776611328
1701911150170371600,9.38937158203125,-0.42989856004714966,-0.8570989370346069,9.763026237487793
1701911150187353300,9.406353271484376,-0.4422401487827301,-0.6721979975700378,9.776947021484375
1701911150204356400,9.4233564453125,-0.42896199226379395,-0.3860568702220917,9.793011665344238
1701911150221346000,9.440345947265625,-0.43552783131599426,-0.016463713720440865,9.800314903259277
1701911150238331100,9.4573310546875,-0.48553863167762756,0.3355942368507385,9.792228698730469
1701911150255324000,9.474323974609375,-0.5699345469474792,0.5926720499992371,9.775479316711426
1701911150272325400,9.491325439453124,-0.6728957295417786,0.7472007870674133,9.758331298828125
1701911150289311200,9.508311279296874,-0.7774379849433899,0.8192668557167053,9.744770050048828
1701911150306299600,9.525299560546875,-0.8757134079933167,0.8360799551010132,9.734999656677246
1701911150323297500,9.542297607421874,-0.9608043432235718,0.8182883262634277,9.728483200073242
1701911150340284200,9.5592841796875,-1.023979902267456,0.7619150280952454,9.726615905761719
1701911150357278700,9.57627880859375,-1.0984736680984497,0.6546104550361633,9.726303100585938
1701911150374269200,9.593269287109376,-1.193194031715393,0.4727707803249359,9.725682258605957
1701911150391269400,9.610269287109375,-1.2999411821365356,0.22126595675945282,9.720973014831543
1701911150408251000,9.6272509765625,-1.3922982215881348,-0.06966519355773926,9.710447311401367
1701911150425258500,9.644258544921875,-1.4544148445129395,-0.3631381392478943,9.69478988647461
1701911150442248200,9.661248291015625,-1.4717915058135986,-0.6369161605834961,9.678031921386719
1701911150459240700,9.67824072265625,-1.4591221809387207,-0.9005127549171448,9.658994674682617
1701911150476233000,9.69523291015625,-1.4085047245025635,-1.187308430671692,9.635482788085938
1701911150493224700,9.712224609375,-1.296522617340088,-1.527508020401001,9.60322380065918
1701911150510215700,9.729215576171875,-1.1235017776489258,-1.9303734302520752,9.55235767364502
1701911150527212500,9.746212646484375,-0.9250739812850952,-2.365504264831543,9.475481986999512
1701911150544202200,9.7632021484375,-0.7589987516403198,-2.7808961868286133,9.376920700073242
1701911150561194200,9.7801943359375,-0.6710790991783142,-3.1359798908233643,9.27099895477295
1701911150578187000,9.79718701171875,-0.6730592846870422,-3.4193544387817383,9.170121192932129
1701911150595178800,9.8141787109375,-0.7249343395233154,-3.6527411937713623,9.075684547424316
1701911150612171300,9.831171142578125,-0.7757872343063354,-3.8579866886138916,8.986113548278809
1701911150629160200,9.84816015625,-0.7875778675079346,-4.048676013946533,8.90079116821289
1701911150646153500,9.865153564453125,-0.7467055320739746,-4.229036808013916,8.820077896118164
1701911150663146000,9.88214599609375,-0.6637458205223083,-4.386626720428467,8.749462127685547
1701911150680132600,9.899132568359375,-0.5788112282752991,-4.5307393074035645,8.681792259216309
1701911150697124000,9.9161240234375,-0.5158820152282715,-4.681216239929199,8.605589866638184
1701911150714124800,9.933124755859374,-0.4599645137786865,-4.85140323638916,8.514015197753906
1701911150731117300,9.950117431640624,-0.3834250569343567,-5.038234233856201,8.408644676208496
1701911150748109300,9.967109375,-0.2829926908016205,-5.226495265960693,8.296974182128906
1701911150765114600,9.984114501953124,-0.1704556941986084,-5.396083831787109,8.19080924987793
1701911150782094000,10.001093994140625,-0.058734700083732605,-5.547471046447754,8.090625762939453
1701911150799086300,10.01808642578125,0.054500143975019455,-5.693723201751709,7.988409042358398
1701911150816077800,10.035077880859374,0.1726326197385788,-5.841061115264893,7.879613876342773
1701911150833071900,10.05207177734375,0.27915075421333313,-5.975886344909668,7.7747650146484375
1701911150850064000,10.06906396484375,0.36750513315200806,-6.0805439949035645,7.689477920532227
1701911150867044600,10.086044677734375,0.45033326745033264,-6.141684532165527,7.636297702789307
1701911150884030000,10.103030029296875,0.5397313833236694,-6.1590962409973145,7.616453647613525
1701911150901041000,10.120041015625,0.6257392168045044,-6.139389991760254,7.6257758140563965
1701911150918032400,10.137032470703126,0.6882611513137817,-6.0987749099731445,7.652932643890381
1701911150935024600,10.154024658203125,0.7192677855491638,-6.047731399536133,7.69049596786499
1701911150952017200,10.17101708984375,0.7287636399269104,-5.980086326599121,7.742325305938721
1701911150969009200,10.188009033203125,0.7267224192619324,-5.872844219207764,7.824172496795654
1701911150986001700,10.205001708984375,0.7137181758880615,-5.711256504058838,7.944073677062988
1701911151002993400,10.221993408203126,0.6849940419197083,-5.501561641693115,8.09319019317627
1701911151019982800,10.23898291015625,0.6325488686561584,-5.252927303314209,8.260916709899902
1701911151036977700,10.255977783203125,0.5476627945899963,-4.975308418273926,8.436972618103027
1701911151053971200,10.27297119140625,0.4271256625652313,-4.680119514465332,8.61104679107666
1701911151070962700,10.289962646484375,0.2836010754108429,-4.376413822174072,8.775118827819824
1701911151087939800,10.30693994140625,0.1325370818376541,-4.070196628570557,8.924798965454102
1701911151104947500,10.323947509765626,-0.011330734938383102,-3.7685487270355225,9.057263374328613
1701911151121939200,10.340939208984375,-0.14371871948242188,-3.482818126678467,9.169811248779297
1701911151138929700,10.3579296875,-0.2611697018146515,-3.21846604347229,9.263336181640625
1701911151155924200,10.37492431640625,-0.3738712668418884,-2.9705803394317627,9.341948509216309
1701911151172916500,10.39191650390625,-0.4855649471282959,-2.7251200675964355,9.41137981414795
1701911151189911800,10.408911865234375,-0.5871759653091431,-2.4695043563842773,9.475911140441895
1701911151206895000,10.42589501953125,-0.6688745617866516,-2.199781656265259,9.536754608154297
1701911151223893500,10.4428935546875,-0.7168128490447998,-1.9195836782455444,9.59361743927002
1701911151240885500,10.459885498046875,-0.7279466390609741,-1.6374022960662842,9.644954681396484
1701911151257877800,10.476877685546874,-0.7145106196403503,-1.3600258827209473,9.688961029052734
1701911151274870300,10.493870361328124,-0.6971644163131714,-1.0912822484970093,9.724154472351074
1701911151291862000,10.510862060546875,-0.6975642442703247,-0.8316518664360046,9.749761581420898
1701911151308855300,10.527855224609375,-0.7278269529342651,-0.5881471633911133,9.765270233154297
1701911151325834800,10.544834716796874,-0.7816534638404846,-0.38252896070480347,9.771326065063477
1701911151342828500,10.56182861328125,-0.8551652431488037,-0.2371201068162918,9.769781112670898
1701911151359819300,10.5788193359375,-0.936734676361084,-0.16183778643608093,9.763833999633789
1701911151376814000,10.59581396484375,-1.0216877460479736,-0.14671805500984192,9.755550384521484
1701911151393809400,10.612809326171876,-1.1164019107818604,-0.17754340171813965,9.744654655456543
1701911151410799600,10.629799560546875,-1.2215569019317627,-0.25681352615356445,9.73026180267334
1701911151427793700,10.646793701171875,-1.3233364820480347,-0.3915635049343109,9.712446212768555
1701911151444785400,10.663785400390625,-1.4096122980117798,-0.5746219754219055,9.691178321838379
1701911151461777400,10.68077734375,-1.4561916589736938,-0.7864417433738708,9.669392585754395
1701911151478761700,10.69776171875,-1.433426856994629,-1.0194164514541626,9.651020050048828
1701911151495759000,10.714759033203125,-1.333907961845398,-1.2885717153549194,9.633089065551758
1701911151512751600,10.731751708984374,-1.1697224378585815,-1.6140105724334717,9.605353355407715
1701911151529745200,10.7487451171875,-0.9827671647071838,-1.9925103187561035,9.555112838745117
1701911151546738400,10.765738525390624,-0.8112891912460327,-2.388963460922241,9.480019569396973
1701911151563723300,10.78272314453125,-0.6680216193199158,-2.7502222061157227,9.392878532409668
1701911151580731400,10.7997314453125,-0.5442649722099304,-3.0449323654174805,9.30958080291748
1701911151597723400,10.816723388671875,-0.42425528168678284,-3.2872514724731445,9.233098030090332
1701911151614716000,10.8337158203125,-0.29675906896591187,-3.5089282989501953,9.156171798706055
1701911151631708000,10.8507080078125,-0.16800454258918762,-3.7430381774902344,9.06628704071045
1701911151648700400,10.867700439453126,-0.05240245535969734,-4.004059314727783,8.95549488067627
1701911151665692700,10.884692626953125,0.047605108469724655,-4.284501552581787,8.824790000915527
1701911151682685200,10.901685302734375,0.14273346960544586,-4.576717853546143,8.67579460144043
1701911151699677200,10.91867724609375,0.24066585302352905,-4.878021240234375,8.507826805114746
1701911151716666400,10.935666259765625,0.331396222114563,-5.186469554901123,8.320265769958496
1701911151733657600,10.95265771484375,0.4033476710319519,-5.501372337341309,8.112234115600586
1701911151750654200,10.969654296875,0.45802032947540283,-5.81008243560791,7.891088962554932
1701911151767643400,10.986643310546874,0.49969226121902466,-6.091200828552246,7.67357063293457
1701911151784641500,11.0036416015625,0.5348612070083618,-6.334073066711426,7.471919059753418
1701911151801630700,11.020630615234374,0.570288896560669,-6.54009485244751,7.289583206176758
1701911151818623200,11.037623291015626,0.6023076772689819,-6.714721202850342,7.1264214515686035
1701911151835604700,11.054604736328125,0.623762845993042,-6.861299514770508,6.983523368835449
1701911151852607500,11.071607421875,0.6360419988632202,-6.988297939300537,6.855310440063477
1701911151869591300,11.08859130859375,0.6420716643333435,-7.101748466491699,6.737137794494629
1701911151886592300,11.10559228515625,0.639687180519104,-7.204068660736084,6.627842426300049
1701911151903583700,11.122583740234376,0.6230600476264954,-7.28538703918457,6.539956569671631
1701911151920577800,11.139577880859376,0.5981819033622742,-7.337887763977051,6.483340740203857
1701911151937569300,11.1565693359375,0.5741884112358093,-7.357086181640625,6.463723182678223
1701911151954551000,11.173551025390625,0.5572057366371155,-7.339457035064697,6.485215663909912
1701911151971551000,11.190551025390626,0.5523081421852112,-7.290920257568359,6.5401506423950195
1701911151988547300,11.20754736328125,0.5551668405532837,-7.222161293029785,6.615761756896973
1701911152005539300,11.224539306640626,0.5547446608543396,-7.138899803161621,6.705557346343994
1701911152022512400,11.241512451171875,0.5546441078186035,-7.04250955581665,6.806729316711426
1701911152039519500,11.25851953125,0.5710964202880859,-6.9202728271484375,6.929632186889648
1701911152056515000,11.27551513671875,0.6132864356040955,-6.750767230987549,7.091342449188232
1701911152073507000,11.292507080078124,0.6694740653038025,-6.523245334625244,7.296244144439697
1701911152090499600,11.30949951171875,0.716835618019104,-6.240932464599609,7.534788131713867
1701911152107491800,11.326491943359375,0.7319120764732361,-5.913816928863525,7.792766094207764
1701911152124484000,11.343484130859375,0.7089945077896118,-5.555476188659668,8.054200172424316
1701911152141476600,11.3604765625,0.6557024121284485,-5.183379650115967,8.302935600280762
1701911152158468600,11.377468505859374,0.5870768427848816,-4.811511039733887,8.528823852539062
1701911152175461000,11.394461181640626,0.5201449394226074,-4.449305534362793,8.727500915527344
1701911152192453400,11.411453369140625,0.45967185497283936,-4.107005596160889,8.897040367126465
1701911152209445600,11.428445556640625,0.3955352008342743,-3.794477701187134,9.037789344787598
1701911152226433800,11.445433837890626,0.3172132074832916,-3.5170528888702393,9.152369499206543
1701911152243431000,11.462430908203125,0.2165742963552475,-3.275493621826172,9.244476318359375
1701911152260411600,11.47941162109375,0.09273158013820648,-3.07145357131958,9.316313743591309
1701911152277414700,11.49641455078125,-0.04982252046465874,-2.9010517597198486,9.371101379394531
1701911152294408700,11.51340869140625,-0.20236191153526306,-2.763549566268921,9.410523414611816
1701911152311400200,11.530400146484375,-0.355915367603302,-2.6586692333221436,9.436149597167969
1701911152328382500,11.547382568359374,-0.5063554644584656,-2.568680763244629,9.454183578491211
1701911152345384000,11.564384033203124,-0.6603032946586609,-2.4789462089538574,9.46863079071045
1701911152362376200,11.581376220703126,-0.8186736702919006,-2.385389804840088,9.48028564453125
1701911152379368200,11.5983681640625,-0.9727070331573486,-2.290181875228882,9.48920726776123
1701911152396360700,11.615360595703125,-1.1014652252197266,-2.2053356170654297,9.495231628417969
1701911152413352000,11.63235205078125,-1.193839430809021,-2.140850067138672,9.498823165893555
1701911152430350000,11.64935009765625,-1.2550162076950073,-2.100050926208496,9.500043869018555
1701911152447337200,11.666337158203126,-1.3094381093978882,-2.0873429775238037,9.495497703552246
1701911152464319200,11.6833193359375,-1.3750447034835815,-2.1255104541778564,9.477740287780762
1701911152481321700,11.70032177734375,-1.4588819742202759,-2.2420246601104736,9.438277244567871
1701911152498314000,11.71731396484375,-1.5565690994262695,-2.4315853118896484,9.375531196594238
1701911152515306800,11.734306640625,-1.6812012195587158,-2.65079927444458,9.294244766235352
1701911152532299000,11.751299072265626,-1.8249397277832031,-2.855243444442749,9.206155776977539
1701911152549288000,11.768287841796875,-1.9614205360412598,-3.023207902908325,9.124098777770996
1701911152566283500,11.785283447265625,-2.0495569705963135,-3.162468433380127,9.057275772094727
1701911152583275800,11.80227587890625,-2.037959337234497,-3.298177480697632,9.011374473571777
1701911152600267800,11.819267822265624,-1.8919423818588257,-3.4539403915405273,8.984820365905762
1701911152617255200,11.836255126953125,-1.6410390138626099,-3.6318979263305664,8.96395206451416
1701911152634250200,11.853250244140625,-1.3554407358169556,-3.8087158203125,8.938264846801758
1701911152651248600,11.87024853515625,-1.1056369543075562,-3.962993860244751,8.905525207519531
1701911152668237000,11.887237060546875,-0.9296921491622925,-4.086241245269775,8.86985969543457
1701911152685229300,11.904229248046875,-0.8113842606544495,-4.183347225189209,8.836140632629395
1701911152702221300,11.92122119140625,-0.7134211659431458,-4.272473335266113,8.801881790161133
1701911152719213600,11.938213623046876,-0.6150563359260559,-4.381358623504639,8.755658149719238
1701911152736202200,11.9552021484375,-0.5013999342918396,-4.533040523529053,8.685404777526855
1701911152753199000,11.97219921875,-0.38159048557281494,-4.72017240524292,8.591302871704102
1701911152770188000,11.98918798828125,-0.2691657543182373,-4.921237468719482,8.482046127319336
1701911152787185700,12.006185546875,-0.16698917746543884,-5.129015922546387,8.360709190368652
1701911152804174600,12.023174560546876,-0.07153571397066116,-5.341582775115967,8.227910041809082
1701911152821166600,12.04016650390625,0.023493528366088867,-5.559476375579834,8.082560539245605
1701911152838161700,12.05716162109375,0.12563708424568176,-5.7829670906066895,7.923234939575195
1701911152855155500,12.074155517578125,0.2363690286874771,-6.009080410003662,7.750563144683838
1701911152872144600,12.09114453125,0.3542930483818054,-6.2290167808532715,7.570333480834961
1701911152889136400,12.108136474609376,0.4673296809196472,-6.420485019683838,7.402369499206543
1701911152906126000,12.1251259765625,0.5621870160102844,-6.569875240325928,7.263387680053711
1701911152923110400,12.1421103515625,0.6361484527587891,-6.68961238861084,7.147061347961426
1701911152940110600,12.159110595703124,0.705070436000824,-6.804780006408691,7.0309295654296875
1701911152957105700,12.176105712890624,0.7814295291900635,-6.924260139465332,6.905078411102295
1701911152974098000,12.193097900390624,0.8633460998535156,-7.034215927124023,6.783109664916992
1701911152991090200,12.210090087890626,0.9346564412117004,-7.110422611236572,6.693610191345215
1701911153008082400,12.22708251953125,0.985619843006134,-7.151421546936035,6.642425060272217
1701911153025074700,12.24407470703125,1.0047563314437866,-7.176156044006348,6.612820148468018
1701911153042067000,12.26106689453125,0.9970391988754272,-7.207693576812744,6.579604625701904
1701911153059059000,12.278058837890624,0.9758883714675903,-7.248397350311279,6.537928104400635
1701911153076053200,12.29505322265625,0.9538715481758118,-7.285481929779053,6.499846935272217
1701911153093042200,12.312042236328125,0.9389763474464417,-7.316164493560791,6.467469692230225
1701911153110035500,12.329035400390625,0.9313170909881592,-7.342491149902344,6.438678741455078
1701911153127023900,12.34602392578125,0.9269585609436035,-7.354739189147949,6.425314426422119
1701911153144020500,12.3630205078125,0.9289939403533936,-7.328621864318848,6.4547929763793945
1701911153161013200,12.38001318359375,0.941591203212738,-7.235108375549316,6.557647228240967
1701911153178005200,12.397005126953125,0.9620570540428162,-7.060476779937744,6.7424211502075195
1701911153194987500,12.413987548828125,0.9743139743804932,-6.821280002593994,6.9826202392578125
1701911153211990000,12.430989990234375,0.9594787359237671,-6.549986839294434,7.239696979522705
1701911153228979500,12.4479794921875,0.9128971695899963,-6.275353908538818,7.484829425811768
1701911153245977000,12.46497705078125,0.8422236442565918,-6.006296634674072,7.710458278656006
1701911153262966500,12.481966552734375,0.7596430778503418,-5.739100933074951,7.9197096824646
1701911153279948300,12.4989482421875,0.6693220138549805,-5.470143795013428,8.115767478942871
1701911153296940000,12.51593994140625,0.5673603415489197,-5.2040934562683105,8.29648208618164
1701911153313932500,12.5329326171875,0.4504569470882416,-4.947357654571533,8.459128379821777
1701911153330936300,12.549936279296874,0.31757253408432007,-4.701662063598633,8.604047775268555
1701911153347928000,12.566927978515626,0.16927865147590637,-4.4649977684021,8.733341217041016
1701911153364920300,12.58392041015625,0.004691367503255606,-4.235636234283447,8.84847354888916
1701911153381912300,12.600912353515625,-0.16689269244670868,-4.009554386138916,8.95163345336914
1701911153398905600,12.617905517578125,-0.33904293179512024,-3.7876060009002686,9.04296588897705
1701911153415897000,12.63489697265625,-0.5062780976295471,-3.5763940811157227,9.120813369750977
1701911153432889600,12.6518896484375,-0.6762800812721252,-3.3776016235351562,9.185345649719238
1701911153449878500,12.66887841796875,-0.8515499234199524,-3.195009469985962,9.235957145690918
1701911153466875600,12.685875732421875,-1.032502293586731,-3.0309414863586426,9.272727966308594
1701911153483864300,12.7028642578125,-1.2150403261184692,-2.8885600566864014,9.296022415161133
1701911153500858600,12.719858642578124,-1.3896806240081787,-2.7651021480560303,9.309089660644531
1701911153517846000,12.736845947265625,-1.5411443710327148,-2.6559250354766846,9.317031860351562
1701911153534843000,12.7538427734375,-1.647923469543457,-2.561488628387451,9.3251953125
1701911153551832600,12.77083251953125,-1.6973609924316406,-2.4898147583007812,9.335734367370605
1701911153568830000,12.787829833984375,-1.6859718561172485,-2.4507956504821777,9.348114013671875
1701911153585817000,12.804817138671876,-1.6322598457336426,-2.451462745666504,9.357465744018555
1701911153602808300,12.821808349609375,-1.5651317834854126,-2.4977662563323975,9.356691360473633
1701911153619806200,12.83880615234375,-1.5123947858810425,-2.5815703868865967,9.342606544494629
1701911153636794000,12.855794189453125,-1.4811075925827026,-2.6878890991210938,9.317599296569824
1701911153653789000,12.872788818359375,-1.4519686698913574,-2.8213720321655273,9.282659530639648
1701911153670781200,12.88978125,-1.3896077871322632,-2.9907314777374268,9.239082336425781
1701911153687770600,12.9067705078125,-1.269843578338623,-3.186419725418091,9.190774917602539
1701911153704768500,12.9237685546875,-1.1037626266479492,-3.38318133354187,9.141768455505371
1701911153721758000,12.940758056640625,-0.9215236902236938,-3.5645415782928467,9.09290599822998
1701911153738737000,12.95773681640625,-0.74506014585495,-3.727174758911133,9.043737411499023
1701911153755731700,12.974731689453124,-0.5906910300254822,-3.8855228424072266,8.988321304321289
1701911153772737500,12.991737548828125,-0.4597519636154175,-4.06523323059082,8.916200637817383
1701911153789722600,13.00872265625,-0.34309181571006775,-4.290026664733887,8.815560340881348
1701911153806709000,13.025708984375,-0.23505866527557373,-4.562596797943115,8.681219100952148
1701911153823706600,13.04270654296875,-0.13603956997394562,-4.86387300491333,8.518237113952637
1701911153840700700,13.05970068359375,-0.04906311258673668,-5.167781829833984,8.338330268859863
1701911153857689300,13.076689453125,0.02947523072361946,-5.455235004425049,8.1532621383667
1701911153874677000,13.093677001953125,0.10619713366031647,-5.726742744445801,7.964249610900879
1701911153891671800,13.110671875,0.17803865671157837,-5.9898881912231445,7.766960144042969
1701911153908675600,13.127675537109376,0.2428266853094101,-6.246888160705566,7.559996604919434
1701911153925665000,13.1446650390625,0.30055421590805054,-6.491536617279053,7.348859786987305
1701911153942657300,13.1616572265625,0.35034528374671936,-6.709120273590088,7.148501396179199
1701911153959646700,13.178646728515625,0.38890066742897034,-6.890915870666504,6.971381664276123
1701911153976631300,13.19563134765625,0.41582533717155457,-7.041961669921875,6.817183017730713
1701911153993634600,13.212634521484375,0.44405627250671387,-7.171051502227783,6.679442405700684
1701911154010626600,13.22962646484375,0.48524874448776245,-7.286425590515137,6.550467491149902
1701911154027618600,13.24661865234375,0.5322925448417664,-7.3925461769104,6.4267449378967285
1701911154044611300,13.263611328125,0.5679301619529724,-7.486282825469971,6.314201354980469
1701911154061603300,13.280603271484376,0.5767722725868225,-7.5649847984313965,6.2188801765441895
1701911154078584800,13.297584716796875,0.5641142725944519,-7.628414154052734,6.142084121704102
1701911154095600400,13.314600341796876,0.5454025864601135,-7.670209884643555,6.091512680053711
1701911154112580000,13.331580078125,0.5334128737449646,-7.686075687408447,6.072548866271973
1701911154129561900,13.348561767578126,0.5347764492034912,-7.680171489715576,6.079892635345459
1701911154146561500,13.3655615234375,0.5492792725563049,-7.659707069396973,6.104368686676025
1701911154163546400,13.38254638671875,0.5881767272949219,-7.630859375,6.136787414550781
1701911154180548900,13.399548828125,0.6624836921691895,-7.588043689727783,6.182137966156006
1701911154197542400,13.41654248046875,0.7653234004974365,-7.510219097137451,6.264744758605957
1701911154214523600,13.433523681640626,0.8788388967514038,-7.375776290893555,6.4079365730285645
1701911154231524400,13.4505244140625,0.9655972719192505,-7.1789116859436035,6.61566162109375
1701911154248521200,13.467521240234374,0.9957168698310852,-6.932281970977783,6.869362831115723
1701911154265510700,13.4845107421875,0.9621158242225647,-6.652909278869629,7.144876956939697
1701911154282503400,13.50150341796875,0.8878099918365479,-6.359809398651123,7.416248321533203
1701911154299495200,13.5184951171875,0.796941876411438,-6.063360214233398,7.670506000518799
1701911154316487400,13.5354873046875,0.7104323506355286,-5.763880729675293,7.906269073486328
1701911154333479000,13.55247900390625,0.6402373909950256,-5.4664716720581055,8.120585441589355
1701911154350472700,13.56947265625,0.5813080072402954,-5.178825378417969,8.31131649017334
1701911154367464200,13.586464111328125,0.5233357548713684,-4.9103193283081055,8.476497650146484
1701911154384456700,13.603456787109375,0.4562804698944092,-4.666635990142822,8.616869926452637
1701911154401446700,13.62044677734375,0.3768840432167053,-4.447579860687256,8.735737800598145
1701911154418443300,13.637443359375,0.281068354845047,-4.247103691101074,8.838508605957031
1701911154435423500,13.654423583984375,0.16697587072849274,-4.0534186363220215,8.931855201721191
1701911154452425500,13.671425537109375,0.036661311984062195,-3.8596227169036865,9.018763542175293
1701911154469414700,13.68841455078125,-0.10573403537273407,-3.6696739196777344,9.09716796875
1701911154486410200,13.70541015625,-0.2620716392993927,-3.4879908561706543,9.165225982666016
1701911154503402200,13.72240234375,-0.4221464693546295,-3.32499361038208,9.219671249389648
1701911154520394800,13.739394775390625,-0.5782082080841064,-3.1880435943603516,9.259491920471191
1701911154537384000,13.756384033203124,-0.719417154788971,-3.0757899284362793,9.28752326965332
1701911154554365700,13.77336572265625,-0.8388240337371826,-2.99477219581604,9.303970336914062
1701911154571368700,13.79036865234375,-0.9372366666793823,-2.944795846939087,9.310526847839355
1701911154588355600,13.80735546875,-1.0177745819091797,-2.921459913253784,9.309422492980957
1701911154605353000,13.82435302734375,-1.073566198348999,-2.9243221282958984,9.302253723144531
1701911154622351000,13.84135107421875,-1.0990025997161865,-2.948974370956421,9.291492462158203
1701911154639337500,13.85833740234375,-1.1000280380249023,-2.9796063899993896,9.281595230102539
1701911154656329000,13.875328857421875,-1.083516001701355,-3.009317398071289,9.27394962310791
1701911154673326000,13.892326171875,-1.052355170249939,-3.048753023147583,9.264654159545898
1701911154690315000,13.90931494140625,-1.0042015314102173,-3.1123294830322266,9.248844146728516
1701911154707311900,13.926311767578126,-0.9372220039367676,-3.2225518226623535,9.2180757522583
1701911154724301300,13.94330126953125,-0.8604565858840942,-3.395616292953491,9.163269996643066
1701911154741295000,13.960295166015625,-0.7863509654998779,-3.631833791732788,9.078962326049805
1701911154758278700,13.977278564453124,-0.7221365571022034,-3.89780855178833,8.973388671875
1701911154775278800,13.99427880859375,-0.6660189628601074,-4.136740207672119,8.870170593261719
1701911154792263000,14.011262939453125,-0.6229385733604431,-4.31237268447876,8.789283752441406
1701911154809263400,14.028263427734375,-0.6101706027984619,-4.425354957580566,8.733844757080078
1701911154826246100,14.04524609375,-0.6351728439331055,-4.502702236175537,8.69243049621582
1701911154843240700,14.06224072265625,-0.6815581917762756,-4.58438777923584,8.646096229553223
1701911154860228900,14.079228759765625,-0.7338182926177979,-4.699540138244629,8.579741477966309
1701911154877223400,14.096223388671875,-0.7878766655921936,-4.850910186767578,8.490232467651367
1701911154894214100,14.113214111328125,-0.8331724405288696,-5.017639636993408,8.388398170471191
1701911154911208000,14.1302080078125,-0.8530973792076111,-5.183226585388184,8.285077095031738
1701911154928203000,14.147203125,-0.8382048606872559,-5.34287166595459,8.184574127197266
1701911154945192200,14.164192138671876,-0.8042997717857361,-5.49352502822876,8.087669372558594
1701911154962187000,14.18118701171875,-0.7685209512710571,-5.636205196380615,7.992414474487305
1701911154979176200,14.19817626953125,-0.7418619990348816,-5.7733635902404785,7.896455764770508
1701911154996168700,14.215168701171875,-0.7234047055244446,-5.908589839935303,7.7975239753723145
1701911155013159400,14.232159423828126,-0.7026678323745728,-6.039706707000732,7.6983323097229
1701911155030155500,14.249155517578124,-0.6784939765930176,-6.153430461883545,7.6099324226379395
1701911155047143400,14.266143310546875,-0.6581807732582092,-6.231801509857178,7.5476861000061035
1701911155064139800,14.283139892578125,-0.6477700471878052,-6.2749433517456055,7.512762069702148
1701911155081139500,14.300139404296875,-0.6372172832489014,-6.292890548706055,7.498639106750488
1701911155098132000,14.317132080078125,-0.6047284007072449,-6.294644355773926,7.49985933303833
1701911155115123500,14.33412353515625,-0.5498862266540527,-6.281890392303467,7.514758110046387
1701911155132116700,14.35111669921875,-0.489363431930542,-6.253177642822266,7.542840003967285
1701911155149108500,14.3681083984375,-0.43242353200912476,-6.205713272094727,7.5853962898254395
1701911155166103000,14.38510302734375,-0.3894929885864258,-6.140023231506348,7.640977382659912
1701911155183093500,14.402093505859375,-0.3644028902053833,-6.062264919281006,7.704043865203857
1701911155200085200,14.419085205078124,-0.3456532061100006,-5.985668182373047,7.764561653137207
1701911155217077500,14.436077392578126,-0.3230133652687073,-5.923329830169678,7.8131914138793945
1701911155234069200,14.4530693359375,-0.290302574634552,-5.882348537445068,7.845370292663574
1701911155251052500,14.470052490234375,-0.25983360409736633,-5.856179237365723,7.865988731384277
1701911155268054500,14.487054443359375,-0.25311750173568726,-5.8300557136535645,7.8855881690979
1701911155285046800,14.504046875,-0.26821500062942505,-5.808367729187012,7.901081562042236
1701911155302039000,14.5210390625,-0.26836907863616943,-5.811947345733643,7.898441314697266
1701911155319031600,14.538031494140625,-0.2092777043581009,-5.85895299911499,7.86543083190918
1701911155336023600,14.5550234375,-0.078829824924469,-5.9492011070251465,7.799801826477051
1701911155353015800,14.572015869140625,0.09667640924453735,-6.05530309677124,7.717519283294678
1701911155370004700,14.589004638671875,0.26125651597976685,-6.147176742553711,7.640685558319092
1701911155387000600,14.60600048828125,0.3522579073905945,-6.198982238769531,7.595042705535889
1701911155403992600,14.62299267578125,0.3516702651977539,-6.199195861816406,7.594894886016846
1701911155420984800,14.63998486328125,0.30249255895614624,-6.165312767028809,7.62453556060791
1701911155437977300,14.656977294921875,0.2505834698677063,-6.121933460235596,7.661284446716309
1701911155454969300,14.67396923828125,0.21657240390777588,-6.077005863189697,7.698000431060791
1701911155471961900,14.6909619140625,0.18786388635635376,-6.023056507110596,7.741034507751465
1701911155488967200,14.70796728515625,0.14754162728786469,-5.9543867111206055,7.7948455810546875
1701911155505946400,14.7249462890625,0.09638448059558868,-5.8674726486206055,7.861271381378174
1701911155522938400,14.7419384765625,0.051918160170316696,-5.762777328491211,7.938754558563232
1701911155539931000,14.758930908203125,0.026450026780366898,-5.6457109451293945,8.022553443908691
1701911155556919800,14.775919921875,0.013165006414055824,-5.520345211029053,8.109359741210938
1701911155573915100,14.7929150390625,-0.005200586747378111,-5.389499187469482,8.196911811828613
1701911155590907600,14.80990771484375,-0.036929626017808914,-5.256082057952881,8.283016204833984
1701911155607899600,14.826899658203125,-0.07698459178209305,-5.11954927444458,8.367819786071777
1701911155624892000,14.843891845703125,-0.11568424105644226,-4.981957912445068,8.450018882751465
1701911155641891000,14.86089111328125,-0.1478540152311325,-4.848153114318848,8.526996612548828
1701911155658877400,14.87787744140625,-0.17509041726589203,-4.720954895019531,8.597559928894043
1701911155675856000,14.89485595703125,-0.20731644332408905,-4.59921407699585,8.662583351135254
1701911155692863200,14.91186328125,-0.2548300623893738,-4.477655410766602,8.72477912902832
1701911155709856300,14.928856201171875,-0.31539273262023926,-4.3567214012146,8.783827781677246
1701911155726836200,14.945836181640624,-0.37766823172569275,-4.24359130859375,8.836596488952637
1701911155743837000,14.9628369140625,-0.42947065830230713,-4.144927978515625,8.880948066711426
1701911155760831000,14.9798310546875,-0.47714129090309143,-4.059017181396484,8.918118476867676
1701911155777822500,14.996822509765625,-0.5295662879943848,-3.989481210708618,8.946492195129395
1701911155794814700,15.013814697265625,-0.585015058517456,-3.945359230041504,8.962590217590332
1701911155811807000,15.030806884765624,-0.6349399089813232,-3.9410197734832764,8.961100578308105
1701911155828799500,15.047799560546874,-0.6704968810081482,-3.984951972961426,8.939055442810059
1701911155845791500,15.06479150390625,-0.6988438963890076,-4.053347587585449,8.906070709228516
1701911155862784000,15.081783935546875,-0.7375463843345642,-4.115864276885986,8.874221801757812
1701911155879772700,15.098772705078124,-0.8008198738098145,-4.1635236740112305,8.846461296081543
1701911155896768000,15.11576806640625,-0.8971062302589417,-4.196394920349121,8.821654319763184
1701911155913760300,15.13276025390625,-0.9931546449661255,-4.218256950378418,8.80091381072998
1701911155930752800,15.149752685546876,-1.052329421043396,-4.225127696990967,8.790735244750977
1701911155947744800,15.166744873046875,-1.0622801780700684,-4.208459377288818,8.797530174255371
1701911155964737300,15.1837373046875,-1.0225201845169067,-4.171285629272461,8.819917678833008
1701911155981719000,15.200718994140624,-0.9323076605796814,-4.143004894256592,8.84321403503418
1701911155998722000,15.21772216796875,-0.781035304069519,-4.1736907958984375,8.843439102172852
1701911156015701500,15.234701416015625,-0.5777763724327087,-4.2811455726623535,8.80761432647705
1701911156032706600,15.25170654296875,-0.36917823553085327,-4.429591655731201,8.74520206451416
1701911156049698800,15.26869873046875,-0.2106645554304123,-4.561029434204102,8.682668685913086
1701911156066688000,15.28568798828125,-0.1350434422492981,-4.628264427185059,8.648527145385742
1701911156083683000,15.30268310546875,-0.14008828997612,-4.639915943145752,8.642204284667969
1701911156100675600,15.319675537109376,-0.1880466789007187,-4.628486633300781,8.647419929504395
1701911156117677300,15.33667724609375,-0.24780333042144775,-4.619893550872803,8.650507926940918
1701911156134659000,15.3536591796875,-0.29790520668029785,-4.635725975036621,8.64045238494873
1701911156151650300,15.370650390625,-0.3246828019618988,-4.685769557952881,8.612448692321777
1701911156168647400,15.3876474609375,-0.333405077457428,-4.76434850692749,8.568893432617188
1701911156185636900,15.404636962890624,-0.3407687544822693,-4.851994037628174,8.519281387329102
1701911156202629400,15.42162939453125,-0.34989795088768005,-4.933309078216553,8.472082138061523
1701911156219621400,15.438621337890625,-0.3524259328842163,-5.001285076141357,8.432025909423828
1701911156236613600,15.455613525390625,-0.3417413830757141,-5.061588287353516,8.396407127380371
1701911156253604900,15.47260498046875,-0.31477901339530945,-5.122965335845947,8.360158920288086
1701911156270597000,15.48959716796875,-0.27405795454978943,-5.188732624053955,8.320940971374512
1701911156287591700,15.506591796875,-0.22667673230171204,-5.258089542388916,8.278721809387207
1701911156304584400,15.52358447265625,-0.1809423565864563,-5.328474998474121,8.23472785949707
1701911156321573400,15.540573486328125,-0.13920973241329193,-5.3926920890808105,8.193633079528809
1701911156338567400,15.5575673828125,-0.1080370545387268,-5.444212913513184,8.15996265411377
1701911156355559400,15.574559326171874,-0.08642347157001495,-5.487752914428711,8.131004333496094
1701911156372549000,15.591549072265625,-0.06971298158168793,-5.5275983810424805,8.104129791259766
1701911156389543400,15.60854345703125,-0.05499732121825218,-5.568187713623047,8.076407432556152
1701911156406536000,15.625535888671875,-0.03738590329885483,-5.61293888092041,8.045472145080566
1701911156423528400,15.642528564453125,-0.02368084341287613,-5.653728485107422,8.016913414001465
1701911156440521000,15.65952099609375,-0.016379673033952713,-5.6830267906188965,7.996191024780273
1701911156457510000,15.676510009765625,-0.012281190603971481,-5.7050042152404785,7.980531692504883
1701911156474495200,15.6934951171875,-0.007547449320554733,-5.72802209854126,7.964033126831055
1701911156491495000,15.710494873046875,-0.003927511163055897,-5.743953704833984,7.952554702758789
1701911156508492300,15.7274921875,-0.008828364312648773,-5.739930629730225,7.955452919006348
1701911156525481700,15.744481689453124,-0.039441462606191635,-5.706571578979492,7.979323863983154
1701911156542474500,15.761474609375,-0.10354562103748322,-5.646896839141846,8.021095275878906
1701911156559466000,15.778466064453125,-0.18386058509349823,-5.5824456214904785,8.064651489257812
1701911156576455700,15.79545556640625,-0.24044263362884521,-5.538188934326172,8.093624114990234
1701911156593450200,15.8124501953125,-0.25532832741737366,-5.5204010009765625,8.10531234741211
1701911156610443000,15.829443115234374,-0.24042871594429016,-5.515871047973633,8.108853340148926
1701911156627426600,15.846426513671876,-0.22915232181549072,-5.507208347320557,8.11506462097168
1701911156644426800,15.8634267578125,-0.24784857034683228,-5.4853057861328125,8.129335403442383
1701911156661420800,15.8804208984375,-0.2904079854488373,-5.455147743225098,8.148199081420898
1701911156678395100,15.89739501953125,-0.33795344829559326,-5.430146217346191,8.163052558898926
1701911156695404500,15.914404541015625,-0.37447574734687805,-5.417459964752197,8.169883728027344
1701911156712397300,15.931397216796874,-0.4011880159378052,-5.404545783996582,8.177166938781738
1701911156729389300,15.948389404296876,-0.4314793646335602,-5.369087219238281,8.198953628540039
1701911156746381600,15.965381591796875,-0.480642169713974,-5.3088459968566895,8.235366821289062
1701911156763373800,15.982373779296875,-0.5571038722991943,-5.23334264755249,8.27876091003418
1701911156780353300,15.999353271484376,-0.6642336249351501,-5.148965835571289,8.323643684387207
1701911156797348600,16.0163486328125,-0.7928280830383301,-5.05781888961792,8.36815357208252
1701911156814343000,16.033343017578126,-0.9347406029701233,-4.947977066040039,8.419018745422363
1701911156831345000,16.050344970703126,-1.072222113609314,-4.810919284820557,8.481834411621094
1701911156848333000,16.0673330078125,-1.1836644411087036,-4.662251949310303,8.549763679504395
1701911156865324800,16.08432470703125,-1.2534735202789307,-4.525095462799072,8.613269805908203
1701911156882322200,16.101322265625,-1.2788335084915161,-4.414914608001709,8.666558265686035
1701911156899308800,16.118308837890623,-1.2834943532943726,-4.330825328826904,8.708197593688965
1701911156916304000,16.135303955078125,-1.2970744371414185,-4.2560224533081055,8.742997169494629
1701911156933296000,16.152296142578123,-1.330919861793518,-4.177261829376221,8.775832176208496
1701911156950286300,16.169286376953124,-1.3697068691253662,-4.092235565185547,8.809859275817871
1701911156967280000,16.186280029296874,-1.3919897079467773,-4.001140117645264,8.848127365112305
1701911156984273200,16.203273193359376,-1.393959879875183,-3.90628719329834,8.890103340148926
1701911157001262600,16.2202626953125,-1.3896359205245972,-3.8096418380737305,8.932619094848633
1701911157018260200,16.23726025390625,-1.4040764570236206,-3.710298776626587,8.972088813781738
1701911157035250000,16.25425,-1.4363586902618408,-3.6165683269500732,9.005189895629883
1701911157052242200,16.2712421875,-1.4514952898025513,-3.5348434448242188,9.035162925720215
1701911157069240800,16.28824072265625,-1.414641261100769,-3.4739744663238525,9.064568519592285
1701911157086227000,16.30522705078125,-1.3236085176467896,-3.439462184906006,9.09144115447998
1701911157103219200,16.32221923828125,-1.202467679977417,-3.430562734603882,9.111608505249023
1701911157120211500,16.33921142578125,-1.0782452821731567,-3.4557313919067383,9.117644309997559
1701911157137203500,16.356203369140626,-0.9517949223518372,-3.5240728855133057,9.105554580688477
1701911157154184200,16.37318408203125,-0.8143943548202515,-3.620051383972168,9.081194877624512
1701911157171188500,16.3901884765625,-0.6762846112251282,-3.7150824069976807,9.054109573364258
1701911157188180000,16.407179931640623,-0.560846209526062,-3.792480945587158,9.029875755310059
1701911157205172500,16.42417236328125,-0.47828149795532227,-3.8578941822052,9.006888389587402
1701911157222164700,16.441164794921875,-0.4238535761833191,-3.935976982116699,8.975775718688965
1701911157239144400,16.45814453125,-0.39108195900917053,-4.054698467254639,8.924270629882812
1701911157256138800,16.475138671875,-0.37060707807540894,-4.228742599487305,8.844008445739746
1701911157273141500,16.4921416015625,-0.35997918248176575,-4.446742057800293,8.736876487731934
1701911157290125800,16.509125732421875,-0.3595859408378601,-4.680421352386475,8.613969802856445
1701911157307116500,16.526116455078125,-0.35914215445518494,-4.902715682983398,8.489435195922852
1701911157324108800,16.54310888671875,-0.348653107881546,-5.105371475219727,8.369571685791016
1701911157341104400,16.5601044921875,-0.3225537836551666,-5.294423580169678,8.25234317779541
1701911157358094800,16.5770947265625,-0.2759406566619873,-5.477027416229248,8.134010314941406
1701911157375096800,16.594096923828126,-0.21459487080574036,-5.654635906219482,8.013437271118164
1701911157392087600,16.611087646484375,-0.1504015028476715,-5.820887088775635,7.894983291625977
1701911157409070800,16.62807080078125,-0.08983983844518661,-5.971899509429932,7.782315731048584
1701911157426072000,16.645072021484374,-0.02822158671915531,-6.103686332702637,7.67986536026001
1701911157443065600,16.662065673828124,0.0343170166015625,-6.209488868713379,7.594551086425781
1701911157460052700,16.679052734375,0.09198489040136337,-6.284701824188232,7.531944751739502
1701911157477038800,16.696038818359376,0.1323113888502121,-6.326929569244385,7.4959025382995605
1701911157494030600,16.713030517578126,0.15615428984165192,-6.338362693786621,7.485780239105225
1701911157511033300,16.730033447265626,0.16838900744915009,-6.322713851928711,7.498737335205078
1701911157528025300,16.747025390625,0.1723501980304718,-6.287494659423828,7.528202056884766
1701911157545017600,16.764017578125,0.16572178900241852,-6.234663009643555,7.572159767150879
1701911157562009900,16.781009765625,0.1586393564939499,-6.1589202880859375,7.634045124053955
1701911157579002400,16.79800244140625,0.1545960009098053,-6.0494184494018555,7.721187591552734
1701911157595994400,16.814994384765626,0.15714100003242493,-5.910930633544922,7.827663421630859
1701911157612987100,16.831987060546876,0.18310293555259705,-5.7698445320129395,7.931676864624023
1701911157629979600,16.848979736328126,0.22474943101406097,-5.647414207458496,8.018248558044434
1701911157646970600,16.865970703125,0.2451360523700714,-5.54806661605835,8.086715698242188
1701911157663961600,16.882961669921876,0.23102320730686188,-5.466145992279053,8.142725944519043
1701911157680958000,16.8999580078125,0.208659365773201,-5.38412618637085,8.197790145874023
1701911157697948200,16.9169482421875,0.1971561312675476,-5.2765583992004395,8.267717361450195
1701911157714940200,16.933940185546874,0.18288834393024445,-5.1205735206604,8.365549087524414
1701911157731933200,16.95093310546875,0.14877831935882568,-4.91382360458374,8.489306449890137
1701911157748924200,16.967924072265625,0.08641541749238968,-4.678462028503418,8.622101783752441
1701911157765917000,16.9849169921875,0.005343770608305931,-4.447518825531006,8.74389362335205
1701911157782907000,17.001906982421875,-0.0844682976603508,-4.233109474182129,8.84928035736084
1701911157799901200,17.018901123046874,-0.18395400047302246,-4.027143955230713,8.943398475646973
1701911157816894000,17.03589404296875,-0.29557910561561584,-3.8140783309936523,9.033358573913574
1701911157833886200,17.05288623046875,-0.4218742847442627,-3.582648754119873,9.122653007507324
1701911157850878200,17.069878173828126,-0.5559082627296448,-3.333075523376465,9.209651947021484
1701911157867870700,17.08687060546875,-0.6827384829521179,-3.078644037246704,9.289345741271973
1701911157884863000,17.103863037109374,-0.7875749468803406,-2.836869239807129,9.35777759552002
1701911157901856000,17.12085595703125,-0.8605733513832092,-2.6182615756988525,9.414894104003906
1701911157918847000,17.137846923828125,-0.9010162353515625,-2.4150278568267822,9.465301513671875
1701911157935829000,17.1548291015625,-0.9119083881378174,-2.2176191806793213,9.512451171875
1701911157952823600,17.171823486328126,-0.9158921241760254,-2.0351572036743164,9.55276870727539
1701911157969824000,17.188823974609374,-0.925399124622345,-1.8888518810272217,9.581857681274414
1701911157986813400,17.2058134765625,-0.9471367001533508,-1.789623498916626,9.59876537322998
1701911158003808800,17.222808837890625,-0.9854879975318909,-1.7331597805023193,9.605263710021973
1701911158020801000,17.239801025390626,-1.028092622756958,-1.7112408876419067,9.604730606079102
1701911158037793300,17.256793212890624,-1.0716484785079956,-1.7181673049926758,9.598729133605957
1701911158054790700,17.273790771484375,-1.1181782484054565,-1.7530900239944458,9.58709716796875
1701911158071778600,17.290778564453124,-1.1748214960098267,-1.810116171836853,9.56971263885498
1701911158088769800,17.307769775390625,-1.2372949123382568,-1.8906372785568237,9.546242713928223
1701911158105762300,17.32476220703125,-1.2809501886367798,-2.0080761909484863,9.516456604003906
1701911158122754800,17.3417548828125,-1.3024024963378906,-2.1628010272979736,9.47956657409668
1701911158139746800,17.358746826171874,-1.3131922483444214,-2.331958770751953,9.437881469726562
1701911158156739000,17.375739013671875,-1.3307865858078003,-2.481940507888794,9.397080421447754
1701911158173729300,17.392729248046876,-1.347410798072815,-2.5888640880584717,9.365809440612793
1701911158190726000,17.409725830078123,-1.3277887105941772,-2.660285711288452,9.34858226776123
1701911158207715600,17.426715576171876,-1.2309582233428955,-2.7535781860351562,9.334810256958008
1701911158224708000,17.4437080078125,-1.0630531311035156,-2.9143779277801514,9.30657958984375
1701911158241700400,17.460700439453124,-0.8647915124893188,-3.136815071105957,9.254654884338379
1701911158258692900,17.47769287109375,-0.6788974404335022,-3.3696656227111816,9.188068389892578
1701911158275670000,17.494669921875,-0.530773401260376,-3.563399314880371,9.124504089355469
1701911158292675800,17.51167578125,-0.43210282921791077,-3.7138357162475586,9.06955623626709
1701911158309658600,17.52865869140625,-0.3709210753440857,-3.8486742973327637,9.015888214111328
1701911158326652400,17.54565234375,-0.318419486284256,-4.004924774169922,8.949599266052246
1701911158343643100,17.56264306640625,-0.2518945634365082,-4.209124565124512,8.857535362243652
1701911158360636400,17.579636474609377,-0.1716795265674591,-4.461419105529785,8.735123634338379
1701911158377629400,17.59662939453125,-0.09146682918071747,-4.74414587020874,8.586082458496094
1701911158394621200,17.61362109375,-0.006222022231668234,-5.029444217681885,8.42263412475586
1701911158411612700,17.63061279296875,0.08564621955156326,-5.298369884490967,8.255667686462402
1701911158428605000,17.64760498046875,0.1788330078125,-5.555060863494873,8.08365249633789
1701911158445600800,17.664600830078125,0.2600245177745819,-5.798690319061279,7.9084577560424805
1701911158462592800,17.6815927734375,0.3234109878540039,-6.027259349822998,7.7332844734191895
1701911158479582500,17.69858251953125,0.3715692162513733,-6.2344279289245605,7.5650482177734375
1701911158496575000,17.715574951171874,0.40600231289863586,-6.412475109100342,7.412924766540527
1701911158513564400,17.732564453125,0.42772531509399414,-6.564763069152832,7.27716064453125
1701911158530560800,17.749560791015625,0.43972116708755493,-6.699512481689453,7.152571678161621
1701911158547562500,17.7665625,0.44961580634117126,-6.820670127868652,7.036506652832031
1701911158564553700,17.7835537109375,0.44804203510284424,-6.919629096984863,6.9393157958984375
1701911158581546200,17.800546142578124,0.4268941283226013,-6.992531776428223,6.867197036743164
1701911158598549000,17.817549072265624,0.39900991320610046,-7.038373947143555,6.821893215179443
1701911158615530000,17.834530029296875,0.3795211613178253,-7.063491344451904,6.7969970703125
1701911158632511500,17.851511474609374,0.3857955038547516,-7.077057361602783,6.782517910003662
1701911158649514500,17.868514404296874,0.4275282621383667,-7.077195167541504,6.779871463775635
1701911158666507000,17.885507080078124,0.4814571142196655,-7.058207035064697,6.796031951904297
1701911158683499300,17.902499267578126,0.5271133780479431,-7.018913269042969,6.833237171173096
1701911158700488400,17.919488525390626,0.5546861886978149,-6.962344646453857,6.888700008392334
1701911158717483800,17.93648388671875,0.577152669429779,-6.89321756362915,6.956045150756836
1701911158734465300,17.95346533203125,0.6158512830734253,-6.81080436706543,7.033476829528809
1701911158751457500,17.97045751953125,0.6754104495048523,-6.708256244659424,7.125954627990723
1701911158768464400,17.98746435546875,0.7288689017295837,-6.5714192390441895,7.247158527374268
1701911158785452800,18.004452880859375,0.7366930842399597,-6.385819435119629,7.410445690155029
1701911158802444800,18.02144482421875,0.684425950050354,-6.149753093719482,7.61237096786499
1701911158819426600,18.038426513671876,0.5870180726051331,-5.868902206420898,7.83884859085083
1701911158836429600,18.0554296875,0.46876779198646545,-5.544619083404541,8.079205513000488
1701911158853421800,18.072421875,0.35746660828590393,-5.186367034912109,8.319250106811523
1701911158870411300,18.089411376953127,0.27018114924430847,-4.807535171508789,8.54697322845459
1701911158887405600,18.106405517578125,0.2070271074771881,-4.424052715301514,8.753344535827637
1701911158904398600,18.123398681640627,0.16365304589271545,-4.053280353546143,8.931979179382324
1701911158921390800,18.140390869140624,0.12628817558288574,-3.699467420578003,9.08482837677002
1701911158938383000,18.157383056640626,0.08113362640142441,-3.3569445610046387,9.217400550842285
1701911158955375400,18.174375244140624,0.022328179329633713,-3.0211079120635986,9.333194732666016
1701911158972367600,18.19136767578125,-0.03789346665143967,-2.693351984024048,9.432950019836426
1701911158989357300,18.208357421875,-0.082491934299469,-2.3833556175231934,9.515719413757324
1701911159006354400,18.2253544921875,-0.10765952616930008,-2.1005077362060547,9.581879615783691
1701911159023339500,18.242339599609377,-0.1274874359369278,-1.8530874252319336,9.632545471191406
1701911159040336600,18.259336669921876,-0.17436690628528595,-1.6396900415420532,9.670424461364746
1701911159057329000,18.276328857421873,-0.26600679755210876,-1.4596703052520752,9.697150230407715
1701911159074303500,18.293303466796875,-0.39057356119155884,-1.3137235641479492,9.713789939880371
1701911159091316000,18.31031591796875,-0.5286391973495483,-1.1989879608154297,9.72209358215332
1701911159108305700,18.3273056640625,-0.6641975045204163,-1.113318920135498,9.723966598510742
1701911159125298000,18.3442978515625,-0.7871288061141968,-1.057435393333435,9.721027374267578
1701911159142290200,18.361290283203125,-0.8943352103233337,-1.0397822856903076,9.713656425476074
1701911159159282400,18.378282470703127,-0.9864639043807983,-1.067252516746521,9.701752662658691
1701911159176274700,18.395274658203125,-1.0732108354568481,-1.1423383951187134,9.683975219726562
1701911159193267200,18.41226708984375,-1.1588252782821655,-1.263196587562561,9.659067153930664
1701911159210253600,18.429253662109375,-1.2314453125,-1.4301989078521729,9.626745223999023
1701911159227251700,18.446251708984374,-1.269425868988037,-1.655497670173645,9.585614204406738
1701911159244246300,18.463246337890624,-1.2543166875839233,-1.933622121810913,9.535401344299316
1701911159261238500,18.480238525390625,-1.226682186126709,-2.243230104446411,9.47097110748291
1701911159278228500,18.497228515625,-1.248856544494629,-2.5730643272399902,9.383807182312012
1701911159295220500,18.514220458984376,-1.3243101835250854,-2.930267333984375,9.2680025100708
1701911159312212700,18.531212646484374,-1.3837997913360596,-3.310918092727661,9.130117416381836
1701911159329205000,18.548205078125,-1.3645267486572266,-3.7097625732421875,8.978409767150879
1701911159346195200,18.5651953125,-1.2474000453948975,-4.10870361328125,8.820354461669922
1701911159363186000,18.58218603515625,-1.06940495967865,-4.470061302185059,8.666664123535156
1701911159380171000,18.5991708984375,-0.8812339305877686,-4.766790866851807,8.52861213684082
1701911159397170700,18.616170654296877,-0.7138392329216003,-4.994455814361572,8.413201332092285
1701911159414169900,18.633169921875,-0.5819739699363708,-5.183848857879639,8.308135986328125
1701911159431158800,18.65015869140625,-0.4943832755088806,-5.366729736328125,8.196946144104004
1701911159448150800,18.66715087890625,-0.4488603472709656,-5.562838077545166,8.067804336547852
1701911159465143300,18.684143310546876,-0.433621346950531,-5.7716851234436035,7.920589447021484
1701911159482135600,18.701135498046874,-0.429739385843277,-5.9806809425354,7.764204502105713
1701911159499127800,18.7181279296875,-0.41990378499031067,-6.1730241775512695,7.612725257873535
1701911159516110000,18.735110107421875,-0.3972697854042053,-6.337987422943115,7.477178573608398
1701911159533112000,18.752112060546875,-0.36089950799942017,-6.478280544281006,7.357834815979004
1701911159550107600,18.769107666015625,-0.31639111042022705,-6.596426486968994,7.254182815551758
1701911159567093800,18.78609375,-0.2727401554584503,-6.694947242736816,7.1651530265808105
1701911159584088300,18.80308837890625,-0.2317906618118286,-6.774955749511719,7.091003894805908
1701911159601079300,18.820079345703125,-0.19337765872478485,-6.8382697105407715,7.031129837036133
1701911159618076200,18.837076171875,-0.15322308242321014,-6.886266708374023,6.985124111175537
1701911159635065600,18.854065673828124,-0.10336445271968842,-6.9233784675598145,6.949263095855713
1701911159652057300,18.871057373046874,-0.04887863248586655,-6.950213432312012,6.923023700714111
1701911159669051000,18.88805078125,0.005265417974442244,-6.962724208831787,6.910612106323242
1701911159686032000,18.905031982421875,0.04848482087254524,-6.966755390167236,6.9063825607299805
1701911159703035000,18.922034912109375,0.07630002498626709,-6.9702911376953125,6.902561664581299
1701911159720023800,18.93902392578125,0.09230648726224899,-6.9736504554748535,6.8989715576171875
1701911159737019400,18.956019287109374,0.09793443232774734,-6.972043514251709,6.900516986846924
1701911159754011600,18.97301171875,0.09128585457801819,-6.957840919494629,6.914928436279297
1701911159770994000,18.989993896484375,0.07739988714456558,-6.926910400390625,6.94608211517334
1701911159787996000,19.006995849609375,0.07106676697731018,-6.887416362762451,6.985309600830078
1701911159804988200,19.02398828125,0.0738447830080986,-6.844659805297852,7.027183532714844
1701911159821980700,19.040980712890626,0.08389877527952194,-6.80050802230835,7.06980562210083
1701911159838973000,19.057972900390624,0.1002320945262909,-6.760576248168945,7.107789516448975
1701911159855965200,19.074965087890625,0.11887243390083313,-6.728212356567383,7.138147354125977
1701911159872957400,19.09195751953125,0.14942267537117004,-6.695962905883789,7.167836666107178
1701911159889947000,19.10894677734375,0.1969529390335083,-6.64396858215332,7.214914798736572
1701911159906941400,19.12594140625,0.248137429356575,-6.546372413635254,7.302024841308594
1701911159923923500,19.14292333984375,0.286655068397522,-6.392823219299316,7.4354400634765625
1701911159940925700,19.15992578125,0.3087221682071686,-6.198058605194092,7.597688674926758
1701911159957919500,19.17691943359375,0.316407173871994,-5.986924648284912,7.764840602874756
1701911159974899700,19.193899658203126,0.3163864314556122,-5.780066013336182,7.920028209686279
1701911159991903000,19.210903076171874,0.30840498208999634,-5.581054210662842,8.061813354492188
1701911160008898000,19.22789794921875,0.28359875082969666,-5.375574588775635,8.201151847839355
1701911160025877200,19.244877197265627,0.23824715614318848,-5.157090187072754,8.341691017150879
1701911160042879700,19.261879638671875,0.17744077742099762,-4.93182373046875,8.478310585021973
1701911160059871000,19.27887109375,0.11258287727832794,-4.708475112915039,8.605446815490723
1701911160076865500,19.295865478515626,0.05095497891306877,-4.487765312194824,8.723158836364746
1701911160093856000,19.31285595703125,-0.009100021794438362,-4.269985675811768,8.831944465637207
1701911160110850000,19.32985009765625,-0.07091561704874039,-4.059302806854248,8.930460929870605
1701911160127841300,19.34684130859375,-0.1368388831615448,-3.862464666366577,9.016583442687988
1701911160144833500,19.36383349609375,-0.2151886522769928,-3.6845407485961914,9.089221954345703
1701911160161825500,19.380825439453126,-0.3108280599117279,-3.5276803970336914,9.148496627807617
1701911160178807300,19.397807373046874,-0.42821383476257324,-3.389068841934204,9.196028709411621
1701911160195800000,19.414800048828123,-0.56341552734375,-3.2640836238861084,9.23387336730957
1701911160212802800,19.431802734375,-0.7043187618255615,-3.1516690254211426,9.263209342956543
1701911160229790000,19.4487900390625,-0.8441812992095947,-3.0560452938079834,9.283536911010742
1701911160246788900,19.465788818359375,-0.9815949201583862,-2.9807159900665283,9.294510841369629
1701911160263779300,19.482779296875,-1.1239529848098755,-2.925793170928955,9.295839309692383
1701911160280771800,19.499771728515626,-1.2832961082458496,-2.892049551010132,9.285760879516602
1701911160297758000,19.516758056640626,-1.4535307884216309,-2.8852012157440186,9.262775421142578
1701911160314760200,19.53376025390625,-1.6172492504119873,-2.922919511795044,9.223729133605957
1701911160331748400,19.550748291015626,-1.7578327655792236,-3.004173994064331,9.17175579071045
1701911160348740900,19.567740966796876,-1.8674557209014893,-3.1138916015625,9.113308906555176
1701911160365733000,19.584733154296874,-1.9509966373443604,-3.223062038421631,9.057682037353516
1701911160382725400,19.601725341796875,-2.016298294067383,-3.3007287979125977,9.015312194824219
1701911160399717600,19.618717529296877,-2.066033124923706,-3.3391730785369873,8.989859580993652
1701911160416706600,19.63570654296875,-2.079237222671509,-3.367622137069702,8.976191520690918
1701911160433702000,19.652701904296876,-2.016425371170044,-3.4219024181365967,8.969991683959961
1701911160450681000,19.66968115234375,-1.8665581941604614,-3.5106704235076904,8.96812629699707
1701911160467689000,19.68668896484375,-1.6615173816680908,-3.6016271114349365,8.972390174865723
1701911160484678000,19.703677978515625,-1.4444588422775269,-3.66115403175354,8.985856056213379
1701911160501653000,19.720653076171875,-1.2514691352844238,-3.68911075592041,9.003355026245117
1701911160518663400,19.737663330078124,-1.104232668876648,-3.7121143341064453,9.01315689086914
1701911160535657200,19.7546572265625,-1.003772258758545,-3.761969804763794,9.004228591918945
1701911160552647700,19.771647705078124,-0.9414777755737305,-3.864351272583008,8.967525482177734
1701911160569640000,19.788639892578125,-0.9115283489227295,-4.0248823165893555,8.899750709533691
1701911160586632400,19.805632568359375,-0.9002349972724915,-4.228068828582764,8.806199073791504
1701911160603624400,19.82262451171875,-0.8875945210456848,-4.44370698928833,8.700676918029785
1701911160620614000,19.83961376953125,-0.8555266261100769,-4.64822244644165,8.596406936645508
1701911160637609000,19.85660888671875,-0.8095107674598694,-4.840367317199707,8.494213104248047
1701911160654601500,19.8736015625,-0.7588095664978027,-5.029955863952637,8.388078689575195
1701911160671591200,19.890591064453126,-0.7152647972106934,-5.229214191436768,8.269209861755371
1701911160688585700,19.907585693359376,-0.6865894198417664,-5.4470696449279785,8.129830360412598
1701911160705580500,19.92458056640625,-0.6673070788383484,-5.680306911468506,7.970251560211182
1701911160722578400,19.941578369140625,-0.6411881446838379,-5.905376434326172,7.807146072387695
1701911160739557000,19.95855712890625,-0.6006596684455872,-6.103869438171387,7.656245708465576
1701911160765040600,19.98404052734375,-0.5035905838012695,-6.350670337677002,7.459993362426758
1701911160782036000,20.001035888671876,-0.4173666834831238,-6.487633228302002,7.346599578857422
1701911160799028000,20.018028076171873,-0.314750075340271,-6.613919258117676,7.238308906555176
1701911160816019000,20.03501904296875,-0.19902753829956055,-6.738255500793457,7.1268792152404785
1701911160833010000,20.052010009765624,-0.07748262584209442,-6.854238510131836,7.017799377441406
1701911160850006800,20.0690068359375,0.05381631478667259,-6.95295524597168,6.920234203338623
1701911160867004000,20.08600390625,0.19677957892417908,-7.030194282531738,6.839134693145752
1701911160883995400,20.102995361328126,0.344597190618515,-7.086185455322266,6.775199890136719
1701911160900991500,20.119991455078125,0.4800020456314087,-7.120826721191406,6.730494499206543
1701911160917982700,20.136982666015626,0.5907313823699951,-7.136992454528809,6.704513072967529
1701911160934973000,20.153972900390624,0.663729727268219,-7.1351423263549805,6.699650287628174
1701911160951954700,20.17095458984375,0.70304936170578,-7.114631175994873,6.717428207397461
1701911160968960500,20.18796044921875,0.7337308526039124,-7.0746846199035645,6.756228923797607
1701911160985951200,20.204951171875,0.7714483141899109,-7.0023603439331055,6.827001094818115
1701911161002943000,20.22194287109375,0.8019699454307556,-6.878982067108154,6.947847366333008
1701911161019936000,20.23893603515625,0.8035790920257568,-6.689528465270996,7.130258560180664
1701911161036927200,20.25592724609375,0.7599565386772156,-6.4307146072387695,7.3691582679748535
1701911161053920000,20.272919921875,0.6661806106567383,-6.12291955947876,7.635585784912109
1701911161070912800,20.289912841796873,0.5342609882354736,-5.787491321563721,7.902886867523193
1701911161087905000,20.306905029296875,0.3790457844734192,-5.4351887702941895,8.157890319824219
1701911161104896000,20.32389599609375,0.2129778265953064,-5.072144031524658,8.394289016723633
1701911161121888500,20.340888427734374,0.05300208926200867,-4.703450679779053,8.608765602111816
1701911161138881500,20.357881591796875,-0.09589843451976776,-4.333340644836426,8.800515174865723
1701911161155863800,20.37486376953125,-0.23492826521396637,-3.9706382751464844,8.967438697814941
1701911161172854800,20.391854736328124,-0.36471834778785706,-3.6234378814697266,9.10899543762207
1701911161189855700,20.408855712890624,-0.489752858877182,-3.2941854000091553,9.227384567260742
1701911161206849800,20.425849853515626,-0.6137226223945618,-2.986541509628296,9.324164390563965
1701911161223843300,20.44284326171875,-0.7328128814697266,-2.700753688812256,9.402393341064453
1701911161240834000,20.459833984375,-0.8433257937431335,-2.4401557445526123,9.464174270629883
1701911161257824500,20.476824462890626,-0.9453854560852051,-2.2064788341522217,9.511771202087402
1701911161274818800,20.49381884765625,-1.040495753288269,-2.003080368041992,9.546789169311523
1701911161291809500,20.5108095703125,-1.1329401731491089,-1.8287665843963623,9.571216583251953
1701911161308806000,20.527805908203124,-1.2326463460922241,-1.6827678680419922,9.585665702819824
1701911161325796600,20.544796630859373,-1.3389346599578857,-1.5623860359191895,9.591784477233887
1701911161342787800,20.561787841796875,-1.4415656328201294,-1.4723260402679443,9.591154098510742
1701911161359778600,20.578778564453124,-1.5263162851333618,-1.4295872449874878,9.584506034851074
1701911161376769000,20.59576904296875,-1.5925120115280151,-1.4396830797195435,9.57221794128418
1701911161393765000,20.61276513671875,-1.6571489572525024,-1.493406891822815,9.552995681762695
1701911161410757400,20.62975732421875,-1.7359015941619873,-1.5847283601760864,9.52425479888916
1701911161427760000,20.646760009765625,-1.8248370885849,-1.719874382019043,9.484097480773926
1701911161444731000,20.66373095703125,-1.9069244861602783,-1.9105414152145386,9.431309700012207
1701911161461735400,20.6807353515625,-1.9624145030975342,-2.161925792694092,9.3654203414917
1701911161478726100,20.69772607421875,-1.996241807937622,-2.4405031204223633,9.289515495300293
1701911161495714800,20.71471484375,-2.029788017272949,-2.6991183757781982,9.210366249084473
1701911161512710700,20.731710693359375,-2.0618605613708496,-2.930046319961548,9.132342338562012
1701911161529704000,20.748703857421877,-2.0523791313171387,-3.156505584716797,9.058717727661133
1701911161546692600,20.765692626953125,-1.9540371894836426,-3.415712356567383,8.98614501953125
1701911161563691000,20.78269091796875,-1.7485251426696777,-3.7332653999328613,8.901772499084473
1701911161580676000,20.799676025390625,-1.4848648309707642,-4.103769302368164,8.785805702209473
1701911161597669400,20.81666943359375,-1.2234866619110107,-4.487311363220215,8.637316703796387
1701911161614669600,20.833669677734374,-1.006243348121643,-4.839650630950928,8.473569869995117
1701911161631656000,20.850656005859374,-0.8501904606819153,-5.127655029296875,8.319883346557617
1701911161648648400,20.8676484375,-0.7515566945075989,-5.353837013244629,8.185824394226074
1701911161665641700,20.884641845703126,-0.6824461221694946,-5.5492401123046875,8.060789108276367
1701911161682633200,20.90163330078125,-0.6224402189254761,-5.7380690574646,7.9324188232421875
1701911161699623700,20.918623779296876,-0.5521947145462036,-5.934703826904297,7.791694164276123
1701911161716617500,20.935617431640626,-0.4617476165294647,-6.144085884094238,7.633684158325195
1701911161733611000,20.952611083984376,-0.34727609157562256,-6.35566520690918,7.464654445648193
1701911161750602000,20.96960205078125,-0.20684175193309784,-6.54252290725708,7.306759357452393
1701911161767592700,20.9865927734375,-0.04878273606300354,-6.6948957443237305,7.170225143432617
1701911161784586500,21.00358642578125,0.10723238438367844,-6.819586277008057,7.051091194152832
1701911161801567200,21.020567138671876,0.23004817962646484,-6.927860736846924,6.941753387451172
1701911161818563000,21.03756298828125,0.3089545965194702,-7.034327983856201,6.830732822418213
1701911161835554800,21.054554931640624,0.3457221984863281,-7.137275218963623,6.721302032470703
1701911161852547800,21.0715478515625,0.3532922863960266,-7.226779460906982,6.62457275390625
1701911161869538300,21.088538330078126,0.34794560074806213,-7.2874555587768555,6.5580525398254395
1701911161886534700,21.10553466796875,0.3369864523410797,-7.316587924957275,6.526107311248779
1701911161903524400,21.1225244140625,0.32944735884666443,-7.332405090332031,6.508719444274902
1701911161920516600,21.1395166015625,0.33874911069869995,-7.346569538116455,6.492246627807617
1701911161937512200,21.15651220703125,0.3610302209854126,-7.354526042938232,6.482031345367432
1701911161954499300,21.173499267578126,0.38438019156455994,-7.354454517364502,6.48076868057251
1701911161971493400,21.190493408203125,0.40464311838150024,-7.358736991882324,6.474671363830566
1701911161988488700,21.20748876953125,0.41923925280570984,-7.375600337982178,6.454524040222168
1701911162005482800,21.224482666015625,0.4305237829685211,-7.414451599121094,6.4091081619262695
1701911162022471400,21.241471435546874,0.4393475353717804,-7.47930383682251,6.332699775695801
1701911162039464200,21.258464111328124,0.4279998242855072,-7.554750919342041,6.243290424346924
1701911162056454400,21.275454345703125,0.394442081451416,-7.615514755249023,6.171261787414551
1701911162073456400,21.292456298828125,0.35330134630203247,-7.650175094604492,6.130752086639404
1701911162090444500,21.309444580078125,0.3383432924747467,-7.661286354064941,6.117706775665283
1701911162107441000,21.32644091796875,0.37275269627571106,-7.655188083648682,6.1233391761779785
1701911162124437500,21.3434375,0.455365389585495,-7.635576248168945,6.142210960388184
1701911162141414400,21.360414306640624,0.5631573796272278,-7.593710899353027,6.1850266456604
1701911162158416600,21.377416748046876,0.6642083525657654,-7.517986297607422,6.266961574554443
1701911162175410200,21.39441015625,0.7219498753547668,-7.400003910064697,6.39959716796875
1701911162192401000,21.41140087890625,0.7184152603149414,-7.241280555725098,6.57904577255249
1701911162209402600,21.428402587890623,0.6671538949012756,-7.06187105178833,6.776503562927246
1701911162226385400,21.445385498046875,0.5940327048301697,-6.878388404846191,6.969292163848877
1701911162243381200,21.46238134765625,0.5230621099472046,-6.692640781402588,7.153397560119629
1701911162260367600,21.47936767578125,0.46008554100990295,-6.4989013671875,7.334079265594482
1701911162277360400,21.4963603515625,0.39401084184646606,-6.28737211227417,7.519962787628174
1701911162294344200,21.51334423828125,0.3154730796813965,-6.056959629058838,7.710373401641846
1701911162311348000,21.530347900390623,0.22772274911403656,-5.814759254455566,7.897647380828857
1701911162328339000,21.5473388671875,0.13138753175735474,-5.569713115692139,8.074477195739746
1701911162345332500,21.56433251953125,0.027280185371637344,-5.321732044219971,8.241028785705566
1701911162362323700,21.58132373046875,-0.08212181180715561,-5.072803020477295,8.39619255065918
1701911162379317000,21.59831689453125,-0.1966974139213562,-4.833027362823486,8.534594535827637
1701911162396308000,21.615307861328127,-0.3178786337375641,-4.615005016326904,8.650826454162598
1701911162413299700,21.6322998046875,-0.45068877935409546,-4.424191474914551,8.74411392211914
1701911162430292000,21.6492919921875,-0.6008739471435547,-4.254647254943848,8.818902969360352
1701911162447286000,21.6662861328125,-0.7709442973136902,-4.094535827636719,8.881248474121094
