time,seconds_elapsed,z,y,x
1702071393382879000,0.11787890625,7.628071308135986,5.267670154571533,3.2094051837921143
1702071393399859500,0.134859375,7.5013957023620605,5.360727310180664,3.3507862091064453
1702071393416843500,0.151843505859375,7.365396499633789,5.4365553855896,3.525750160217285
1702071393433845500,0.168845458984375,7.200077056884766,5.498395919799805,3.7633278369903564
1702071393450831400,0.185831298828125,6.9868316650390625,5.559389114379883,4.063678741455078
1702071393467823900,0.202823974609375,6.737597942352295,5.641158103942871,4.360988616943359
1702071393484815600,0.219815673828125,6.459017276763916,5.746946811676025,4.6357102394104
1702071393501801700,0.2368017578125,6.166382312774658,5.852394104003906,4.895030498504639
1702071393518784800,0.25378466796875,5.899525165557861,5.947032928466797,5.10534143447876
1702071393535782700,0.27078271484375,5.704330921173096,6.0003581047058105,5.262359142303467
1702071393552777500,0.287777587890625,5.599165916442871,5.983921051025391,5.392414569854736
1702071393569755000,0.3047548828125,5.581018924713135,5.890483379364014,5.512762069702148
1702071393586754600,0.321754638671875,5.60461950302124,5.742179870605469,5.643733501434326
1702071393603738600,0.338738525390625,5.62512731552124,5.581081390380859,5.783215045928955
1702071393620732000,0.35573193359375,5.639441967010498,5.432073593139648,5.9097700119018555
1702071393637725700,0.3727255859375,5.677204608917236,5.292222023010254,5.999819278717041
1702071393654712800,0.389712890625,5.754765510559082,5.150876998901367,6.048740386962891
1702071393671702800,0.406702880859375,5.8507981300354,5.013604640960693,6.071907043457031
1702071393688696300,0.4236962890625,5.947310924530029,4.880751609802246,6.086368083953857
1702071393705684200,0.440684326171875,6.025081157684326,4.753921985626221,6.11021614074707
1702071393722677000,0.457677001953125,6.06754207611084,4.66017484664917,6.14034366607666
1702071393739664400,0.474664306640625,6.08967399597168,4.603872299194336,6.160872459411621
1702071393756652500,0.491652587890625,6.100393295288086,4.5744242668151855,6.172191143035889
1702071393773645800,0.508645751953125,6.101752281188965,4.566193580627441,6.176941394805908
1702071393790625300,0.525625244140625,6.086127281188965,4.5719099044799805,6.188117504119873
1702071393807626000,0.5426259765625,6.038444995880127,4.5765886306762695,6.231222629547119
1702071393824617000,0.559616943359375,5.934215545654297,4.57821798324585,6.329385280609131
1702071393841600500,0.5766005859375,5.752048015594482,4.581476211547852,6.4930830001831055
1702071393858592800,0.5935927734375,5.490274906158447,4.586042404174805,6.712764739990234
1702071393875585800,0.610585693359375,5.1962785720825195,4.586313724517822,6.942660808563232
1702071393892571000,0.62757080078125,4.913337707519531,4.560328960418701,7.16230583190918
1702071393909569300,0.6445693359375,4.658812046051025,4.4854888916015625,7.376447677612305
1702071393926556000,0.661555908203125,4.413711071014404,4.347681999206543,7.606110572814941
1702071393943547400,0.67854736328125,4.127255439758301,4.144336700439453,7.875681400299072
1702071393960526300,0.6955263671875,3.758561134338379,3.8825507164001465,8.187498092651367
1702071393977523500,0.7125234375,3.2896909713745117,3.5637617111206055,8.527230262756348
1702071393994517800,0.729517822265625,2.732992172241211,3.194565534591675,8.863499641418457
1702071394011506200,0.746506103515625,2.15622878074646,2.777766704559326,9.158101081848145
1702071394028481000,0.76348095703125,1.605946660041809,2.2841415405273438,9.404240608215332
1702071394045489400,0.780489501953125,1.1289371252059937,1.6896559000015259,9.597222328186035
1702071394062474200,0.79747412109375,0.7675973773002625,1.0009812116622925,9.728564262390137
1702071394079461600,0.814461669921875,0.5333602428436279,0.23816879093647003,9.792595863342285
1702071394096456400,0.83145654296875,0.389605849981308,-0.5738767385482788,9.785447120666504
1702071394113448200,0.8484482421875,0.25661149621009827,-1.3887810707092285,9.707809448242188
1702071394130434300,0.865434326171875,0.12632091343402863,-2.196913242340088,9.560007095336914
1702071394147426600,0.882426513671875,0.06321015954017639,-3.011885643005371,9.33598804473877
1702071394164417500,0.89941748046875,0.07883508503437042,-3.8095622062683105,9.039753913879395
1702071394181404200,0.916404052734375,0.11618242412805557,-4.534273147583008,8.698448181152344
1702071394198396000,0.93339599609375,0.13656406104564667,-5.162641525268555,8.340540885925293
1702071394215391000,0.950390869140625,0.12349846214056015,-5.6963210105896,7.985786437988281
1702071394232372200,0.967372314453125,0.08058574795722961,-6.1616997718811035,7.633027076721191
1702071394249357000,0.984357177734375,0.013904094696044922,-6.585677146911621,7.270816326141357
1702071394266357000,1.00135693359375,-0.06876501441001892,-6.980837821960449,6.891971111297607
1702071394283348700,1.0183486328125,-0.15734273195266724,-7.341329097747803,6.5050950050354
1702071394300327700,1.03532763671875,-0.2342415153980255,-7.648834228515625,6.138124465942383
1702071394317327400,1.052327392578125,-0.2898157835006714,-7.895446300506592,5.814984321594238
1702071394334319000,1.069319091796875,-0.3338046967983246,-8.090994834899902,5.53719425201416
1702071394351305000,1.086304931640625,-0.3786759376525879,-8.25241756439209,5.29058837890625
1702071394368297500,1.10329736328125,-0.43270421028137207,-8.391653060913086,5.062513828277588
1702071394385289200,1.120289306640625,-0.4951634407043457,-8.509586334228516,4.855703830718994
1702071394402275300,1.137275390625,-0.5623152256011963,-8.606008529663086,4.675097465515137
1702071394419266600,1.1542666015625,-0.6240642666816711,-8.682543754577637,4.523285388946533
1702071394436259600,1.171259521484375,-0.6658075451850891,-8.744598388671875,4.396001815795898
1702071394453249300,1.188249267578125,-0.6795700192451477,-8.795906066894531,4.290262699127197
1702071394470235600,1.205235595703125,-0.6557822227478027,-8.843111038208008,4.195885181427002
1702071394487227600,1.2222275390625,-0.5971699953079224,-8.885313034057617,4.114695072174072
1702071394504212500,1.23921240234375,-0.517299234867096,-8.9141845703125,4.062736988067627
1702071394521205800,1.256205810546875,-0.445206880569458,-8.921331405639648,4.055582046508789
1702071394538198000,1.273197998046875,-0.4004053473472595,-8.895456314086914,4.116630554199219
1702071394555190000,1.29018994140625,-0.38150539994239807,-8.829658508300781,4.257667064666748
1702071394572176000,1.30717578125,-0.377619206905365,-8.717615127563477,4.482937812805176
1702071394589169200,1.324169189453125,-0.3909531831741333,-8.54621696472168,4.800566673278809
1702071394606158600,1.34115869140625,-0.4425952136516571,-8.309442520141602,5.1955180168151855
1702071394623151000,1.358151123046875,-0.5220847725868225,-8.023907661437988,5.619647026062012
1702071394640140300,1.375140380859375,-0.5865973830223083,-7.721587657928467,6.022383689880371
1702071394657128700,1.392128662109375,-0.6096760630607605,-7.415120601654053,6.393779754638672
1702071394674120400,1.409120361328125,-0.5957891941070557,-7.086223602294922,6.757707595825195
1702071394691103700,1.426103759765625,-0.5611429810523987,-6.706465244293213,7.137543678283691
1702071394708101400,1.443101318359375,-0.5305044651031494,-6.251715660095215,7.541268348693848
1702071394725090800,1.4600908203125,-0.5381970405578613,-5.7131147384643555,7.95655632019043
1702071394742076400,1.477076416015625,-0.5931246280670166,-5.112303733825684,8.351567268371582
1702071394759070000,1.494070068359375,-0.6818122863769531,-4.485464572906494,8.697808265686035
1702071394776058400,1.511058349609375,-0.7936782836914062,-3.855576992034912,8.98558521270752
1702071394793051600,1.5280517578125,-0.9231250882148743,-3.2340447902679443,9.215470314025879
1702071394810037000,1.545037109375,-1.0554581880569458,-2.638714551925659,9.38931941986084
1702071394827029500,1.562029541015625,-1.171463966369629,-2.0937161445617676,9.512104988098145
1702071394844021200,1.579021240234375,-1.266303539276123,-1.6136378049850464,9.59316349029541
1702071394861007000,1.596007080078125,-1.3453017473220825,-1.1995601654052734,9.64299488067627
1702071394877999900,1.612999755859375,-1.42219078540802,-0.8476960062980652,9.669278144836426
1702071394894992400,1.629992431640625,-1.507419228553772,-0.5504323244094849,9.67785358428955
1702071394911982000,1.646982177734375,-1.5939960479736328,-0.29120683670043945,9.675251007080078
1702071394928957200,1.663957275390625,-1.6694790124893188,-0.05609409511089325,9.66673755645752
1702071394945960200,1.680960205078125,-1.7392654418945312,0.1619822084903717,9.653229713439941
1702071394962956500,1.69795654296875,-1.8121808767318726,0.36240604519844055,9.634354591369629
1702071394979929900,1.714929931640625,-1.8871287107467651,0.540000319480896,9.611621856689453
1702071394996928800,1.7319287109375,-1.9624080657958984,0.6896259188652039,9.586943626403809
1702071395013923300,1.74892333984375,-2.0341622829437256,0.8098487854003906,9.562553405761719
1702071395030907600,1.76590771484375,-2.091867685317993,0.901796817779541,9.541851997375488
1702071395047893500,1.7828935546875,-2.1277387142181396,0.9606478810310364,9.528168678283691
1702071395064881400,1.79988134765625,-2.1385858058929443,0.9719282984733582,9.524596214294434
1702071395081871400,1.816871337890625,-2.135364055633545,0.9195364117622375,9.530519485473633
1702071395098860500,1.833860595703125,-2.138807535171509,0.7872992753982544,9.541583061218262
1702071395115859200,1.850859130859375,-2.1641786098480225,0.565812885761261,9.551560401916504
1702071395132849700,1.867849609375,-2.211945056915283,0.27043813467025757,9.553548812866211
1702071395149831400,1.88483154296875,-2.273221015930176,-0.07684177160263062,9.54267692565918
1702071395166830300,1.901830322265625,-2.345637559890747,-0.4619204103946686,9.514240264892578
1702071395183819300,1.9188193359375,-2.4200563430786133,-0.874308168888092,9.466522216796875
1702071395200802300,1.93580224609375,-2.4981913566589355,-1.3073261976242065,9.396066665649414
1702071395217801000,1.952801025390625,-2.538661241531372,-1.7811346054077148,9.306926727294922
1702071395234793000,1.96979296875,-2.475504159927368,-2.287567138671875,9.21276569366455
1702071395251778300,1.9867783203125,-2.313932180404663,-2.7765867710113525,9.119893074035645
1702071395268772000,2.003772216796875,-2.1203267574310303,-3.1922056674957275,9.030512809753418
1702071395285761300,2.02076123046875,-1.9542827606201172,-3.518665075302124,8.946277618408203
1702071395302753000,2.0377529296875,-1.8200675249099731,-3.7974822521209717,8.8601713180542
1702071395319740000,2.054739990234375,-1.7009193897247314,-4.084036827087402,8.755776405334473
1702071395336732700,2.071732666015625,-1.5918974876403809,-4.405594348907471,8.619322776794434
1702071395353719800,2.0887197265625,-1.4977474212646484,-4.7604875564575195,8.445746421813965
1702071395370711600,2.105711669921875,-1.415076494216919,-5.130986213684082,8.24055004119873
1702071395387692000,2.122692138671875,-1.3449602127075195,-5.485897541046143,8.020730972290039
1702071395404697300,2.139697265625,-1.2923721075057983,-5.805299758911133,7.801562309265137
1702071395421682200,2.15668212890625,-1.257612705230713,-6.090374946594238,7.5869526863098145
1702071395438684400,2.173684326171875,-1.2354775667190552,-6.357728004455566,7.368105888366699
1702071395455658800,2.19065869140625,-1.2209606170654297,-6.618299961090088,7.137470722198486
1702071395472654000,2.207654052734375,-1.2128695249557495,-6.864957809448242,6.901986598968506
1702071395489641200,2.22464111328125,-1.2040899991989136,-7.0854597091674805,6.677014350891113
1702071395506634500,2.241634521484375,-1.1955782175064087,-7.270489692687988,6.476627826690674
1702071395523624700,2.258624755859375,-1.1892831325531006,-7.422576427459717,6.302943229675293
1702071395540610000,2.275610107421875,-1.1890299320220947,-7.549588203430176,6.150288105010986
1702071395557602300,2.292602294921875,-1.1844182014465332,-7.659861087799072,6.013301849365234
1702071395574591200,2.30959130859375,-1.161981225013733,-7.759739875793457,5.888323783874512
1702071395591582700,2.326582763671875,-1.117161750793457,-7.844245433807373,5.784107685089111
1702071395608573200,2.3435732421875,-1.0662883520126343,-7.895939826965332,5.723048686981201
1702071395625562600,2.360562744140625,-1.014264464378357,-7.9054436683654785,5.719383716583252
1702071395642551000,2.377551025390625,-0.954572319984436,-7.87263298034668,5.774649143218994
1702071395659541000,2.394541015625,-0.8803623914718628,-7.810305118560791,5.870281219482422
1702071395676522200,2.411522216796875,-0.7908140420913696,-7.735124111175537,5.9815192222595215
1702071395693524500,2.4285244140625,-0.6954459547996521,-7.659313201904297,6.089940071105957
1702071395710512000,2.44551220703125,-0.605644702911377,-7.582923412322998,6.194238185882568
1702071395727503000,2.462503173828125,-0.513787567615509,-7.488189220428467,6.316578388214111
1702071395744494800,2.479494873046875,-0.4191173315048218,-7.345836162567139,6.488385200500488
1702071395761473500,2.4964736328125,-0.34508776664733887,-7.127066135406494,6.732158184051514
1702071395778466000,2.513466064453125,-0.3225809633731842,-6.821137428283691,7.043018817901611
1702071395795462100,2.530462158203125,-0.3539430797100067,-6.445380210876465,7.387008190155029
1702071395812443600,2.547443603515625,-0.4160001873970032,-6.033302307128906,7.724137783050537
1702071395829444400,2.5644443359375,-0.4805651307106018,-5.611538410186768,8.032172203063965
1702071395846433300,2.581433349609375,-0.5448874235153198,-5.191554546356201,8.305838584899902
1702071395863406800,2.59840673828125,-0.6227132678031921,-4.776978492736816,8.545689582824707
1702071395880411400,2.615411376953125,-0.7309820652008057,-4.370644569396973,8.752100944519043
1702071395897404200,2.632404052734375,-0.8480895757675171,-3.983931541442871,8.924413681030273
1702071395914375700,2.649375732421875,-0.9332852363586426,-3.633122682571411,9.064521789550781
1702071395931384000,2.666384033203125,-0.9873111844062805,-3.3161461353302,9.179570198059082
1702071395948373500,2.68337353515625,-1.0452295541763306,-3.027233123779297,9.272512435913086
1702071395965365200,2.700365234375,-1.1382125616073608,-2.7592508792877197,9.344898223876953
1702071395982351400,2.717351318359375,-1.2742129564285278,-2.5114333629608154,9.39708423614502
1702071395999342300,2.73434228515625,-1.4435776472091675,-2.285234212875366,9.430265426635742
1702071396016336600,2.751336669921875,-1.634871006011963,-2.0753939151763916,9.44754409790039
1702071396033326000,2.768326171875,-1.8265901803970337,-1.8740990161895752,9.454493522644043
1702071396050312000,2.78531201171875,-1.9936327934265137,-1.670969843864441,9.458828926086426
1702071396067295200,2.802295166015625,-2.127919912338257,-1.4667034149169922,9.463449478149414
1702071396084296200,2.819296142578125,-2.2192680835723877,-1.2790281772613525,9.469690322875977
1702071396101282000,2.836281982421875,-2.270583391189575,-1.1245412826538086,9.477129936218262
1702071396118267400,2.853267333984375,-2.3014278411865234,-1.015028476715088,9.482048988342285
1702071396135265500,2.870265625,-2.342116355895996,-0.9515863060951233,9.478665351867676
1702071396152253000,2.8872529296875,-2.405550003051758,-0.9383783340454102,9.464083671569824
1702071396169245700,2.90424560546875,-2.475287914276123,-0.9875466823577881,9.441070556640625
1702071396186235100,2.921235107421875,-2.5216195583343506,-1.1095689535140991,9.415224075317383
1702071396203226400,2.938226318359375,-2.5428214073181152,-1.2959928512573242,9.385660171508789
1702071396220205600,2.95520556640625,-2.5669944286346436,-1.5112954378128052,9.34679889678955
1702071396237205000,2.972205078125,-2.60170578956604,-1.7354786396026611,9.298137664794922
1702071396254195000,2.98919482421875,-2.6168787479400635,-1.971070408821106,9.246782302856445
1702071396271187500,3.0061875,-2.564105272293091,-2.2391960620880127,9.200407981872559
1702071396288175000,3.023175048828125,-2.4022579193115234,-2.5363500118255615,9.166908264160156
1702071396305167000,3.0401669921875,-2.142693042755127,-2.816617965698242,9.149407386779785
1702071396322153000,3.057153076171875,-1.8352954387664795,-3.043194532394409,9.14367389678955
1702071396339146200,3.074146240234375,-1.5388152599334717,-3.2206201553344727,9.137602806091309
1702071396356135400,3.091135498046875,-1.2951483726501465,-3.386258363723755,9.115477561950684
1702071396373138400,3.108138427734375,-1.1073142290115356,-3.593939781188965,9.060548782348633
1702071396390116900,3.125116943359375,-0.9520202875137329,-3.87579083442688,8.96147346496582
1702071396407106600,3.1421064453125,-0.8173320293426514,-4.218021869659424,8.819091796875
1702071396424097000,3.159096923828125,-0.6965975165367126,-4.582828998565674,8.645724296569824
1702071396441084700,3.176084716796875,-0.5863535404205322,-4.934134006500244,8.458523750305176
1702071396458079200,3.193079345703125,-0.48278239369392395,-5.255021095275879,8.269691467285156
1702071396475079200,3.2100791015625,-0.3831353187561035,-5.548952579498291,8.080745697021484
1702071396492056800,3.227056884765625,-0.2896038293838501,-5.820187568664551,7.891620635986328
1702071396509049900,3.2440498046875,-0.20591145753860474,-6.07072639465332,7.703246116638184
1702071396526023400,3.2610234375,-0.13605360686779022,-6.293394088745117,7.524013042449951
1702071396543014700,3.2780146484375,-0.08386193960905075,-6.480416297912598,7.364325046539307
1702071396560009700,3.295009765625,-0.04437130689620972,-6.635615348815918,7.225147247314453
1702071396577007600,3.312007568359375,-0.008906478993594646,-6.767714023590088,7.1016974449157715
1702071396593997600,3.32899755859375,0.022199539467692375,-6.879881381988525,6.993058681488037
1702071396610987500,3.345987548828125,0.04587813466787338,-6.973309516906738,6.899781227111816
1702071396627977700,3.362977783203125,0.05872095748782158,-7.046796798706055,6.824610710144043
1702071396644968000,3.379968017578125,0.0473884679377079,-7.100975513458252,6.768309116363525
1702071396661957600,3.39695751953125,0.014327432960271835,-7.137662410736084,6.72976016998291
1702071396678943700,3.41394384765625,-0.027110323309898376,-7.157491683959961,6.708629608154297
1702071396695939300,3.430939208984375,-0.05940800532698631,-7.154904842376709,6.711180210113525
1702071396712930600,3.4479306640625,-0.07193011045455933,-7.126856803894043,6.740835189819336
1702071396729916000,3.464916015625,-0.07582289725542068,-7.078479290008545,6.791576385498047
1702071396746910500,3.481910400390625,-0.08709311485290527,-7.024084568023682,6.847684860229492
1702071396763904500,3.498904541015625,-0.10342555493116379,-6.979291915893555,6.893104553222656
1702071396780888300,3.515888427734375,-0.09910270571708679,-6.930573463439941,6.942151069641113
1702071396797878300,3.532878173828125,-0.07287414371967316,-6.8313679695129395,7.040114402770996
1702071396814868500,3.549868408203125,-0.04651021584868431,-6.637692928314209,7.2232255935668945
1702071396831845600,3.566845703125,-0.051390595734119415,-6.339791774749756,7.486021518707275
1702071396848842500,3.583842529296875,-0.09136216342449188,-5.964151859283447,7.7882399559021
1702071396865835500,3.60083544921875,-0.14637628197669983,-5.558278560638428,8.08209228515625
1702071396882823400,3.617823486328125,-0.19696639478206635,-5.165701389312744,8.337438583374023
1702071396899810000,3.63481005859375,-0.23649181425571442,-4.8032708168029785,8.550368309020996
1702071396916796700,3.651796630859375,-0.2797740697860718,-4.465688228607178,8.730149269104004
1702071396933797000,3.668797119140625,-0.3418077826499939,-4.14371395111084,8.885320663452148
1702071396950783000,3.685782958984375,-0.43462705612182617,-3.8353748321533203,9.018710136413574
1702071396967776800,3.70277685546875,-0.5553206205368042,-3.539350986480713,9.132400512695312
1702071396984758300,3.71975830078125,-0.6851925253868103,-3.257509708404541,9.227961540222168
1702071397001751800,3.736751708984375,-0.8152129650115967,-2.989349365234375,9.307809829711914
1702071397018740500,3.753740478515625,-0.9418473243713379,-2.736330986022949,9.373449325561523
1702071397035726800,3.770726806640625,-1.0571550130844116,-2.495861291885376,9.428109169006348
1702071397052730000,3.787730224609375,-1.1655793190002441,-2.2624754905700684,9.47411060333252
1702071397069721900,3.804721923828125,-1.275867223739624,-2.0373637676239014,9.51091194152832
1702071397086709500,3.82170947265625,-1.3874379396438599,-1.8293720483779907,9.5375337600708
1702071397103699500,3.838699462890625,-1.4924416542053223,-1.6495474576950073,9.554462432861328
1702071397120679200,3.85567919921875,-1.5854514837265015,-1.5045185089111328,9.563414573669434
1702071397137679400,3.872679443359375,-1.6686902046203613,-1.3959382772445679,9.565718650817871
1702071397154669800,3.889669921875,-1.7392116785049438,-1.326960802078247,9.562973976135254
1702071397171659500,3.906659423828125,-1.7923762798309326,-1.3025914430618286,9.55650520324707
1702071397188649700,3.923649658203125,-1.8333419561386108,-1.322235345840454,9.54603099822998
1702071397205640200,3.94064013671875,-1.873078465461731,-1.389856219291687,9.528692245483398
1702071397222630100,3.957630126953125,-1.9218372106552124,-1.5016493797302246,9.501984596252441
1702071397239607300,3.974607177734375,-1.979736328125,-1.6404436826705933,9.467084884643555
1702071397256607500,3.991607421875,-2.0413126945495605,-1.784684181213379,9.427835464477539
1702071397273602600,4.0086025390625,-2.0800323486328125,-1.929613709449768,9.39074993133545
1702071397290579700,4.025579833984375,-2.0607495307922363,-2.094180107116699,9.35969352722168
1702071397307580400,4.042580322265625,-1.951117753982544,-2.3027782440185547,9.334156036376953
1702071397324570600,4.059570556640625,-1.767332673072815,-2.54256010055542,9.308492660522461
1702071397341560000,4.07656005859375,-1.5537877082824707,-2.7733638286590576,9.280641555786133
1702071397358550800,4.09355078125,-1.3635152578353882,-2.974475145339966,9.248211860656738
1702071397375532000,4.110531982421875,-1.2226744890213013,-3.150702714920044,9.209465980529785
1702071397392530700,4.12753076171875,-1.1286629438400269,-3.315648078918457,9.163445472717285
1702071397409520600,4.144520751953125,-1.0571093559265137,-3.4932010173797607,9.105834007263184
1702071397426499600,4.16149951171875,-0.9887197613716125,-3.712406635284424,9.026436805725098
1702071397443501000,4.1785009765625,-0.9255125522613525,-3.9787092208862305,8.919048309326172
1702071397460489500,4.195489501953125,-0.8743622899055481,-4.264967918395996,8.790999412536621
1702071397477482500,4.212482421875,-0.832691490650177,-4.55569314956665,8.648028373718262
1702071397494468600,4.229468505859375,-0.797186017036438,-4.847182750701904,8.491493225097656
1702071397511463700,4.246463623046875,-0.7701660394668579,-5.140895843505859,8.31950569152832
1702071397528451000,4.263451171875,-0.7535014748573303,-5.43785285949707,8.130073547363281
1702071397545441000,4.28044091796875,-0.7424993515014648,-5.734552383422852,7.924628257751465
1702071397562431500,4.297431396484375,-0.7352073192596436,-6.017080307006836,7.712996482849121
1702071397579421400,4.31442138671875,-0.7283701300621033,-6.271427154541016,7.508314609527588
1702071397596401000,4.33140087890625,-0.7220206260681152,-6.487893104553223,7.3227057456970215
1702071397613390800,4.348390869140625,-0.7111454010009766,-6.661192893981934,7.166513442993164
1702071397630391800,4.365391845703125,-0.6926261186599731,-6.790131568908691,7.046310901641846
1702071397647381500,4.382381591796875,-0.6682409048080444,-6.874035358428955,6.966863632202148
1702071397664371500,4.399371337890625,-0.6437082886695862,-6.913321018218994,6.930206298828125
1702071397681362000,4.41636181640625,-0.6172151565551758,-6.911303997039795,6.934625148773193
1702071397698351900,4.433351806640625,-0.5813296437263489,-6.874820709228516,6.973881244659424
1702071397715342000,4.450342041015625,-0.5502645373344421,-6.817647933959961,7.032282829284668
1702071397732332000,4.46733203125,-0.5366770625114441,-6.757401943206787,7.091235160827637
1702071397749322000,4.484322021484375,-0.5310511589050293,-6.708957672119141,7.137506008148193
1702071397766312200,4.501312255859375,-0.5117907524108887,-6.67709493637085,7.168721675872803
1702071397783302400,4.518302490234375,-0.46572110056877136,-6.656132698059082,7.19132137298584
1702071397800284400,4.535284423828125,-0.40955421328544617,-6.633727073669434,7.215404987335205
1702071397817283800,4.552283935546875,-0.3693765103816986,-6.611913681030273,7.237560272216797
1702071397834273300,4.569273193359375,-0.3417262136936188,-6.600790500640869,7.249061584472656
1702071397851262700,4.5862626953125,-0.3057529628276825,-6.594768047332764,7.256146430969238
1702071397868250000,4.60325,-0.24954192340373993,-6.572149753570557,7.278783321380615
1702071397885245000,4.620244873046875,-0.16772621870040894,-6.5007405281066895,7.344954967498779
1702071397902232800,4.63723291015625,-0.07987413555383682,-6.354184627532959,7.473557472229004
1702071397919222800,4.654222900390625,-0.019590511918067932,-6.128238201141357,7.660314083099365
1702071397936210200,4.671210205078125,-0.006180507130920887,-5.836333751678467,7.88500452041626
1702071397953205500,4.68820556640625,-0.0372859425842762,-5.49220085144043,8.128373146057129
1702071397970193200,4.705193115234375,-0.09199950844049454,-5.106881141662598,8.375405311584473
1702071397987183000,4.72218310546875,-0.1288328766822815,-4.685450077056885,8.617776870727539
1702071398004180500,4.739180419921875,-0.1194276288151741,-4.249306678771973,8.841111183166504
1702071398021163000,4.7561630859375,-0.06474680453538895,-3.8174071311950684,9.036554336547852
1702071398038153000,4.773153076171875,0.01726975291967392,-3.401067018508911,9.201552391052246
1702071398055143200,4.79014306640625,0.10459031909704208,-3.0069172382354736,9.3372163772583
1702071398072133400,4.80713330078125,0.17198532819747925,-2.6343750953674316,9.448101043701172
1702071398089123600,4.82412353515625,0.1983393132686615,-2.2796385288238525,9.539393424987793
1702071398106126600,4.841126708984375,0.18808330595493317,-1.9419000148773193,9.61404037475586
1702071398123103500,4.858103515625,0.15594875812530518,-1.6272550821304321,9.67284107208252
1702071398140083200,4.875083251953125,0.1048470139503479,-1.3433067798614502,9.717029571533203
1702071398157083600,4.892083740234375,0.029856469482183456,-1.0965628623962402,9.748475074768066
1702071398174073600,4.909073486328125,-0.07265224307775497,-0.8904295563697815,9.769235610961914
1702071398191063600,4.9260634765625,-0.20044898986816406,-0.7215186953544617,9.781378746032715
1702071398208053800,4.9430537109375,-0.33830469846725464,-0.5858576893806458,9.786646842956543
1702071398225047600,4.960047607421875,-0.47269243001937866,-0.4836738109588623,9.786662101745605
1702071398242034000,4.977033935546875,-0.5979450941085815,-0.4234428107738495,9.782601356506348
1702071398259021300,4.994021240234375,-0.716938853263855,-0.42065632343292236,9.7747220993042
1702071398276013800,5.011013916015625,-0.8356835246086121,-0.4938177168369293,9.761859893798828
1702071398293007000,5.028007080078125,-0.9606747627258301,-0.6533645391464233,9.740962028503418
1702071398309994000,5.044993896484375,-1.0951226949691772,-0.8895942568778992,9.70801067352295
1702071398326984200,5.061984130859375,-1.2207612991333008,-1.1816496849060059,9.661757469177246
1702071398343974400,5.078974365234375,-1.3134267330169678,-1.5068844556808472,9.604183197021484
1702071398360964400,5.09596435546875,-1.3664159774780273,-1.8330246210098267,9.539867401123047
1702071398377954600,5.11295458984375,-1.3934301137924194,-2.137957811355591,9.47225570678711
1702071398394943200,5.129943115234375,-1.4008052349090576,-2.433936595916748,9.399458885192871
1702071398411935700,5.146935791015625,-1.3697465658187866,-2.7613046169281006,9.3131685256958
1702071398428924700,5.163924560546875,-1.2814220190048218,-3.160524368286133,9.19810676574707
1702071398445914600,5.18091455078125,-1.1609313488006592,-3.612236976623535,9.046552658081055
1702071398462903600,5.197903564453125,-1.0292818546295166,-4.047832489013672,8.876470565795898
1702071398479893000,5.21489306640625,-0.9174433946609497,-4.410593032836914,8.7144193649292
1702071398496874500,5.23187451171875,-0.8528047204017639,-4.675616264343262,8.581809043884277
1702071398513875000,5.248875,-0.8267495632171631,-4.861361503601074,8.480552673339844
1702071398530865200,5.265865234375,-0.818048894405365,-5.019163608551025,8.388975143432617
1702071398547844400,5.28284423828125,-0.8181816339492798,-5.192383289337158,8.282866477966309
1702071398564833800,5.299833740234375,-0.8179173469543457,-5.394418716430664,8.152752876281738
1702071398581825800,5.31682568359375,-0.805961549282074,-5.612636089324951,8.005301475524902
1702071398598816300,5.333816162109375,-0.772994339466095,-5.810705184936523,7.86602258682251
1702071398615806200,5.35080615234375,-0.7255547046661377,-5.9753499031066895,7.746281147003174
1702071398632803600,5.367803466796875,-0.6734320521354675,-6.108867168426514,7.6461992263793945
1702071398649785900,5.384785888671875,-0.6283985376358032,-6.218629360198975,7.5610761642456055
1702071398666779400,5.401779296875,-0.5924779176712036,-6.312384605407715,7.485912322998047
1702071398683770000,5.41877001953125,-0.5622454881668091,-6.391393661499023,7.420922756195068
1702071398700756200,5.435756103515625,-0.532184362411499,-6.449520111083984,7.3726935386657715
1702071398717745700,5.45274560546875,-0.5018349885940552,-6.488293170928955,7.340733051300049
1702071398734738400,5.469738525390625,-0.4727807343006134,-6.5134968757629395,7.320312023162842
1702071398751730000,5.48672998046875,-0.4531697630882263,-6.5285468101501465,7.308136463165283
1702071398768727800,5.503727783203125,-0.4411163032054901,-6.53645658493042,7.30180025100708
1702071398785715700,5.5207158203125,-0.4341370761394501,-6.53668212890625,7.3020148277282715
1702071398802706200,5.5377060546875,-0.43498140573501587,-6.525163650512695,7.312259674072266
1702071398819696000,5.554696044921875,-0.44268569350242615,-6.492532253265381,7.340787410736084
1702071398836688100,5.571688232421875,-0.4492146968841553,-6.437565803527832,7.388646602630615
1702071398853674200,5.58867431640625,-0.4397544860839844,-6.372315883636475,7.445558071136475
1702071398870665700,5.605665771484375,-0.41155630350112915,-6.3070292472839355,7.502542495727539
1702071398887656400,5.622656494140625,-0.3682880699634552,-6.244750022888184,7.5566911697387695
1702071398904644600,5.63964453125,-0.31984737515449524,-6.185912609100342,7.607123374938965
1702071398921624600,5.65662451171875,-0.26430410146713257,-6.122105598449707,7.660683631896973
1702071398938610700,5.673610595703125,-0.22815193235874176,-6.031712055206299,7.733209609985352
1702071398955616300,5.6906162109375,-0.23630061745643616,-5.914109706878662,7.823272228240967
1702071398972606500,5.7076064453125,-0.2683877944946289,-5.797918796539307,7.908742904663086
1702071398989597000,5.724596923828125,-0.27278608083724976,-5.7181010246276855,7.966495513916016
1702071399006586600,5.741586669921875,-0.20847313106060028,-5.671765327453613,8.001484870910645
1702071399023576800,5.758576904296875,-0.0918644368648529,-5.625372886657715,8.036346435546875
1702071399040567000,5.775567138671875,0.036529310047626495,-5.535135269165039,8.099201202392578
1702071399057557000,5.792556884765625,0.12245122343301773,-5.373263359069824,8.206653594970703
1702071399074544000,5.809544189453125,0.1444057673215866,-5.152934551239014,8.346409797668457
1702071399091539700,5.826539794921875,0.11769042164087296,-4.91629695892334,8.488362312316895
1702071399108527000,5.843527099609375,0.07030341774225235,-4.690853118896484,8.61551284790039
1702071399125517300,5.860517333984375,0.023367227986454964,-4.462971210479736,8.735987663269043
1702071399142507300,5.87750732421875,-0.014126288704574108,-4.211629390716553,8.859914779663086
1702071399159486700,5.89448681640625,-0.048879802227020264,-3.94303297996521,8.982551574707031
1702071399176483000,5.911483154296875,-0.09361276030540466,-3.6817634105682373,9.092413902282715
1702071399193481500,5.9284814453125,-0.1668216586112976,-3.4502289295196533,9.181731224060059
1702071399210467300,5.94546728515625,-0.2635977566242218,-3.25241756439209,9.251402854919434
1702071399227457500,5.96245751953125,-0.3632044792175293,-3.076794385910034,9.307929039001465
1702071399244444000,5.97944384765625,-0.4470342695713043,-2.9046921730041504,9.35943603515625
1702071399261437700,5.996437744140625,-0.5189105868339539,-2.729459285736084,9.408342361450195
1702071399278428000,6.013427978515625,-0.5950700044631958,-2.5553436279296875,9.452630996704102
1702071399295417900,6.03041796875,-0.6841160655021667,-2.3847413063049316,9.491108894348145
1702071399312407800,6.04740771484375,-0.78460693359375,-2.21539568901062,9.524312019348145
1702071399329384200,6.06438427734375,-0.8867045640945435,-2.042025566101074,9.554058074951172
1702071399346377200,6.081377197265625,-0.9844448566436768,-1.8675395250320435,9.58014965057373
1702071399363378000,6.0983779296875,-1.0758520364761353,-1.7021654844284058,9.601110458374023
1702071399380357000,6.115357177734375,-1.1534785032272339,-1.5573930740356445,9.616660118103027
1702071399397358000,6.132358154296875,-1.2042458057403564,-1.4424885511398315,9.628352165222168
1702071399414346500,6.149346435546875,-1.226216197013855,-1.3687559366226196,9.636337280273438
1702071399431339800,6.16633984375,-1.2276896238327026,-1.3428592681884766,9.639791488647461
1702071399448328400,6.183328369140625,-1.2258167266845703,-1.3702924251556396,9.636171340942383
1702071399465318100,6.200318115234375,-1.2277902364730835,-1.466884732246399,9.621688842773438
1702071399482308400,6.217308349609375,-1.2435811758041382,-1.6289799213409424,9.593542098999023
1702071399499300400,6.23430029296875,-1.2630857229232788,-1.82561457157135,9.55551528930664
1702071399516286500,6.251286376953125,-1.274076223373413,-2.0331575870513916,9.51205062866211
1702071399533280500,6.268280517578125,-1.2944625616073608,-2.2485580444335938,9.46068000793457
1702071399550260200,6.28526025390625,-1.339615821838379,-2.4785208702087402,9.396727561950684
1702071399567259000,6.3022587890625,-1.4098719358444214,-2.7197775840759277,9.31939697265625
1702071399584248800,6.319248779296875,-1.469697117805481,-2.9742956161499023,9.2319917678833
1702071399601228300,6.336228271484375,-1.4832580089569092,-3.2393693923950195,9.140162467956543
1702071399618228700,6.353228759765625,-1.4501639604568481,-3.505635976791382,9.04675006866455
1702071399635219200,6.37021923828125,-1.3679708242416382,-3.7736213207244873,8.95123291015625
1702071399652209200,6.387209228515625,-1.234184741973877,-4.050849914550781,8.848926544189453
1702071399669199000,6.40419921875,-1.0716742277145386,-4.324281692504883,8.740035057067871
1702071399686189300,6.421189208984375,-0.9206920862197876,-4.576498508453369,8.62809944152832
1702071399703179300,6.43817919921875,-0.8095481991767883,-4.794399738311768,8.52023983001709
1702071399720156400,6.455156494140625,-0.7458591461181641,-4.979251861572266,8.419434547424316
1702071399737158400,6.472158447265625,-0.7208552956581116,-5.153299808502197,8.316248893737793
1702071399754140000,6.489139892578125,-0.7174662351608276,-5.339001178741455,8.198562622070312
1702071399771137000,6.506136962890625,-0.7047654986381531,-5.5491132736206055,8.05895709991455
1702071399788131800,6.5231318359375,-0.6641788482666016,-5.776379585266113,7.901166915893555
1702071399805119700,6.54011962890625,-0.5904366374015808,-5.997939586639404,7.740299224853516
1702071399822109700,6.557109619140625,-0.49494460225105286,-6.19551420211792,7.589912414550781
1702071399839086300,6.57408642578125,-0.391570508480072,-6.369098663330078,7.450998306274414
1702071399856089600,6.591089599609375,-0.29237833619117737,-6.523128509521484,7.321164131164551
1702071399873079600,6.60807958984375,-0.20649150013923645,-6.660133361816406,7.199731349945068
1702071399890070000,6.625070068359375,-0.13436259329319,-6.780914306640625,7.08782434463501
1702071399907060000,6.64206005859375,-0.07208564877510071,-6.879327774047852,6.993265628814697
1702071399924056600,6.659056640625,-0.013864333741366863,-6.947773456573486,6.92563009262085
1702071399941039000,6.6760390625,0.04153686761856079,-6.986701488494873,6.886246204376221
1702071399958030800,6.69303076171875,0.09392616897821426,-7.005911350250244,6.866186141967773
1702071399975020300,6.710020263671875,0.1407746523618698,-7.014618396759033,6.856489181518555
1702071399992007400,6.72700732421875,0.18041233718395233,-7.014169216156006,6.856019496917725
1702071400009002500,6.74400244140625,0.2153593897819519,-6.997742652893066,6.871779918670654
1702071400025990400,6.760990478515625,0.24802778661251068,-6.964881896972656,6.903985500335693
1702071400042980400,6.77798046875,0.28082188963890076,-6.921943664550781,6.945785999298096
1702071400059971600,6.7949716796875,0.3141200542449951,-6.879184246063232,6.986721515655518
1702071400076957700,6.811957763671875,0.3548833131790161,-6.84291410446167,7.020307540893555
1702071400093951000,6.828950927734375,0.4032473862171173,-6.815293312072754,7.044521808624268
1702071400110928100,6.84592822265625,0.4457823932170868,-6.793852806091309,7.062646865844727
1702071400127930600,6.8629306640625,0.45556068420410156,-6.766023635864258,7.088689804077148
1702071400144918000,6.87991796875,0.4233097732067108,-6.7251362800598145,7.1294779777526855
1702071400161909500,6.896909423828125,0.3637377619743347,-6.671302795410156,7.183142185211182
1702071400178900700,6.913900634765625,0.3083967864513397,-6.609764099121094,7.242377281188965
1702071400195888000,6.93088818359375,0.2924064099788666,-6.550382614135742,7.296788215637207
1702071400212883500,6.947883544921875,0.3204362094402313,-6.480803489685059,7.357487678527832
1702071400229871000,6.96487109375,0.3590073585510254,-6.362647533416748,7.458146095275879
1702071400246860800,6.98186083984375,0.34955474734306335,-6.152931213378906,7.632521152496338
1702071400263851000,6.99885107421875,0.247661754488945,-5.84372615814209,7.875638008117676
1702071400280841200,7.01584130859375,0.054549846798181534,-5.481533527374268,8.135475158691406
1702071400297831200,7.0328310546875,-0.15741465985774994,-5.1308817863464355,8.359750747680664
1702071400314821400,7.0498212890625,-0.32335689663887024,-4.819308757781982,8.538491249084473
1702071400331802600,7.066802734375,-0.41933950781822205,-4.532516002655029,8.69002914428711
1702071400348794600,7.083794677734375,-0.4718732535839081,-4.249685287475586,8.829136848449707
1702071400365784600,7.10078466796875,-0.5250016450881958,-3.9556591510772705,8.961767196655273
1702071400382771000,7.11777099609375,-0.6130478382110596,-3.650198459625244,9.084951400756836
1702071400399761000,7.134760986328125,-0.7354803681373596,-3.3435957431793213,9.193232536315918
1702071400416755500,7.15175537109375,-0.8651271462440491,-3.0602548122406006,9.280221939086914
1702071400433741300,7.1687412109375,-0.9769914150238037,-2.813591957092285,9.346941947937012
1702071400450732500,7.185732666015625,-1.0459318161010742,-2.6002352237701416,9.40111255645752
1702071400467724500,7.202724609375,-1.0812835693359375,-2.4276950359344482,9.443159103393555
1702071400484713200,7.219713134765625,-1.130686640739441,-2.3120741844177246,9.466361999511719
1702071400501705000,7.236705078125,-1.2137212753295898,-2.260040044784546,9.468645095825195
1702071400518691300,7.25369140625,-1.3090671300888062,-2.2542803287506104,9.457307815551758
1702071400535698000,7.270697998046875,-1.3663060665130615,-2.2420432567596436,9.452120780944824
1702071400552685300,7.287685302734375,-1.3656079769134521,-2.1826932430267334,9.466102600097656
1702071400569672200,7.304672119140625,-1.3389960527420044,-2.0901761054992676,9.490750312805176
1702071400586662100,7.321662109375,-1.2907980680465698,-2.007542371749878,9.515236854553223
1702071400603649500,7.3386494140625,-1.2003415822982788,-1.9752477407455444,9.533819198608398
1702071400620644900,7.355644775390625,-1.0824278593063354,-2.004218101501465,9.541885375976562
1702071400637632300,7.37263232421875,-0.9711412787437439,-2.0821571350097656,9.53717041015625
1702071400654622200,7.389622314453125,-0.8889598250389099,-2.2001736164093018,9.518671989440918
1702071400671612400,7.4066123046875,-0.8266676664352417,-2.3532915115356445,9.487610816955566
1702071400688603400,7.423603271484375,-0.7523092031478882,-2.5316267013549805,9.447805404663086
1702071400705595600,7.440595703125,-0.6354514360427856,-2.722238540649414,9.403284072875977
1702071400722579700,7.457579833984375,-0.4763299822807312,-2.9091315269470215,9.356612205505371
1702071400739572500,7.474572509765625,-0.3046726882457733,-3.083188772201538,9.307912826538086
1702071400756562200,7.491562255859375,-0.15793505311012268,-3.2499403953552246,9.254677772521973
1702071400773553000,7.508552978515625,-0.07251892238855362,-3.4261114597320557,9.191987037658691
1702071400790542600,7.52554248046875,-0.055646199733018875,-3.6411218643188477,9.109077453613281
1702071400807531300,7.54253125,-0.07343985885381699,-3.9128592014312744,8.995567321777344
1702071400824524300,7.559524169921875,-0.09594637900590897,-4.22749137878418,8.851849555969238
1702071400841513000,7.576512939453125,-0.1106761023402214,-4.55142068862915,8.689560890197754
1702071400858499800,7.593499755859375,-0.10382375121116638,-4.858387470245361,8.521820068359375
1702071400875492900,7.610492919921875,-0.06594841182231903,-5.135046482086182,8.358412742614746
1702071400892482800,7.62748291015625,-0.003469153307378292,-5.378479480743408,8.20414924621582
1702071400909473300,7.644473388671875,0.07531564682722092,-5.598426342010498,8.055313110351562
1702071400926463200,7.661463134765625,0.1640307754278183,-5.800430774688721,7.909755706787109
1702071400943442700,7.678442626953125,0.26178044080734253,-5.981354713439941,7.7711639404296875
1702071400960443400,7.695443359375,0.3607012927532196,-6.123848915100098,7.655358791351318
1702071400977433000,7.71243310546875,0.44521811604499817,-6.218504905700684,7.574173450469971
1702071400994424800,7.7294248046875,0.49705836176872253,-6.2716383934021,7.526993751525879
1702071401011412000,7.746411865234375,0.5169464945793152,-6.291342735290527,7.509185791015625
1702071401028403500,7.763403564453125,0.5241356492042542,-6.274930000305176,7.522409439086914
1702071401045393200,7.78039306640625,0.5324194431304932,-6.219717025756836,7.567546844482422
1702071401062383600,7.797383544921875,0.542843222618103,-6.125807762145996,7.643031597137451
1702071401079373600,7.81437353515625,0.5460200309753418,-5.98721170425415,7.751857757568359
1702071401096353300,7.831353271484375,0.5411966443061829,-5.808292388916016,7.887141227722168
1702071401113350700,7.8483505859375,0.5308091044425964,-5.599912166595459,8.037123680114746
1702071401130347000,7.865346923828125,0.5192701816558838,-5.381825923919678,8.185500144958496
1702071401147333600,7.882333740234375,0.5097544193267822,-5.1652116775512695,8.324472427368164
1702071401164323600,7.899323486328125,0.5005590915679932,-4.949394226074219,8.455120086669922
1702071401181313800,7.916313720703125,0.48857027292251587,-4.738274097442627,8.575907707214355
1702071401198304000,7.933303955078125,0.48788145184516907,-4.535229206085205,8.685032844543457
1702071401215294200,7.950294189453125,0.5019577741622925,-4.318610191345215,8.793961524963379
1702071401232284200,7.9672841796875,0.4954044818878174,-4.048334121704102,8.921977043151855
1702071401249274000,7.984274169921875,0.44697463512420654,-3.7160282135009766,9.067935943603516
1702071401266264000,8.00126416015625,0.35601767897605896,-3.351438283920288,9.212884902954102
1702071401283254000,8.01825390625,0.23926310241222382,-2.9811670780181885,9.34299373626709
1702071401300234000,8.03523388671875,0.1171363964676857,-2.6126978397369385,9.4549560546875
1702071401317234400,8.052234375,-0.003761514090001583,-2.2382194995880127,9.551255226135254
1702071401334221800,8.069221923828126,-0.12175321578979492,-1.8637058734893799,9.630571365356445
1702071401351217200,8.086217041015624,-0.23862005770206451,-1.5017354488372803,9.691438674926758
1702071401368203500,8.10320361328125,-0.354877769947052,-1.1598879098892212,9.734723091125488
1702071401385194500,8.120194580078126,-0.47144070267677307,-0.8433679342269897,9.76230525970459
1702071401402184400,8.137184326171875,-0.586745023727417,-0.5542634129524231,9.776741027832031
1702071401419174700,8.154174560546876,-0.7003309726715088,-0.28129202127456665,9.780928611755371
1702071401436164400,8.171164306640625,-0.8187501430511475,-0.013307386077940464,9.775766372680664
1702071401453154800,8.18815478515625,-0.9464720487594604,0.2437654584646225,9.761192321777344
1702071401470144500,8.20514453125,-1.0691097974777222,0.4736274182796478,9.740062713623047
1702071401487124200,8.222124267578126,-1.172186255455017,0.6689612865447998,9.716717720031738
1702071401504127700,8.239127685546874,-1.2613147497177124,0.836241602897644,9.692569732666016
1702071401521112000,8.256112060546876,-1.3431642055511475,0.9810155034065247,9.66797161102295
1702071401538104800,8.273104736328126,-1.4135724306106567,1.1017009019851685,9.644906044006348
1702071401555085000,8.2900849609375,-1.4646331071853638,1.1923537254333496,9.62648868560791
1702071401572082400,8.30708251953125,-1.4982432126998901,1.2363662719726562,9.615757942199707
1702071401589077500,8.324077392578126,-1.5202361345291138,1.219472885131836,9.614462852478027
1702071401606065200,8.341065185546874,-1.5324097871780396,1.1352667808532715,9.622838020324707
1702071401623053300,8.35805322265625,-1.5381792783737183,0.9923207759857178,9.637709617614746
1702071401640036600,8.37503662109375,-1.5430099964141846,0.80790776014328,9.654146194458008
1702071401657030700,8.39203076171875,-1.542869210243225,0.5855878591537476,9.67020034790039
1702071401674029800,8.40902978515625,-1.5396827459335327,0.3209232687950134,9.68310260772705
1702071401691004700,8.426004638671875,-1.5312789678573608,0.010130885988473892,9.689745903015137
1702071401708005400,8.44300537109375,-1.4883842468261719,-0.3640611171722412,9.689596176147461
1702071401724992500,8.459992431640625,-1.3929778337478638,-0.809606671333313,9.676791191101074
1702071401741988600,8.476988525390626,-1.2419387102127075,-1.3078776597976685,9.642777442932129
1702071401758975500,8.4939755859375,-1.0285226106643677,-1.8152320384979248,9.585572242736816
1702071401775963100,8.510963134765625,-0.7802829146385193,-2.2860782146453857,9.507949829101562
1702071401792958200,8.527958251953125,-0.548372209072113,-2.694462537765503,9.416756629943848
1702071401809945300,8.5449453125,-0.3612857162952423,-3.0416316986083984,9.319554328918457
1702071401826935600,8.561935546875,-0.2113218903541565,-3.354116201400757,9.216363906860352
1702071401843925800,8.57892578125,-0.09257721155881882,-3.6576578617095947,9.102147102355957
1702071401860915700,8.595915771484375,0.006430475506931543,-3.9486546516418457,8.980210304260254
1702071401877906000,8.612906005859376,0.09711144119501114,-4.219595432281494,8.85560417175293
1702071401894897700,8.629897705078125,0.18350492417812347,-4.4777750968933105,8.726511001586914
1702071401911884000,8.646884033203126,0.2765505015850067,-4.728670597076416,8.590653419494629
1702071401928875800,8.663875732421875,0.37596866488456726,-4.971015930175781,8.448891639709473
1702071401945866200,8.6808662109375,0.47100141644477844,-5.204154968261719,8.302474021911621
1702071401962845700,8.697845703125,0.5514535903930664,-5.4187726974487305,8.158978462219238
1702071401979841000,8.714841064453125,0.6124032139778137,-5.605739116668701,8.027251243591309
1702071401996841000,8.731841064453125,0.660573422908783,-5.762689113616943,7.9114580154418945
1702071402013826300,8.748826416015625,0.7059276700019836,-5.895692825317383,7.808878421783447
1702071402030816000,8.76581591796875,0.7551597356796265,-6.016410827636719,7.711590766906738
1702071402047804000,8.782803955078125,0.8071795105934143,-6.124552249908447,7.620660781860352
1702071402064786200,8.7997861328125,0.8512470722198486,-6.207210063934326,7.548644065856934
1702071402081777700,8.816777587890625,0.8805275559425354,-6.25718879699707,7.503892421722412
1702071402098766000,8.83376611328125,0.8865998983383179,-6.277936935424805,7.485825538635254
1702071402115760000,8.850760009765626,0.8670070767402649,-6.278799533843994,7.487396240234375
1702071402132754000,8.86775390625,0.8303578495979309,-6.2696685791015625,7.4991912841796875
1702071402149736400,8.884736328125,0.7995705008506775,-6.256680011749268,7.513371467590332
1702071402166733800,8.90173388671875,0.7764202356338501,-6.224330902099609,7.542612552642822
1702071402183721200,8.91872119140625,0.746554970741272,-6.156360626220703,7.601184844970703
1702071402200710100,8.935710205078125,0.7075552344322205,-6.047036170959473,7.6921281814575195
1702071402217696500,8.952696533203126,0.6807211637496948,-5.908249378204346,7.801623821258545
1702071402234689800,8.969689697265625,0.6766491532325745,-5.7580790519714355,7.913455963134766
1702071402251678200,8.98667822265625,0.6709378957748413,-5.610630989074707,8.019149780273438
1702071402268671000,9.0036708984375,0.6422812938690186,-5.476245880126953,8.113836288452148
1702071402285669400,9.02066943359375,0.6125218868255615,-5.352688789367676,8.198149681091309
1702071402302657000,9.037656982421876,0.6145318746566772,-5.213306903839111,8.287335395812988
1702071402319647000,9.05464697265625,0.644660234451294,-5.017720699310303,8.404939651489258
1702071402336638500,9.071638427734374,0.6675538420677185,-4.749067306518555,8.557852745056152
1702071402353625300,9.088625244140625,0.652668297290802,-4.426164627075195,8.730360984802246
1702071402370616800,9.105616943359376,0.5858939290046692,-4.07647180557251,8.903664588928223
1702071402387607300,9.122607177734375,0.4637117087841034,-3.7099714279174805,9.06957721710205
1702071402404597200,9.13959716796875,0.3055170178413391,-3.3334603309631348,9.221216201782227
1702071402421576700,9.15657666015625,0.1375829428434372,-2.962360143661499,9.351020812988281
1702071402438571500,9.173571533203125,-0.016534904018044472,-2.6034669876098633,9.458213806152344
1702071402455570000,9.19056982421875,-0.1441490799188614,-2.2538259029388428,9.546499252319336
1702071402472557300,9.207557373046875,-0.24445952475070953,-1.9097511768341064,9.619211196899414
1702071402489547500,9.224547607421876,-0.3262503743171692,-1.568087100982666,9.678365707397461
1702071402506537200,9.241537109375,-0.3979451358318329,-1.228295087814331,9.724662780761719
1702071402523527400,9.25852734375,-0.4668270945549011,-0.8945667147636414,9.757966995239258
1702071402540504600,9.275504638671874,-0.5311122536659241,-0.5729043483734131,9.778844833374023
1702071402557510400,9.292510498046875,-0.5917842984199524,-0.27503666281700134,9.7882719039917
1702071402574495200,9.3094951171875,-0.6425126791000366,-0.01711655594408512,9.788921356201172
1702071402591487500,9.326487548828124,-0.6776208281517029,0.20436838269233704,9.784436225891113
1702071402608480300,9.343480224609374,-0.6978528499603271,0.3968031704425812,9.777099609375
1702071402625465600,9.360465576171874,-0.7155261039733887,0.5638104677200317,9.767611503601074
1702071402642457900,9.377457763671876,-0.7540070414543152,0.6989750266075134,9.755974769592285
1702071402659447800,9.39444775390625,-0.8148810267448425,0.7877272963523865,9.744308471679688
1702071402676438000,9.41143798828125,-0.8736544847488403,0.816824197769165,9.73681926727295
1702071402693427700,9.428427734375,-0.9195275902748108,0.7881430387496948,9.73495864868164
1702071402710418200,9.445418212890624,-0.956321656703949,0.7119303941726685,9.737286567687988
1702071402727408000,9.462408203125,-0.9873653650283813,0.6135331392288208,9.740882873535156
1702071402744397800,9.479397705078124,-1.0058382749557495,0.5070343017578125,9.74512004852295
1702071402761377300,9.496377197265625,-1.0147571563720703,0.38581714034080505,9.749746322631836
1702071402778378200,9.513378173828125,-1.006284236907959,0.2125726044178009,9.755936622619629
1702071402795368000,9.530367919921876,-0.9629639387130737,-0.04801879823207855,9.762503623962402
1702071402812358100,9.547358154296875,-0.8561503887176514,-0.398202121257782,9.764452934265137
1702071402829348000,9.56434814453125,-0.6844332814216614,-0.7930008769035339,9.753912925720215
1702071402846335500,9.58133544921875,-0.468046098947525,-1.1785613298416138,9.727694511413574
1702071402863330800,9.598330810546875,-0.2339564710855484,-1.5262327194213867,9.687723159790039
1702071402880318200,9.615318115234375,0.001308899256400764,-1.8441493511199951,9.635104179382324
1702071402897297000,9.632296875,0.20247651636600494,-2.1585912704467773,9.567423820495605
1702071402914292200,9.649292236328124,0.34057050943374634,-2.4944660663604736,9.48144245147705
1702071402931288600,9.66628857421875,0.41624048352241516,-2.865901231765747,9.37280559539795
1702071402948278500,9.683278564453126,0.44011497497558594,-3.257390022277832,9.242934226989746
1702071402965268700,9.700268798828125,0.4319925904273987,-3.650298833847046,9.095318794250488
1702071402982258400,9.717258544921876,0.41593703627586365,-4.029110431671143,8.934728622436523
1702071402999243800,9.734243896484376,0.40303924679756165,-4.388817310333252,8.764242172241211
1702071403016236800,9.75123681640625,0.39229878783226013,-4.725889205932617,8.587677001953125
1702071403033228500,9.768228515625,0.3739674687385559,-5.03672981262207,8.409971237182617
1702071403050218800,9.78521875,0.3526286482810974,-5.3220109939575195,8.233344078063965
1702071403067208700,9.802208740234375,0.33696863055229187,-5.580958366394043,8.060737609863281
1702071403084188200,9.819188232421874,0.3344484567642212,-5.8066229820251465,7.89983606338501
1702071403101188600,9.836188720703126,0.34464600682258606,-5.990597724914551,7.760803699493408
1702071403118179000,9.853178955078125,0.35613638162612915,-6.131008148193359,7.649838924407959
1702071403135168800,9.870168701171876,0.3626975417137146,-6.23301887512207,7.566640377044678
1702071403152159000,9.887158935546875,0.35540956258773804,-6.305118560791016,7.507016181945801
1702071403169149200,9.904149169921874,0.3320440948009491,-6.3628764152526855,7.459200859069824
1702071403186139100,9.92113916015625,0.3003089129924774,-6.4146246910095215,7.416098117828369
1702071403203129000,9.938129150390624,0.2673276960849762,-6.461733818054199,7.3763580322265625
1702071403220108500,9.955108642578125,0.24267232418060303,-6.495369911193848,7.3476128578186035
1702071403237109200,9.972109130859375,0.2385278195142746,-6.502776622772217,7.341194152832031
1702071403254099000,9.989098876953125,0.2548479735851288,-6.48821496963501,7.353518486022949
1702071403271089200,10.006089111328125,0.27484720945358276,-6.46809196472168,7.3705058097839355
1702071403288079000,10.0230791015625,0.28745555877685547,-6.4557623863220215,7.380828380584717
1702071403305069300,10.0400693359375,0.2808920741081238,-6.459186553955078,7.378084182739258
1702071403322055400,10.057055419921875,0.2631364166736603,-6.482364654541016,7.3583855628967285
1702071403339053300,10.07405322265625,0.26927775144577026,-6.511322975158691,7.3325514793396
1702071403356041200,10.091041259765625,0.3101433515548706,-6.510155200958252,7.331973552703857
1702071403373027300,10.10802734375,0.36996445059776306,-6.45416259765625,7.378551483154297
1702071403390017500,10.125017578125,0.42301392555236816,-6.3371124267578125,7.476509094238281
1702071403407009500,10.142009521484376,0.45102089643478394,-6.156074047088623,7.624658584594727
1702071403423999500,10.15899951171875,0.45481690764427185,-5.914566516876221,7.813267230987549
1702071403440989400,10.175989501953126,0.4403263330459595,-5.62391471862793,8.025821685791016
1702071403457979600,10.192979736328125,0.4163150489330292,-5.2967400550842285,8.24665641784668
1702071403474969300,10.20996923828125,0.39037182927131653,-4.9358744621276855,8.468816757202148
1702071403491959600,10.22695947265625,0.364339143037796,-4.54755163192749,8.684651374816895
1702071403508947200,10.243947265625,0.33852308988571167,-4.144125938415527,8.88525390625
1702071403525942500,10.260942626953126,0.30317434668540955,-3.7359399795532227,9.065703392028809
1702071403542930000,10.277929931640625,0.24584093689918518,-3.3297152519226074,9.224352836608887
1702071403559919900,10.294919921875,0.15475504100322723,-2.9205985069274902,9.363882064819336
1702071403576909600,10.31190966796875,0.029365157708525658,-2.504077196121216,9.484981536865234
1702071403593900000,10.328900146484376,-0.11342546343803406,-2.0862443447113037,9.584928512573242
1702071403610890000,10.345889892578125,-0.24872756004333496,-1.6815879344940186,9.661600112915039
1702071403627879700,10.362879638671876,-0.3592345118522644,-1.3078094720840454,9.715798377990723
1702071403644869600,10.37986962890625,-0.44645699858665466,-0.9728432893753052,9.751429557800293
1702071403661859800,10.39685986328125,-0.5236903429031372,-0.6752715706825256,9.772709846496582
1702071403678847200,10.41384716796875,-0.6015918254852295,-0.40722379088401794,9.783065795898438
1702071403695838200,10.430838134765626,-0.6789836883544922,-0.16593170166015625,9.78506851196289
1702071403712830700,10.447830810546876,-0.7464806437492371,0.03815571591258049,9.781482696533203
1702071403729821000,10.464821044921875,-0.800787091255188,0.19365277886390686,9.775344848632812
1702071403746813700,10.481813720703125,-0.8448074460029602,0.286805659532547,9.769350051879883
1702071403763800300,10.49880029296875,-0.8772462606430054,0.31147971749305725,9.76573371887207
1702071403780790300,10.515790283203126,-0.9113458395004272,0.2598312795162201,9.764120101928711
1702071403797780000,10.532780029296875,-0.9730093479156494,0.14534775912761688,9.760543823242188
1702071403814757400,10.54975732421875,-1.0655759572982788,-0.010412137024104595,9.75195026397705
1702071403831752400,10.56675244140625,-1.1686694622039795,-0.19042979180812836,9.73827838897705
1702071403848742100,10.5837421875,-1.2583221197128296,-0.4029339849948883,9.72061538696289
1702071403865734700,10.600734619140624,-1.315991997718811,-0.6659850478172302,9.698493957519531
1702071403882721800,10.6177216796875,-1.3326016664505005,-0.9836674928665161,9.66916275024414
1702071403899710700,10.634710693359375,-1.2964874505996704,-1.3473790884017944,9.63015079498291
1702071403916698400,10.651698486328126,-1.2062172889709473,-1.7405040264129639,9.578716278076172
1702071403933695200,10.6686953125,-1.0783582925796509,-2.1302199363708496,9.515010833740234
1702071403950684700,10.6856845703125,-0.9288238286972046,-2.4821338653564453,9.445233345031738
1702071403967672300,10.70267236328125,-0.7714998126029968,-2.783236265182495,9.37520694732666
1702071403984662800,10.719662841796875,-0.6210901141166687,-3.053334951400757,9.302016258239746
1702071404001662700,10.736662841796875,-0.4855753183364868,-3.3292505741119385,9.215010643005371
1702071404018633500,10.753633544921875,-0.36019960045814514,-3.6344733238220215,9.104778289794922
1702071404035640300,10.770640380859374,-0.23584306240081787,-3.9626712799072266,8.970938682556152
1702071404052630800,10.787630859375,-0.11746326088905334,-4.285512447357178,8.82364559173584
1702071404069620700,10.804620849609375,-0.012548125348985195,-4.584865570068359,8.672657012939453
1702071404086610700,10.821610595703126,0.07461310923099518,-4.851327896118164,8.52614688873291
1702071404103601000,10.838600830078125,0.14345209300518036,-5.089981555938721,8.384964942932129
1702071404120590800,10.8555908203125,0.19442899525165558,-5.312407493591309,8.244795799255371
1702071404137580800,10.872580810546875,0.23654882609844208,-5.521368026733398,8.105223655700684
1702071404154568000,10.88956787109375,0.27661746740341187,-5.707594394683838,7.973893165588379
1702071404171553300,10.90655322265625,0.31562539935112,-5.864473819732666,7.857762813568115
1702071404188551000,10.923551025390625,0.35654333233833313,-5.998672962188721,7.754026412963867
1702071404205537500,10.94053759765625,0.4095582962036133,-6.1230010986328125,7.65357780456543
1702071404222531000,10.957531005859375,0.47754621505737305,-6.242673873901367,7.552291393280029
1702071404239521000,10.97452099609375,0.5562105774879456,-6.356347560882568,7.451415538787842
1702071404256511000,10.991510986328125,0.6279436349868774,-6.45872688293457,7.357082843780518
1702071404273501000,11.0085009765625,0.679797887802124,-6.545859336853027,7.275007247924805
1702071404290491000,11.025490966796875,0.714225709438324,-6.619235515594482,7.204980373382568
1702071404307487700,11.04248779296875,0.735968291759491,-6.675870895385742,7.150328636169434
1702071404324468000,11.059468017578125,0.7508450746536255,-6.707730770111084,7.118896007537842
1702071404341461000,11.0764609375,0.7543233036994934,-6.709837913513184,7.116542816162109
1702071404358440700,11.093440673828125,0.7380855679512024,-6.681827068328857,7.144548416137695
1702071404375441000,11.11044091796875,0.6964566111564636,-6.6323561668396,7.194644451141357
1702071404392430800,11.127430908203126,0.6328953504562378,-6.570446968078613,7.257050514221191
1702071404409417500,11.14441748046875,0.5643700361251831,-6.506663799285889,7.319899082183838
1702071404426406700,11.16140673828125,0.5032678246498108,-6.442899703979492,7.380507946014404
1702071404443401200,11.178401123046875,0.4618780016899109,-6.3594770431518555,7.455189228057861
1702071404460391200,11.19539111328125,0.42763906717300415,-6.221001625061035,7.573136329650879
1702071404477381400,11.21238134765625,0.37467411160469055,-5.997611045837402,7.753993034362793
1702071404494375000,11.229375,0.2974095642566681,-5.681929588317871,7.991454124450684
1702071404511358000,11.24635791015625,0.20611757040023804,-5.294023036956787,8.256327629089355
1702071404528351200,11.263351318359375,0.11403825134038925,-4.873262882232666,8.513191223144531
1702071404545339000,11.2803388671875,0.031111573800444603,-4.457172870635986,8.738922119140625
1702071404562334200,11.297334228515625,-0.04712066799402237,-4.0527167320251465,8.933609962463379
1702071404579321300,11.3143212890625,-0.13000641763210297,-3.6587414741516113,9.1012544631958
1702071404596311300,11.331311279296875,-0.2285720556974411,-3.2789812088012695,9.242953300476074
1702071404613301500,11.348301513671874,-0.336958110332489,-2.9291718006134033,9.356416702270508
1702071404630291500,11.36529150390625,-0.4444918930530548,-2.6272199153900146,9.441200256347656
1702071404647281700,11.38228173828125,-0.5506124496459961,-2.375741720199585,9.502042770385742
1702071404664268800,11.399268798828125,-0.664200484752655,-2.162672281265259,9.545565605163574
1702071404681261600,11.416261474609374,-0.7918596267700195,-1.9767355918884277,9.576094627380371
1702071404698251800,11.433251708984375,-0.9268491864204407,-1.8086518049240112,9.597180366516113
1702071404715241700,11.45024169921875,-1.0495332479476929,-1.644821047782898,9.614006996154785
1702071404732231700,11.467231689453126,-1.1507742404937744,-1.4789137840270996,9.629364013671875
1702071404749218800,11.48421875,-1.2386629581451416,-1.3128000497817993,9.642531394958496
1702071404766214100,11.501214111328125,-1.313720941543579,-1.1492313146591187,9.653472900390625
1702071404783215400,11.51821533203125,-1.3683390617370605,-0.9894514083862305,9.663579940795898
1702071404800181200,11.53518115234375,-1.4000734090805054,-0.834449291229248,9.673656463623047
1702071404817181700,11.552181640625,-1.4073606729507446,-0.6910070180892944,9.683899879455566
1702071404834168300,11.569168212890625,-1.3940781354904175,-0.572832465171814,9.693531036376953
1702071404851165400,11.58616552734375,-1.373733639717102,-0.4899347126483917,9.70097827911377
1702071404868151600,11.603151611328125,-1.3601460456848145,-0.4537980556488037,9.704648971557617
1702071404885142000,11.62014208984375,-1.354125738143921,-0.4785914123058319,9.704297065734863
1702071404902118700,11.63711865234375,-1.353339433670044,-0.5623601078987122,9.69991683959961
1702071404919119000,11.654119140625,-1.3512969017028809,-0.68544602394104,9.692279815673828
1702071404936109000,11.671109130859374,-1.3353112936019897,-0.8363179564476013,9.682645797729492
1702071404953104600,11.688104736328125,-1.287234902381897,-1.0334392786026,9.670117378234863
1702071404970092000,11.705092041015625,-1.1913899183273315,-1.3120219707489014,9.648590087890625
1702071404987071500,11.722071533203126,-1.0448250770568848,-1.6753489971160889,9.60925006866455
1702071405004072200,11.739072265625,-0.8653666377067566,-2.0737836360931396,9.549172401428223
1702071405021058300,11.756058349609376,-0.67779141664505,-2.4518229961395264,9.474454879760742
1702071405038055700,11.7730556640625,-0.5039478540420532,-2.7914397716522217,9.390953063964844
1702071405055042000,11.7900419921875,-0.36719435453414917,-3.102701187133789,9.29916763305664
1702071405072032000,11.807031982421876,-0.2769630253314972,-3.414787530899048,9.192314147949219
1702071405089022200,11.824022216796875,-0.21444839239120483,-3.7624027729034424,9.05728816986084
1702071405106012200,11.84101220703125,-0.15812158584594727,-4.152050495147705,8.886597633361816
1702071405123002400,11.85800244140625,-0.09146711975336075,-4.553061485290527,8.688922882080078
1702071405139974400,11.874974365234374,-0.004349743947386742,-4.9184770584106445,8.487914085388184
1702071405156982300,11.891982177734375,0.09708571434020996,-5.2345991134643555,8.296122550964355
1702071405173972500,11.908972412109375,0.20079368352890015,-5.515958309173584,8.109871864318848
1702071405190962700,11.925962646484376,0.29172462224960327,-5.777570724487305,7.922796726226807
1702071405207952000,11.942951904296875,0.3601449429988861,-6.019285202026367,7.7378692626953125
1702071405224942300,11.9599423828125,0.4045855402946472,-6.226998805999756,7.569472312927246
1702071405241932300,11.976932373046875,0.4338870942592621,-6.393540382385254,7.427685260772705
1702071405258922500,11.993922607421876,0.46392160654067993,-6.517282485961914,7.317509651184082
1702071405275910000,12.010909912109375,0.49904000759124756,-6.603224277496338,7.237713813781738
1702071405292904700,12.02790478515625,0.5356417894363403,-6.662291049957275,7.18074369430542
1702071405309892000,12.04489208984375,0.5673030018806458,-6.7019877433776855,7.14126443862915
1702071405326882600,12.061882568359374,0.5869911909103394,-6.716678619384766,7.125853538513184
1702071405343872500,12.07887255859375,0.5904650092124939,-6.702247619628906,7.139142036437988
1702071405360862200,12.0958623046875,0.5786457657814026,-6.6658830642700195,7.174069881439209
1702071405377852700,12.112852783203126,0.5575338006019592,-6.61631441116333,7.221471786499023
1702071405394842400,12.12984228515625,0.5396404266357422,-6.563783645629883,7.270601272583008
1702071405411832600,12.14683251953125,0.5339162945747375,-6.509088516235352,7.320028305053711
1702071405428822800,12.16382275390625,0.5328971147537231,-6.441544055938721,7.379611968994141
1702071405445809700,12.1808095703125,0.5211033225059509,-6.352308750152588,7.457395553588867
1702071405462805000,12.197804931640626,0.48938944935798645,-6.251128196716309,7.544534683227539
1702071405479792600,12.214792724609374,0.45188453793525696,-6.169881820678711,7.61344051361084
1702071405496772400,12.2317724609375,0.43600526452064514,-6.140023231506348,7.638464450836182
1702071405513772800,12.248772705078125,0.46005427837371826,-6.1565022468566895,7.623776912689209
1702071405530764500,12.2657646484375,0.5065457820892334,-6.173835754394531,7.606791019439697
1702071405547752700,12.282752685546875,0.5459718108177185,-6.13225793838501,7.637633323669434
1702071405564729900,12.299729736328125,0.5503087043762207,-5.982250690460205,7.755382537841797
1702071405581722600,12.31672265625,0.49855291843414307,-5.721405982971191,7.95318078994751
1702071405598712000,12.333712158203125,0.39876580238342285,-5.389553070068359,8.187174797058105
1702071405615706600,12.35070654296875,0.28262194991111755,-5.025488376617432,8.420255661010742
1702071405632697000,12.367697021484375,0.18896740674972534,-4.658941268920898,8.631030082702637
1702071405649682400,12.384682373046875,0.1357637345790863,-4.303674221038818,8.81453800201416
1702071405666677000,12.401677001953125,0.09694961458444595,-3.964794158935547,8.972577095031738
1702071405683671300,12.41867138671875,0.03528677672147751,-3.6409032344818115,9.109264373779297
1702071405700654000,12.435654052734375,-0.07161494344472885,-3.3195512294769287,9.231011390686035
1702071405717642000,12.45264208984375,-0.227089062333107,-2.991305351257324,9.340056419372559
1702071405734638800,12.469638916015626,-0.40270331501960754,-2.661362648010254,9.43350887298584
1702071405751632400,12.48663232421875,-0.5670466423034668,-2.3405168056488037,9.50981330871582
1702071405768615400,12.503615478515625,-0.7090331315994263,-2.037245512008667,9.569901466369629
1702071405785607700,12.520607666015625,-0.8370673060417175,-1.7639484405517578,9.613737106323242
1702071405802604800,12.537604736328126,-0.9641987681388855,-1.5215054750442505,9.643208503723145
1702071405819593000,12.554593017578124,-1.0917046070098877,-1.2935770750045776,9.66286563873291
1702071405836583000,12.5715830078125,-1.2059375047683716,-1.0700286626815796,9.676615715026855
1702071405853572900,12.58857275390625,-1.3031690120697021,-0.8591400384902954,9.685027122497559
1702071405870552300,12.60555224609375,-1.383103847503662,-0.6842007040977478,9.687878608703613
1702071405887552800,12.622552734375,-1.435125470161438,-0.57054603099823,9.687674522399902
1702071405904532500,12.639532470703125,-1.4587706327438354,-0.5234373807907104,9.686802864074707
1702071405921533200,12.656533203125,-1.4658492803573608,-0.5218407511711121,9.685818672180176
1702071405938523000,12.67352294921875,-1.4573261737823486,-0.5551982522010803,9.68525218963623
1702071405955512800,12.690512939453125,-1.4304245710372925,-0.6290573477745056,9.684745788574219
1702071405972503000,12.7075029296875,-1.3749470710754395,-0.7541237473487854,9.68384838104248
1702071405989493000,12.724492919921875,-1.2722283601760864,-0.9380750060081482,9.681816101074219
1702071406006483200,12.741483154296875,-1.1285935640335083,-1.1784588098526,9.673347473144531
1702071406023473200,12.75847314453125,-0.9853818416595459,-1.4603739976882935,9.650514602661133
1702071406040463000,12.775463134765625,-0.8775205016136169,-1.788427710533142,9.605603218078613
1702071406057453000,12.792453125,-0.8099894523620605,-2.1916072368621826,9.527691841125488
1702071406074442500,12.8094423828125,-0.7504870891571045,-2.6638312339782715,9.411531448364258
1702071406091441700,12.826441650390626,-0.6633220314979553,-3.1549837589263916,9.265106201171875
1702071406108422700,12.843422607421875,-0.536135733127594,-3.614738941192627,9.103973388671875
1702071406125413400,12.860413330078124,-0.37317854166030884,-4.0175628662109375,8.941815376281738
1702071406142403300,12.8774033203125,-0.20408055186271667,-4.363085746765137,8.783961296081543
1702071406159390700,12.894390625,-0.07096400856971741,-4.668114185333252,8.627850532531738
1702071406176383500,12.911383544921875,0.0041271112859249115,-4.953830718994141,8.467329978942871
1702071406193362000,12.92836181640625,0.025486990809440613,-5.233116149902344,8.297589302062988
1702071406210367700,12.94536767578125,0.004787992686033249,-5.501466751098633,8.12218952178955
1702071406227353000,12.96235302734375,-0.0349121168255806,-5.725024223327637,7.966116905212402
1702071406244343300,12.97934326171875,-0.07214748114347458,-5.88108491897583,7.851353168487549
1702071406261333200,12.996333251953125,-0.09780038893222809,-5.975569248199463,7.779404640197754
1702071406278323200,13.0133232421875,-0.11293765902519226,-6.030115604400635,7.736994743347168
1702071406295313400,13.0303134765625,-0.11827748268842697,-6.065810680389404,7.708961486816406
1702071406312303400,13.047303466796874,-0.11266269534826279,-6.093531131744385,7.687153339385986
1702071406329291800,13.064291748046875,-0.09754062443971634,-6.112791061401367,7.672052383422852
1702071406346285000,13.08128515625,-0.08076013624668121,-6.116825580596924,7.669032573699951
1702071406363273200,13.098273193359375,-0.07427630573511124,-6.102829456329346,7.68023681640625
1702071406380253000,13.1152529296875,-0.0752001702785492,-6.077320098876953,7.7004313468933105
1702071406397253400,13.13225341796875,-0.07568679749965668,-6.047582626342773,7.723803997039795
1702071406414245400,13.149245361328125,-0.06562110781669617,-6.018433094024658,7.7466301918029785
1702071406431231500,13.1662314453125,-0.04338575899600983,-5.986129283905029,7.771773815155029
1702071406448214500,13.183214599609375,-0.023461954668164253,-5.94119119644165,7.806268215179443
1702071406465213400,13.20021337890625,-0.014475367963314056,-5.878093242645264,7.853912353515625
1702071406482203400,13.217203369140625,-0.017815005034208298,-5.798536777496338,7.912824630737305
1702071406499193300,13.234193359375,-0.025091134011745453,-5.707279205322266,7.978876113891602
1702071406516181000,13.251180908203125,-0.027547769248485565,-5.609147548675537,8.048158645629883
1702071406533175800,13.26817578125,-0.028306664898991585,-5.509477615356445,8.11670970916748
1702071406550163500,13.28516357421875,-0.043555181473493576,-5.411870956420898,8.182046890258789
1702071406567156200,13.30215625,-0.0815102607011795,-5.303947448730469,8.252128601074219
1702071406584143400,13.319143310546876,-0.1393362283706665,-5.181317329406738,8.328903198242188
1702071406601133600,13.336133544921875,-0.21584731340408325,-5.046864032745361,8.409442901611328
1702071406618123800,13.353123779296874,-0.30560386180877686,-4.904451847076416,8.49052906036377
1702071406635103000,13.37010302734375,-0.40423619747161865,-4.761486530303955,8.567435264587402
1702071406652103700,13.387103759765624,-0.4850893020629883,-4.629539489746094,8.635287284851074
1702071406669093600,13.40409375,-0.5230672955513,-4.519421577453613,8.69122314453125
1702071406686083600,13.42108349609375,-0.5308564305305481,-4.415335178375244,8.744091987609863
1702071406703073800,13.43807373046875,-0.549139142036438,-4.283097267150879,8.80849838256836
1702071406720064300,13.455064208984375,-0.6105031967163086,-4.09824800491333,8.892005920410156
1702071406737053400,13.472053466796876,-0.7168872356414795,-3.870285749435425,8.985715866088867
1702071406754045400,13.48904541015625,-0.8450081944465637,-3.639432907104492,9.070647239685059
1702071406771031300,13.50603125,-0.964653730392456,-3.4400393962860107,9.136285781860352
1702071406788020000,13.52302001953125,-1.0618956089019775,-3.2641658782958984,9.189870834350586
1702071406805014500,13.5400146484375,-1.1396647691726685,-3.0891330242156982,9.240918159484863
1702071406822006300,13.55700634765625,-1.2100247144699097,-2.9029271602630615,9.292200088500977
1702071406838993700,13.57399365234375,-1.28134286403656,-2.7027053833007812,9.342896461486816
1702071406855990000,13.590989990234375,-1.3530601263046265,-2.497105598449707,9.389878273010254
1702071406872976100,13.60797607421875,-1.4226535558700562,-2.30197811126709,9.429372787475586
1702071406889963500,13.624963623046876,-1.494244933128357,-2.12414288520813,9.459988594055176
1702071406906953700,13.64195361328125,-1.568145513534546,-1.9607317447662354,9.483278274536133
1702071406923941400,13.65894140625,-1.638235330581665,-1.8160151243209839,9.500231742858887
1702071406940936000,13.67593603515625,-1.7017871141433716,-1.6990875005722046,9.510685920715332
1702071406957923800,13.692923828125,-1.7578074932098389,-1.6255353689193726,9.513351440429688
1702071406974913800,13.709913818359375,-1.8110136985778809,-1.6033122539520264,9.507140159606934
1702071406991903500,13.726903564453124,-1.859635353088379,-1.6281707286834717,9.493520736694336
1702071407008893700,13.743893798828125,-1.8991272449493408,-1.684141755104065,9.475920677185059
1702071407025884000,13.7608837890625,-1.9190126657485962,-1.7513378858566284,9.459721565246582
1702071407042873600,13.77787353515625,-1.9156923294067383,-1.821973204612732,9.44704532623291
1702071407059863800,13.79486376953125,-1.8854695558547974,-1.9013447761535645,9.437480926513672
1702071407076853800,13.811853759765626,-1.8295373916625977,-1.9940707683563232,9.42934799194336
1702071407093833500,13.82883349609375,-1.753322720527649,-2.1052463054656982,9.419656753540039
1702071407110829600,13.84582958984375,-1.6707700490951538,-2.240978717803955,9.403332710266113
1702071407127823600,13.86282373046875,-1.5883795022964478,-2.402411460876465,9.377718925476074
1702071407144813600,13.8798134765625,-1.4965156316757202,-2.5900089740753174,9.342827796936035
1702071407161803800,13.8968037109375,-1.3918194770812988,-2.7998669147491455,9.298372268676758
1702071407178783700,13.91378369140625,-1.2818448543548584,-3.0337986946105957,9.240618705749512
1702071407195781000,13.930781005859375,-1.176276683807373,-3.298039197921753,9.163810729980469
1702071407212774000,13.94777392578125,-1.0761058330535889,-3.589812755584717,9.06594467163086
1702071407229766400,13.964766357421874,-0.9772445559501648,-3.8858017921447754,8.954421997070312
1702071407246754300,13.98175439453125,-0.8948162794113159,-4.148550033569336,8.844488143920898
1702071407263743700,13.99874365234375,-0.8520235419273376,-4.353168487548828,8.749862670898438
1702071407280734000,14.01573388671875,-0.8629992008209229,-4.508526802062988,8.669747352600098
1702071407297724000,14.032723876953124,-0.908284604549408,-4.650712966918945,8.589645385742188
1702071407314701600,14.04970166015625,-0.9602115154266357,-4.80784273147583,8.496984481811523
1702071407331697400,14.066697509765625,-0.9980849623680115,-4.993833541870117,8.384604454040527
1702071407348687400,14.083687255859376,-1.014168620109558,-5.200186252593994,8.256247520446777
1702071407365676000,14.100676025390625,-1.0112241506576538,-5.414034366607666,8.117990493774414
1702071407382664400,14.11766455078125,-0.9928503036499023,-5.62428617477417,7.976075649261475
1702071407399654100,14.134654052734374,-0.9571937918663025,-5.825385093688965,7.83484411239624
1702071407416645600,14.151645751953126,-0.8991981148719788,-6.008930683135986,7.701968193054199
1702071407433639000,14.168638916015626,-0.8236744999885559,-6.163954734802246,7.587051868438721
1702071407450626600,14.18562646484375,-0.7441149353981018,-6.288245677947998,7.49268913269043
1702071407467616000,14.202615966796875,-0.6757563948631287,-6.383859157562256,7.417937755584717
1702071407484603400,14.219603271484376,-0.6162630915641785,-6.460233211517334,7.356747150421143
1702071407501598200,14.23659814453125,-0.5618782043457031,-6.524330139160156,7.304351329803467
1702071407518580000,14.253580078125,-0.5116755366325378,-6.572680950164795,7.264583587646484
1702071407535576000,14.270576171875,-0.4675069749355316,-6.598453521728516,7.244167327880859
1702071407552574000,14.287573974609375,-0.4193982779979706,-6.599789619445801,7.245895862579346
1702071407569564000,14.30456396484375,-0.37699267268180847,-6.580069541931152,7.266134738922119
1702071407586554000,14.32155419921875,-0.34776315093040466,-6.556763648986816,7.288624286651611
1702071407603544000,14.3385439453125,-0.32192957401275635,-6.546014785766602,7.299463748931885
1702071407620523500,14.3555234375,-0.2811734676361084,-6.540550708770752,7.30604362487793
1702071407637524000,14.37252392578125,-0.21925991773605347,-6.516241550445557,7.329846382141113
1702071407654511000,14.389510986328125,-0.1423497349023819,-6.455420017242432,7.385350704193115
1702071407671508200,14.40650830078125,-0.07066506892442703,-6.361999034881592,7.4670000076293945
1702071407688494000,14.423494140625,-0.013349194079637527,-6.253077507019043,7.558766841888428
1702071407705484000,14.440484130859375,0.0139767462387681,-6.14161491394043,7.649608612060547
1702071407722474200,14.45747412109375,0.005963867995887995,-6.020251750946045,7.745491027832031
1702071407739464000,14.4744638671875,-0.031774356961250305,-5.873184680938721,7.857533931732178
1702071407756454000,14.491453857421876,-0.07194998860359192,-5.68641471862793,7.993474006652832
1702071407773443800,14.50844384765625,-0.062486857175827026,-5.457638263702393,8.15146541595459
1702071407790434000,14.52543408203125,-0.001542203244753182,-5.190685272216797,8.324235916137695
1702071407807424000,14.542424072265625,0.05824119225144386,-4.877115249633789,8.51154899597168
1702071407824414000,14.5594140625,0.055787116289138794,-4.510213375091553,8.711544036865234
1702071407841401000,14.576401123046875,-0.004842664115130901,-4.111424446105957,8.906867980957031
1702071407858396200,14.593396240234375,-0.08540823310613632,-3.7148609161376953,9.079020500183105
1702071407875374600,14.61037451171875,-0.1823834329843521,-3.340139150619507,9.222058296203613
1702071407892374000,14.6273740234375,-0.325336754322052,-2.983844518661499,9.33953857421875
1702071407909363700,14.64436376953125,-0.5171570181846619,-2.634324312210083,9.435517311096191
1702071407926354000,14.66135400390625,-0.7172171473503113,-2.2808961868286133,9.514158248901367
1702071407943344000,14.67834423828125,-0.8889083862304688,-1.9103468656539917,9.581049919128418
1702071407960334000,14.695333984375,-1.004939317703247,-1.520403265953064,9.63922119140625
1702071407977324000,14.712323974609374,-1.0611035823822021,-1.1217056512832642,9.687722206115723
1702071407994312200,14.729312255859375,-1.0708322525024414,-0.7322596907615662,9.723849296569824
1702071408011305700,14.7463056640625,-1.055690884590149,-0.3733409345149994,9.745882987976074
1702071408028294000,14.7632939453125,-1.0236966609954834,-0.0689798966050148,9.756197929382324
1702071408045283800,14.780283935546874,-0.985752284526825,0.17053638398647308,9.75886058807373
1702071408062279700,14.79727978515625,-0.9664664268493652,0.3521266579627991,9.7559232711792
1702071408079263700,14.814263671875,-0.9804248809814453,0.472659707069397,9.749435424804688
1702071408096254000,14.83125390625,-1.0185352563858032,0.5327480435371399,9.742426872253418
1702071408113241300,14.848241455078124,-1.0666292905807495,0.535245954990387,9.737142562866211
1702071408130236700,14.865236572265625,-1.1249593496322632,0.4790331721305847,9.733505249023438
1702071408147224000,14.88222412109375,-1.197502851486206,0.3606586158275604,9.729955673217773
1702071408164214000,14.899214111328124,-1.2752012014389038,0.1910066157579422,9.724891662597656
1702071408181201700,14.91620166015625,-1.3513758182525635,0.000050870778068201616,9.716476440429688
1702071408198196500,14.933196533203125,-1.4358540773391724,-0.1978212594985962,9.702333450317383
1702071408215184100,14.95018408203125,-1.5443105697631836,-0.42085686326026917,9.678537368774414
1702071408232170500,14.96717041015625,-1.6736059188842773,-0.6949796080589294,9.6411714553833
1702071408249164000,14.9841640625,-1.7805263996124268,-1.0309067964553833,9.59182357788086
1702071408266156800,15.00115673828125,-1.8058687448501587,-1.4047915935516357,9.539470672607422
1702071408283144200,15.018144287109376,-1.7282907962799072,-1.7570918798446655,9.495355606079102
1702071408300129500,15.035129638671876,-1.568453073501587,-2.041574239730835,9.46615219116211
1702071408317123800,15.052123779296876,-1.3784127235412598,-2.261190414428711,9.445799827575684
1702071408334103600,15.069103515625,-1.2095165252685547,-2.4551267623901367,9.42048454284668
1702071408351104300,15.086104248046874,-1.085567831993103,-2.667794704437256,9.377660751342773
1702071408368094200,15.10309423828125,-0.9992049932479858,-2.9265403747558594,9.309839248657227
1702071408385084000,15.120083984375,-0.9391932487487793,-3.2274017333984375,9.21617603302002
1702071408402074000,15.13707421875,-0.8972359895706177,-3.540506362915039,9.104717254638672
1702071408419063800,15.154063720703125,-0.8591554164886475,-3.8334665298461914,8.989021301269531
1702071408436053800,15.1710537109375,-0.8117619752883911,-4.096081733703613,8.876895904541016
1702071408453043700,15.188043701171875,-0.757840096950531,-4.343078136444092,8.763529777526855
1702071408470036700,15.20503662109375,-0.7045064568519592,-4.5841240882873535,8.644396781921387
1702071408487026700,15.222026611328126,-0.6597902178764343,-4.8223371505737305,8.517383575439453
1702071408504010800,15.2390107421875,-0.6228123903274536,-5.055994033813477,8.383623123168945
1702071408521007400,15.25600732421875,-0.585290253162384,-5.263174533843994,8.2578763961792
1702071408537983500,15.2729833984375,-0.5475870966911316,-5.4274187088012695,8.153491020202637
1702071408554984200,15.289984130859375,-0.516044557094574,-5.559979438781738,8.06575870513916
1702071408571971300,15.306971435546876,-0.488082617521286,-5.684783935546875,7.980046272277832
1702071408588966400,15.32396630859375,-0.47716760635375977,-5.806040287017822,7.892928123474121
1702071408605938700,15.340938720703125,-0.4824528992176056,-5.911501884460449,7.813931465148926
1702071408622944000,15.357944091796876,-0.49297088384628296,-5.986522197723389,7.755943775177002
1702071408639936500,15.3749365234375,-0.48960843682289124,-6.030592918395996,7.721940517425537
1702071408656921300,15.39192138671875,-0.4565172791481018,-6.057571887969971,7.70282506942749
1702071408673914000,15.4089140625,-0.40450865030288696,-6.07171630859375,7.69459342956543
1702071408690901200,15.4259013671875,-0.3693355917930603,-6.063071250915527,7.703173637390137
1702071408707896300,15.442896240234376,-0.36663591861724854,-6.042766571044922,7.719241142272949
1702071408724884000,15.459884033203124,-0.3651060163974762,-6.038662910461426,7.722523212432861
1702071408741871400,15.476871337890625,-0.3267076313495636,-6.052604675292969,7.713324546813965
1702071408758868200,15.4938681640625,-0.25083181262016296,-6.045251369476318,7.721925735473633
1702071408775855600,15.510855712890624,-0.17377574741840363,-5.963938236236572,7.78700065612793
1702071408792842500,15.527842529296874,-0.1372555047273636,-5.769501686096191,7.932850360870361
1702071408809833700,15.544833740234376,-0.15129320323467255,-5.469455242156982,8.142376899719238
1702071408826824200,15.56182421875,-0.1979721188545227,-5.1073126792907715,8.373305320739746
1702071408843814000,15.57881396484375,-0.25594550371170044,-4.727731227874756,8.591808319091797
1702071408860803800,15.595803955078125,-0.315957248210907,-4.354344367980957,8.784984588623047
1702071408877794000,15.6127939453125,-0.37898436188697815,-3.987687826156616,8.954934120178223
1702071408894782700,15.62978271484375,-0.4562360346317291,-3.6188437938690186,9.106697082519531
1702071408911775000,15.64677490234375,-0.5633938908576965,-3.2471776008605957,9.239835739135742
1702071408928763600,15.663763671875,-0.6933476328849792,-2.8885679244995117,9.34941577911377
1702071408945753600,15.680753662109375,-0.8273091316223145,-2.5528979301452637,9.435803413391113
1702071408962744000,15.697744140625,-0.9550760388374329,-2.231409788131714,9.504985809326172
1702071408979728100,15.71472802734375,-1.0708866119384766,-1.9155546426773071,9.561379432678223
1702071408996724000,15.731723876953126,-1.1704734563827515,-1.604253888130188,9.606898307800293
1702071409013714000,15.7487138671875,-1.249750018119812,-1.3038394451141357,9.642315864562988
1702071409030704000,15.7657041015625,-1.3127572536468506,-1.0245603322982788,9.66762924194336
1702071409047693800,15.78269384765625,-1.366930603981018,-0.772485077381134,9.6835355758667
1702071409064671200,15.799671142578125,-1.4215037822723389,-0.5461001396179199,9.691089630126953
1702071409081665000,15.8166650390625,-1.4812711477279663,-0.34356749057769775,9.691434860229492
1702071409098650000,15.833650146484375,-1.5487182140350342,-0.15991374850273132,9.685660362243652
1702071409115659300,15.8506591796875,-1.6146045923233032,0.00019325048197060823,9.676218032836914
1702071409132634000,15.867634033203124,-1.668634057044983,0.13333319127559662,9.666126251220703
1702071409149624300,15.884624267578126,-1.7120332717895508,0.2294473797082901,9.656730651855469
1702071409166616000,15.901615966796875,-1.7603405714035034,0.26827171444892883,9.647037506103516
1702071409183604700,15.918604736328126,-1.8233139514923096,0.23366117477416992,9.636237144470215
1702071409200593200,15.93559326171875,-1.9045867919921875,0.11226537823677063,9.622686386108398
1702071409217584400,15.95258447265625,-2.010784387588501,-0.09165218472480774,9.601275444030762
1702071409234575000,15.9695751953125,-2.145887851715088,-0.3515743911266327,9.56596565246582
1702071409251568000,15.986568115234375,-2.2894978523254395,-0.6475467085838318,9.517088890075684
1702071409268553200,16.00355322265625,-2.3921573162078857,-0.9621000289916992,9.46509838104248
1702071409285543000,16.02054296875,-2.410909414291382,-1.285597801208496,9.421828269958496
1702071409302539300,16.037539306640625,-2.323183059692383,-1.613240122795105,9.393424034118652
1702071409319535600,16.05453564453125,-2.1393566131591797,-1.9282644987106323,9.377690315246582
1702071409336523500,16.0715234375,-1.9005024433135986,-2.209036350250244,9.367197036743164
1702071409353516300,16.088516357421874,-1.6519677639007568,-2.4497790336608887,9.354448318481445
1702071409370501400,16.10550146484375,-1.4363259077072144,-2.6563501358032227,9.333643913269043
1702071409387483100,16.122483154296877,-1.275911569595337,-2.850550413131714,9.299599647521973
1702071409404483800,16.13948388671875,-1.1681567430496216,-3.07554030418396,9.24189281463623
1702071409421472000,16.156471923828125,-1.0953104496002197,-3.359050750732422,9.151677131652832
1702071409438454800,16.173454833984376,-1.0425480604171753,-3.6991519927978516,9.025824546813965
1702071409455453400,16.190453369140624,-0.9956937432289124,-4.080428123474121,8.865371704101562
1702071409472440800,16.20744091796875,-0.9293845891952515,-4.474354267120361,8.680583000183105
1702071409489436400,16.2244365234375,-0.8239487409591675,-4.848031044006348,8.488451957702637
1702071409506423800,16.241423828125,-0.6792348027229309,-5.189281463623047,8.297354698181152
1702071409523413800,16.258413818359376,-0.5164705514907837,-5.499231815338135,8.107270240783691
1702071409540403700,16.27540380859375,-0.36021655797958374,-5.776572227478027,7.9207048416137695
1702071409557393700,16.2923935546875,-0.22169660031795502,-6.025797367095947,7.738006591796875
1702071409574384000,16.309384033203123,-0.10271453112363815,-6.247347354888916,7.562817096710205
1702071409591373600,16.32637353515625,-0.0018757868092507124,-6.439640998840332,7.400482177734375
1702071409608363000,16.343363037109373,0.08635782450437546,-6.598073482513428,7.259068489074707
1702071409625353500,16.360353515625,0.1613539159297943,-6.727346897125244,7.138126373291016
1702071409642343400,16.377343505859375,0.22601068019866943,-6.8398308753967285,7.028639316558838
1702071409659333400,16.39433349609375,0.29572468996047974,-6.944015979766846,6.923097610473633
1702071409676323300,16.4113232421875,0.3794623911380768,-7.036900997161865,6.824525356292725
1702071409693313500,16.4283134765625,0.4713157117366791,-7.115848541259766,6.736370086669922
1702071409710303700,16.4453037109375,0.562018632888794,-7.175761699676514,6.665487766265869
1702071409727283500,16.462283447265627,0.6325170397758484,-7.208600997924805,6.623602867126465
1702071409744283400,16.479283447265626,0.6717357635498047,-7.208345890045166,6.620018482208252
1702071409761273600,16.496273681640623,0.6834033131599426,-7.170067310333252,6.660271167755127
1702071409778263600,16.513263671875,0.6740559339523315,-7.0883049964904785,6.748161792755127
1702071409795253800,16.530253662109374,0.6438857913017273,-6.9664106369018555,6.876818656921387
1702071409812243500,16.547243408203126,0.5943531394004822,-6.825573444366455,7.020997047424316
1702071409829233400,16.5642333984375,0.5402418375015259,-6.694697380065918,7.1501946449279785
1702071409846223400,16.581223388671877,0.4979269802570343,-6.582568645477295,7.256579875946045
1702071409863206000,16.598205810546876,0.4669852554798126,-6.461169242858887,7.366908073425293
1702071409880201500,16.615201416015626,0.4315081536769867,-6.291226387023926,7.514679431915283
1702071409897193200,16.632193115234376,0.37448230385780334,-6.041896820068359,7.719543933868408
1702071409914185200,16.649185302734374,0.2920859754085541,-5.708951950073242,7.972370147705078
1702071409931171600,16.666171630859374,0.1898333728313446,-5.314901828765869,8.243294715881348
1702071409948163600,16.68316357421875,0.07395967841148376,-4.890699863433838,8.503628730773926
1702071409965153300,16.7001533203125,-0.04848160594701767,-4.460567951202393,8.73711109161377
1702071409982143200,16.717143310546874,-0.17325299978256226,-4.033841133117676,8.940594673156738
1702071409999133400,16.734133544921875,-0.30026212334632874,-3.621481418609619,9.112127304077148
1702071410016123400,16.751123291015624,-0.4223525822162628,-3.2452754974365234,9.24802303314209
1702071410033113300,16.76811328125,-0.5216348171234131,-2.917971611022949,9.351442337036133
1702071410050101000,16.78510107421875,-0.5939549207687378,-2.631497621536255,9.431784629821777
1702071410067093500,16.802093505859375,-0.6481106877326965,-2.372358560562134,9.496735572814941
1702071410084085500,16.81908544921875,-0.686846137046814,-2.1289901733398438,9.551532745361328
1702071410101073200,16.8360732421875,-0.7196893692016602,-1.8999253511428833,9.597314834594727
1702071410118063400,16.8530634765625,-0.7577992081642151,-1.6897284984588623,9.633623123168945
1702071410135053000,16.870052978515623,-0.8062708377838135,-1.5000784397125244,9.66104793548584
1702071410152043300,16.887043212890624,-0.8636893630027771,-1.3335566520690918,9.680482864379883
1702071410169033200,16.904033203125,-0.9243437051773071,-1.195091724395752,9.692957878112793
1702071410186023000,16.92102294921875,-0.9865171313285828,-1.089834451675415,9.699236869812012
1702071410203013000,16.93801318359375,-1.0504616498947144,-1.0224372148513794,9.699859619140625
1702071410220004400,16.95500439453125,-1.1160989999771118,-0.9971812963485718,9.695158004760742
1702071410236996000,16.97199609375,-1.1854008436203003,-1.0073375701904297,9.685876846313477
1702071410253983200,16.988983154296875,-1.2588213682174683,-1.0455543994903564,9.672554016113281
1702071410270969000,17.005968994140623,-1.3222402334213257,-1.117449402809143,9.656038284301758
1702071410287963100,17.022963134765625,-1.3625012636184692,-1.2334351539611816,9.636305809020996
1702071410304953000,17.039953125,-1.3824046850204468,-1.4043258428573608,9.610044479370117
1702071410321943000,17.056943115234375,-1.386802315711975,-1.6318449974060059,9.573400497436523
1702071410338933000,17.07393310546875,-1.376960277557373,-1.8952122926712036,9.526189804077148
1702071410355920400,17.09092041015625,-1.3622750043869019,-2.1653764247894287,9.470558166503906
1702071410372915500,17.10791552734375,-1.3491204977035522,-2.428551435470581,9.408408164978027
1702071410389892400,17.124892333984373,-1.3221051692962646,-2.7138450145721436,9.333980560302734
1702071410406893000,17.14189306640625,-1.2486530542373657,-3.0692548751831055,9.233451843261719
1702071410423880400,17.15888037109375,-1.0928926467895508,-3.4985456466674805,9.099553108215332
1702071410440875500,17.17587548828125,-0.854005753993988,-3.9440903663635254,8.941527366638184
1702071410457862700,17.192862548828124,-0.5747783780097961,-4.336792469024658,8.780545234680176
1702071410474852900,17.209852783203125,-0.325339674949646,-4.650439739227295,8.631551742553711
1702071410491846700,17.2268466796875,-0.15986815094947815,-4.884864330291748,8.505802154541016
1702071410508833000,17.2438330078125,-0.093952476978302,-5.065497875213623,8.40047836303711
1702071410525824300,17.26082421875,-0.1020771861076355,-5.234420299530029,8.296175956726074
1702071410542811000,17.277810791015625,-0.14597105979919434,-5.420355796813965,8.175239562988281
1702071410559803000,17.294802978515627,-0.18847301602363586,-5.628241539001465,8.0326509475708
1702071410576792800,17.311792724609376,-0.2025390863418579,-5.8333821296691895,7.8845906257629395
1702071410593784800,17.328784912109374,-0.17821085453033447,-6.003509998321533,7.756429672241211
1702071410610771000,17.34577099609375,-0.11834385246038437,-6.125965595245361,7.6612443923950195
1702071410627760000,17.362760009765626,-0.03819723054766655,-6.205259799957275,7.597986221313477
1702071410644744700,17.37974462890625,0.03910734876990318,-6.250002384185791,7.561222076416016
1702071410661742300,17.396742431640625,0.09980408102273941,-6.272647857666016,7.541886329650879
1702071410678722000,17.41372216796875,0.14699257910251617,-6.283991813659668,7.531662940979004
1702071410695720200,17.43072021484375,0.1885601431131363,-6.2933244705200195,7.522941589355469
1702071410712715300,17.44771533203125,0.23833046853542328,-6.299281597137451,7.516541481018066
1702071410729703000,17.464702880859374,0.3003898859024048,-6.297072410583496,7.516164302825928
1702071410746692600,17.481692626953127,0.36752793192863464,-6.288496971130371,7.520360946655273
1702071410763682800,17.498682861328124,0.4307608902454376,-6.284213542938232,7.520587921142578
1702071410780671700,17.515671630859377,0.4761309027671814,-6.291851043701172,7.511458873748779
1702071410797651700,17.532651611328124,0.502922534942627,-6.3079352378845215,7.496209621429443
1702071410814647300,17.549647216796874,0.5245779752731323,-6.323450088500977,7.4816389083862305
1702071410831639000,17.56663916015625,0.5485398769378662,-6.322054862976074,7.481098651885986
1702071410848622000,17.5836220703125,0.5694615244865417,-6.292271614074707,7.504610061645508
1702071410865613300,17.60061328125,0.5728087425231934,-6.231827259063721,7.554622650146484
1702071410882602200,17.617602294921873,0.5462758541107178,-6.141199111938477,7.6304240226745605
1702071410899591400,17.63459130859375,0.48956283926963806,-6.034307479858398,7.71904182434082
1702071410916581000,17.6515810546875,0.4422641098499298,-5.927069664001465,7.80450963973999
1702071410933577700,17.66857763671875,0.43791553378105164,-5.80270528793335,7.897655487060547
1702071410950565600,17.685565673828126,0.4821193218231201,-5.622148513793945,8.024659156799316
1702071410967551700,17.7025517578125,0.5350307822227478,-5.353573322296143,8.202993392944336
1702071410984549600,17.719549560546874,0.5511044859886169,-4.995622634887695,8.424735069274902
1702071411001532700,17.73653271484375,0.5267254114151001,-4.575375080108643,8.661675453186035
1702071411018534700,17.75353466796875,0.47084707021713257,-4.126676082611084,8.887348175048828
1702071411035522000,17.77052197265625,0.39887717366218567,-3.694206476211548,9.07908821105957
1702071411052512300,17.78751220703125,0.3216196894645691,-3.2863476276397705,9.237564086914062
1702071411069491500,17.804491455078125,0.239552840590477,-2.8948981761932373,9.370074272155762
1702071411086492400,17.821492431640625,0.14503434300422668,-2.5194413661956787,9.479846954345703
1702071411103482000,17.838482177734374,0.02448170818388462,-2.1680784225463867,9.567390441894531
1702071411120461800,17.8554619140625,-0.12698222696781158,-1.8484876155853271,9.633435249328613
1702071411137462300,17.872462158203124,-0.29366180300712585,-1.5644989013671875,9.679990768432617
1702071411154451700,17.88945166015625,-0.45052507519721985,-1.3153879642486572,9.710968017578125
1702071411171442400,17.9064423828125,-0.5778130888938904,-1.0965594053268433,9.731383323669434
1702071411188432100,17.92343212890625,-0.6759638786315918,-0.9013383984565735,9.745091438293457
1702071411205422300,17.94042236328125,-0.7590452432632446,-0.7274325489997864,9.753503799438477
1702071411222395000,17.957394775390625,-0.8329189419746399,-0.5767512321472168,9.757547378540039
1702071411239402000,17.974402099609375,-0.8927739858627319,-0.44897380471229553,9.758970260620117
1702071411256392000,17.991391845703124,-0.9293763637542725,-0.33893707394599915,9.759995460510254
1702071411273382000,18.0083818359375,-0.9461888670921326,-0.23986566066741943,9.761316299438477
1702071411290371800,18.025371826171874,-0.9644918441772461,-0.1549488753080368,9.761241912841797
1702071411307351600,18.0423515625,-0.9935221076011658,-0.11146576702594757,9.758923530578613
1702071411324352000,18.05935205078125,-1.0251444578170776,-0.13382640480995178,9.755373001098633
1702071411341343200,18.07634326171875,-1.0605697631835938,-0.22618433833122253,9.749878883361816
1702071411358330600,18.09333056640625,-1.0937515497207642,-0.36583077907562256,9.741971015930176
1702071411375321600,18.110321533203123,-1.1135923862457275,-0.5342285633087158,9.731940269470215
1702071411392311800,18.127311767578124,-1.1203973293304443,-0.7223273515701294,9.71900749206543
1702071411409302000,18.144302001953125,-1.1211376190185547,-0.9217662215232849,9.702037811279297
1702071411426291700,18.161291748046875,-1.1099156141281128,-1.137869954109192,9.680365562438965
1702071411443282200,18.1782822265625,-1.0591652393341064,-1.3873900175094604,9.653465270996094
1702071411460258800,18.1952587890625,-0.9546340107917786,-1.6794461011886597,9.617912292480469
1702071411477264400,18.212264404296874,-0.8026391267776489,-1.9952367544174194,9.571359634399414
1702071411494249200,18.229249267578126,-0.63540118932724,-2.2939906120300293,9.516827583312988
1702071411511244300,18.246244384765625,-0.48826298117637634,-2.5693392753601074,9.454957008361816
1702071411528229600,18.263229736328125,-0.38208338618278503,-2.8511314392089844,9.378761291503906
1702071411545223700,18.2802236328125,-0.3253209590911865,-3.171013593673706,9.27765941619873
1702071411562201300,18.297201416015625,-0.3038423955440521,-3.5430328845977783,9.142796516418457
1702071411579201500,18.314201416015624,-0.2936810851097107,-3.9521050453186035,8.973891258239746
1702071411596191700,18.331191650390625,-0.27862393856048584,-4.366936683654785,8.779998779296875
1702071411613184500,18.3481845703125,-0.2443200647830963,-4.761826038360596,8.573297500610352
1702071411630168800,18.3651689453125,-0.17791616916656494,-5.124074459075928,8.363511085510254
1702071411647161600,18.38216162109375,-0.07486073672771454,-5.458760738372803,8.150609970092773
1702071411664151600,18.399151611328126,0.04584567993879318,-5.768588542938232,7.934568881988525
1702071411681141500,18.4161416015625,0.15967459976673126,-6.05690860748291,7.715212345123291
1702071411698131700,18.433131591796876,0.2527540922164917,-6.3231024742126465,7.496038913726807
1702071411715121400,18.450121337890625,0.3240760862827301,-6.562602996826172,7.284457683563232
1702071411732111600,18.467111572265626,0.37870779633522034,-6.767208099365234,7.092080593109131
1702071411749100500,18.4841005859375,0.4256083071231842,-6.93468713760376,6.925685405731201
1702071411766092500,18.501092529296876,0.47100406885147095,-7.067018032073975,6.787599563598633
1702071411783081500,18.51808154296875,0.5173774361610413,-7.170074462890625,6.675214767456055
1702071411800065000,18.53506494140625,0.5563327670097351,-7.247832298278809,6.587528228759766
1702071411817060000,18.55206005859375,0.5757826566696167,-7.300751209259033,6.5271453857421875
1702071411834052400,18.56905224609375,0.5675939321517944,-7.328718185424805,6.496450424194336
1702071411851041300,18.586041259765626,0.5377395153045654,-7.331933498382568,6.495360851287842
1702071411868031000,18.603031005859375,0.510680615901947,-7.316854953765869,6.514518737792969
1702071411885034800,18.62003466796875,0.4963797926902771,-7.287508010864258,6.548432350158691
1702071411902011400,18.637011474609373,0.50034099817276,-7.24100399017334,6.599517345428467
1702071411919001000,18.6540009765625,0.5074278116226196,-7.170469284057617,6.675554275512695
1702071411935988500,18.670988525390626,0.5106028914451599,-7.0777201652526855,6.77357292175293
1702071411952983600,18.687983642578125,0.512687087059021,-6.972890377044678,6.881282806396484
1702071411969971000,18.704970947265625,0.5267596244812012,-6.867855072021484,6.985070705413818
1702071411986961200,18.721961181640626,0.5669840574264526,-6.760396480560303,7.0860209465026855
1702071412003951000,18.738951171875,0.6309467554092407,-6.628627300262451,7.204119682312012
1702071412020941000,18.755941162109377,0.6928810477256775,-6.448649883270264,7.360091686248779
1702071412037931300,18.77293115234375,0.714187741279602,-6.2032270431518555,7.5661091804504395
1702071412054920700,18.789920654296875,0.6643840670585632,-5.886595726013184,7.819380760192871
1702071412071910700,18.80691064453125,0.5465211272239685,-5.515658855438232,8.094128608703613
1702071412088900900,18.82390087890625,0.38693132996559143,-5.117091178894043,8.36072826385498
1702071412105890600,18.840890625,0.21655280888080597,-4.714801788330078,8.599990844726562
1702071412122870500,18.85787060546875,0.04978729039430618,-4.328859329223633,8.803102493286133
1702071412139871000,18.87487109375,-0.12178464233875275,-3.964186906814575,8.972540855407715
1702071412156860700,18.891860595703125,-0.30494925379753113,-3.621415376663208,9.1119966506958
1702071412173850600,18.9088505859375,-0.5007702112197876,-3.29455828666687,9.226659774780273
1702071412190824700,18.92582470703125,-0.7054250836372375,-2.9728639125823975,9.32204818725586
1702071412207828000,18.942827880859376,-0.903857946395874,-2.647235155105591,9.402728080749512
1702071412224823300,18.9598232421875,-1.0859490633010864,-2.3166627883911133,9.470476150512695
1702071412241810700,18.976810791015627,-1.236265778541565,-1.9793565273284912,9.528374671936035
1702071412258790100,18.9937900390625,-1.3556180000305176,-1.6384031772613525,9.576746940612793
1702071412275788000,19.0107880859375,-1.4505820274353027,-1.3045824766159058,9.614053726196289
1702071412292782600,19.027782470703126,-1.532558798789978,-0.9899036884307861,9.6388521194458
1702071412309771300,19.044771240234375,-1.6175410747528076,-0.6951889395713806,9.650720596313477
1702071412326760400,19.061760498046876,-1.6932122707366943,-0.4098562002182007,9.654077529907227
1702071412343748400,19.078748291015625,-1.7483608722686768,-0.13922733068466187,9.65194320678711
1702071412360740400,19.095740234375,-1.7786458730697632,0.09918076545000076,9.646902084350586
1702071412377730600,19.11273046875,-1.7872430086135864,0.28679922223091125,9.641556739807129
1702071412394716400,19.12971630859375,-1.7900993824005127,0.41046813130378723,9.636555671691895
1702071412411714300,19.14671435546875,-1.803912878036499,0.46322888135910034,9.631585121154785
1702071412428700400,19.163700439453127,-1.8310503959655762,0.4349760115146637,9.62778091430664
1702071412445690000,19.180690185546876,-1.8634626865386963,0.319198340177536,9.626097679138184
1702071412462682400,19.197682373046874,-1.8925906419754028,0.12846070528030396,9.62485122680664
1702071412479671300,19.21467138671875,-1.9200239181518555,-0.1104530319571495,9.619636535644531
1702071412496660000,19.231659912109375,-1.9303349256515503,-0.38851505517959595,9.610358238220215
1702071412513650400,19.248650390625,-1.8970917463302612,-0.7244580388069153,9.597517013549805
1702071412530640100,19.26564013671875,-1.7899181842803955,-1.154172420501709,9.57602310180664
1702071412547630300,19.28263037109375,-1.606878638267517,-1.6860580444335938,9.529495239257812
1702071412564620300,19.299620361328124,-1.3958204984664917,-2.2477049827575684,9.44646167755127
1702071412581597400,19.316597412109374,-1.1917859315872192,-2.758207082748413,9.338525772094727
1702071412598593300,19.33359326171875,-1.0131155252456665,-3.1927378177642822,9.220418930053711
1702071412615592200,19.35059228515625,-0.8634805679321289,-3.571690082550049,9.09579849243164
1702071412632569000,19.367569091796874,-0.7333911657333374,-3.930727243423462,8.958104133605957
1702071412649565200,19.384565185546876,-0.6155762076377869,-4.310003280639648,8.79096508026123
1702071412666551800,19.4015517578125,-0.5075132250785828,-4.7246856689453125,8.582301139831543
1702071412683544300,19.41854443359375,-0.39984023571014404,-5.134784698486328,8.34926700592041
1702071412700531200,19.43553125,-0.2853511571884155,-5.503121852874756,8.116056442260742
1702071412717523200,19.452523193359376,-0.15379872918128967,-5.830505847930908,7.887818336486816
1702071412734508500,19.469508544921876,-0.01079162210226059,-6.125187397003174,7.662773132324219
1702071412751506200,19.486506103515627,0.13020463287830353,-6.392158508300781,7.440393924713135
1702071412768496000,19.50349609375,0.2581101357936859,-6.630555629730225,7.225317478179932
1702071412785482200,19.520482177734376,0.3661971092224121,-6.836524963378906,7.025949001312256
1702071412802473200,19.53747314453125,0.45124953985214233,-6.998484134674072,6.85957145690918
1702071412819469000,19.554468994140624,0.5150514245033264,-7.111064910888672,6.738219261169434
1702071412836460000,19.5714599609375,0.5590482354164124,-7.180267333984375,6.660881519317627
1702071412853449500,19.588449462890626,0.5881480574607849,-7.218569278717041,6.6168293952941895
1702071412870439700,19.605439697265624,0.609123170375824,-7.239997386932373,6.59147310256958
1702071412887432200,19.62243212890625,0.6270712018013,-7.251535415649414,6.577091693878174
1702071412904416800,19.639416748046877,0.6462957262992859,-7.251124382019043,6.575682640075684
1702071412921415400,19.65641552734375,0.6689296960830688,-7.235630512237549,6.590470314025879
1702071412938399500,19.6733994140625,0.6933721899986267,-7.20486307144165,6.621579647064209
1702071412955389400,19.690389404296877,0.7127779722213745,-7.160745143890381,6.667218208312988
1702071412972379100,19.707379150390626,0.7191537618637085,-7.105129718780518,6.7257771492004395
1702071412989369300,19.724369384765627,0.719649612903595,-7.043733596801758,6.789997577667236
1702071413006359300,19.741359375,0.7229275703430176,-6.979345798492432,6.855816841125488
1702071413023349200,19.758349365234373,0.7246934175491333,-6.904636383056641,6.930867671966553
1702071413040339200,19.775339111328126,0.7196402549743652,-6.812143802642822,7.0223164558410645
1702071413057318400,19.792318359375,0.7026400566101074,-6.707469463348389,7.1240620613098145
1702071413074319400,19.8093193359375,0.6919209361076355,-6.606479167938232,7.218850612640381
1702071413091309000,19.82630908203125,0.7120973467826843,-6.521578311920166,7.293699741363525
1702071413108299000,19.843299072265626,0.7529945373535156,-6.449492454528809,7.3534464836120605
1702071413125289200,19.860289306640624,0.7753069400787354,-6.376495838165283,7.414535045623779
1702071413142279200,19.877279052734377,0.7566806077957153,-6.295842170715332,7.485046863555908
1702071413159268900,19.894268798828126,0.7123493552207947,-6.220397472381592,7.552172660827637
1702071413176259300,19.91125927734375,0.6777116060256958,-6.170497894287109,7.596168041229248
1702071413193248800,19.928248779296876,0.688116729259491,-6.14784574508667,7.613580226898193
1702071413210239000,19.945239013671873,0.7583096623420715,-6.112785816192627,7.635112762451172
1702071413227228700,19.962228759765626,0.8248012661933899,-6.005154609680176,7.713230133056641
1702071413244209700,19.979209716796873,0.8203707933425903,-5.7967610359191895,7.871510982513428
1702071413261195300,19.9961953125,0.7510643601417542,-5.518178462982178,8.075997352600098
1702071413278201600,20.01320166015625,0.6543093323707581,-5.234859943389893,8.270684242248535
1702071413295189000,20.03018896484375,0.5563099384307861,-4.980435371398926,8.433380126953125
1702071413312176400,20.04717626953125,0.46392160654067993,-4.728152275085449,8.58285903930664
1702071413329171200,20.064171142578125,0.3783359229564667,-4.43705940246582,8.741022109985352
1702071413346158600,20.08115869140625,0.2981758415699005,-4.098508834838867,8.907830238342285
1702071413363148500,20.0981484375,0.21639201045036316,-3.7371041774749756,9.067708969116211
1702071413380121600,20.11512158203125,0.1354566067457199,-3.3814032077789307,9.207815170288086
1702071413397128700,20.132128662109373,0.06637408584356308,-3.0485734939575195,9.324049949645996
1702071413414118700,20.14911865234375,0.012200800701975822,-2.742769241333008,9.418766975402832
1702071413431108600,20.166108642578124,-0.03795427829027176,-2.4660487174987793,9.494908332824707
1702071413448098800,20.183098876953125,-0.09774966537952423,-2.2045822143554688,9.558577537536621
1702071413465088800,20.2000888671875,-0.176322802901268,-1.9362163543701172,9.615409851074219
1702071413482078500,20.217078369140626,-0.2663494646549225,-1.6526999473571777,9.666114807128906
1702071413499068400,20.234068359375,-0.3594856560230255,-1.36692476272583,9.707648277282715
1702071413516047600,20.251047607421874,-0.4464939832687378,-1.1031434535980225,9.737547874450684
1702071413533048000,20.268048095703126,-0.5298665165901184,-0.8767663240432739,9.756362915039062
1702071413550027800,20.28502783203125,-0.6018095016479492,-0.6821635365486145,9.767732620239258
1702071413567028500,20.302028564453124,-0.6591092944145203,-0.5089643597602844,9.774592399597168
1702071413584018400,20.319018310546873,-0.7006291747093201,-0.3580089509487152,9.778397560119629
1702071413601008000,20.336008056640626,-0.7286034226417542,-0.24225391447544098,9.779905319213867
1702071413617998300,20.352998291015624,-0.7474478483200073,-0.1827627569437027,9.779776573181152
1702071413634987800,20.36998779296875,-0.7599316835403442,-0.19392359256744385,9.778599739074707
1702071413651982800,20.38698291015625,-0.7694088220596313,-0.27496546506881714,9.77591609954834
1702071413668957400,20.40395751953125,-0.768998920917511,-0.4049682021141052,9.771427154541016
1702071413685958100,20.420958251953124,-0.7494868040084839,-0.5685160160064697,9.764792442321777
1702071413702947800,20.43794775390625,-0.7066565155982971,-0.7641791701316833,9.754630088806152
1702071413719937800,20.454937744140626,-0.653096616268158,-1.0077838897705078,9.73621940612793
1702071413736934400,20.471934326171876,-0.6075497269630432,-1.3173913955688477,9.702139854431152
1702071413753917700,20.488917724609376,-0.6057429313659668,-1.7026569843292236,9.64210319519043
1702071413770900000,20.50589990234375,-0.6717813611030579,-2.1693413257598877,9.5435209274292
1702071413787897900,20.52289794921875,-0.7870574593544006,-2.7024433612823486,9.3975248336792
1702071413804887600,20.539887451171875,-0.8775250315666199,-3.2592990398406982,9.211027145385742
1702071413821877800,20.556877685546876,-0.8739798665046692,-3.775014638900757,9.012299537658691
1702071413838867700,20.57386767578125,-0.7712331414222717,-4.206760406494141,8.828618049621582
1702071413855858400,20.5908583984375,-0.6147212982177734,-4.549830436706543,8.669330596923828
1702071413872844000,20.607843994140627,-0.4628106355667114,-4.830313682556152,8.525842666625977
1702071413889840000,20.624840087890625,-0.3614760637283325,-5.082274436950684,8.383073806762695
1702071413906827500,20.64182763671875,-0.327962726354599,-5.33030366897583,8.228997230529785
1702071413923817200,20.658817138671875,-0.3481391370296478,-5.573809623718262,8.065207481384277
1702071413940807400,20.675807373046876,-0.3970072567462921,-5.8036417961120605,7.8991289138793945
1702071413957797400,20.69279736328125,-0.44472286105155945,-6.016239643096924,7.735840320587158
1702071413974787600,20.70978759765625,-0.4688040316104889,-6.215600490570068,7.575133800506592
1702071413991777500,20.726777587890624,-0.4649980962276459,-6.403293609619141,7.417394638061523
1702071414008767200,20.743767333984376,-0.4426734149456024,-6.572945594787598,7.268874645233154
1702071414025757400,20.76075732421875,-0.41947048902511597,-6.719414234161377,7.135098934173584
1702071414042747400,20.777747314453126,-0.3992595970630646,-6.843339443206787,7.017507076263428
1702071414059737000,20.794737060546876,-0.3755684196949005,-6.947632312774658,6.915595054626465
1702071414076727300,20.811727294921877,-0.34426069259643555,-7.034738540649414,6.828621864318848
1702071414093702400,20.828702392578126,-0.307430237531662,-7.101357936859131,6.761088848114014
1702071414110710800,20.845710693359376,-0.2660091519355774,-7.141327381134033,6.7206244468688965
1702071414127697000,20.86269677734375,-0.2229280322790146,-7.148860454559326,6.714179039001465
1702071414144683300,20.879683349609376,-0.17734898626804352,-7.127950668334961,6.737728118896484
1702071414161678800,20.896678955078126,-0.12189047783613205,-7.090458393096924,6.7783966064453125
1702071414178678300,20.91367822265625,-0.05100175738334656,-7.0503973960876465,6.820952415466309
1702071414195657000,20.930656982421876,0.026462160050868988,-7.014776706695557,6.857719421386719
1702071414212647000,20.94764697265625,0.09464888274669647,-6.9774651527404785,6.895079135894775
1702071414229636900,20.964636962890626,0.15633758902549744,-6.924644470214844,6.9470109939575195
1702071414246624300,20.981624267578123,0.21719074249267578,-6.848021507263184,7.020935535430908
1702071414263619600,20.99861962890625,0.26419416069984436,-6.747364521026611,7.1161370277404785
1702071414280606700,21.015606689453126,0.27133244276046753,-6.63155460357666,7.2239179611206055
1702071414297592300,21.03259228515625,0.21974655985832214,-6.512941360473633,7.332764148712158
1702071414314577400,21.049577392578126,0.1500641256570816,-6.412421226501465,7.422564506530762
1702071414331575300,21.0665751953125,0.1266430914402008,-6.34028959274292,7.484704971313477
1702071414348562000,21.08356201171875,0.17297233641147614,-6.2761616706848145,7.537639617919922
1702071414365547500,21.100547607421873,0.23571063578128815,-6.1845831871032715,7.611272811889648
1702071414382541300,21.117541259765623,0.23218300938606262,-6.05558967590332,7.714405059814453
1702071414399531000,21.134531005859376,0.15134349465370178,-5.90549898147583,7.831876754760742
1702071414416514600,21.1515146484375,0.04183799773454666,-5.75534200668335,7.944205284118652
1702071414433515300,21.168515380859375,-0.04474114254117012,-5.610472202301025,8.04715633392334
1702071414450502000,21.185501953125,-0.09998563677072525,-5.4442853927612305,8.160015106201172
1702071414467486000,21.20248583984375,-0.13828665018081665,-5.2444987297058105,8.289284706115723
1702071414484483800,21.21948388671875,-0.16615448892116547,-5.024569988250732,8.423906326293945
1702071414501467400,21.23646728515625,-0.18115375936031342,-4.801802635192871,8.552544593811035
1702071414518456000,21.2534560546875,-0.1833944171667099,-4.590770244598389,8.667600631713867
1702071414535456000,21.2704560546875,-0.19211378693580627,-4.389351844787598,8.771134376525879
1702071414552435500,21.287435546875,-0.23168715834617615,-4.176928997039795,8.873313903808594
1702071414569436200,21.304436279296876,-0.31103211641311646,-3.9440321922302246,8.97685718536377
1702071414586425900,21.32142578125,-0.4321309030056,-3.7131001949310303,9.069853782653809
1702071414603416000,21.338416015625,-0.574887752532959,-3.516733407974243,9.139925003051758
1702071414620393000,21.35539306640625,-0.7243431806564331,-3.3577868938446045,9.188944816589355
1702071414637398300,21.372398193359373,-0.8832266330718994,-3.2231976985931396,9.22317886352539
1702071414654385700,21.3893857421875,-1.046710729598999,-3.1038382053375244,9.246984481811523
1702071414671375600,21.406375732421875,-1.206917405128479,-2.9937403202056885,9.26374626159668
1702071414688365800,21.42336572265625,-1.3469722270965576,-2.8925490379333496,9.276580810546875
1702071414705355800,21.440355712890625,-1.4552685022354126,-2.788642168045044,9.292028427124023
1702071414722345700,21.457345703125,-1.5411396026611328,-2.659045934677124,9.316141128540039
1702071414739336200,21.474336181640624,-1.61225163936615,-2.499521255493164,9.348217964172363
1702071414756324900,21.491324951171876,-1.648694396018982,-2.3375022411346436,9.383711814880371
1702071414773315600,21.508315673828125,-1.616286277770996,-2.1962101459503174,9.423396110534668
1702071414790305300,21.52530517578125,-1.5093740224838257,-2.0759241580963135,9.46828556060791
1702071414807295200,21.542295166015624,-1.3556594848632812,-1.9649516344070435,9.515106201171875
1702071414824285400,21.559285400390625,-1.190837025642395,-1.8665833473205566,9.556878089904785
1702071414841273900,21.57627392578125,-1.0391631126403809,-1.7866407632827759,9.589795112609863
1702071414858267000,21.593266845703123,-0.9004110097885132,-1.7352054119110107,9.61324405670166
1702071414875255000,21.610255126953124,-0.7757524847984314,-1.736307978630066,9.623907089233398
1702071414892245500,21.62724560546875,-0.6566581130027771,-1.8110923767089844,9.618985176086426
1702071414909235000,21.64423486328125,-0.5335584282875061,-1.9477781057357788,9.599874496459961
