time,seconds_elapsed,z,y,x
1702070416180915500,0.11091552734375,7.656831741333008,4.882936477661133,3.710252046585083
1702070416197900300,0.127900390625,7.598054885864258,4.786702632904053,3.948817253112793
1702070416214892300,0.144892333984375,7.465885639190674,4.734220504760742,4.252507209777832
1702070416231881700,0.1618818359375,7.176260948181152,4.793446063995361,4.664790630340576
1702070416248873500,0.17887353515625,6.645961284637451,5.011429309844971,5.191616058349609
1702070416265863400,0.195863525390625,5.901851177215576,5.289073467254639,5.78186559677124
1702070416282855700,0.212855712890625,5.086063861846924,5.465118408203125,6.364004611968994
1702070416299835100,0.229835205078125,4.283875465393066,5.513464450836182,6.891026020050049
1702070416316835800,0.2468359375,3.4713592529296875,5.441792964935303,7.387331485748291
1702070416333824300,0.26382421875,2.6012837886810303,5.27942419052124,7.848382949829102
1702070416350818000,0.280818115234375,1.6678680181503296,5.024547576904297,8.258829116821289
1702070416367803000,0.297802978515625,0.6984236240386963,4.667384624481201,8.600224494934082
1702070416384797200,0.314797119140625,-0.19948771595954895,4.192860126495361,8.866580963134766
1702070416401782800,0.33178271484375,-0.8714392185211182,3.611332416534424,9.07937240600586
1702070416418767600,0.348767578125,-1.240919589996338,2.9774749279022217,9.264496803283691
1702070416435766000,0.36576611328125,-1.3642274141311646,2.3618533611297607,9.423196792602539
1702070416452758000,0.382758056640625,-1.3811463117599487,1.80014169216156,9.544005393981934
1702070416469745200,0.3997451171875,-1.4128838777542114,1.2695510387420654,9.624348640441895
1702070416486747100,0.4167470703125,-1.4988881349563599,0.7278886437416077,9.66745376586914
1702070416503735000,0.433735107421875,-1.6090275049209595,0.18907703459262848,9.675297737121582
1702070416520722200,0.45072216796875,-1.704651117324829,-0.315761923789978,9.655597686767578
1702070416537707000,0.46770703125,-1.764512062072754,-0.7544516324996948,9.620468139648438
1702070416554701300,0.484701416015625,-1.7848217487335205,-1.1096901893615723,9.582229614257812
1702070416571689500,0.501689453125,-1.7596698999404907,-1.4114596843719482,9.547118186950684
1702070416588682500,0.5186826171875,-1.6886905431747437,-1.702297329902649,9.512445449829102
1702070416605671200,0.535671142578125,-1.5717240571975708,-1.980710744857788,9.478533744812012
1702070416622664400,0.55266455078125,-1.4234942197799683,-2.2324275970458984,9.445954322814941
1702070416639649800,0.56964990234375,-1.259607195854187,-2.4244821071624756,9.421857833862305
1702070416656634400,0.58663427734375,-1.0885779857635498,-2.550868034362793,9.409791946411133
1702070416673632500,0.603632568359375,-0.9229958653450012,-2.646711826324463,9.401015281677246
1702070416690613000,0.620613037109375,-0.7834205031394958,-2.7506563663482666,9.383830070495605
1702070416707605000,0.63760498046875,-0.7013700604438782,-2.8750758171081543,9.352973937988281
1702070416724601300,0.654601318359375,-0.6969659328460693,-3.00490140914917,9.312407493591309
1702070416741589000,0.671589111328125,-0.768168032169342,-3.1206631660461426,9.26862907409668
1702070416758577400,0.688577392578125,-0.8884727358818054,-3.2176027297973633,9.224627494812012
1702070416775568600,0.705568603515625,-1.0179038047790527,-3.2993593215942383,9.18227767944336
1702070416792565500,0.7225654296875,-1.1438469886779785,-3.349271535873413,9.149322509765625
1702070416809547000,0.739547119140625,-1.271090030670166,-3.337090015411377,9.136974334716797
1702070416826543000,0.756543212890625,-1.4140392541885376,-3.249929666519165,9.147379875183105
1702070416843536600,0.77353662109375,-1.5735869407653809,-3.0966732501983643,9.17445182800293
1702070416860520700,0.790520751953125,-1.7304648160934448,-2.8797152042388916,9.216771125793457
1702070416877509400,0.80750927734375,-1.8713961839675903,-2.5992050170898438,9.272440910339355
1702070416894504200,0.824504150390625,-2.0008277893066406,-2.2723231315612793,9.331094741821289
1702070416911497000,0.8414970703125,-2.1259992122650146,-1.9239321947097778,9.381616592407227
1702070416928486000,0.85848583984375,-2.251147747039795,-1.5764570236206055,9.417176246643066
1702070416945469700,0.8754697265625,-2.3821117877960205,-1.244495153427124,9.434664726257324
1702070416962464300,0.89246435546875,-2.5168259143829346,-0.940961480140686,9.434844017028809
1702070416979458000,0.9094580078125,-2.6481480598449707,-0.6805387735366821,9.421268463134766
1702070416996451800,0.926451904296875,-2.77878999710083,-0.47135722637176514,9.396395683288574
1702070417013446700,0.94344677734375,-2.9427132606506348,-0.3109254240989685,9.353067398071289
1702070417030446000,0.960446044921875,-3.1735191345214844,-0.21000100672245026,9.280129432678223
1702070417047417600,0.97741748046875,-3.453004837036133,-0.1847693920135498,9.180344581604004
1702070417064414200,0.994414306640625,-3.7134311199188232,-0.22481638193130493,9.07722282409668
1702070417081409800,1.011409912109375,-3.9074313640594482,-0.300249844789505,8.993217468261719
1702070417098403800,1.02840380859375,-4.009893894195557,-0.4062373638153076,8.943816184997559
1702070417115381000,1.045381103515625,-4.015817642211914,-0.5720608830451965,8.932082176208496
1702070417132377000,1.062377197265625,-3.9338326454162598,-0.805924117565155,8.950505256652832
1702070417149362200,1.079362060546875,-3.7707011699676514,-1.0652852058410645,8.993504524230957
1702070417166346500,1.096346435546875,-3.519343376159668,-1.2758338451385498,9.067667961120605
1702070417183344600,1.1133447265625,-3.2244670391082764,-1.4180846214294434,9.155762672424316
1702070417200340200,1.13034033203125,-2.957589626312256,-1.5626702308654785,9.222084999084473
1702070417217324300,1.14732421875,-2.778559684753418,-1.7746329307556152,9.239395141601562
1702070417234316000,1.16431591796875,-2.705909013748169,-2.074328899383545,9.198442459106445
1702070417251300600,1.181300537109375,-2.704880475997925,-2.4521524906158447,9.105311393737793
1702070417268294100,1.198294189453125,-2.7265164852142334,-2.870600700378418,8.975626945495605
1702070417285288200,1.2152880859375,-2.730154037475586,-3.280148983001709,8.833063125610352
1702070417302283300,1.232283203125,-2.6994152069091797,-3.655374050140381,8.694107055664062
1702070417319266600,1.2492666015625,-2.647068500518799,-4.003662586212158,8.555692672729492
1702070417336258800,1.2662587890625,-2.592913866043091,-4.344643592834473,8.404580116271973
1702070417353250600,1.28325048828125,-2.545138120651245,-4.683694839477539,8.235374450683594
1702070417370244400,1.300244384765625,-2.5087778568267822,-5.015941619873047,8.04875659942627
1702070417387228200,1.317228271484375,-2.4744231700897217,-5.333024978637695,7.853165149688721
1702070417404222200,1.33422216796875,-2.4391589164733887,-5.618926525115967,7.662525177001953
1702070417421212700,1.351212646484375,-2.4119110107421875,-5.87468147277832,7.47709321975708
1702070417438213000,1.368213134765625,-2.393733024597168,-6.111766338348389,7.2905755043029785
1702070417455192300,1.3851923828125,-2.380153179168701,-6.334322929382324,7.102628707885742
1702070417472188400,1.4021884765625,-2.363250255584717,-6.531485557556152,6.927542686462402
1702070417489166000,1.419166015625,-2.339228391647339,-6.690227508544922,6.782699108123779
1702070417506166300,1.436166259765625,-2.310882806777954,-6.81148099899292,6.67080545425415
1702070417523154400,1.453154541015625,-2.286565065383911,-6.899735927581787,6.5879740715026855
1702070417540145200,1.470145263671875,-2.28035831451416,-6.948281288146973,6.53892183303833
1702070417557121800,1.487121826171875,-2.296304225921631,-6.937789440155029,6.544476509094238
1702070417574122200,1.504122314453125,-2.3334686756134033,-6.837394714355469,6.636346817016602
1702070417591116000,1.521115966796875,-2.3759825229644775,-6.647257328033447,6.812108039855957
1702070417608105200,1.538105224609375,-2.3911197185516357,-6.404677867889404,7.035534858703613
1702070417625098800,1.5550986328125,-2.3538081645965576,-6.148489475250244,7.272674083709717
1702070417642088700,1.572088623046875,-2.288835287094116,-5.888299465179443,7.505017280578613
1702070417659075000,1.589074951171875,-2.233635663986206,-5.600782871246338,7.738100051879883
1702070417676070000,1.60606982421875,-2.1997663974761963,-5.252899646759033,7.987752914428711
1702070417693058000,1.62305810546875,-2.1883463859558105,-4.824669361114502,8.256502151489258
1702070417710047700,1.6400478515625,-2.2145230770111084,-4.315993309020996,8.5266752243042
1702070417727035000,1.657034912109375,-2.2883167266845703,-3.752501964569092,8.770315170288086
1702070417744030700,1.67403076171875,-2.4119648933410645,-3.162583589553833,8.967530250549316
1702070417761021200,1.691021240234375,-2.5655202865600586,-2.5778729915618896,9.110918998718262
1702070417778008800,1.7080087890625,-2.7253499031066895,-2.023670196533203,9.203985214233398
1702070417795000300,1.725000244140625,-2.8734779357910156,-1.5173779726028442,9.256176948547363
1702070417811993600,1.74199365234375,-2.9995527267456055,-1.0697340965270996,9.27871036529541
1702070417828978700,1.758978759765625,-3.1030051708221436,-0.6846057772636414,9.281097412109375
1702070417845969400,1.775969482421875,-3.188648223876953,-0.36100009083747864,9.270293235778809
1702070417862953000,1.792952880859375,-3.2493107318878174,-0.09156155586242676,9.255793571472168
1702070417879945000,1.809945068359375,-3.2802858352661133,0.13365507125854492,9.244345664978027
1702070417896943600,1.826943603515625,-3.286829948425293,0.33198678493499756,9.237028121948242
1702070417913934600,1.8439345703125,-3.2852747440338135,0.5103610754013062,9.229443550109863
1702070417930925600,1.860925537109375,-3.2944138050079346,0.6649883985519409,9.216328620910645
1702070417947913200,1.877913330078125,-3.325330972671509,0.7844905257225037,9.195805549621582
1702070417964904400,1.894904541015625,-3.388810157775879,0.8603112697601318,9.165802955627441
1702070417981887500,1.911887451171875,-3.486638069152832,0.8945801854133606,9.125743865966797
1702070417998884900,1.928884765625,-3.614530086517334,0.9007511734962463,9.075238227844238
1702070418015876000,1.9458759765625,-3.7682435512542725,0.8857422471046448,9.013982772827148
1702070418032866300,1.9628662109375,-3.9319562911987305,0.845609724521637,8.94766902923584
1702070418049859000,1.979859130859375,-4.086122989654541,0.7603484392166138,8.886033058166504
1702070418066846200,1.99684619140625,-4.219789028167725,0.6114531755447388,8.834908485412598
1702070418083838500,2.01383837890625,-4.329616546630859,0.397246390581131,8.793904304504395
1702070418100829400,2.030829345703125,-4.421904563903809,0.1286809891462326,8.755931854248047
1702070418117817000,2.047817138671875,-4.486900329589844,-0.15349642932415009,8.722400665283203
1702070418134809000,2.06480908203125,-4.5036115646362305,-0.4048166573047638,8.705729484558105
1702070418151802000,2.081802001953125,-4.4536213874816895,-0.6126218438148499,8.719295501708984
1702070418168787000,2.098786865234375,-4.315123558044434,-0.8146402835845947,8.772238731384277
1702070418185792000,2.1157919921875,-4.062093734741211,-1.0808734893798828,8.863814353942871
1702070418202772200,2.132772216796875,-3.7067835330963135,-1.4404577016830444,8.9677734375
1702070418219757300,2.14975732421875,-3.3166794776916504,-1.8509941101074219,9.044864654541016
1702070418236754400,2.16675439453125,-2.9667019844055176,-2.2492599487304688,9.076101303100586
1702070418253732400,2.183732421875,-2.7079479694366455,-2.5909223556518555,9.06588363647461
1702070418270731300,2.200731201171875,-2.5531294345855713,-2.8702712059020996,9.026583671569824
1702070418287724000,2.21772412109375,-2.4685442447662354,-3.1144909858703613,8.968964576721191
1702070418304713000,2.234712890625,-2.4125747680664062,-3.366391181945801,8.892862319946289
1702070418321706000,2.2517060546875,-2.362621307373047,-3.6585609912872314,8.790283203125
1702070418338691800,2.26869189453125,-2.31898832321167,-3.9953413009643555,8.654228210449219
1702070418355683300,2.285683349609375,-2.2881698608398438,-4.3434624671936035,8.493217468261719
1702070418372678400,2.302678466796875,-2.270646333694458,-4.679316520690918,8.317708015441895
1702070418389663700,2.319663818359375,-2.2597272396087646,-4.98951530456543,8.138459205627441
1702070418406656500,2.336656494140625,-2.2461113929748535,-5.267145156860352,7.9654436111450195
1702070418423647500,2.3536474609375,-2.2256860733032227,-5.510727882385254,7.80476188659668
1702070418440636200,2.37063623046875,-2.2012674808502197,-5.718909740447998,7.660588264465332
1702070418457627100,2.387627197265625,-2.1772541999816895,-5.897452354431152,7.530986785888672
1702070418474606800,2.40460693359375,-2.164182186126709,-6.043982982635498,7.417727947235107
1702070418491610600,2.421610595703125,-2.163022041320801,-6.168772220611572,7.314624309539795
1702070418508581600,2.43858154296875,-2.161853313446045,-6.280736446380615,7.2190632820129395
1702070418525589500,2.455589599609375,-2.152928113937378,-6.383148193359375,7.131369590759277
1702070418542580500,2.47258056640625,-2.134990930557251,-6.477109432220459,7.05159330368042
1702070418559568400,2.489568359375,-2.114372491836548,-6.5604729652404785,6.980384826660156
1702070418576560400,2.506560302734375,-2.0922770500183105,-6.641663074493408,6.9099040031433105
1702070418593551000,2.523551025390625,-2.05668044090271,-6.722886562347412,6.841710567474365
1702070418610542000,2.5405419921875,-2.009228467941284,-6.790823936462402,6.788509845733643
1702070418627530000,2.557530029296875,-1.9579375982284546,-6.827395915985107,6.7667765617370605
1702070418644521200,2.574521240234375,-1.9045135974884033,-6.81475305557251,6.7947096824646
1702070418661514500,2.591514404296875,-1.856070876121521,-6.74058198928833,6.881544589996338
1702070418678492400,2.608492431640625,-1.81233811378479,-6.612715721130371,7.0159502029418945
1702070418695494000,2.625493896484375,-1.7592564821243286,-6.461343765258789,7.168833255767822
1702070418712484400,2.642484375,-1.6749504804611206,-6.316229343414307,7.316824913024902
1702070418729472300,2.65947216796875,-1.5605189800262451,-6.174775123596191,7.461438179016113
1702070418746464800,2.67646484375,-1.4449084997177124,-6.0111565589904785,7.6167168617248535
1702070418763455700,2.693455810546875,-1.3564438819885254,-5.799455642700195,7.795028209686279
1702070418780446200,2.7104462890625,-1.3326594829559326,-5.524143218994141,7.99649715423584
1702070418797437200,2.727437255859375,-1.390507698059082,-5.191313743591309,8.206881523132324
1702070418814418400,2.74441845703125,-1.5150580406188965,-4.822223663330078,8.407548904418945
1702070418831419400,2.76141943359375,-1.6751928329467773,-4.443338871002197,8.584089279174805
1702070418848405200,2.7784052734375,-1.833993911743164,-4.074993133544922,8.733098983764648
1702070418865403400,2.7954033203125,-1.97209632396698,-3.7343103885650635,8.854483604431152
1702070418882389800,2.8123896484375,-2.0962297916412354,-3.4290523529052734,8.948941230773926
1702070418899374300,2.829374267578125,-2.2171900272369385,-3.1539175510406494,9.020696640014648
1702070418916371200,2.84637109375,-2.3451874256134033,-2.8958120346069336,9.07471752166748
1702070418933359600,2.863359619140625,-2.4853861331939697,-2.641441822052002,9.114919662475586
1702070418950350600,2.8803505859375,-2.63444447517395,-2.38722562789917,9.14313793182373
1702070418967339300,2.89733935546875,-2.7887771129608154,-2.1324918270111084,9.16031265258789
1702070418984329500,2.91432958984375,-2.9420700073242188,-1.87588632106781,9.168501853942871
1702070419001323000,2.931322998046875,-3.0969953536987305,-1.6201177835464478,9.166238784790039
1702070419018308400,2.948308349609375,-3.260249614715576,-1.3726766109466553,9.150009155273438
1702070419035302400,2.965302490234375,-3.420426607131958,-1.1397501230239868,9.123475074768066
1702070419052294000,2.9822939453125,-3.5604751110076904,-0.9225181937217712,9.094399452209473
1702070419069279500,2.999279541015625,-3.676241159439087,-0.7095831632614136,9.06740665435791
1702070419086264300,3.016264404296875,-3.771507978439331,-0.49148014187812805,9.042693138122559
1702070419103265500,3.033265625,-3.8583853244781494,-0.27996644377708435,9.015023231506348
1702070419120254700,3.050254638671875,-3.9351096153259277,-0.0966588631272316,8.985636711120605
1702070419137242000,3.0672421875,-3.993227481842041,0.03814021870493889,8.96040153503418
1702070419154233300,3.0842333984375,-4.034354209899902,0.11747787892818451,8.94127082824707
1702070419171228000,3.101227783203125,-4.053740501403809,0.15258748829364777,8.931965827941895
1702070419188212200,3.118212158203125,-4.024135112762451,0.171031653881073,8.945009231567383
1702070419205206300,3.135206298828125,-3.926281452178955,0.18387477099895477,8.988137245178223
1702070419222197800,3.15219775390625,-3.7597732543945312,0.15966027975082397,9.0595121383667
1702070419239187700,3.169187744140625,-3.5434279441833496,0.039923619478940964,9.147603988647461
1702070419256177400,3.186177490234375,-3.306847333908081,-0.20249757170677185,9.233627319335938
1702070419273166300,3.203166259765625,-3.069873809814453,-0.5312160849571228,9.302141189575195
1702070419290158000,3.220157958984375,-2.832646369934082,-0.8837558031082153,9.350465774536133
1702070419307152400,3.23715234375,-2.5934553146362305,-1.2158983945846558,9.382521629333496
1702070419324139000,3.254138916015625,-2.3773603439331055,-1.5402312278747559,9.392123222351074
1702070419341116200,3.2711162109375,-2.2156195640563965,-1.8962258100509644,9.366507530212402
1702070419358124500,3.28812451171875,-2.1294946670532227,-2.3177342414855957,9.291366577148438
1702070419375125200,3.305125244140625,-2.101142168045044,-2.8072524070739746,9.16191291809082
1702070419392100400,3.322100341796875,-2.0894253253936768,-3.3339593410491943,8.986385345458984
1702070419409092400,3.33909228515625,-2.047663927078247,-3.8581087589263916,8.78397274017334
1702070419426081800,3.356081787109375,-1.9678828716278076,-4.351089000701904,8.56922435760498
1702070419443075000,3.373074951171875,-1.870066523551941,-4.805936813354492,8.345174789428711
1702070419460050000,3.3900498046875,-1.783921241760254,-5.220900058746338,8.111470222473145
1702070419477056300,3.40705615234375,-1.7334340810775757,-5.602472305297852,7.864073753356934
1702070419494038500,3.42403857421875,-1.721998691558838,-5.95071268081665,7.606567859649658
1702070419511037700,3.44103759765625,-1.7383822202682495,-6.2568559646606445,7.352952003479004
1702070419528023600,3.4580234375,-1.759853482246399,-6.515542030334473,7.11946439743042
1702070419545015600,3.475015625,-1.764573097229004,-6.720792293548584,6.924836158752441
1702070419562002400,3.49200244140625,-1.763684630393982,-6.8674468994140625,6.779653072357178
1702070419578999300,3.508999267578125,-1.7712187767028809,-6.965728282928467,6.676638603210449
1702070419595985700,3.525985595703125,-1.7912434339523315,-7.0330071449279785,6.600330829620361
1702070419612977400,3.542977294921875,-1.8120635747909546,-7.078664302825928,6.545614242553711
1702070419629965800,3.5599658203125,-1.8226704597473145,-7.1070356369018555,6.511837482452393
1702070419646938000,3.576938232421875,-1.8229295015335083,-7.117922306060791,6.499862194061279
1702070419663939800,3.59393994140625,-1.8119124174118042,-7.107110977172852,6.5147576332092285
1702070419680930800,3.610930908203125,-1.7941181659698486,-7.079213619232178,6.549959659576416
1702070419697922600,3.627922607421875,-1.7764029502868652,-7.047626972198486,6.588737487792969
1702070419714914800,3.644914794921875,-1.77188241481781,-7.01806640625,6.621426582336426
1702070419731911200,3.6619111328125,-1.7792028188705444,-6.984186172485352,6.655198097229004
1702070419748900400,3.678900390625,-1.780305027961731,-6.929728031158447,6.711595058441162
1702070419765889800,3.695889892578125,-1.7465779781341553,-6.830982685089111,6.82079553604126
1702070419782881800,3.7128818359375,-1.6635273694992065,-6.668979167938232,6.999538421630859
1702070419799860000,3.72985986328125,-1.550234317779541,-6.420975685119629,7.252861022949219
1702070419816847400,3.746847412109375,-1.4621384143829346,-6.07331657409668,7.563933849334717
1702070419833851600,3.7638515625,-1.439195156097412,-5.6424150466918945,7.894806861877441
1702070419850843100,3.780843017578125,-1.4955768585205078,-5.16066312789917,8.20773696899414
1702070419867832300,3.797832275390625,-1.6061255931854248,-4.6705732345581055,8.475979804992676
1702070419884824000,3.814823974609375,-1.725629210472107,-4.196971416473389,8.697342872619629
1702070419901813500,3.8318134765625,-1.8226497173309326,-3.7567288875579834,8.876996040344238
1702070419918805000,3.848804931640625,-1.9045685529708862,-3.3607189655303955,9.017443656921387
1702070419935782100,3.8657822265625,-1.9921996593475342,-3.010870933532715,9.121509552001953
1702070419952788000,3.8827880859375,-2.1059906482696533,-2.7023885250091553,9.192281723022461
1702070419969756700,3.899756591796875,-2.2459957599639893,-2.428905725479126,9.235367774963379
1702070419986766800,3.916766845703125,-2.39158034324646,-2.1738064289093018,9.262344360351562
1702070420003755500,3.933755615234375,-2.5199050903320312,-1.9166820049285889,9.28507137298584
1702070420020747000,3.9507470703125,-2.630296468734741,-1.647768497467041,9.306047439575195
1702070420037736400,3.967736328125,-2.7353744506835938,-1.374556303024292,9.320109367370605
1702070420054728400,3.984728515625,-2.85170578956604,-1.1051750183105469,9.321077346801758
1702070420071717400,4.00171728515625,-2.9939539432525635,-0.8385578393936157,9.304254531860352
1702070420088709000,4.018709228515625,-3.155858278274536,-0.568342924118042,9.271119117736816
1702070420105698000,4.035697998046875,-3.3220646381378174,-0.2939702272415161,9.225702285766602
1702070420122690000,4.05268994140625,-3.4808950424194336,-0.0417555533349514,9.171571731567383
1702070420139678700,4.0696787109375,-3.625422477722168,0.15977254509925842,9.114104270935059
1702070420156670500,4.08667041015625,-3.7606194019317627,0.2965991497039795,9.05571174621582
1702070420173660200,4.10366015625,-3.8760814666748047,0.3665491044521332,9.004318237304688
1702070420190641000,4.120640869140625,-3.9527320861816406,0.37296614050865173,8.970670700073242
1702070420207627800,4.137627685546875,-3.988816261291504,0.34587013721466064,8.955769538879395
1702070420224622600,4.15462255859375,-3.9768669605255127,0.3184501826763153,8.962098121643066
1702070420241611300,4.171611328125,-3.9033119678497314,0.27816930413246155,8.995716094970703
1702070420258604000,4.18860400390625,-3.7535347938537598,0.1814800351858139,9.061687469482422
1702070420275597300,4.205597412109375,-3.5282914638519287,-0.02888641692698002,9.153493881225586
1702070420292595700,4.222595703125,-3.272028923034668,-0.36873772740364075,9.240885734558105
1702070420309577000,4.239576904296875,-3.0280964374542236,-0.7704938054084778,9.299092292785645
1702070420326571800,4.25657177734375,-2.8177387714385986,-1.1546216011047363,9.325413703918457
1702070420343558100,4.27355810546875,-2.6517579555511475,-1.4977774620056152,9.325286865234375
1702070420360546300,4.29054638671875,-2.529242515563965,-1.8313342332839966,9.299745559692383
1702070420377539800,4.307539794921875,-2.439405918121338,-2.2073965072631836,9.241905212402344
1702070420394534700,4.32453466796875,-2.374445676803589,-2.6619367599487305,9.138500213623047
1702070420411520500,4.3415205078125,-2.325396776199341,-3.17507266998291,8.98596477508545
1702070420428509000,4.358509033203125,-2.284933567047119,-3.6939949989318848,8.795998573303223
1702070420445498600,4.37549853515625,-2.235184907913208,-4.1802473068237305,8.588691711425781
1702070420462487000,4.392487060546875,-2.169177293777466,-4.621433258056641,8.37694263458252
1702070420479476500,4.4094765625,-2.088794469833374,-5.019362449645996,8.165725708007812
1702070420496476700,4.4264765625,-2.00738263130188,-5.384764194488525,7.950527191162109
1702070420513464800,4.44346484375,-1.9352518320083618,-5.710963726043701,7.737946510314941
1702070420530457300,4.460457275390625,-1.86928129196167,-5.990372180938721,7.540383815765381
1702070420547445500,4.477445556640625,-1.8023446798324585,-6.227447032928467,7.362513065338135
1702070420564440800,4.49444091796875,-1.729164958000183,-6.432404518127441,7.202103137969971
1702070420581429800,4.5114296875,-1.654477596282959,-6.611693859100342,7.055801868438721
1702070420598411500,4.52841162109375,-1.5889561176300049,-6.769619941711426,6.919795989990234
1702070420615410200,4.54541015625,-1.5331312417984009,-6.913691520690918,6.788704872131348
1702070420632402000,4.56240185546875,-1.4839280843734741,-7.0481743812561035,6.660130977630615
1702070420649382700,4.579382568359375,-1.4274433851242065,-7.16129207611084,6.550909042358398
1702070420666383400,4.59638330078125,-1.3703731298446655,-7.230631351470947,6.4866132736206055
1702070420683372500,4.61337255859375,-1.3342866897583008,-7.250767707824707,6.471642971038818
1702070420700363800,4.63036376953125,-1.3309015035629272,-7.230676174163818,6.494779109954834
1702070420717353000,4.64735302734375,-1.3665502071380615,-7.173449993133545,6.550594329833984
1702070420734342100,4.664342041015625,-1.4306564331054688,-7.079442024230957,6.638587474822998
1702070420751336400,4.68133642578125,-1.5100181102752686,-6.954189300537109,6.752422332763672
1702070420768325400,4.698325439453125,-1.576894998550415,-6.813176155090332,6.8796916007995605
1702070420785314600,4.715314453125,-1.5821826457977295,-6.665432453155518,7.0217390060424805
1702070420802306800,4.732306884765625,-1.5110498666763306,-6.484371185302734,7.204566955566406
1702070420819292200,4.749292236328125,-1.3990130424499512,-6.233631134033203,7.444507122039795
1702070420836284200,4.7662841796875,-1.2951582670211792,-5.895464897155762,7.733188152313232
1702070420853275400,4.783275390625,-1.2601481676101685,-5.458995819091797,8.052797317504883
1702070420870269200,4.800269287109375,-1.3244850635528564,-4.9352216720581055,8.374093055725098
1702070420887246300,4.817246337890625,-1.44162118434906,-4.376071453094482,8.66070556640625
1702070420904249000,4.8342490234375,-1.5491011142730713,-3.8349759578704834,8.895468711853027
1702070420921238300,4.85123828125,-1.6038024425506592,-3.342654228210449,9.082433700561523
1702070420938220000,4.868219970703125,-1.609514594078064,-2.9019126892089844,9.231712341308594
1702070420955218700,4.88521875,-1.5998386144638062,-2.5022060871124268,9.349632263183594
1702070420972224500,4.902224609375,-1.6064237356185913,-2.1340229511260986,9.439359664916992
1702070420989200000,4.919199951171875,-1.6356054544448853,-1.7913177013397217,9.505372047424316
1702070421006191600,4.936191650390625,-1.6640456914901733,-1.4783761501312256,9.554134368896484
1702070421023179300,4.95317919921875,-1.6785047054290771,-1.1825321912765503,9.592723846435547
1702070421040170800,4.970170654296875,-1.6944735050201416,-0.884132981300354,9.622015953063965
1702070421057164300,4.987164306640625,-1.7270208597183228,-0.5864695906639099,9.638960838317871
1702070421074155500,5.004155517578125,-1.7784512042999268,-0.3062160611152649,9.642586708068848
1702070421091139300,5.021139404296875,-1.8504695892333984,-0.060821570456027985,9.63370132446289
1702070421108134000,5.0381337890625,-1.9390308856964111,0.14180463552474976,9.615413665771484
1702070421125123000,5.055123046875,-2.0372121334075928,0.30646368861198425,9.591246604919434
1702070421142114800,5.07211474609375,-2.134909152984619,0.4324802756309509,9.565108299255371
1702070421159103700,5.089103759765625,-2.22843599319458,0.5110092759132385,9.539867401123047
1702070421176084700,5.106084716796875,-2.307271718978882,0.5354824662208557,9.519763946533203
1702070421193084700,5.123084716796875,-2.3683924674987793,0.5022679567337036,9.506555557250977
1702070421210076400,5.140076416015625,-2.3774778842926025,0.4026647210121155,9.509023666381836
1702070421227065000,5.157065185546875,-2.3232357501983643,0.25756460428237915,9.52745246887207
1702070421244057000,5.17405712890625,-2.2265350818634033,0.10162928700447083,9.553444862365723
1702070421261046300,5.19104638671875,-2.1214990615844727,-0.04229145124554634,9.577765464782715
1702070421278038300,5.208038330078125,-2.026679039001465,-0.18162855505943298,9.596651077270508
1702070421295028200,5.2250283203125,-1.9206262826919556,-0.3614047169685364,9.613362312316895
1702070421312025300,5.242025390625,-1.7871489524841309,-0.6198987364768982,9.625900268554688
1702070421329007900,5.2590078125,-1.6443891525268555,-0.9474106431007385,9.624683380126953
1702070421346000000,5.275999755859375,-1.509030818939209,-1.3037139177322388,9.605170249938965
1702070421362988500,5.292988525390625,-1.390398383140564,-1.6581298112869263,9.568361282348633
1702070421379969800,5.3099697265625,-1.3161007165908813,-2.0078961849212646,9.511696815490723
1702070421396969700,5.3269697265625,-1.295583963394165,-2.3784074783325195,9.428720474243164
1702070421413963000,5.343962890625,-1.326082468032837,-2.7992098331451416,9.308173179626465
1702070421430948600,5.360948486328125,-1.3976261615753174,-3.276841163635254,9.140298843383789
1702070421447931400,5.377931396484375,-1.4829341173171997,-3.7864315509796143,8.927484512329102
1702070421464931000,5.39493115234375,-1.5431568622589111,-4.292062759399414,8.685216903686523
1702070421481912600,5.41191259765625,-1.5569387674331665,-4.7790846824646,8.42451286315918
1702070421498911700,5.428911865234375,-1.5282716751098633,-5.246724605560303,8.146924018859863
1702070421515903700,5.44590380859375,-1.4696614742279053,-5.694975852966309,7.85133695602417
1702070421532893200,5.46289306640625,-1.395770788192749,-6.11783504486084,7.540561676025391
1702070421549884700,5.479884765625,-1.3245728015899658,-6.493987083435059,7.232550144195557
1702070421566873600,5.49687353515625,-1.2689218521118164,-6.798696994781494,6.957272529602051
1702070421583865300,5.513865234375,-1.2326135635375977,-7.0247321128845215,6.735720157623291
1702070421600854500,5.5308544921875,-1.217978596687317,-7.186767101287842,6.565288066864014
1702070421617846300,5.54784619140625,-1.222825288772583,-7.306789398193359,6.430522441864014
1702070421634835200,5.564835205078125,-1.2382795810699463,-7.404636383056641,6.314600467681885
1702070421651827000,5.581826904296875,-1.2583401203155518,-7.47945499420166,6.221774101257324
1702070421668816400,5.59881640625,-1.2815746068954468,-7.516339302062988,6.17238712310791
1702070421685808000,5.61580810546875,-1.307026743888855,-7.516297817230225,6.167093276977539
1702070421702796800,5.632796875,-1.3380964994430542,-7.486674785614014,6.196396350860596
1702070421719784200,5.6497841796875,-1.3779608011245728,-7.4304327964782715,6.255079746246338
1702070421736777700,5.66677783203125,-1.4196105003356934,-7.353578090667725,6.336064338684082
1702070421753756400,5.68375634765625,-1.4634698629379272,-7.267039775848389,6.425303936004639
1702070421770760700,5.7007607421875,-1.498847246170044,-7.1797261238098145,6.514683246612549
1702070421787740000,5.717739990234375,-1.5004558563232422,-7.101264953613281,6.599758625030518
1702070421804739600,5.734739501953125,-1.4541171789169312,-7.028202533721924,6.687752723693848
1702070421821731000,5.75173095703125,-1.3751364946365356,-6.942291736602783,6.793357849121094
1702070421838720000,5.768719970703125,-1.2960810661315918,-6.834285736083984,6.9172868728637695
1702070421855709000,5.785708984375,-1.2253221273422241,-6.715633869171143,7.045208930969238
1702070421872703500,5.802703369140625,-1.1538848876953125,-6.604738712310791,7.161151885986328
1702070421889693000,5.81969287109375,-1.0469247102737427,-6.5209479331970215,7.253778457641602
1702070421906681600,5.836681640625,-0.8993655443191528,-6.451930522918701,7.334840774536133
1702070421923673600,5.853673583984375,-0.7464005947113037,-6.369259834289551,7.423715591430664
1702070421940662800,5.870662841796875,-0.6425341963768005,-6.239282608032227,7.54285192489624
1702070421957643800,5.887643798828125,-0.613222062587738,-6.054523468017578,7.694336414337158
1702070421974643500,5.9046435546875,-0.6395328044891357,-5.829280853271484,7.864259719848633
1702070421991635000,5.921635009765625,-0.7339711785316467,-5.581439018249512,8.033987998962402
1702070422008624000,5.9386240234375,-0.8931680917739868,-5.325631618499756,8.189996719360352
1702070422025616100,5.9556162109375,-1.082969307899475,-5.05380916595459,8.338006973266602
1702070422042618000,5.9726181640625,-1.2777669429779053,-4.7561116218566895,8.484270095825195
1702070422059596500,5.989596435546875,-1.451041579246521,-4.444117069244385,8.624407768249512
1702070422076586000,6.0065859375,-1.5969243049621582,-4.141208648681641,8.748505592346191
1702070422093577700,6.02357763671875,-1.7315096855163574,-3.8672239780426025,8.847743034362793
1702070422110566400,6.04056640625,-1.8587720394134521,-3.6212761402130127,8.925661087036133
1702070422127558100,6.05755810546875,-1.9744287729263306,-3.3812363147735596,8.994720458984375
1702070422144547600,6.074547607421875,-2.0587410926818848,-3.121037721633911,9.069554328918457
1702070422161539300,6.091539306640625,-2.0985469818115234,-2.822762966156006,9.15774154663086
1702070422178518000,6.10851806640625,-2.1005117893218994,-2.4949750900268555,9.251975059509277
1702070422195519700,6.125519775390625,-2.083073616027832,-2.1630890369415283,9.339055061340332
1702070422212509400,6.142509521484375,-2.0663557052612305,-1.855725884437561,9.408641815185547
1702070422229501200,6.159501220703125,-2.064772367477417,-1.5862846374511719,9.458148002624512
1702070422246489600,6.176489501953125,-2.074594497680664,-1.3455040454864502,9.493250846862793
1702070422263481300,6.1934814453125,-2.086149215698242,-1.1102550029754639,9.521103858947754
1702070422280470800,6.210470703125,-2.088717222213745,-0.8705506324768066,9.54544734954834
1702070422297462500,6.227462646484375,-2.0727882385253906,-0.6473984122276306,9.56663703918457
1702070422314451200,6.244451171875,-2.035327672958374,-0.4770039916038513,9.584674835205078
1702070422331440600,6.261440673828125,-1.9873610734939575,-0.382260799407959,9.598978996276855
1702070422348435200,6.278435302734375,-1.9453949928283691,-0.362385630607605,9.608342170715332
1702070422365424000,6.295424072265625,-1.9128564596176147,-0.4035358726978302,9.613232612609863
1702070422382413000,6.3124130859375,-1.8800559043884277,-0.49145662784576416,9.615610122680664
1702070422399390700,6.329390625,-1.822090744972229,-0.609864354133606,9.619988441467285
1702070422416394200,6.346394287109375,-1.7336146831512451,-0.7624619603157043,9.625454902648926
1702070422433385700,6.3633857421875,-1.6408339738845825,-0.9571243524551392,9.62432861328125
1702070422450374400,6.38037451171875,-1.5658615827560425,-1.1957024335861206,9.610123634338379
1702070422467366400,6.397366455078125,-1.5224981307983398,-1.4725736379623413,9.578603744506836
1702070422484355800,6.41435595703125,-1.5077104568481445,-1.7833573818206787,9.52798843383789
1702070422501347300,6.431347412109375,-1.518312692642212,-2.128932237625122,9.455078125
1702070422518325000,6.448324951171875,-1.5384527444839478,-2.5132038593292236,9.356979370117188
1702070422535323000,6.465322998046875,-1.5495449304580688,-2.943732500076294,9.228729248046875
1702070422552306700,6.482306640625,-1.5377002954483032,-3.4143686294555664,9.067176818847656
1702070422569309000,6.499308837890625,-1.4858360290527344,-3.9019558429718018,8.877114295959473
1702070422586298000,6.516298095703125,-1.3836196660995483,-4.356874942779541,8.679825782775879
1702070422603293000,6.53329296875,-1.254622459411621,-4.738152027130127,8.497760772705078
1702070422620275700,6.550275634765625,-1.1387897729873657,-5.051761150360107,8.331807136535645
1702070422637271300,6.567271240234375,-1.0658053159713745,-5.332691192626953,8.164714813232422
1702070422654255900,6.584255859375,-1.035339593887329,-5.61031436920166,7.980512619018555
1702070422671254000,6.60125390625,-1.0259180068969727,-5.892903804779053,7.775428771972656
1702070422688238600,6.618238525390625,-1.0189943313598633,-6.160445213317871,7.566154479980469
1702070422705234200,6.635234130859375,-0.9934858083724976,-6.378713607788086,7.386551856994629
1702070422722221000,6.652220947265625,-0.9476220011711121,-6.540596961975098,7.249739646911621
1702070422739212800,6.669212890625,-0.8814064264297485,-6.666236400604248,7.142864227294922
1702070422756202000,6.686201904296875,-0.8067275285720825,-6.773500442504883,7.05017614364624
1702070422773191400,6.70319140625,-0.7379736304283142,-6.869754314422607,6.964051723480225
1702070422790175200,6.72017529296875,-0.6807790398597717,-6.949194431304932,6.8906707763671875
1702070422807174100,6.737174072265625,-0.6294481158256531,-7.003834247589111,6.84004545211792
1702070422824163800,6.754163818359375,-0.5749385952949524,-7.0303754806518555,6.817577838897705
1702070422841155300,6.7711552734375,-0.5095573663711548,-7.033911228179932,6.819131851196289
1702070422858144500,6.78814453125,-0.4383605122566223,-7.024669647216797,6.833591938018799
1702070422875136000,6.805135986328125,-0.37077605724334717,-7.012510299682617,6.850061893463135
1702070422892125200,6.822125244140625,-0.31714189052581787,-6.99760103225708,6.867977619171143
1702070422909117000,6.839116943359375,-0.28387531638145447,-6.972297191619873,6.895115375518799
1702070422926106000,6.856106201171875,-0.2646508514881134,-6.935468673706055,6.932918071746826
1702070422943097900,6.873097900390625,-0.2489183247089386,-6.89160680770874,6.9770989418029785
1702070422960076500,6.89007666015625,-0.2306855320930481,-6.83927583694458,7.029027462005615
1702070422977078800,6.907078857421875,-0.20159855484962463,-6.770740509033203,7.095952987670898
1702070422994067500,6.9240673828125,-0.15409108996391296,-6.675717353820801,7.1865973472595215
1702070423011059000,6.941058837890625,-0.09324730932712555,-6.548157215118408,7.3040452003479
1702070423028048400,6.95804833984375,-0.03314494341611862,-6.394425392150879,7.439512252807617
1702070423045036500,6.97503662109375,0.020348895341157913,-6.2338409423828125,7.574624538421631
1702070423062033200,6.992033203125,0.07597111910581589,-6.08387565612793,7.695244789123535
1702070423079020800,7.009020751953125,0.15065117180347443,-5.945405960083008,7.801639080047607
1702070423096010200,7.02601025390625,0.23077324032783508,-5.807815074920654,7.902668476104736
1702070423113001000,7.0430009765625,0.27936360239982605,-5.661787986755371,8.006386756896973
1702070423129978600,7.059978515625,0.29930612444877625,-5.505049228668213,8.114243507385254
1702070423146979000,7.07697900390625,0.3206197917461395,-5.346834659576416,8.21855640411377
1702070423163960600,7.093960693359375,0.35842379927635193,-5.195850849151611,8.313288688659668
1702070423180953600,7.11095361328125,0.419593870639801,-5.055349826812744,8.396636962890625
1702070423197947100,7.127947021484375,0.5216371417045593,-4.930965900421143,8.464608192443848
1702070423214946800,7.14494677734375,0.6601582765579224,-4.817935943603516,8.51984691619873
1702070423231933400,7.161933349609375,0.787004828453064,-4.698755741119385,8.575456619262695
1702070423248925000,7.178925048828125,0.8432042002677917,-4.563355922698975,8.642967224121094
1702070423265914000,7.1959140625,0.8177617788314819,-4.437777519226074,8.710539817810059
1702070423282905600,7.212905517578125,0.7436378002166748,-4.3493523597717285,8.761634826660156
1702070423299891000,7.229890869140625,0.6583502888679504,-4.25833797454834,8.813016891479492
1702070423316886800,7.24688671875,0.5776827335357666,-4.102372646331787,8.892295837402344
1702070423333875500,7.26387548828125,0.5026804804801941,-3.8745710849761963,8.998394966125488
1702070423350867200,7.2808671875,0.4413396716117859,-3.613994598388672,9.109356880187988
1702070423367856600,7.297856689453125,0.40318599343299866,-3.3570399284362793,9.20889949798584
1702070423384848400,7.314848388671875,0.3863658905029297,-3.1076619625091553,9.296733856201172
1702070423401837300,7.33183740234375,0.377486914396286,-2.8285984992980957,9.38576889038086
1702070423418828800,7.348828857421875,0.3596271574497223,-2.4922900199890137,9.481311798095703
1702070423435812600,7.3658125,0.31805405020713806,-2.1180551052093506,9.573339462280273
1702070423452801800,7.3828017578125,0.25465503334999084,-1.754428744316101,9.64848518371582
1702070423469798700,7.399798583984375,0.20245049893856049,-1.4208950996398926,9.704442024230957
1702070423486790400,7.416790283203125,0.19156648218631744,-1.1022101640701294,9.746002197265625
1702070423503779600,7.433779541015625,0.2047004997730255,-0.7657511234283447,9.77792739868164
1702070423520771600,7.450771484375,0.15325260162353516,-0.40950509905815125,9.800252914428711
1702070423537749500,7.46774951171875,-0.0021839351393282413,-0.0667521059513092,9.809773445129395
1702070423554751700,7.484751708984375,-0.22964969277381897,0.20764224231243134,9.805112838745117
1702070423571748000,7.501748046875,-0.4450114369392395,0.38284265995025635,9.792421340942383
1702070423588733200,7.518733154296875,-0.5793939232826233,0.47231295704841614,9.781479835510254
1702070423605721900,7.535721923828125,-0.6174987554550171,0.5085852742195129,9.777327537536621
1702070423622713600,7.552713623046875,-0.607837975025177,0.5258222818374634,9.777022361755371
1702070423639703000,7.569703125,-0.5867169499397278,0.5234079957008362,9.778443336486816
1702070423656694500,7.586694580078125,-0.5647668242454529,0.47228312492370605,9.782336235046387
1702070423673683700,7.60368359375,-0.5440027713775635,0.3656804859638214,9.788078308105469
1702070423690674700,7.6206748046875,-0.5096567869186401,0.21524274349212646,9.794388771057129
1702070423707664600,7.63766455078125,-0.45062944293022156,0.012175365351140499,9.799638748168945
1702070423724651300,7.6546513671875,-0.3840866684913635,-0.2577303647994995,9.799090385437012
1702070423741635600,7.671635498046875,-0.3269064426422119,-0.5897142291069031,9.786802291870117
1702070423758626600,7.68862646484375,-0.27122339606285095,-0.9504252076148987,9.76008415222168
1702070423775619300,7.705619384765625,-0.20799481868743896,-1.2890734672546387,9.722711563110352
1702070423792612600,7.722612548828125,-0.13947100937366486,-1.5876975059509277,9.679664611816406
1702070423809602600,7.7396025390625,-0.06932488083839417,-1.8745405673980713,9.628988265991211
1702070423826588400,7.75658837890625,-0.014210781082510948,-2.1932709217071533,9.561668395996094
1702070423843575800,7.773575927734375,0.009994646534323692,-2.559312105178833,9.47026538848877
1702070423860571400,7.7905712890625,0.019387613981962204,-2.9554357528686523,9.354204177856445
1702070423877556700,7.807556640625,0.02962842769920826,-3.349841833114624,9.220292091369629
1702070423894555600,7.8245556640625,0.04921660199761391,-3.717691421508789,9.078129768371582
1702070423911547600,7.841547607421875,0.070364810526371,-4.058964729309082,8.930619239807129
1702070423928537900,7.858537841796875,0.09987688064575195,-4.387986183166504,8.773353576660156
1702070423945518000,7.87551806640625,0.14079979062080383,-4.711964130401611,8.603118896484375
1702070423962516700,7.892516845703125,0.19256870448589325,-5.031702518463135,8.419086456298828
1702070423979503000,7.909503173828125,0.25338736176490784,-5.325927257537842,8.234464645385742
1702070423996496000,7.926495849609375,0.320406973361969,-5.5789008140563965,8.062835693359375
1702070424013480400,7.94348046875,0.3938988745212555,-5.7980055809021,7.903423309326172
1702070424030479400,7.960479248046875,0.4721977710723877,-5.996515274047852,7.749514579772949
1702070424047464000,7.9774638671875,0.5555375218391418,-6.182175636291504,7.596591949462891
1702070424064459500,7.99445947265625,0.6382364630699158,-6.352747917175293,7.447909832000732
1702070424081446700,8.01144677734375,0.7140830755233765,-6.495418548583984,7.316812992095947
1702070424098455800,8.028455810546875,0.7796525359153748,-6.6023030281066895,7.213726997375488
1702070424115434000,8.04543408203125,0.8326411843299866,-6.680364608764648,7.135514259338379
1702070424132425700,8.06242578125,0.8738424181938171,-6.735373020172119,7.078649997711182
1702070424149411000,8.0794111328125,0.8968915939331055,-6.773916721343994,7.038874626159668
1702070424166410000,8.096409912109374,0.9048145413398743,-6.799999713897705,7.012661933898926
1702070424183395300,8.113395263671874,0.9181280732154846,-6.801944732666016,7.009047031402588
1702070424200387000,8.130386962890626,0.949892520904541,-6.767693042755127,7.037909030914307
1702070424217376000,8.1473759765625,0.9881134033203125,-6.7007527351379395,7.096453666687012
1702070424234365400,8.164365478515625,1.020087718963623,-6.616793155670166,7.17032527923584
1702070424251359700,8.18135986328125,1.040786862373352,-6.533174991607666,7.243652820587158
1702070424268349000,8.198348876953125,1.0556639432907104,-6.454692363739014,7.311541557312012
1702070424285337600,8.215337646484375,1.07310152053833,-6.366092205047607,7.3863019943237305
1702070424302329300,8.232329345703125,1.0929973125457764,-6.238033771514893,7.491888523101807
1702070424319318500,8.249318603515626,1.0957530736923218,-6.043463706970215,7.6493144035339355
1702070424336304400,8.266304443359376,1.0605627298355103,-5.773532390594482,7.8598761558532715
1702070424353301200,8.28330126953125,0.982684850692749,-5.444897651672363,8.100834846496582
1702070424370291000,8.300291015625,0.8824138641357422,-5.084595680236816,8.342921257019043
1702070424387280400,8.3172802734375,0.7803910970687866,-4.708261489868164,8.570844650268555
1702070424404269800,8.334269775390625,0.6770523190498352,-4.319629192352295,8.781716346740723
1702070424421262800,8.351262939453125,0.5658818483352661,-3.9226088523864746,8.973796844482422
1702070424438239700,8.36823974609375,0.4457528591156006,-3.5216846466064453,9.14522647857666
1702070424455243800,8.385243896484376,0.3241354525089264,-3.1254284381866455,9.293156623840332
1702070424472233200,8.402233154296875,0.2156388908624649,-2.7465765476226807,9.41519832611084
1702070424489222400,8.419222412109375,0.13006722927093506,-2.3907604217529297,9.513330459594727
1702070424506211800,8.4362119140625,0.058247920125722885,-2.0593109130859375,9.5912446975708
1702070424523205600,8.45320556640625,-0.016107911244034767,-1.7476252317428589,9.65306568145752
1702070424540195300,8.4701953125,-0.10297473520040512,-1.446166753768921,9.70227336883545
1702070424557183000,8.487182861328124,-0.204551100730896,-1.1569234132766724,9.739394187927246
1702070424574173000,8.5041728515625,-0.3124699592590332,-0.8980244994163513,9.763812065124512
1702070424591167500,8.52116748046875,-0.41392865777015686,-0.6838511824607849,9.77737808227539
1702070424608149800,8.538149658203125,-0.5095494985580444,-0.5146137475967407,9.783232688903809
1702070424625149000,8.55514892578125,-0.6086503267288208,-0.38245877623558044,9.78363037109375
1702070424642137000,8.57213720703125,-0.7172898054122925,-0.28211909532546997,9.77967643737793
1702070424659126500,8.58912646484375,-0.8297531008720398,-0.2202538102865219,9.77236557006836
1702070424676118300,8.6061181640625,-0.9297763109207153,-0.20748348534107208,9.76363754272461
1702070424693107000,8.62310693359375,-1.0091923475265503,-0.25782158970832825,9.754548072814941
1702070424710098400,8.640098388671875,-1.062682032585144,-0.3828476369380951,9.744757652282715
1702070424727087900,8.657087890625,-1.0912834405899048,-0.5749310255050659,9.732146263122559
1702070424744080000,8.674079833984376,-1.086995244026184,-0.7973480224609375,9.716935157775879
1702070424761068500,8.691068603515625,-1.0306798219680786,-1.0054247379302979,9.703760147094727
1702070424778060300,8.708060302734374,-0.9256877899169922,-1.1862772703170776,9.693915367126465
1702070424795049500,8.725049560546875,-0.7862523198127747,-1.3825554847717285,9.68021011352539
1702070424812041200,8.742041259765625,-0.6233167052268982,-1.652976632118225,9.64962387084961
1702070424829030000,8.75902978515625,-0.431787371635437,-2.0128839015960693,9.591556549072266
1702070424846021600,8.776021728515625,-0.22314204275608063,-2.4204213619232178,9.504098892211914
1702070424863010800,8.7930107421875,-0.006560283713042736,-2.808729410171509,9.399313926696777
1702070424879992300,8.809992431640625,0.20938090980052948,-3.1403496265411377,9.291420936584473
1702070424896991500,8.826991455078126,0.40201714634895325,-3.416724681854248,9.18697452545166
1702070424913980700,8.843980712890625,0.5509372353553772,-3.6699275970458984,9.080981254577637
1702070424930975000,8.86097509765625,0.6575027704238892,-3.947409152984619,8.956660270690918
1702070424947964700,8.877964599609374,0.7236581444740295,-4.277792930603027,8.798460960388184
1702070424964952800,8.894952880859375,0.7636569142341614,-4.654913425445557,8.601436614990234
1702070424981934300,8.911934326171876,0.8009630441665649,-5.037934303283691,8.379368782043457
1702070424998944800,8.92894482421875,0.8537449836730957,-5.387136459350586,8.15389347076416
1702070425015926000,8.945926025390625,0.927612841129303,-5.695791244506836,7.933069705963135
1702070425032914700,8.962914794921875,1.0103152990341187,-5.979455471038818,7.711127758026123
1702070425049906200,8.97990625,1.082602620124817,-6.252322196960449,7.48148250579834
1702070425066895600,8.9968955078125,1.1309527158737183,-6.506553649902344,7.254090309143066
1702070425083887400,9.013887451171875,1.1556150913238525,-6.707423686981201,7.06478214263916
1702070425100876300,9.030876220703124,1.1638035774230957,-6.846070289611816,6.929141044616699
1702070425117868000,9.047867919921876,1.1749974489212036,-6.937755584716797,6.835425853729248
1702070425134857200,9.064857177734375,1.1879174709320068,-6.994916915893555,6.7746686935424805
1702070425151846700,9.0818466796875,1.1993458271026611,-7.0280046463012695,6.738311767578125
1702070425168827100,9.0988271484375,1.2290719747543335,-7.032474517822266,6.7282819747924805
1702070425185829600,9.11582958984375,1.3096776008605957,-7.008170127868652,6.738430023193359
1702070425202820400,9.1328203125,1.4276714324951172,-6.970541954040527,6.753475666046143
1702070425219816200,9.149816162109374,1.5417869091033936,-6.934492111206055,6.765487194061279
1702070425236786000,9.166785888671875,1.6140508651733398,-6.910072326660156,6.773615837097168
1702070425253790700,9.183790771484375,1.617962121963501,-6.892755031585693,6.79030704498291
1702070425270780400,9.200780517578124,1.567487120628357,-6.868488311767578,6.826638698577881
1702070425287772200,9.217772216796876,1.4971287250518799,-6.814314842224121,6.896364212036133
1702070425304760800,9.2347607421875,1.4266160726547241,-6.724207878112793,6.998994827270508
1702070425321752600,9.251752685546874,1.365838885307312,-6.608099937438965,7.120646953582764
1702070425338731300,9.268731201171875,1.3249925374984741,-6.471992015838623,7.252161026000977
1702070425355730700,9.285730712890626,1.3047120571136475,-6.303262710571289,7.402886390686035
1702070425372725000,9.30272509765625,1.2897133827209473,-6.077404499053955,7.5919647216796875
1702070425389711400,9.31971142578125,1.2629013061523438,-5.774041652679443,7.829537868499756
1702070425406706200,9.3367060546875,1.1995738744735718,-5.388169765472412,8.10954761505127
1702070425423695400,9.3536953125,1.0907630920410156,-4.9358744621276855,8.407346725463867
1702070425440683800,9.370683837890626,0.9585034251213074,-4.4530181884765625,8.688384056091309
1702070425457675800,9.38767578125,0.836457371711731,-3.9689114093780518,8.932199478149414
1702070425474662700,9.40466259765625,0.7456100583076477,-3.4975526332855225,9.134950637817383
1702070425491658800,9.42165869140625,0.6868048906326294,-3.049421548843384,9.298680305480957
1702070425508633300,9.43863330078125,0.6372570991516113,-2.63297963142395,9.428544998168945
1702070425525636900,9.455636962890624,0.5737794041633606,-2.2506206035614014,9.531085014343262
1702070425542626600,9.47262646484375,0.4873107671737671,-1.9100302457809448,9.60991382598877
1702070425559618300,9.489618408203125,0.37432941794395447,-1.6229772567749023,9.667572975158691
1702070425576607700,9.506607666015626,0.24485260248184204,-1.3931283950805664,9.707490921020508
1702070425593598500,9.523598388671875,0.11046282202005386,-1.2111072540283203,9.734328269958496
1702070425610588200,9.540588134765626,-0.026183102279901505,-1.0451194047927856,9.754135131835938
1702070425627579400,9.557579345703125,-0.17635758221149445,-0.8720713257789612,9.769571304321289
1702070425644568300,9.574568359375,-0.3407437205314636,-0.7026610970497131,9.778867721557617
1702070425661544000,9.5915439453125,-0.5087748765945435,-0.5571914315223694,9.780942916870117
1702070425678539000,9.6085390625,-0.6617136597633362,-0.44651737809181213,9.77746868133545
1702070425695540000,9.6255400390625,-0.7811998724937439,-0.3641450107097626,9.772065162658691
1702070425712530000,9.642530029296875,-0.8679535388946533,-0.29692602157592773,9.767017364501953
1702070425729513700,9.659513671875,-0.9342663884162903,-0.25164633989334106,9.76216983795166
1702070425746510800,9.6765107421875,-0.9796127080917358,-0.25272077322006226,9.757692337036133
1702070425763502800,9.6935029296875,-0.9932048916816711,-0.3291739821434021,9.75403881072998
1702070425780491500,9.710491455078126,-0.9806769490242004,-0.4836524724960327,9.748870849609375
1702070425797483300,9.727483154296875,-0.9470877647399902,-0.6797634363174438,9.740484237670898
1702070425814472700,9.74447265625,-0.9141088724136353,-0.8660778999328613,9.728846549987793
1702070425831464000,9.7614638671875,-0.9045958518981934,-1.0249669551849365,9.714282989501953
1702070425848449300,9.77844921875,-0.8957414627075195,-1.1882638931274414,9.69648265838623
1702070425865444900,9.79544482421875,-0.8133107423782349,-1.409407615661621,9.674098014831543
1702070425882434000,9.81243408203125,-0.5969703197479248,-1.7242504358291626,9.638812065124512
1702070425899425500,9.829425537109374,-0.27650490403175354,-2.1199238300323486,9.574213981628418
1702070425916412200,9.846412109375,0.08549156039953232,-2.5407533645629883,9.474882125854492
1702070425933408800,9.86340869140625,0.421294242143631,-2.923083782196045,9.354902267456055
1702070425950395600,9.880395751953126,0.6640872955322266,-3.2441794872283936,9.234198570251465
1702070425967387100,9.89738720703125,0.7876854538917542,-3.533268690109253,9.117657661437988
1702070425984375800,9.914375732421876,0.8205897808074951,-3.8460793495178223,8.987236022949219
1702070426001367800,9.931367919921875,0.8157146573066711,-4.218045234680176,8.819231033325195
1702070426018342100,9.948342041015625,0.8101399540901184,-4.625070095062256,8.613275527954102
1702070426035358500,9.9653583984375,0.8165760040283203,-5.015514850616455,8.391303062438965
1702070426052337700,9.982337646484375,0.839383065700531,-5.3570380210876465,8.175189018249512
1702070426069329200,9.9993291015625,0.8753510117530823,-5.654996871948242,7.968118190765381
1702070426086318600,10.016318603515625,0.9173673391342163,-5.922004222869873,7.766881465911865
1702070426103310300,10.033310302734375,0.9563992619514465,-6.165953636169434,7.569835662841797
1702070426120299000,10.050299072265625,0.981589674949646,-6.3879008293151855,7.3801960945129395
1702070426137290800,10.067290771484375,0.994938850402832,-6.577244758605957,7.210136413574219
1702070426154277600,10.084277587890625,1.0074905157089233,-6.717220783233643,7.078138828277588
1702070426171274500,10.1012744140625,1.0154467821121216,-6.80745792388916,6.9902448654174805
1702070426188260600,10.118260498046874,1.0208940505981445,-6.870455265045166,6.9275336265563965
1702070426205252400,10.13525244140625,1.0310746431350708,-6.925084590911865,6.871406555175781
1702070426222241800,10.15224169921875,1.0397086143493652,-6.968001365661621,6.826572895050049
1702070426239224600,10.169224609375,1.032749891281128,-6.985686302185059,6.809532165527344
1702070426256222200,10.18622216796875,0.998494565486908,-6.974470138549805,6.826119422912598
1702070426273213700,10.203213623046874,0.9492668509483337,-6.927774429321289,6.880475044250488
1702070426290203000,10.220202880859375,0.9051174521446228,-6.84531307220459,6.968400955200195
1702070426307194600,10.237194580078125,0.8799276351928711,-6.735413074493408,7.077857971191406
1702070426324191200,10.254191162109375,0.8692284226417542,-6.608691692352295,7.197620868682861
1702070426341164500,10.27116455078125,0.8543384671211243,-6.475417613983154,7.319508075714111
1702070426358162200,10.288162109375,0.8269805312156677,-6.356631278991699,7.425998687744141
1702070426375159000,10.305158935546874,0.8110228776931763,-6.2632951736450195,7.506629943847656
1702070426392145000,10.322144775390624,0.8345731496810913,-6.162078380584717,7.587384223937988
1702070426409136600,10.33913671875,0.928055465221405,-5.997416973114014,7.707516193389893
1702070426426125800,10.356125732421875,1.0584279298782349,-5.718142032623291,7.900550365447998
1702070426443115300,10.373115234375,1.1594398021697998,-5.3220343589782715,8.158905982971191
1702070426460109000,10.390109130859376,1.1973788738250732,-4.844559669494629,8.4458646774292
1702070426477098500,10.407098388671875,1.172285556793213,-4.342574119567871,8.718021392822266
1702070426494084000,10.424083984375,1.111114263534546,-3.8618860244750977,8.9491548538208
1702070426511082500,10.44108251953125,1.0493320226669312,-3.4171392917633057,9.135546684265137
1702070426528068000,10.458068115234376,0.9866688847541809,-2.998530149459839,9.288240432739258
1702070426545059600,10.4750595703125,0.9054425358772278,-2.5998051166534424,9.415800094604492
1702070426562049000,10.492049072265624,0.7918381690979004,-2.2240803241729736,9.521689414978027
1702070426579040800,10.509040771484376,0.6430060267448425,-1.8797024488449097,9.606738090515137
1702070426596029700,10.52602978515625,0.47438478469848633,-1.5752454996109009,9.671073913574219
1702070426613021000,10.54302099609375,0.31363603472709656,-1.3008081912994385,9.718317031860352
1702070426630007600,10.560007568359374,0.17383860051631927,-1.04031240940094,9.753134727478027
1702070426646996700,10.576996826171875,0.05674459785223007,-0.7901629209518433,9.777960777282715
1702070426663982800,10.59398291015625,-0.050264567136764526,-0.5531632900238037,9.794261932373047
1702070426680974800,10.610974853515625,-0.16185437142848969,-0.3318885564804077,9.80305004119873
1702070426697963500,10.627963623046876,-0.27775678038597107,-0.13184916973114014,9.805181503295898
1702070426714953500,10.644953369140625,-0.3825734555721283,0.03691756725311279,9.80246639251709
1702070426731952400,10.661952392578126,-0.46779167652130127,0.16741310060024261,9.79741096496582
1702070426748933000,10.67893310546875,-0.540202796459198,0.25557711720466614,9.791781425476074
1702070426765933600,10.69593359375,-0.606793999671936,0.29351532459259033,9.786815643310547
1702070426782914600,10.71291455078125,-0.6499989628791809,0.2684515416622162,9.784760475158691
1702070426799918300,10.72991845703125,-0.648566484451294,0.16699063777923584,9.787114143371582
1702070426816895000,10.74689501953125,-0.5980620980262756,-0.024031473323702812,9.791722297668457
1702070426833892600,10.763892578125,-0.5350540280342102,-0.30673354864120483,9.790593147277832
1702070426850889500,10.780889404296875,-0.5003361701965332,-0.6584810018539429,9.775081634521484
1702070426867875300,10.797875244140625,-0.4720233678817749,-1.0529110431671143,9.741904258728027
1702070426884867300,10.814867431640625,-0.4025471806526184,-1.458678960800171,9.692591667175293
1702070426901856500,10.8318564453125,-0.29516175389289856,-1.86460542678833,9.626642227172852
1702070426918838000,10.848838134765625,-0.16186219453811646,-2.2820122241973877,9.539515495300293
1702070426935834000,10.865834228515626,-0.008089623413980007,-2.738020896911621,9.42015266418457
1702070426952831200,10.882831298828124,0.15909747779369354,-3.244943380355835,9.2564115524292
1702070426969818000,10.899818115234375,0.31669163703918457,-3.7604029178619385,9.055120468139648
1702070426986809600,10.9168095703125,0.4415414035320282,-4.223459720611572,8.843276977539062
1702070427003798500,10.933798583984375,0.521712601184845,-4.596902370452881,8.65057373046875
1702070427020790300,10.950790283203125,0.5567362308502197,-4.89461088180542,8.483450889587402
1702070427037779200,10.967779296875,0.56301349401474,-5.156565189361572,8.32640266418457
1702070427054771200,10.984771240234375,0.5579188466072083,-5.4178080558776855,8.1591796875
1702070427071757600,11.001757568359375,0.5587605237960815,-5.689105033874512,7.972328186035156
1702070427088754200,11.018754150390626,0.5711519718170166,-5.957087516784668,7.773223400115967
1702070427105730300,11.035730224609376,0.5878598093986511,-6.199215888977051,7.580254554748535
1702070427122732800,11.05273291015625,0.5951536297798157,-6.401734352111816,7.4094343185424805
1702070427139721500,11.069721435546874,0.5865564346313477,-6.563302040100098,7.267404079437256
1702070427156713200,11.086713134765626,0.5685002207756042,-6.697933197021484,7.1449713706970215
1702070427173702100,11.1037021484375,0.5541763305664062,-6.819159507751465,7.030509948730469
1702070427190690000,11.12068994140625,0.5505101084709167,-6.922814846038818,6.9287590980529785
1702070427207683000,11.13768310546875,0.5578425526618958,-6.998040199279785,6.8521809577941895
1702070427224672000,11.154672119140624,0.5738101005554199,-7.040766716003418,6.806942462921143
1702070427241653500,11.171653564453125,0.5859062075614929,-7.049991607666016,6.796354293823242
1702070427258655500,11.188655517578125,0.6043056845664978,-7.051149368286133,6.793543815612793
1702070427275640000,11.20564013671875,0.6231266856193542,-7.049777507781982,6.793267250061035
1702070427292632300,11.22263232421875,0.6391621232032776,-7.055538177490234,6.785791873931885
1702070427309622500,11.23962255859375,0.6401537656784058,-7.062572002410889,6.778378963470459
1702070427326607000,11.256607177734375,0.6154539585113525,-7.060749053955078,6.782564163208008
1702070427343596800,11.2735966796875,0.5754993557929993,-7.046468734741211,6.800895690917969
1702070427360592000,11.290591796875,0.537266731262207,-7.026791572570801,6.824341773986816
1702070427377578000,11.307577880859375,0.5173768401145935,-7.008654594421387,6.844503402709961
1702070427394573000,11.324572998046875,0.5241473317146301,-6.983320713043213,6.869833946228027
1702070427411563000,11.34156298828125,0.5412610173225403,-6.942861557006836,6.909400463104248
1702070427428555300,11.35855517578125,0.5597083568572998,-6.882274150848389,6.968296051025391
1702070427445543000,11.37554296875,0.589840829372406,-6.80230712890625,7.043920993804932
1702070427462529800,11.39252978515625,0.6552389860153198,-6.710881233215332,7.125365734100342
1702070427479522600,11.4095224609375,0.764210045337677,-6.604153633117676,7.213685512542725
1702070427496514600,11.4265146484375,0.8989831209182739,-6.4570770263671875,7.330355167388916
1702070427513506000,11.443506103515626,1.0187755823135376,-6.2558770179748535,7.487470626831055
1702070427530497800,11.460497802734375,1.0929253101348877,-6.008349895477295,7.677329063415527
1702070427547486200,11.477486328125,1.1162481307983398,-5.729488849639893,7.8843560218811035
1702070427564481800,11.494481689453124,1.0962880849838257,-5.437822341918945,8.091005325317383
1702070427581462800,11.511462890625,1.0513458251953125,-5.147773265838623,8.28439712524414
1702070427598453800,11.528453857421875,0.9885826706886292,-4.859437465667725,8.464320182800293
1702070427615452000,11.545451904296876,0.9048759341239929,-4.568649768829346,8.633930206298828
1702070427632439000,11.56243896484375,0.7964740991592407,-4.272066116333008,8.794952392578125
1702070427649432600,11.5794326171875,0.6636680960655212,-3.9660849571228027,8.947952270507812
1702070427666424300,11.59642431640625,0.5129764080047607,-3.6530189514160156,9.090017318725586
1702070427683413200,11.613413330078124,0.356920063495636,-3.3429317474365234,9.215940475463867
1702070427700404700,11.63040478515625,0.20318914949893951,-3.0420172214508057,9.32421588897705
1702070427717394200,11.647394287109375,0.05294376239180565,-2.7496602535247803,9.416614532470703
1702070427734386000,11.664385986328124,-0.09277280420064926,-2.4658074378967285,9.494595527648926
1702070427751373800,11.681373779296875,-0.2325560599565506,-2.190279483795166,9.559534072875977
1702070427768366300,11.698366455078125,-0.36069178581237793,-1.9240981340408325,9.61269474029541
1702070427785353500,11.715353515625,-0.4755985140800476,-1.671942114830017,9.654767036437988
1702070427802349300,11.732349365234375,-0.586398720741272,-1.443490982055664,9.685482025146484
1702070427819324000,11.749323974609375,-0.6874893307685852,-1.2566806077957153,9.704856872558594
1702070427836327400,11.766327392578125,-0.7697906494140625,-1.1247884035110474,9.714853286743164
1702070427853306000,11.78330615234375,-0.830177903175354,-1.0478945970535278,9.71847915649414
1702070427870300400,11.800300537109376,-0.8679482936859131,-1.0182015895843506,9.71833610534668
1702070427887297300,11.81729736328125,-0.8848137259483337,-1.0339148044586182,9.715155601501465
1702070427904289000,11.8342890625,-0.8793215751647949,-1.0922527313232422,9.709269523620605
1702070427921278500,11.851278564453125,-0.8525695204734802,-1.1802153587341309,9.7013578414917
1702070427938278000,11.86827783203125,-0.7990948557853699,-1.3012701272964478,9.690421104431152
1702070427955259100,11.885259033203125,-0.7148501873016357,-1.489784598350525,9.669829368591309
1702070427972250600,11.902250732421875,-0.5736033916473389,-1.773455262184143,9.631300926208496
1702070427989240000,11.919239990234376,-0.36703091859817505,-2.1367948055267334,9.567419052124023
1702070428006231800,11.936231689453125,-0.1235698014497757,-2.5268442630767822,9.478179931640625
1702070428023220500,11.953220458984376,0.11667797714471817,-2.8994030952453613,9.371018409729004
1702070428040201700,11.97020166015625,0.32068735361099243,-3.2369680404663086,9.255016326904297
1702070428057201400,11.987201416015624,0.45288851857185364,-3.532804489135742,9.140585899353027
1702070428074190300,12.0041904296875,0.49736887216567993,-3.8131372928619385,9.024894714355469
1702070428091184400,12.021184326171875,0.475896418094635,-4.130478382110596,8.885313987731934
1702070428108173600,12.038173583984374,0.4156218469142914,-4.5136237144470215,8.700033187866211
1702070428125163000,12.0551630859375,0.3570023477077484,-4.9512505531311035,8.461310386657715
1702070428142154200,12.072154296875,0.3408564329147339,-5.400707721710205,8.182438850402832
1702070428159143200,12.08914306640625,0.3909916281700134,-5.818111419677734,7.888779163360596
1702070428176134700,12.106134765625,0.4966666102409363,-6.181499004364014,7.601216793060303
1702070428193124600,12.12312451171875,0.6230430603027344,-6.494467258453369,7.32597017288208
1702070428210115600,12.140115478515625,0.7365036010742188,-6.766363143920898,7.064701080322266
1702070428227104500,12.1571044921875,0.8190037608146667,-6.99020528793335,6.833913803100586
1702070428244097500,12.17409765625,0.8702300190925598,-7.156211853027344,6.653378963470459
1702070428261085700,12.191085693359375,0.8949450254440308,-7.271597862243652,6.523731231689453
1702070428278077400,12.208077392578126,0.9006548523902893,-7.3469977378845215,6.437901496887207
1702070428295068400,12.225068359375,0.8942831158638,-7.395356178283691,6.3831892013549805
1702070428312057900,12.242057861328124,0.8713293075561523,-7.425442695617676,6.351356506347656
1702070428329047000,12.259047119140625,0.8279651999473572,-7.440069198608398,6.340029239654541
1702070428346038500,12.27603857421875,0.7749513983726501,-7.4393815994262695,6.347532749176025
1702070428363027700,12.29302783203125,0.7109085917472839,-7.428390979766846,6.3678669929504395
1702070428380008700,12.3100087890625,0.6450075507164001,-7.423887729644775,6.38012170791626
1702070428397008600,12.327008544921876,0.585689902305603,-7.433392524719238,6.374774932861328
1702070428413997600,12.34399755859375,0.5309839248657227,-7.448807716369629,6.3615593910217285
1702070428430992000,12.360991943359375,0.48253390192985535,-7.464107513427734,6.347470283508301
1702070428447980500,12.37798046875,0.46077054738998413,-7.475952625274658,6.335134506225586
1702070428464959500,12.39495947265625,0.48480552434921265,-7.475430488586426,6.333959102630615
1702070428481959000,12.411958984375,0.5368866920471191,-7.438850402832031,6.372705936431885
1702070428498953000,12.428952880859375,0.5836960077285767,-7.355675220489502,6.464477062225342
1702070428515951900,12.445951904296875,0.6306596398353577,-7.248020648956299,6.580621719360352
1702070428532931300,12.462931396484375,0.7123844623565674,-7.135154724121094,6.694640636444092
1702070428549923000,12.479923095703125,0.835226833820343,-7.011134624481201,6.810472011566162
1702070428566912000,12.496912109375,0.9880526065826416,-6.854555130004883,6.94801664352417
1702070428583903500,12.513903564453125,1.1413666009902954,-6.641175270080566,7.129389762878418
1702070428600892700,12.530892578125,1.2450006008148193,-6.362544059753418,7.362344264984131
1702070428617878800,12.547878662109374,1.2585184574127197,-6.034152030944824,7.631595611572266
1702070428634881000,12.564881103515624,1.1669566631317139,-5.681128025054932,7.911960124969482
1702070428651855000,12.581855224609376,0.9942675828933716,-5.337949275970459,8.170302391052246
1702070428668854300,12.598854248046875,0.7873032093048096,-5.02429723739624,8.38884449005127
1702070428685843500,12.615843505859376,0.5906195044517517,-4.731446743011475,8.57325553894043
1702070428702837200,12.632837158203126,0.41553810238838196,-4.438749313354492,8.738475799560547
1702070428719828700,12.649828857421875,0.25731828808784485,-4.140146255493164,8.88983154296875
1702070428736815600,12.666815673828125,0.10521392524242401,-3.8374733924865723,9.027670860290527
1702070428753807000,12.68380712890625,-0.05147472396492958,-3.5324432849884033,9.151793479919434
1702070428770796000,12.700796142578126,-0.21541450917720795,-3.2345316410064697,9.258915901184082
1702070428787787800,12.717787841796875,-0.3724270761013031,-2.9475388526916504,9.349302291870117
1702070428804777200,12.734777099609374,-0.49823927879333496,-2.6650168895721436,9.427912712097168
1702070428821767000,12.751766845703125,-0.5924918055534363,-2.3784618377685547,9.498841285705566
1702070428838759400,12.768759521484375,-0.6836246252059937,-2.090573787689209,9.560243606567383
1702070428855746600,12.78574658203125,-0.7874181866645813,-1.8185440301895142,9.607755661010742
1702070428872741400,12.802741455078126,-0.9104374051094055,-1.5880160331726074,9.637709617614746
1702070428889717200,12.81971728515625,-1.0365833044052124,-1.4128336906433105,9.652226448059082
1702070428906714600,12.836714599609374,-1.1380857229232788,-1.2820724248886108,9.65904712677002
1702070428923712000,12.8537119140625,-1.2044326066970825,-1.183311104774475,9.663602828979492
1702070428940700000,12.870699951171876,-1.2493209838867188,-1.1202486753463745,9.665420532226562
1702070428957691600,12.887691650390625,-1.282248854637146,-1.0993602275848389,9.663505554199219
1702070428974680600,12.9046806640625,-1.3013325929641724,-1.1304391622543335,9.657368659973145
1702070428991675400,12.92167529296875,-1.2936640977859497,-1.2179961204528809,9.647749900817871
1702070429008661200,12.9386611328125,-1.2548575401306152,-1.3428630828857422,9.6362943649292
1702070429025653200,12.9556533203125,-1.1815725564956665,-1.4710979461669922,9.626832008361816
1702070429042642000,12.972641845703125,-1.0767297744750977,-1.5885950326919556,9.620452880859375
1702070429059633400,12.98963330078125,-0.9572634100914001,-1.7256488800048828,9.609469413757324
1702070429076622600,13.00662255859375,-0.8332802057266235,-1.9166131019592285,9.584799766540527
1702070429093608700,13.023608642578125,-0.7118247151374817,-2.1655921936035156,9.541468620300293
1702070429110603500,13.040603515625,-0.6023882031440735,-2.461660385131836,9.476998329162598
1702070429127595000,13.057594970703125,-0.49537310004234314,-2.793962001800537,9.39066219329834
1702070429144584000,13.074583984375,-0.3760935366153717,-3.1407358646392822,9.28603458404541
1702070429161576000,13.091575927734375,-0.2338581532239914,-3.484203338623047,9.167428970336914
1702070429178551800,13.1085517578125,-0.08327016234397888,-3.8055734634399414,9.041394233703613
1702070429195562000,13.12556201171875,0.03375381976366043,-4.099184513092041,8.912444114685059
1702070429212526800,13.14252685546875,0.08585551381111145,-4.379573345184326,8.777703285217285
1702070429229540000,13.1595400390625,0.07516274601221085,-4.667727947235107,8.628022193908691
1702070429246526200,13.176526123046875,0.030079539865255356,-4.9744720458984375,8.455166816711426
1702070429263518200,13.193518310546875,-0.017388487234711647,-5.295932292938232,8.257658958435059
1702070429280506000,13.210506103515625,-0.04152623191475868,-5.614834785461426,8.044129371643066
1702070429297498600,13.22749853515625,-0.03882540389895439,-5.907355308532715,7.83184289932251
1702070429314479000,13.24447900390625,-0.014128335751593113,-6.157758712768555,7.636617183685303
1702070429331479000,13.26147900390625,0.031386684626340866,-6.368801593780518,7.461467742919922
1702070429348468500,13.278468505859376,0.08640635758638382,-6.54966402053833,7.302777290344238
1702070429365449500,13.295449462890625,0.1400977522134781,-6.710098743438721,7.154792308807373
1702070429382448600,13.31244873046875,0.18752354383468628,-6.854659080505371,7.015313148498535
1702070429399449300,13.329449462890626,0.23156268894672394,-6.980224132537842,6.889045238494873
1702070429416429800,13.346429931640625,0.2789230942726135,-7.0820536613464355,6.782539367675781
1702070429433421600,13.363421630859374,0.33688512444496155,-7.160702705383301,6.696786403656006
1702070429450410200,13.38041015625,0.39943310618400574,-7.218604564666748,6.630863189697266
1702070429467402500,13.397402587890625,0.45368775725364685,-7.258091926574707,6.584100723266602
1702070429484380400,13.41438037109375,0.4906294643878937,-7.280625820159912,6.556516647338867
1702070429501382700,13.431382568359375,0.5150769948959351,-7.287628650665283,6.546851634979248
1702070429518367500,13.448367431640625,0.5381672978401184,-7.280020236968994,6.553457260131836
1702070429535363300,13.46536328125,0.5663567185401917,-7.254378318786621,6.579463481903076
1702070429552352800,13.482352783203124,0.583865761756897,-7.207531452178955,6.629232883453369
1702070429569344000,13.499343994140625,0.5590276122093201,-7.140697479248047,6.703286170959473
1702070429586321400,13.5163212890625,0.4784192144870758,-7.060927867889404,6.793418884277344
1702070429603326200,13.533326171875,0.36898109316825867,-6.979756832122803,6.8835296630859375
1702070429620312600,13.5503125,0.2727968990802765,-6.895218372344971,6.972639560699463
1702070429637305600,13.5673056640625,0.19197966158390045,-6.782252311706543,7.085219383239746
1702070429654292000,13.5842919921875,0.13482967019081116,-6.6270670890808105,7.231870174407959
1702070429671285500,13.601285400390625,0.10935970395803452,-6.444873809814453,7.395116806030273
1702070429688275700,13.618275634765626,0.11118578910827637,-6.270951271057129,7.54313850402832
1702070429705268200,13.635268310546875,0.1270720213651657,-6.126841068267822,7.660404682159424
1702070429722254300,13.65225439453125,0.11384496837854385,-5.984699249267578,7.7721638679504395
1702070429739236900,13.66923681640625,0.03521895036101341,-5.800216197967529,7.911533832550049
1702070429756236500,13.686236572265624,-0.11383432894945145,-5.5697221755981445,8.074735641479492
1702070429773225700,13.703225830078125,-0.2953816056251526,-5.3302812576293945,8.23024845123291
1702070429790219500,13.720219482421875,-0.46735408902168274,-5.1217851638793945,8.353743553161621
1702070429807209000,13.737208984375,-0.6047223806381226,-4.961500644683838,8.441203117370605
1702070429824198100,13.7541982421875,-0.7161642909049988,-4.8327436447143555,8.506928443908691
1702070429841190000,13.77118994140625,-0.8199268579483032,-4.69551944732666,8.574142456054688
1702070429858176300,13.78817626953125,-0.9327622056007385,-4.51312780380249,8.66012191772461
1702070429875173000,13.805173095703125,-1.0560302734375,-4.269008159637451,8.769063949584961
1702070429892159500,13.822159423828126,-1.180962085723877,-3.9757535457611084,8.890154838562012
1702070429909151000,13.83915087890625,-1.2952021360397339,-3.660426378250122,9.008875846862793
1702070429926140000,13.856139892578126,-1.3952287435531616,-3.3491621017456055,9.114416122436523
1702070429943132000,13.8731318359375,-1.4898439645767212,-3.0458226203918457,9.205404281616211
1702070429960120800,13.890120849609374,-1.588349461555481,-2.748424530029297,9.282209396362305
1702070429977112600,13.907112548828126,-1.695450782775879,-2.459864616394043,9.344017028808594
1702070429994101500,13.9241015625,-1.796014428138733,-2.1876022815704346,9.39280891418457
1702070430011093200,13.94109326171875,-1.8646306991577148,-1.9451673030853271,9.43268871307373
1702070430028082200,13.958082275390625,-1.9011541604995728,-1.7363643646240234,9.466085433959961
1702070430045074200,13.97507421875,-1.9081424474716187,-1.563844919204712,9.494709968566895
1702070430062052000,13.992052001953125,-1.8821061849594116,-1.4326175451278687,9.520577430725098
1702070430079054300,14.009054443359375,-1.825992226600647,-1.343362808227539,9.544488906860352
1702070430096043800,14.026043701171876,-1.7387418746948242,-1.2953556776046753,9.567390441894531
1702070430113023000,14.04302294921875,-1.6263145208358765,-1.2834142446517944,9.588748931884766
1702070430130021400,14.060021484375,-1.4925872087478638,-1.3187483549118042,9.605684280395508
1702070430147006200,14.077006103515625,-1.3614978790283203,-1.4200060367584229,9.610725402832031
1702070430164001000,14.0940009765625,-1.2552279233932495,-1.5988668203353882,9.597092628479004
1702070430180989400,14.110989501953124,-1.1610287427902222,-1.832257866859436,9.567180633544922
1702070430197976300,14.127976318359375,-1.032744288444519,-2.0773181915283203,9.531752586364746
1702070430214977000,14.14497705078125,-0.8532824516296387,-2.2957239151000977,9.499351501464844
1702070430231964400,14.16196435546875,-0.6754001975059509,-2.483182668685913,9.46645450592041
1702070430248960500,14.17896044921875,-0.5627521276473999,-2.6799376010894775,9.420050621032715
1702070430265947100,14.195947021484375,-0.5370609164237976,-2.9408273696899414,9.343405723571777
1702070430282938600,14.212938720703125,-0.5713288187980652,-3.2953431606292725,9.22227954864502
1702070430299918600,14.229918701171876,-0.6169192790985107,-3.7204246520996094,9.056157112121582
1702070430316925200,14.24692529296875,-0.6307289600372314,-4.154974460601807,8.864226341247559
1702070430333910500,14.26391064453125,-0.5983774662017822,-4.557906627655029,8.666231155395508
1702070430350900500,14.280900390625,-0.5432636737823486,-4.933619022369385,8.461700439453125
1702070430367879200,14.297879150390624,-0.4850284457206726,-5.303837776184082,8.238334655761719
1702070430384874200,14.314874267578125,-0.42682453989982605,-5.677504539489746,7.988732814788818
1702070430401869800,14.331869873046875,-0.3716917335987091,-6.033296585083008,7.726402282714844
1702070430418861300,14.348861328125,-0.31075307726860046,-6.3379693031311035,7.481290340423584
1702070430435851800,14.365851806640626,-0.2475869059562683,-6.57409143447876,7.277095794677734
1702070430452840700,14.3828408203125,-0.18957243859767914,-6.749465465545654,7.116520881652832
1702070430469831200,14.3998310546875,-0.14076295495033264,-6.88335657119751,6.988255023956299
1702070430486822700,14.41682275390625,-0.10735458880662918,-6.987663745880127,6.884558200836182
1702070430503811800,14.433811767578124,-0.07381919771432877,-7.063760280609131,6.8069071769714355
1702070430520803600,14.450803466796875,-0.02892749197781086,-7.098863124847412,6.770627975463867
1702070430537792500,14.46779248046875,0.010172547772526741,-7.072309970855713,6.798416614532471
1702070430554782000,14.484781982421875,0.01684553734958172,-6.9946465492248535,6.878281116485596
1702070430571772400,14.5017724609375,0.0004221689887344837,-6.898266315460205,6.974958419799805
1702070430588767700,14.518767822265625,-0.018145957961678505,-6.80108642578125,7.069725036621094
1702070430605753900,14.53575390625,-0.034809939563274384,-6.701470375061035,7.1641621589660645
1702070430622745600,14.55274560546875,-0.06883547455072403,-6.59269905090332,7.264138221740723
1702070430639734500,14.569734619140625,-0.11726649850606918,-6.477705001831055,7.36625337600708
1702070430656726300,14.586726318359375,-0.15833091735839844,-6.364976406097412,7.463117599487305
1702070430673715200,14.603715087890626,-0.18299710750579834,-6.250167369842529,7.558970928192139
1702070430690707000,14.62070703125,-0.22593145072460175,-6.0975189208984375,7.681491851806641
1702070430707695900,14.63769580078125,-0.31473517417907715,-5.865147113800049,7.857296943664551
1702070430724688000,14.65468798828125,-0.4654565155506134,-5.521561622619629,8.095173835754395
1702070430741663700,14.671663818359375,-0.6514126062393188,-5.090850353240967,8.360322952270508
1702070430758658000,14.688657958984376,-0.8293188214302063,-4.610593795776367,8.619211196899414
1702070430775657200,14.7056572265625,-0.9596731662750244,-4.11693811416626,8.852455139160156
1702070430792646100,14.722646240234376,-1.0258928537368774,-3.6319894790649414,9.054960250854492
1702070430809634300,14.73963427734375,-1.0616333484649658,-3.1459732055664062,9.231030464172363
1702070430826622700,14.756622802734375,-1.0991613864898682,-2.6423697471618652,9.383275032043457
1702070430843614200,14.7736142578125,-1.1463110446929932,-2.1175272464752197,9.50989818572998
1702070430860599300,14.790599365234375,-1.2172985076904297,-1.5848069190979004,9.6043062210083
1702070430877595100,14.80759521484375,-1.3376190662384033,-1.0660486221313477,9.6597318649292
1702070430894580000,14.824580078125,-1.4927252531051636,-0.5914868116378784,9.677706718444824
1702070430911575000,14.841574951171875,-1.6529810428619385,-0.17094628512859344,9.66822338104248
1702070430928564500,14.858564453125,-1.7983217239379883,0.20805884897708893,9.641519546508789
1702070430945551600,14.875551513671875,-1.9286527633666992,0.5522564053535461,9.602679252624512
1702070430962544000,14.892544189453124,-2.040712356567383,0.864509105682373,9.55637264251709
1702070430979537400,14.909537353515624,-2.121992588043213,1.1380383968353271,9.50989818572998
1702070430996527900,14.92652783203125,-2.146791934967041,1.3570432662963867,9.475537300109863
1702070431013515500,14.943515625,-2.1001667976379395,1.5046336650848389,9.463692665100098
1702070431030503000,14.9605029296875,-1.9999747276306152,1.568725824356079,9.474983215332031
1702070431047497500,14.97749755859375,-1.8835549354553223,1.5464818477630615,9.502459526062012
1702070431064489500,14.994489501953124,-1.7886271476745605,1.440049409866333,9.537463188171387
1702070431081479400,15.0114794921875,-1.7267529964447021,1.2542152404785156,9.575039863586426
1702070431098467800,15.0284677734375,-1.6977741718292236,0.9896158576011658,9.61115837097168
1702070431115467000,15.045467041015625,-1.6977648735046387,0.6413211822509766,9.640664100646973
1702070431132455700,15.06245556640625,-1.7174115180969238,0.19800835847854614,9.65647029876709
1702070431149444900,15.07944482421875,-1.7422733306884766,-0.3450097143650055,9.647879600524902
1702070431166436400,15.096436279296874,-1.742307186126709,-0.9733681678771973,9.60484504699707
1702070431183425500,15.113425537109375,-1.6912528276443481,-1.6266335248947144,9.525221824645996
1702070431200417300,15.130417236328125,-1.580835223197937,-2.2359838485717773,9.420056343078613
1702070431217406000,15.147406005859375,-1.4295185804367065,-2.7715566158294678,9.301133155822754
1702070431234397700,15.164397705078125,-1.2682652473449707,-3.243056535720825,9.171160697937012
1702070431251387100,15.18138720703125,-1.1245125532150269,-3.6673648357391357,9.028955459594727
1702070431268389000,15.19838916015625,-1.0096083879470825,-4.066085338592529,8.870387077331543
1702070431285367300,15.2153671875,-0.9187812209129333,-4.454437732696533,8.691946029663086
1702070431302347300,15.23234716796875,-0.8399151563644409,-4.835203647613525,8.49420166015625
1702070431319345700,15.249345703125,-0.7540209889411926,-5.20358943939209,8.28192138671875
1702070431336340000,15.266340087890624,-0.6555334329605103,-5.555805683135986,8.05849838256836
1702070431353328600,15.28332861328125,-0.5478051900863647,-5.890750408172607,7.825287342071533
1702070431370320600,15.300320556640624,-0.4433148503303528,-6.2079010009765625,7.582978248596191
1702070431387309800,15.317309814453125,-0.3514088988304138,-6.499945163726807,7.339164733886719
1702070431404301300,15.33430126953125,-0.2709377706050873,-6.763213634490967,7.1008219718933105
1702070431421287400,15.351287353515625,-0.19860945641994476,-6.997155666351318,6.872880935668945
1702070431438280200,15.3682802734375,-0.13146354258060455,-7.199708461761475,6.662059783935547
1702070431455271000,15.38527099609375,-0.0694853886961937,-7.36663293838501,6.477965831756592
1702070431472262700,15.4022626953125,-0.020574014633893967,-7.49720573425293,6.326737403869629
1702070431489251300,15.419251220703124,0.017761502414941788,-7.597297191619873,6.2061991691589355
1702070431506243000,15.4362431640625,0.06234871596097946,-7.675926208496094,6.108387470245361
1702070431523232300,15.453232177734375,0.11697574704885483,-7.7375593185424805,6.029314994812012
1702070431540223700,15.4702236328125,0.16586358845233917,-7.779264450073242,5.974248886108398
1702070431557212700,15.487212646484375,0.19880826771259308,-7.797553539276123,5.949347019195557
1702070431574205200,15.504205078125,0.20779982209205627,-7.789344787597656,5.959786891937256
1702070431591192800,15.52119287109375,0.19169877469539642,-7.752755165100098,6.007841110229492
1702070431608185000,15.53818505859375,0.1574392169713974,-7.688835144042969,6.0904154777526855
1702070431625174300,15.55517431640625,0.12782788276672363,-7.598649501800537,6.203251838684082
1702070431642165000,15.5721650390625,0.11844237148761749,-7.483790397644043,6.341527462005615
1702070431659156000,15.589156005859374,0.12869341671466827,-7.35275936126709,6.49280309677124
1702070431676146400,15.606146484375,0.15713661909103394,-7.21832799911499,6.641322612762451
1702070431693135600,15.623135498046874,0.21451973915100098,-7.084511756896973,6.782315731048584
1702070431710124300,15.640124267578125,0.2890021502971649,-6.91926908493042,6.948114395141602
1702070431727118800,15.657118896484375,0.3541945219039917,-6.680690288543701,7.174890518188477
1702070431744107800,15.674107666015624,0.375020831823349,-6.342519760131836,7.474485397338867
1702070431761091000,15.691091064453126,0.33288347721099854,-5.911641597747803,7.821624279022217
1702070431778088400,15.70808837890625,0.2344985008239746,-5.417916774749756,8.174798011779785
1702070431795077600,15.72507763671875,0.09511315077543259,-4.896354675292969,8.500164031982422
1702070431812069000,15.742069091796875,-0.07173773646354675,-4.367687702178955,8.78375244140625
1702070431829058000,15.75905810546875,-0.2632094919681549,-3.8378493785858154,9.024286270141602
1702070431846049500,15.776049560546875,-0.4661470651626587,-3.3055098056793213,9.224555969238281
1702070431863045000,15.793045166015625,-0.6447157859802246,-2.781820297241211,9.385197639465332
1702070431880020000,15.81002001953125,-0.7707414031028748,-2.2760567665100098,9.51113224029541
1702070431897019400,15.827019287109374,-0.8415576219558716,-1.7833844423294067,9.609757423400879
1702070431914009000,15.844009033203125,-0.8721438050270081,-1.3039186000823975,9.683764457702637
1702070431931002400,15.86100244140625,-0.882256031036377,-0.8449761867523193,9.73363971710205
1702070431947992000,15.877991943359374,-0.8851755261421204,-0.4159238636493683,9.761125564575195
1702070431964980200,15.894980224609375,-0.8892545104026794,-0.02155868522822857,9.769590377807617
1702070431981962500,15.91196240234375,-0.9007115960121155,0.3356097340583801,9.762796401977539
1702070431998961700,15.928961669921875,-0.9218480587005615,0.6570855379104614,9.744463920593262
1702070432015953400,15.945953369140625,-0.9527248740196228,0.9397280216217041,9.718299865722656
1702070432032942000,15.962942138671876,-0.987663745880127,1.1754485368728638,9.689115524291992
1702070432049933800,15.979933837890625,-1.0310091972351074,1.3518587350845337,9.661554336547852
1702070432066923300,15.99692333984375,-1.0815730094909668,1.457523226737976,9.640639305114746
1702070432083912700,16.01391259765625,-1.1271690130233765,1.4961885213851929,9.629487037658691
1702070432100905500,16.030905517578127,-1.1465636491775513,1.4729397296905518,9.630781173706055
1702070432117884400,16.047884521484374,-1.1396253108978271,1.3843432664871216,9.644737243652344
1702070432134884400,16.06488427734375,-1.1263900995254517,1.2126400470733643,9.669377326965332
1702070432151876000,16.0818759765625,-1.1328256130218506,0.9403399229049683,9.698897361755371
1702070432168864800,16.09886474609375,-1.1627925634384155,0.5582746267318726,9.724832534790039
1702070432185856500,16.1158564453125,-1.2034283876419067,0.09291576594114304,9.735462188720703
1702070432202846000,16.132845947265626,-1.249591588973999,-0.38461610674858093,9.722485542297363
1702070432219826700,16.14982666015625,-1.3065416812896729,-0.8023844957351685,9.68943977355957
1702070432236826000,16.166826171875,-1.3817819356918335,-1.1949546337127686,9.638406753540039
1702070432253817600,16.183817626953125,-1.4256646633148193,-1.6698848009109497,9.561125755310059
1702070432270807000,16.20080712890625,-1.4104039669036865,-2.250009059906006,9.443745613098145
1702070432287798500,16.217798583984376,-1.3426663875579834,-2.8478431701660156,9.291027069091797
1702070432304787200,16.234787109375,-1.2299799919128418,-3.3597731590270996,9.134285926818848
1702070432321779000,16.251779052734374,-1.0994449853897095,-3.747859477996826,8.99893856048584
1702070432338757600,16.268757568359376,-0.9786338806152344,-4.040552616119385,8.885513305664062
1702070432355759900,16.285759765625,-0.8785833716392517,-4.299309253692627,8.773833274841309
1702070432372748800,16.302748779296873,-0.8003581166267395,-4.582902431488037,8.636699676513672
1702070432389740000,16.319739990234375,-0.7361165285110474,-4.915658950805664,8.457571983337402
1702070432406729500,16.3367294921875,-0.695722222328186,-5.2652974128723145,8.247954368591309
1702070432423727000,16.35372705078125,-0.6818523406982422,-5.5761590003967285,8.042242050170898
1702070432440710000,16.3707099609375,-0.6825147867202759,-5.832476615905762,7.858275890350342
1702070432457699300,16.38769921875,-0.6860389113426208,-6.0551347732543945,7.687704086303711
1702070432474686000,16.40468603515625,-0.6864733695983887,-6.26556921005249,7.517148017883301
1702070432491680000,16.421679931640625,-0.6872139573097229,-6.462612152099609,7.348367691040039
1702070432508673800,16.438673828125,-0.6866724491119385,-6.6243414878845215,7.2029643058776855
1702070432525662700,16.455662841796876,-0.6844838857650757,-6.734712600708008,7.1000871658325195
1702070432542652400,16.47265234375,-0.6859828233718872,-6.797503471374512,7.039852619171143
1702070432559639300,16.489639404296874,-0.7021836638450623,-6.835138320922852,7.001711368560791
1702070432576637000,16.506636962890624,-0.749802827835083,-6.868166923522949,6.964352607727051
1702070432593624000,16.5236240234375,-0.8118204474449158,-6.902527332305908,6.923308372497559
1702070432610613200,16.54061328125,-0.878079891204834,-6.9289469718933105,6.8887457847595215
1702070432627605200,16.557605224609375,-0.9490069150924683,-6.938826084136963,6.869365215301514
1702070432644593700,16.57459375,-1.0202029943466187,-6.927745342254639,6.870346546173096
1702070432661585700,16.591585693359374,-1.0877918004989624,-6.89393424987793,6.893945693969727
1702070432678565000,16.608565185546876,-1.1549333333969116,-6.839780330657959,6.93683385848999
1702070432695567000,16.625567138671876,-1.2083446979522705,-6.774604797363281,6.9914774894714355
1702070432712537000,16.642537109375,-1.2319350242614746,-6.701826095581055,7.057191848754883
1702070432729544400,16.65954443359375,-1.224086046218872,-6.608748435974121,7.145781993865967
1702070432746538800,16.676538818359376,-1.2035049200057983,-6.485513210296631,7.2612528800964355
1702070432763527700,16.693527587890625,-1.1862703561782837,-6.356301784515381,7.3774189949035645
1702070432780516600,16.7105166015625,-1.1445059776306152,-6.252164363861084,7.472393989562988
1702070432797508000,16.727508056640627,-1.0590009689331055,-6.14981746673584,7.569306373596191
1702070432814500600,16.74450048828125,-0.9480383396148682,-5.979568004608154,7.718945503234863
1702070432831486000,16.76148583984375,-0.8446689248085022,-5.686825752258301,7.948751449584961
1702070432848478000,16.77847802734375,-0.7815108299255371,-5.270441055297852,8.236977577209473
1702070432865469400,16.795469482421876,-0.7762588262557983,-4.772685527801514,8.535515785217285
1702070432882458600,16.812458740234376,-0.8416576385498047,-4.253551483154297,8.799718856811523
1702070432899450400,16.829450439453126,-0.9669044017791748,-3.7549309730529785,9.011198997497559
1702070432916436000,16.84643603515625,-1.1341522932052612,-3.2860372066497803,9.173426628112793
1702070432933430800,16.8634306640625,-1.3336154222488403,-2.844620943069458,9.293316841125488
1702070432950420000,16.880419921875,-1.5566978454589844,-2.433293104171753,9.375067710876465
1702070432967411700,16.89741162109375,-1.7923142910003662,-2.062002182006836,9.421883583068848
1702070432984390000,16.914389892578125,-2.0220234394073486,-1.7430185079574585,9.439778327941895
1702070433001391900,16.931391845703125,-2.240922689437866,-1.4732662439346313,9.436307907104492
1702070433018367700,16.94836767578125,-2.4352900981903076,-1.2357105016708374,9.422234535217285
1702070433035370500,16.96537060546875,-2.583397150039673,-1.0049288272857666,9.410223960876465
1702070433052364300,16.9823642578125,-2.6679208278656006,-0.7795876860618591,9.408004760742188
1702070433069353200,16.999353271484374,-2.695434331893921,-0.5721085667610168,9.415063858032227
1702070433086342700,17.0163427734375,-2.700690984725952,-0.3946528732776642,9.422667503356934
1702070433103334400,17.03333447265625,-2.723703384399414,-0.2521597146987915,9.420934677124023
1702070433120312600,17.0503125,-2.779155969619751,-0.14511123299598694,9.406983375549316
1702070433137314800,17.067314697265626,-2.859898328781128,-0.0693441778421402,9.383618354797363
1702070433154301200,17.08430126953125,-2.938159227371216,-0.03452605754137039,9.359601020812988
1702070433171298000,17.101298095703125,-2.9852335453033447,-0.048437461256980896,9.344633102416992
1702070433188284400,17.118284423828126,-3.0040581226348877,-0.10545717179775238,9.338128089904785
1702070433205276000,17.13527587890625,-3.0133755207061768,-0.2007603645324707,9.333561897277832
1702070433222263600,17.152263671875,-3.0372695922851562,-0.33208298683166504,9.322061538696289
1702070433239243300,17.1692431640625,-3.0779545307159424,-0.49644148349761963,9.3013916015625
1702070433256240000,17.186240234375,-3.112912178039551,-0.6954740285873413,9.276972770690918
1702070433273233000,17.20323291015625,-3.0935122966766357,-0.9451431035995483,9.261371612548828
1702070433290230300,17.220230224609374,-2.972200632095337,-1.2889167070388794,9.25963306427002
1702070433307218700,17.23721875,-2.7556777000427246,-1.7332156896591187,9.254098892211914
1702070433324207000,17.25420703125,-2.508394241333008,-2.2212178707122803,9.220102310180664
1702070433341198300,17.2711982421875,-2.2746429443359375,-2.704787492752075,9.151296615600586
1702070433358180900,17.288180908203124,-2.0713353157043457,-3.1640658378601074,9.051762580871582
1702070433375182000,17.30518212890625,-1.9099533557891846,-3.589076042175293,8.927863121032715
1702070433392167400,17.32216748046875,-1.7956619262695312,-3.9811224937438965,8.784212112426758
1702070433409160200,17.33916015625,-1.7241826057434082,-4.364346981048584,8.614859580993652
1702070433426148900,17.35614892578125,-1.6797332763671875,-4.756009578704834,8.41397762298584
1702070433443140400,17.373140380859375,-1.6359293460845947,-5.147205829620361,8.18939208984375
1702070433460119300,17.390119384765626,-1.5769444704055786,-5.509278297424316,7.9622344970703125
1702070433477121000,17.40712109375,-1.4949389696121216,-5.82017707824707,7.754148960113525
1702070433494113800,17.42411376953125,-1.4042404890060425,-6.071682453155518,7.576207637786865
1702070433511098000,17.44109814453125,-1.3305082321166992,-6.27101993560791,7.425644874572754
1702070433528080100,17.458080078125,-1.286414384841919,-6.426755905151367,7.2991838455200195
1702070433545082000,17.47508203125,-1.2816755771636963,-6.544145107269287,7.194972038269043
1702070433562071300,17.4920712890625,-1.2945449352264404,-6.632490158081055,7.11128044128418
1702070433579063300,17.509063232421877,-1.3043413162231445,-6.698020935058594,7.047788143157959
1702070433596052200,17.52605224609375,-1.3019250631332397,-6.751631259918213,6.996898651123047
1702070433613031000,17.543031005859376,-1.284019112586975,-6.79319953918457,6.959875106811523
1702070433630023400,17.5600234375,-1.263426661491394,-6.817076206207275,6.940271854400635
1702070433647020300,17.577020263671876,-1.247430443763733,-6.831364154815674,6.929103374481201
1702070433664010000,17.594010009765626,-1.244386076927185,-6.841976642608643,6.919173240661621
1702070433680995000,17.6109951171875,-1.258675456047058,-6.854404926300049,6.9042744636535645
1702070433697986800,17.62798681640625,-1.267441987991333,-6.8704633712768555,6.886687278747559
1702070433714985700,17.64498583984375,-1.241178274154663,-6.883851051330566,6.8780951499938965
1702070433731973400,17.661973388671875,-1.1730386018753052,-6.878983974456787,6.89490270614624
1702070433748967000,17.678966796875,-1.099995493888855,-6.844205856323242,6.941396236419678
1702070433765955300,17.695955322265625,-1.0517574548721313,-6.79378080368042,6.998174667358398
1702070433782947000,17.712947021484375,-1.0224167108535767,-6.757063865661621,7.037960052490234
1702070433799918300,17.72991845703125,-0.9987448453903198,-6.749866485595703,7.0482563972473145
1702070433816927500,17.746927490234373,-0.9554739594459534,-6.764583110809326,7.040141582489014
1702070433833916700,17.763916748046874,-0.8993316292762756,-6.7437005043029785,7.067518711090088
1702070433850908000,17.780907958984375,-0.8526401519775391,-6.610515117645264,7.197930812835693
1702070433867897000,17.79789697265625,-0.8393128514289856,-6.336356163024902,7.441924571990967
1702070433884888800,17.814888916015626,-0.8547831773757935,-5.954376697540283,7.7492499351501465
1702070433901878000,17.8318779296875,-0.8840516805648804,-5.526601314544678,8.05675220489502
1702070433918869500,17.848869384765624,-0.9179298877716064,-5.1037516593933105,8.327381134033203
1702070433935857700,17.865857666015625,-0.9540832042694092,-4.698771953582764,8.558466911315918
1702070433952850200,17.88285009765625,-1.0043867826461792,-4.298795223236084,8.760575294494629
1702070433969839000,17.899839111328124,-1.0746370553970337,-3.8886284828186035,8.94202709197998
1702070433986830600,17.91683056640625,-1.1556636095046997,-3.4654362201690674,9.104466438293457
1702070434003819500,17.933819580078126,-1.2312371730804443,-3.0432276725769043,9.244399070739746
1702070434020811000,17.95081103515625,-1.2926270961761475,-2.645225763320923,9.35777759552002
1702070434037800200,17.96780029296875,-1.3418331146240234,-2.281162738800049,9.44626522064209
1702070434054783700,17.98478369140625,-1.395437479019165,-1.9429023265838623,9.513883590698242
1702070434071780600,18.001780517578126,-1.4699678421020508,-1.6147279739379883,9.563889503479004
1702070434088772600,18.018772705078124,-1.5795470476150513,-1.2953846454620361,9.594954490661621
1702070434105764600,18.0357646484375,-1.7134020328521729,-0.9950011372566223,9.607828140258789
1702070434122750200,18.052750244140626,-1.8552204370498657,-0.7249199748039246,9.605663299560547
1702070434139737300,18.0697373046875,-1.99200439453125,-0.4882042407989502,9.59321117401123
1702070434156733700,18.086733642578125,-2.1120903491973877,-0.2829456031322479,9.575758934020996
1702070434173723000,18.103722900390625,-2.2108283042907715,-0.1115599125623703,9.556983947753906
1702070434190704400,18.120704345703125,-2.293144702911377,0.015345726162195206,9.53820514678955
1702070434207692500,18.137692626953125,-2.362149477005005,0.0814584419131279,9.521016120910645
1702070434224695000,18.154695068359374,-2.4173531532287598,0.07761740684509277,9.507181167602539
1702070434241681700,18.171681640625,-2.4529573917388916,-0.0023745542857795954,9.498373985290527
1702070434258666000,18.188666015625,-2.4692020416259766,-0.17840908467769623,9.492487907409668
1702070434275665000,18.205664794921876,-2.477415084838867,-0.4047144651412964,9.483393669128418
1702070434292646000,18.22264599609375,-2.468531370162964,-0.6571127772331238,9.471571922302246
1702070434309630200,18.239630126953124,-2.4343409538269043,-0.8919761180877686,9.461211204528809
1702070434326629600,18.256629638671875,-2.389219284057617,-1.11859929561615,9.448624610900879
1702070434343614000,18.273614013671875,-2.3364551067352295,-1.3948928117752075,9.42503833770752
1702070434360606500,18.2906064453125,-2.249854326248169,-1.7521864175796509,9.386380195617676
1702070434377601000,18.30760107421875,-2.1001298427581787,-2.163080930709839,9.335237503051758
1702070434394589400,18.32458935546875,-1.8990839719772339,-2.5744121074676514,9.273727416992188
1702070434411581700,18.341581787109376,-1.6865452527999878,-2.946932554244995,9.203656196594238
1702070434428570400,18.3585703125,-1.5015532970428467,-3.262319564819336,9.12900447845459
1702070434445559800,18.375559814453126,-1.3709025382995605,-3.535555362701416,9.047462463378906
1702070434462550300,18.39255029296875,-1.2926651239395142,-3.8037314414978027,8.949678421020508
1702070434479536000,18.4095361328125,-1.2480835914611816,-4.104348182678223,8.822286605834961
1702070434496532700,18.42653271484375,-1.2177493572235107,-4.454799175262451,8.654938697814941
1702070434513519600,18.44351953125,-1.1857692003250122,-4.8322625160217285,8.454545974731445
1702070434530510600,18.460510498046876,-1.1383429765701294,-5.197690010070801,8.241620063781738
1702070434547502300,18.47750244140625,-1.0731006860733032,-5.53809928894043,8.025833129882812
1702070434564495600,18.49449560546875,-1.0006004571914673,-5.853316307067871,7.8085618019104
1702070434581481500,18.5114814453125,-0.9328122138977051,-6.145243167877197,7.589595794677734
1702070434598475500,18.5284755859375,-0.8745481967926025,-6.410087585449219,7.374420166015625
1702070434615473700,18.5454736328125,-0.8185111284255981,-6.640621185302734,7.174140453338623
1702070434632462000,18.562462158203125,-0.757362961769104,-6.83862829208374,6.992546558380127
1702070434649451500,18.579451416015626,-0.6840681433677673,-7.01298713684082,6.825407028198242
1702070434666441000,18.59644091796875,-0.6000176072120667,-7.169023036956787,6.669421195983887
1702070434683434800,18.613434814453125,-0.5144842267036438,-7.307592391967773,6.524609565734863
1702070434700423700,18.630423583984374,-0.4336467683315277,-7.423652648925781,6.398238182067871
1702070434717412900,18.647412841796875,-0.34477728605270386,-7.506384372711182,6.306461334228516
1702070434734392000,18.66439208984375,-0.24566960334777832,-7.556598663330078,6.250888824462891
1702070434751382500,18.681382568359375,-0.14327901601791382,-7.582978248596191,6.222059726715088
1702070434768385000,18.698385009765627,-0.055601175874471664,-7.59474515914917,6.209095478057861
1702070434785374200,18.715374267578124,-0.00485260458663106,-7.596645832061768,6.207016944885254
1702070434802365700,18.73236572265625,0.005954512394964695,-7.5891876220703125,6.216132164001465
1702070434819354400,18.749354248046874,-0.0061287591233849525,-7.562835693359375,6.248169422149658
1702070434836333000,18.7663330078125,-0.03118729591369629,-7.5038557052612305,6.3188042640686035
1702070434853334800,18.783334716796876,-0.07153718173503876,-7.40770959854126,6.430927276611328
1702070434870329300,18.800329345703126,-0.12223926186561584,-7.29062557220459,6.562617301940918
1702070434887316000,18.81731591796875,-0.15362244844436646,-7.179149627685547,6.683736801147461
1702070434904307500,18.834307373046876,-0.13680584728717804,-7.081640243530273,6.787325382232666
1702070434921296600,18.851296630859373,-0.06930763274431229,-6.971348285675049,6.901566982269287
1702070434938288000,18.8682880859375,0.03598610684275627,-6.802157402038574,7.068626880645752
1702070434955277000,18.885277099609375,0.14547084271907806,-6.5447187423706055,7.306273937225342
1702070434972268500,18.9022685546875,0.21389350295066833,-6.197731971740723,7.601215839385986
1702070434989255400,18.91925537109375,0.2109222412109375,-5.7779765129089355,7.9250617027282715
1702070435006252000,18.936251953125,0.14191368222236633,-5.315210819244385,8.244059562683105
1702070435023238400,18.95323828125,0.03810981288552284,-4.849640369415283,8.52734661102295
1702070435040230000,18.97022998046875,-0.07674412429332733,-4.406747341156006,8.764176368713379
1702070435057219000,18.987218994140626,-0.18936501443386078,-4.0048346519470215,8.953298568725586
1702070435074211800,19.0042119140625,-0.3126927316188812,-3.6641292572021484,9.094640731811523
1702070435091198200,19.0211982421875,-0.45332178473472595,-3.38100528717041,9.197795867919922
1702070435108188400,19.0381884765625,-0.608332633972168,-3.123779296875,9.279441833496094
1702070435125172200,19.055172119140625,-0.7706355452537537,-2.8613228797912598,9.3517427444458
1702070435142169300,19.07216943359375,-0.9203044176101685,-2.571880340576172,9.422028541564941
1702070435159159800,19.089159912109373,-1.0331498384475708,-2.251500129699707,9.492073059082031
1702070435176152600,19.106152587890627,-1.0875160694122314,-1.921918272972107,9.55822467803955
1702070435193141800,19.123141845703124,-1.0595506429672241,-1.6093535423278809,9.61890983581543
1702070435210133200,19.14013330078125,-0.9318462610244751,-1.31186044216156,9.677128791809082
1702070435227119000,19.157119140625,-0.7164465188980103,-1.0240410566329956,9.730062484741211
1702070435244116200,19.1741162109375,-0.4555741250514984,-0.7455299496650696,9.771017074584961
1702070435261091300,19.19109130859375,-0.20903797447681427,-0.48091596364974976,9.795975685119629
1702070435278087000,19.2080869140625,-0.04748056083917618,-0.24094271659851074,9.806925773620605
1702070435295085800,19.2250859375,-0.008621134795248508,-0.05200689285993576,9.809859275817871
1702070435312074500,19.242074462890624,-0.07914382219314575,0.059480220079422,9.809500694274902
1702070435329064200,19.259064208984373,-0.21498867869377136,0.0999312549829483,9.807137489318848
1702070435346055700,19.2760556640625,-0.3464112877845764,0.08671888709068298,9.803499221801758
1702070435363044000,19.293044189453123,-0.4257428050041199,0.025989413261413574,9.8007230758667
1702070435380025300,19.310025390625,-0.454156756401062,-0.08980242162942886,9.799070358276367
1702070435397025300,19.327025390625,-0.45115187764167786,-0.2717011272907257,9.795854568481445
1702070435414019600,19.34401953125,-0.43194612860679626,-0.526297390460968,9.786346435546875
1702070435431002400,19.36100244140625,-0.4131239354610443,-0.8367825150489807,9.76551342010498
1702070435447997000,19.377996826171874,-0.39527589082717896,-1.1664196252822876,9.732386589050293
1702070435464986600,19.394986572265626,-0.36741623282432556,-1.5129246711730957,9.685667991638184
1702070435481978000,19.41197802734375,-0.3136516809463501,-1.911344051361084,9.616887092590332
1702070435498966800,19.428966796875,-0.23935461044311523,-2.392573356628418,9.51075267791748
1702070435515958500,19.44595849609375,-0.16542358696460724,-2.9432225227355957,9.356612205505371
1702070435532947700,19.46294775390625,-0.10584864020347595,-3.505887746810913,9.161532402038574
1702070435549938700,19.479938720703124,-0.05461416766047478,-4.024922847747803,8.946123123168945
1702070435566928600,19.4969287109375,-0.011561115272343159,-4.480493068695068,8.72703742980957
1702070435583919900,19.513919921875,0.014749017544090748,-4.884911060333252,8.507265090942383
1702070435600908800,19.53090869140625,0.02585054188966751,-5.2552337646484375,8.283596992492676
1702070435617898000,19.54789794921875,0.020938295871019363,-5.61285400390625,8.04559326171875
1702070435634891800,19.564891845703126,-0.004384827334433794,-5.9701056480407715,7.784210205078125
1702070435651880700,19.581880615234375,-0.043263550847768784,-6.322893142700195,7.500351905822754
1702070435668870100,19.5988701171875,-0.07771710306406021,-6.648777961730957,7.212754249572754
1702070435685861600,19.615861572265626,-0.09147442877292633,-6.931513786315918,6.941316604614258
1702070435702848000,19.632847900390626,-0.07962972670793533,-7.173071384429932,6.691547870635986
1702070435719834000,19.649834228515626,-0.04223151504993439,-7.381427764892578,6.461335182189941
1702070435736831500,19.66683154296875,0.015813210979104042,-7.554687023162842,6.258001327514648
1702070435753823000,19.683822998046875,0.08681069314479828,-7.689117431640625,6.091473579406738
1702070435770811600,19.700811767578124,0.16468332707881927,-7.781524181365967,5.971339225769043
1702070435787803400,19.717803466796877,0.23788462579250336,-7.831119060516357,5.903652191162109
1702070435804792600,19.73479248046875,0.2951744794845581,-7.843649387359619,5.884399890899658
1702070435821784000,19.7517841796875,0.33109042048454285,-7.830856800079346,5.899507522583008
1702070435838773000,19.76877294921875,0.35382145643234253,-7.805293560028076,5.931976795196533
1702070435855761700,19.78576171875,0.3745954632759094,-7.773416519165039,5.972419261932373
1702070435872758800,19.8027587890625,0.40116870403289795,-7.735680103302002,6.019505977630615
1702070435889742800,19.819742919921875,0.4418027698993683,-7.690430641174316,6.07438850402832
1702070435906734300,19.836734375,0.48514583706855774,-7.636180877685547,6.1391777992248535
1702070435923725800,19.853725830078126,0.5090200304985046,-7.566500663757324,6.222947597503662
1702070435940715000,19.870715087890623,0.5119073987007141,-7.48439884185791,6.321222305297852
1702070435957706500,19.88770654296875,0.5111314654350281,-7.396261692047119,6.424187183380127
1702070435974695200,19.904695068359374,0.5229539275169373,-7.2997307777404785,6.532730579376221
1702070435991687700,19.921687744140623,0.5498996376991272,-7.187323093414307,6.654031276702881
1702070436008676000,19.938676025390624,0.5851449370384216,-7.051440715789795,6.794917583465576
1702070436025667600,19.95566748046875,0.6145751476287842,-6.901757717132568,6.944361209869385
1702070436042656800,19.97265673828125,0.6351374387741089,-6.752618312835693,7.087655544281006
1702070436059645400,19.9896455078125,0.6285318732261658,-6.599283695220947,7.231219291687012
1702070436076639700,20.0066396484375,0.5833656191825867,-6.430107116699219,7.385766506195068
1702070436093629000,20.02362890625,0.5110174417495728,-6.250539302825928,7.543589115142822
1702070436110617900,20.040617919921875,0.41945528984069824,-6.072819232940674,7.6929216384887695
1702070436127599600,20.057599609375,0.3282971978187561,-5.915067195892334,7.819228172302246
1702070436144598800,20.074598876953125,0.2714920938014984,-5.790726661682129,7.913905143737793
1702070436161579500,20.09157958984375,0.2538071870803833,-5.682435035705566,7.992598056793213
1702070436178568700,20.108568603515625,0.23957739770412445,-5.557109832763672,8.080670356750488
1702070436195571200,20.1255712890625,0.1770203709602356,-5.390923023223877,8.19406795501709
1702070436212559000,20.14255908203125,0.05194198712706566,-5.180456638336182,8.330443382263184
1702070436229543200,20.159543212890625,-0.09982308745384216,-4.946523666381836,8.471014022827148
1702070436246540300,20.176540283203124,-0.2274298071861267,-4.716460227966309,8.598801612854004
1702070436263531800,20.19353173828125,-0.29945287108421326,-4.490660190582275,8.716675758361816
1702070436280521000,20.21052099609375,-0.3278329372406006,-4.25737190246582,8.83195686340332
1702070436297512700,20.2275126953125,-0.3494921922683716,-4.020204067230225,8.941584587097168
1702070436314500900,20.2445009765625,-0.4098068177700043,-3.7876858711242676,9.04000186920166
1702070436331491800,20.261491943359374,-0.5419170260429382,-3.5724453926086426,9.12031078338623
1702070436348484000,20.278484130859376,-0.748745322227478,-3.3939223289489746,9.173701286315918
1702070436365473800,20.295473876953125,-0.9860604405403137,-3.2454276084899902,9.204946517944336
1702070436382463000,20.312462890625,-1.2067344188690186,-3.092495918273926,9.231270790100098
1702070436399454200,20.3294541015625,-1.3851814270019531,-2.9107255935668945,9.265262603759766
1702070436416443400,20.346443359375,-1.5134137868881226,-2.7135467529296875,9.30496597290039
1702070436433435000,20.363434814453125,-1.5861408710479736,-2.522200345993042,9.346592903137207
1702070436450423800,20.380423828125,-1.6021418571472168,-2.3424739837646484,9.390531539916992
1702070436467415300,20.397415283203124,-1.5791664123535156,-2.1732091903686523,9.435014724731445
1702070436484393000,20.41439306640625,-1.545243740081787,-2.017303705215454,9.475170135498047
1702070436501397800,20.431397705078126,-1.5238242149353027,-1.8795976638793945,9.506900787353516
1702070436518367700,20.44836767578125,-1.5130693912506104,-1.7662074565887451,9.530333518981934
1702070436535376600,20.465376708984376,-1.508885145187378,-1.6782468557357788,9.546875953674316
1702070436552365800,20.48236572265625,-1.5089571475982666,-1.6222184896469116,9.556546211242676
1702070436569357600,20.499357666015626,-1.5100229978561401,-1.6051894426345825,9.559253692626953
1702070436586346200,20.51634619140625,-1.5030485391616821,-1.6292588710784912,9.556280136108398
1702070436603337700,20.533337646484377,-1.4774909019470215,-1.6894100904464722,9.549818992614746
1702070436620327200,20.5503271484375,-1.4287140369415283,-1.777843713760376,9.541182518005371
1702070436637318400,20.567318359375,-1.3594659566879272,-1.8841934204101562,9.530887603759766
1702070436654304500,20.584304443359375,-1.285462498664856,-2.011192560195923,9.515191078186035
1702070436671291000,20.601290771484376,-1.2128119468688965,-2.1773064136505127,9.488126754760742
1702070436688288300,20.618288330078126,-1.1264848709106445,-2.3943724632263184,9.446381568908691
1702070436705279700,20.63527978515625,-1.0258280038833618,-2.642805814743042,9.391451835632324
1702070436722252300,20.652252197265625,-0.918687641620636,-2.889101982116699,9.329803466796875
1702070436739262000,20.669261962890626,-0.798287034034729,-3.108800172805786,9.270071029663086
1702070436756249600,20.68624951171875,-0.6688706278800964,-3.2985968589782715,9.214552879333496
1702070436773240800,20.70324072265625,-0.5461112260818481,-3.4839110374450684,9.154248237609863
1702070436790229800,20.720229736328125,-0.4414156973361969,-3.703422784805298,9.0733642578125
1702070436807211300,20.737211181640625,-0.36335477232933044,-3.98415207862854,8.957154273986816
1702070436824210700,20.754210693359376,-0.3092580735683441,-4.326898097991943,8.798774719238281
1702070436841202400,20.771202392578125,-0.27526938915252686,-4.699225425720215,8.60683536529541
1702070436858194000,20.78819384765625,-0.2502836585044861,-5.069386005401611,8.394928932189941
1702070436875182300,20.805182373046875,-0.21457645297050476,-5.428346633911133,8.16842269897461
1702070436892171800,20.822171875,-0.159200981259346,-5.774964332580566,7.928466796875
1702070436909163500,20.83916357421875,-0.0881982371211052,-6.108133792877197,7.675872802734375
1702070436926152000,20.85615185546875,-0.011604384519159794,-6.419904708862305,7.417600154876709
1702070436943147800,20.873147705078125,0.06506138294935226,-6.698503494262695,7.16672420501709
1702070436960132900,20.8901328125,0.14193181693553925,-6.939838409423828,6.932145118713379
1702070436977124600,20.90712451171875,0.21974948048591614,-7.145135879516602,6.718249797821045
1702070436994110500,20.9241103515625,0.29384249448776245,-7.31611442565918,6.5287251472473145
1702070437011097000,20.94109716796875,0.36213386058807373,-7.453115940093994,6.368364334106445
1702070437028094500,20.958094482421874,0.4261263906955719,-7.553455829620361,6.244985580444336
1702070437045084400,20.97508447265625,0.49595382809638977,-7.616025447845459,6.163302421569824
1702070437062075600,20.99207568359375,0.5788211822509766,-7.641058921813965,6.124973297119141
1702070437079055600,21.0090556640625,0.6714860796928406,-7.6330060958862305,6.125555515289307
1702070437096042200,21.026042236328124,0.7537599205970764,-7.605771541595459,6.149814128875732
1702070437113042200,21.043042236328127,0.8087372183799744,-7.573227405548096,6.1829023361206055
1702070437130033400,21.060033447265624,0.8317699432373047,-7.54151725769043,6.218506336212158
1702070437147018200,21.077018310546876,0.828871488571167,-7.500334739685059,6.268497467041016
1702070437164006700,21.094006591796877,0.7938835024833679,-7.435703277587891,6.349505424499512
1702070437180997000,21.1109970703125,0.7266610264778137,-7.34862756729126,6.457998752593994
1702070437197999000,21.1279990234375,0.6357385516166687,-7.252233505249023,6.5754899978637695
1702070437214986000,21.144986083984374,0.5373802185058594,-7.156463146209717,6.688228130340576
1702070437231980500,21.16198046875,0.4452035129070282,-7.071074485778809,6.785117149353027
1702070437248972000,21.178971923828126,0.3631278872489929,-6.976795196533203,6.886840343475342
1702070437265958100,21.195958251953126,0.2894541323184967,-6.834752082824707,7.031251907348633
1702070437282949600,21.21294970703125,0.20571324229240417,-6.6325178146362305,7.225200176239014
1702070437299939600,21.229939697265625,0.10473065078258514,-6.397434234619141,7.436261177062988
1702070437316930600,21.2469306640625,0.006609692703932524,-6.171546936035156,7.625487804412842
1702070437333919500,21.26391943359375,-0.07836906611919403,-5.963771343231201,7.788673400878906
1702070437350910700,21.28091064453125,-0.15314969420433044,-5.7555718421936035,7.942673206329346
1702070437367900200,21.297900146484373,-0.2226187139749527,-5.524991035461426,8.1031494140625
1702070437384890000,21.31489013671875,-0.2900189757347107,-5.258525848388672,8.276467323303223
1702070437401881900,21.3318818359375,-0.3664555549621582,-4.962066650390625,8.454566955566406
1702070437418872000,21.3488720703125,-0.45577117800712585,-4.657270431518555,8.621963500976562
1702070437435860200,21.365860107421874,-0.5493219494819641,-4.344808578491211,8.77821159362793
1702070437452851200,21.382851318359375,-0.6376506090164185,-4.006091594696045,8.932007789611816
1702070437469844500,21.399844482421877,-0.7106425762176514,-3.6263620853424072,9.087387084960938
1702070437486833400,21.41683349609375,-0.774707555770874,-3.2242937088012695,9.2325439453125
1702070437503822300,21.433822265625,-0.832533597946167,-2.8392720222473145,9.353157043457031
1702070437520815900,21.45081591796875,-0.8796288371086121,-2.4934020042419434,9.446974754333496
1702070437537801500,21.467801513671876,-0.9169305562973022,-2.1839404106140137,9.519757270812988
1702070437554794200,21.484794189453126,-0.9497451782226562,-1.8891032934188843,9.579425811767578
1702070437571783400,21.501783447265623,-0.9765575528144836,-1.615458607673645,9.626669883728027
1702070437588775400,21.518775390625,-0.9920848608016968,-1.373823881149292,9.662528991699219
1702070437605761500,21.535761474609377,-0.9961521625518799,-1.1712520122528076,9.68875503540039
1702070437622758400,21.55275830078125,-0.9962378144264221,-1.0049268007278442,9.707406044006348
1702070437639745000,21.5697451171875,-0.9787827134132385,-0.8724075555801392,9.721986770629883
1702070437656736500,21.586736572265625,-0.9285969138145447,-0.7919650673866272,9.73378849029541
1702070437673725200,21.60372509765625,-0.8497007489204407,-0.7957806587219238,9.740681648254395
1702070437690717000,21.620717041015624,-0.7644170522689819,-0.8866703510284424,9.739896774291992
1702070437707705900,21.637705810546876,-0.7009472846984863,-1.050887107849121,9.72833251953125
1702070437724697600,21.654697509765626,-0.6627155542373657,-1.2665247917175293,9.705299377441406
1702070437741675800,21.67167578125,-0.6191514730453491,-1.5127156972885132,9.672872543334961
