time,seconds_elapsed,z,y,x
1702070863595117600,0.11911767578125,8.68939208984375,4.087627410888672,2.005462646484375
1702070863612107800,0.136107666015625,8.644891738891602,4.160902976989746,2.0466675758361816
1702070863629099800,0.153099853515625,8.617000579833984,4.208385944366455,2.0670998096466064
1702070863646087000,0.1700869140625,8.604248046875,4.228068828582764,2.080012798309326
1702070863663079000,0.187078857421875,8.591139793395996,4.237618446350098,2.1144778728485107
1702070863680072000,0.204072021484375,8.552513122558594,4.260578155517578,2.222181797027588
1702070863697057800,0.221057861328125,8.474035263061523,4.33689546585083,2.3702690601348877
1702070863714047700,0.2380478515625,8.340173721313477,4.49716854095459,2.5402934551239014
1702070863731046700,0.255046630859375,8.164764404296875,4.71743631362915,2.705278158187866
1702070863748024800,0.27202490234375,7.972773551940918,4.943708896636963,2.8689255714416504
1702070863765021700,0.289021728515625,7.778223991394043,5.13452672958374,3.061368703842163
1702070863782015500,0.306015380859375,7.580063343048096,5.277012348175049,3.3063416481018066
1702070863799006500,0.32300634765625,7.365590572357178,5.387141227722168,3.60040283203125
1702070863815990300,0.339990234375,7.143672466278076,5.482015132904053,3.8925015926361084
1702070863832980000,0.35697998046875,6.935117244720459,5.550358772277832,4.163386821746826
1702070863849977900,0.373977783203125,6.765004634857178,5.573130130767822,4.405796051025391
1702070863866963700,0.390963623046875,6.648256301879883,5.54937744140625,4.608819484710693
1702070863883957200,0.407957275390625,6.556481838226318,5.4968061447143555,4.799351215362549
1702070863900949000,0.424948974609375,6.431387901306152,5.431432247161865,5.037153244018555
1702070863917936000,0.44193603515625,6.2458038330078125,5.360457897186279,5.337747573852539
1702070863934929400,0.458929443359375,6.022785186767578,5.271571159362793,5.67210054397583
1702070863951919600,0.475919677734375,5.811774253845215,5.156259536743164,5.98935604095459
1702070863968911400,0.492911376953125,5.606694221496582,5.0405964851379395,6.276422500610352
1702070863985898500,0.5098984375,5.357049465179443,4.946910858154297,6.5624847412109375
1702070864002891000,0.52689111328125,4.985983371734619,4.877364158630371,6.898362159729004
1702070864019884000,0.543884033203125,4.42796516418457,4.813138484954834,7.311835289001465
1702070864036870000,0.560869873046875,3.6818714141845703,4.697697162628174,7.785343647003174
1702070864053863400,0.577863525390625,2.849247694015503,4.48822021484375,8.244620323181152
1702070864070855000,0.59485498046875,2.0196688175201416,4.177328586578369,8.64332103729248
1702070864087842000,0.611842041015625,1.1792237758636475,3.79361629486084,8.969615936279297
1702070864104835600,0.628835693359375,0.30518314242362976,3.3425323963165283,9.217942237854004
1702070864121825800,0.64582568359375,-0.5832375884056091,2.79457688331604,9.385430335998535
1702070864138817300,0.6628173828125,-1.3955368995666504,2.13114857673645,9.473480224609375
1702070864155804700,0.6798046875,-2.022273063659668,1.3719463348388672,9.500752449035645
1702070864172795000,0.696794921875,-2.420525074005127,0.5770635008811951,9.489160537719727
1702070864189791700,0.713791748046875,-2.604388475418091,-0.18476705253124237,9.456168174743652
1702070864206775800,0.73077587890625,-2.5988786220550537,-0.8669278025627136,9.419679641723633
1702070864223769600,0.74776953125,-2.442185640335083,-1.4966683387756348,9.382529258728027
1702070864240761000,0.764760986328125,-2.1788532733917236,-2.1480071544647217,9.320664405822754
1702070864257753900,0.78175390625,-1.8655425310134888,-2.8458197116851807,9.200933456420898
1702070864274731500,0.7987314453125,-1.5665948390960693,-3.5281150341033936,9.0185546875
1702070864291731700,0.815731689453125,-1.3645718097686768,-4.140372276306152,8.788139343261719
1702070864308723500,0.832723388671875,-1.3056797981262207,-4.678050994873047,8.523330688476562
1702070864325710600,0.849710693359375,-1.3498964309692383,-5.170552730560303,8.2267427444458
1702070864342694700,0.866694580078125,-1.4140070676803589,-5.654684543609619,7.8905792236328125
1702070864359696400,0.8836962890625,-1.4361674785614014,-6.141317367553711,7.513838291168213
1702070864376674600,0.900674560546875,-1.4016677141189575,-6.607256889343262,7.114464282989502
1702070864393675300,0.91767529296875,-1.3059873580932617,-7.013154029846191,6.733956336975098
1702070864410666800,0.934666748046875,-1.1605762243270874,-7.343300819396973,6.4004011154174805
1702070864427654000,0.95165380859375,-0.9995952844619751,-7.605573654174805,6.114914417266846
1702070864444647200,0.968647216796875,-0.8593933582305908,-7.815608024597168,5.866330623626709
1702070864461637400,0.985637451171875,-0.7581178545951843,-7.986812591552734,5.645548343658447
1702070864478629400,1.00262939453125,-0.692094624042511,-8.125887870788574,5.452251434326172
1702070864495617500,1.019617431640625,-0.644036054611206,-8.232368469238281,5.296172618865967
1702070864512609000,1.036609130859375,-0.5939949750900269,-8.303001403808594,5.190706253051758
1702070864529599000,1.053598876953125,-0.5465328097343445,-8.337098121643066,5.141031265258789
1702070864546590000,1.07058984375,-0.5095094442367554,-8.344352722167969,5.133060455322266
1702070864563581200,1.087581298828125,-0.4849090278148651,-8.335160255432129,5.150345802307129
1702070864580572700,1.10457275390625,-0.4660596549510956,-8.312028884887695,5.1893229484558105
1702070864597553700,1.1215537109375,-0.4526098966598511,-8.2648344039917,5.26533842086792
1702070864614555100,1.13855517578125,-0.44645071029663086,-8.183117866516113,5.391974925994873
1702070864631545900,1.1555458984375,-0.44304558634757996,-8.06705379486084,5.56439208984375
1702070864648535000,1.17253515625,-0.4289587736129761,-7.922804355621338,5.7689948081970215
1702070864665522200,1.189522216796875,-0.403518408536911,-7.752510070800781,5.997655391693115
1702070864682515000,1.206514892578125,-0.37462732195854187,-7.548686504364014,6.254046440124512
1702070864699508000,1.223508056640625,-0.3595505654811859,-7.300240993499756,6.5431904792785645
1702070864716490200,1.240490234375,-0.3548084795475006,-7.007579326629639,6.855949401855469
1702070864733489700,1.25748974609375,-0.3348136246204376,-6.69498348236084,7.162487983703613
1702070864750472000,1.274471923828125,-0.2819872498512268,-6.386669635772705,7.440903186798096
1702070864767467800,1.2914677734375,-0.23400002717971802,-6.0681867599487305,7.7044453620910645
1702070864784459500,1.30845947265625,-0.2630937397480011,-5.702229976654053,7.97818660736084
1702070864801448700,1.32544873046875,-0.4221385717391968,-5.263573169708252,8.267570495605469
1702070864818432000,1.342431884765625,-0.7045117616653442,-4.756049633026123,8.55101203918457
1702070864835429600,1.3594296875,-1.0761297941207886,-4.198275089263916,8.800713539123535
1702070864852417800,1.376417724609375,-1.4640644788742065,-3.6132829189300537,9.002046585083008
1702070864869410800,1.393410888671875,-1.7951221466064453,-3.016814947128296,9.160375595092773
1702070864886398200,1.410398193359375,-2.0207626819610596,-2.420285940170288,9.28950309753418
1702070864903396400,1.427396240234375,-2.1481175422668457,-1.843879222869873,9.392646789550781
1702070864920385300,1.44438525390625,-2.2150843143463135,-1.3077739477157593,9.466744422912598
1702070864937372000,1.461371826171875,-2.2515687942504883,-0.8189440965652466,9.512931823730469
1702070864954365200,1.478365234375,-2.3075358867645264,-0.38380685448646545,9.527017593383789
1702070864971355600,1.495355712890625,-2.441704273223877,-0.017613861709833145,9.50125789642334
1702070864988343600,1.512343505859375,-2.6695470809936523,0.2836589813232422,9.435526847839355
1702070865005337300,1.52933740234375,-2.972461462020874,0.5329965353012085,9.333622932434082
1702070865022326500,1.546326416015625,-3.3145768642425537,0.7426159977912903,9.203166007995605
1702070865039319300,1.5633193359375,-3.655113935470581,0.9286417961120605,9.056151390075684
1702070865056302300,1.58030224609375,-3.960766077041626,1.1088151931762695,8.906121253967285
1702070865073301800,1.5973017578125,-4.217036724090576,1.292175054550171,8.762593269348145
1702070865090290400,1.61429052734375,-4.416496276855469,1.4730517864227295,8.634859085083008
1702070865107277800,1.63127783203125,-4.556983947753906,1.6418660879135132,8.530787467956543
1702070865124270800,1.648270751953125,-4.648897647857666,1.7949658632278442,8.449968338012695
1702070865141261600,1.665261474609375,-4.705915451049805,1.9243968725204468,8.3897066116333
1702070865158249700,1.682249755859375,-4.734821319580078,2.0110950469970703,8.353032112121582
1702070865175243300,1.6992431640625,-4.733466148376465,2.0288984775543213,8.34949016571045
1702070865192231000,1.71623095703125,-4.692690849304199,1.950883150100708,8.390997886657715
1702070865209226800,1.733226806640625,-4.615060329437256,1.775748610496521,8.472549438476562
1702070865226211000,1.750211181640625,-4.507138729095459,1.5342317819595337,8.577177047729492
1702070865243199000,1.767198974609375,-4.33769416809082,1.2518466711044312,8.70938491821289
1702070865260194300,1.7841943359375,-4.068865776062012,0.9246723055839539,8.87836742401123
1702070865277185500,1.801185546875,-3.70027494430542,0.5084317922592163,9.071139335632324
1702070865294177300,1.81817724609375,-3.304096221923828,-0.030255833640694618,9.236783981323242
1702070865311167500,1.83516748046875,-2.9530563354492188,-0.6427245140075684,9.332871437072754
1702070865328155400,1.8521552734375,-2.676225185394287,-1.2487645149230957,9.354918479919434
1702070865345145600,1.8691455078125,-2.4713830947875977,-1.804283857345581,9.320566177368164
1702070865362142500,1.886142578125,-2.324800491333008,-2.310629367828369,9.246212005615234
1702070865379131100,1.903131103515625,-2.2029244899749756,-2.7953662872314453,9.141617774963379
1702070865396120300,1.920120361328125,-2.0851967334747314,-3.2933976650238037,9.002312660217285
1702070865413107700,1.937107666015625,-1.9656825065612793,-3.8171768188476562,8.820508003234863
1702070865430102300,1.954102294921875,-1.8481090068817139,-4.358956813812256,8.591862678527832
1702070865447089700,1.971089599609375,-1.7224109172821045,-4.897945404052734,8.323434829711914
1702070865464082000,1.98808203125,-1.5802972316741943,-5.404741287231445,8.032904624938965
1702070865481074700,2.00507470703125,-1.438704013824463,-5.853736877441406,7.7395124435424805
1702070865498060800,2.022060791015625,-1.318562388420105,-6.231968402862549,7.460567474365234
1702070865515057700,2.0390576171875,-1.2311640977859497,-6.541275978088379,7.206389904022217
1702070865532041700,2.056041748046875,-1.172895073890686,-6.790377140045166,6.982207298278809
1702070865549037000,2.073037109375,-1.134123682975769,-6.993077754974365,6.7857747077941895
1702070865566023200,2.090023193359375,-1.1034126281738281,-7.158670425415039,6.616043567657471
1702070865583016700,2.1070166015625,-1.076878547668457,-7.28962516784668,6.475939750671387
1702070865600008200,2.12400830078125,-1.0532779693603516,-7.395284652709961,6.358968734741211
1702070865616995600,2.14099560546875,-1.023646593093872,-7.490512847900391,6.251438617706299
1702070865633987600,2.157987548828125,-0.9856643080711365,-7.5819292068481445,6.146459102630615
1702070865650963200,2.174963134765625,-0.9545801877975464,-7.657837867736816,6.056601047515869
1702070865667963400,2.19196337890625,-0.951729416847229,-7.7090253829956055,5.991764545440674
1702070865684961000,2.2089609375,-0.9817896485328674,-7.733116626739502,5.955764293670654
1702070865701950500,2.225950439453125,-1.0041671991348267,-7.7382636070251465,5.945339202880859
1702070865718943000,2.24294287109375,-0.9742648601531982,-7.7211833000183105,5.972456932067871
1702070865735929000,2.25992919921875,-0.9170428514480591,-7.649093151092529,6.073429107666016
1702070865752922400,2.27692236328125,-0.8812423944473267,-7.497637748718262,6.2645792961120605
1702070865769913300,2.293913330078125,-0.867963969707489,-7.283592224121094,6.513986587524414
1702070865786901800,2.31090185546875,-0.8473367094993591,-7.041568279266357,6.777498245239258
1702070865803893800,2.327893798828125,-0.7895554304122925,-6.792912006378174,7.0334248542785645
1702070865820886500,2.344886474609375,-0.7067392468452454,-6.536684989929199,7.280685901641846
1702070865837874000,2.3618740234375,-0.6404789090156555,-6.269974708557129,7.51753568649292
1702070865854865700,2.37886572265625,-0.6166049838066101,-5.99049186706543,7.744025230407715
1702070865871856000,2.395856201171875,-0.6322085857391357,-5.698038101196289,7.960453033447266
1702070865888848600,2.4128486328125,-0.6715925335884094,-5.401121139526367,8.161678314208984
1702070865905834800,2.429834716796875,-0.7212406396865845,-5.11662483215332,8.338829040527344
1702070865922829600,2.44682958984375,-0.7775499224662781,-4.857074737548828,8.487658500671387
1702070865939820300,2.4638203125,-0.846696138381958,-4.6203179359436035,8.612311363220215
1702070865956807400,2.480807373046875,-0.9379314184188843,-4.398001670837402,8.718600273132324
1702070865973791500,2.49779150390625,-1.0536799430847168,-4.181158542633057,8.811572074890137
1702070865990790100,2.5147900390625,-1.1866018772125244,-3.964293956756592,8.894519805908203
1702070866007778300,2.5317783203125,-1.326674222946167,-3.7503137588500977,8.967229843139648
1702070866024772600,2.548772705078125,-1.4639984369277954,-3.5406386852264404,9.030876159667969
1702070866041758500,2.565758544921875,-1.5973477363586426,-3.338925838470459,9.084941864013672
1702070866058759000,2.582759033203125,-1.7380977869033813,-3.146782636642456,9.127592086791992
1702070866075749600,2.59974951171875,-1.8927812576293945,-2.961613893508911,9.158729553222656
1702070866092732000,2.61673193359375,-2.063302993774414,-2.776364326477051,9.179909706115723
1702070866109723100,2.63372314453125,-2.2470085620880127,-2.591671943664551,9.190773010253906
1702070866126719500,2.650719482421875,-2.4461324214935303,-2.407590627670288,9.189997673034668
1702070866143718400,2.667718505859375,-2.661191940307617,-2.230516195297241,9.174910545349121
1702070866160699100,2.68469921875,-2.8773717880249023,-2.073270320892334,9.146496772766113
1702070866177686000,2.70168603515625,-3.0717132091522217,-1.9416488409042358,9.112119674682617
1702070866194678800,2.7186787109375,-3.220963954925537,-1.8394969701766968,9.081727027893066
1702070866211668000,2.73566796875,-3.323887825012207,-1.7723881006240845,9.057952880859375
1702070866228660700,2.75266064453125,-3.384143352508545,-1.7485848665237427,9.040252685546875
1702070866245646800,2.769646728515625,-3.4034199714660645,-1.7738988399505615,9.028074264526367
1702070866262640400,2.786640380859375,-3.3900749683380127,-1.8397115468978882,9.019918441772461
1702070866279632100,2.803632080078125,-3.3373990058898926,-1.9281811714172363,9.021086692810059
1702070866296619300,2.820619384765625,-3.239819049835205,-2.0276525020599365,9.034841537475586
1702070866313611500,2.837611572265625,-3.0955710411071777,-2.154628276824951,9.056001663208008
1702070866330604300,2.854604248046875,-2.9033334255218506,-2.349139928817749,9.071290016174316
1702070866347590400,2.87159033203125,-2.6848223209381104,-2.6120316982269287,9.066704750061035
1702070866364584700,2.888584716796875,-2.4612014293670654,-2.8932697772979736,9.044754981994629
1702070866381574000,2.905573974609375,-2.244473695755005,-3.1445372104644775,9.01722526550293
1702070866398564000,2.922564208984375,-2.0472652912139893,-3.3489253520965576,8.990525245666504
1702070866415555600,2.9395556640625,-1.8718160390853882,-3.5334250926971436,8.958088874816895
1702070866432530000,2.956530029296875,-1.7143458127975464,-3.7470462322235107,8.902627944946289
1702070866449538000,2.9735380859375,-1.5685337781906128,-4.025720596313477,8.80734920501709
1702070866466525200,2.990525146484375,-1.4335993528366089,-4.367050647735596,8.66658878326416
1702070866483517400,3.007517333984375,-1.3029760122299194,-4.741069316864014,8.488852500915527
1702070866500510000,3.024510009765625,-1.1709669828414917,-5.114243030548096,8.289117813110352
1702070866517499000,3.041498779296875,-1.0420100688934326,-5.469876766204834,8.076557159423828
1702070866534496500,3.05849658203125,-0.9300107955932617,-5.807673454284668,7.851250171661377
1702070866551482000,3.075482177734375,-0.8459389209747314,-6.134178161621094,7.608705043792725
1702070866568494000,3.092494140625,-0.7865669131278992,-6.44926643371582,7.350128650665283
1702070866585463800,3.1094638671875,-0.7436150312423706,-6.741896629333496,7.087313175201416
1702070866602451000,3.126450927734375,-0.7063486576080322,-7.002753734588623,6.833641052246094
1702070866619440400,3.1434404296875,-0.6670220494270325,-7.223156929016113,6.604331970214844
1702070866636437000,3.16043701171875,-0.6234921216964722,-7.4036478996276855,6.4057297706604
1702070866653424000,3.177424072265625,-0.5767623782157898,-7.549856662750244,6.237239837646484
1702070866670421200,3.194421142578125,-0.5364987254142761,-7.661928653717041,6.102718353271484
1702070866687405300,3.2114052734375,-0.5151198506355286,-7.732213973999023,6.01528263092041
1702070866704396800,3.228396728515625,-0.5098590850830078,-7.756247520446777,5.984714508056641
1702070866721386800,3.24538671875,-0.5098257660865784,-7.738168239593506,6.008073329925537
1702070866738369300,3.262369384765625,-0.5132685899734497,-7.684452056884766,6.076335906982422
1702070866755370200,3.279370361328125,-0.5258945226669312,-7.606377601623535,6.172729015350342
1702070866772359000,3.29635888671875,-0.55594801902771,-7.516506671905518,6.279266834259033
1702070866789338600,3.313338623046875,-0.6112302541732788,-7.420439720153809,6.387454032897949
1702070866806340000,3.330340087890625,-0.6820178031921387,-7.323454856872559,6.491377353668213
1702070866823330300,3.347330322265625,-0.7403674721717834,-7.222438335418701,6.597301006317139
1702070866840331000,3.3643310546875,-0.7642232179641724,-7.101276874542236,6.724875450134277
1702070866857309200,3.38130908203125,-0.7646600008010864,-6.936789512634277,6.894371509552002
1702070866874305000,3.398304931640625,-0.7671617269515991,-6.710599422454834,7.114452362060547
1702070866891292700,3.415292724609375,-0.7908716201782227,-6.422386646270752,7.373168468475342
1702070866908284000,3.432283935546875,-0.8420973420143127,-6.078438758850098,7.65372896194458
1702070866925273600,3.449273681640625,-0.9213078022003174,-5.698002338409424,7.932218551635742
1702070866942264800,3.466264892578125,-1.019024133682251,-5.298338413238525,8.193002700805664
1702070866959255000,3.483255126953125,-1.1193267107009888,-4.891819953918457,8.429312705993652
1702070866976246000,3.50024609375,-1.2119606733322144,-4.486189365386963,8.639525413513184
1702070866993236000,3.517236083984375,-1.2969669103622437,-4.086489200592041,8.823524475097656
1702070867010223400,3.534223388671875,-1.3686660528182983,-3.6972694396972656,8.982932090759277
1702070867027217000,3.551216796875,-1.4250787496566772,-3.323547601699829,9.119172096252441
1702070867044212700,3.568212646484375,-1.4766793251037598,-2.9705417156219482,9.232087135314941
1702070867061194500,3.585194580078125,-1.5317583084106445,-2.640408754348755,9.322986602783203
1702070867078192000,3.602192138671875,-1.598198413848877,-2.3296499252319336,9.394393920898438
1702070867095176700,3.6191767578125,-1.687214732170105,-2.037736654281616,9.446537971496582
1702070867112171000,3.6361708984375,-1.8099840879440308,-1.7612780332565308,9.479345321655273
1702070867129161000,3.653160888671875,-1.971165418624878,-1.5044636726379395,9.491430282592773
1702070867146152000,3.67015185546875,-2.162994623184204,-1.270500898361206,9.48384952545166
1702070867163142100,3.68714208984375,-2.370389938354492,-1.058133840560913,9.460323333740234
1702070867180133000,3.704133056640625,-2.5731170177459717,-0.8702545762062073,9.426445960998535
1702070867197123000,3.721123046875,-2.7494089603424072,-0.7135465741157532,9.38976764678955
1702070867214104000,3.73810400390625,-2.8865180015563965,-0.591703474521637,9.35702896118164
1702070867231104300,3.755104248046875,-2.98879337310791,-0.5059391260147095,9.329911231994629
1702070867248095500,3.772095458984375,-3.059796094894409,-0.45662808418273926,9.309416770935059
1702070867265085400,3.78908544921875,-3.099057197570801,-0.43985095620155334,9.297228813171387
1702070867282077000,3.806076904296875,-3.1086788177490234,-0.4390610158443451,9.29405403137207
1702070867299067000,3.82306689453125,-3.0752105712890625,-0.46316733956336975,9.304014205932617
1702070867316047400,3.84004736328125,-2.9732916355133057,-0.5447584986686707,9.332680702209473
1702070867333047800,3.8570478515625,-2.7936208248138428,-0.7072038054466248,9.377187728881836
1702070867350039000,3.8740390625,-2.5572612285614014,-0.9272918701171875,9.42531967163086
1702070867367029200,3.891029296875,-2.2943990230560303,-1.1614465713500977,9.466937065124512
1702070867384020200,3.908020263671875,-2.046043872833252,-1.3993290662765503,9.491665840148926
1702070867401009700,3.925009765625,-1.843920111656189,-1.6662243604660034,9.489982604980469
1702070867418002400,3.94200244140625,-1.691741704940796,-1.9801377058029175,9.457969665527344
1702070867434976800,3.958976806640625,-1.5748014450073242,-2.339655876159668,9.395856857299805
1702070867451980800,3.975980712890625,-1.4866067171096802,-2.735147714614868,9.302962303161621
1702070867468962300,3.99296240234375,-1.4161430597305298,-3.155683994293213,9.179996490478516
1702070867485963800,4.0099638671875,-1.3425371646881104,-3.592663288116455,9.02920150756836
1702070867502951200,4.026951171875,-1.25493586063385,-4.032699108123779,8.85429859161377
1702070867519937000,4.04393701171875,-1.1619874238967896,-4.458901405334473,8.660490036010742
1702070867536935200,4.06093505859375,-1.0804497003555298,-4.860940933227539,8.45221996307373
1702070867553926100,4.077926025390625,-1.0142674446105957,-5.24285364151001,8.229207038879395
1702070867570916000,4.094916015625,-0.961201012134552,-5.613570690155029,7.987493991851807
1702070867587907300,4.1119072265625,-0.9131731390953064,-5.970307350158691,7.7303080558776855
1702070867604897300,4.128897216796875,-0.8630923628807068,-6.300127983093262,7.469910621643066
1702070867621888500,4.145888427734375,-0.81217360496521,-6.589587211608887,7.221761703491211
1702070867638878500,4.16287841796875,-0.7648550271987915,-6.835964202880859,6.9943342208862305
1702070867655869700,4.17986962890625,-0.7262741923332214,-7.041260719299316,6.791852951049805
1702070867672859400,4.196859375,-0.7015241384506226,-7.215373992919922,6.609264373779297
1702070867689850600,4.2138505859375,-0.6865277290344238,-7.370181083679199,6.437798023223877
1702070867706840600,4.230840576171875,-0.648977518081665,-7.508562088012695,6.279844284057617
1702070867723831800,4.247831787109375,-0.575356125831604,-7.611233234405518,6.162321090698242
1702070867740821800,4.26482177734375,-0.5039145350456238,-7.655519485473633,6.113526344299316
1702070867757813200,4.281813232421875,-0.48096945881843567,-7.644968032836914,6.128560543060303
1702070867774803500,4.298803466796875,-0.5027047395706177,-7.605545997619629,6.175685405731201
1702070867791790600,4.31579052734375,-0.5342902541160583,-7.558366775512695,6.230711460113525
1702070867808787500,4.332787353515625,-0.5361707210540771,-7.505573272705078,6.2940449714660645
1702070867825775600,4.349775634765625,-0.48492392897605896,-7.430723190307617,6.386337757110596
1702070867842765300,4.366765380859375,-0.40030479431152344,-7.301980495452881,6.538881301879883
1702070867859757000,4.383757080078125,-0.33929726481437683,-7.102758884429932,6.758093357086182
1702070867876746800,4.400746826171875,-0.33491450548171997,-6.843785762786865,7.020438194274902
1702070867893738000,4.417738037109375,-0.38261958956718445,-6.539886474609375,7.302027225494385
1702070867910724000,4.43472412109375,-0.4641835689544678,-6.200658321380615,7.587653160095215
1702070867927715600,4.451715576171875,-0.5694258809089661,-5.834062576293945,7.8661041259765625
1702070867944712400,4.46871240234375,-0.6833518147468567,-5.454553127288818,8.125083923339844
1702070867961707300,4.485707275390625,-0.7942448854446411,-5.080296993255615,8.354391098022461
1702070867978690300,4.502690185546875,-0.9003514051437378,-4.725028038024902,8.549829483032227
1702070867995681300,4.519681396484375,-1.0071314573287964,-4.398944854736328,8.710402488708496
1702070868012671500,4.53667138671875,-1.1188209056854248,-4.102623462677002,8.840410232543945
1702070868029662700,4.553662841796875,-1.229154348373413,-3.82595157623291,8.949155807495117
1702070868046652400,4.57065234375,-1.3298124074935913,-3.556420087814331,9.045418739318848
1702070868063644000,4.587643798828125,-1.4151326417922974,-3.2857978343963623,9.134389877319336
1702070868080633900,4.6046337890625,-1.496272087097168,-3.006162405014038,9.217391014099121
1702070868097624800,4.621624755859375,-1.5982335805892944,-2.708543300628662,9.292232513427734
1702070868114614800,4.63861474609375,-1.7300795316696167,-2.393296480178833,9.354948997497559
1702070868131606000,4.65560595703125,-1.8837507963180542,-2.0725317001342773,9.401714324951172
1702070868148595700,4.672595703125,-2.047436475753784,-1.7682785987854004,9.429597854614258
1702070868165587000,4.6895869140625,-2.2046103477478027,-1.5008751153945923,9.440506935119629
1702070868182577400,4.706577392578125,-2.3446569442749023,-1.2717293500900269,9.440413475036621
1702070868199568400,4.723568359375,-2.4647343158721924,-1.078848123550415,9.433838844299316
1702070868216552700,4.740552734375,-2.566418409347534,-0.9262937307357788,9.422931671142578
1702070868233549300,4.75754931640625,-2.640415668487549,-0.8301643133163452,9.411437034606934
1702070868250531800,4.77453173828125,-2.6802291870117188,-0.7940016388893127,9.403301239013672
1702070868267530800,4.79153076171875,-2.706357479095459,-0.8003952503204346,9.395270347595215
1702070868284521000,4.80852099609375,-2.7242658138275146,-0.8248345851898193,9.387978553771973
1702070868301512000,4.825511962890625,-2.7019002437591553,-0.8683672547340393,9.39051628112793
1702070868318508800,4.8425087890625,-2.6086809635162354,-0.9617569446563721,9.407760620117188
1702070868335493000,4.8594931640625,-2.448535203933716,-1.125601887702942,9.432595252990723
1702070868352481800,4.876481689453125,-2.2557389736175537,-1.338101863861084,9.452896118164062
1702070868369475300,4.893475341796875,-2.0792782306671143,-1.556605339050293,9.459900856018066
1702070868386464500,4.910464599609375,-1.9416943788528442,-1.7613590955734253,9.453230857849121
1702070868403455500,4.92745556640625,-1.839332938194275,-1.9604963064193726,9.434479713439941
1702070868420438300,4.944438232421875,-1.7529714107513428,-2.179290294647217,9.402867317199707
1702070868437436700,4.961436767578125,-1.6533294916152954,-2.448884963989258,9.35444164276123
1702070868454426600,4.978426513671875,-1.5354280471801758,-2.7783801555633545,9.282196044921875
1702070868471407000,4.995406982421875,-1.4085235595703125,-3.153826951980591,9.181806564331055
1702070868488407800,5.01240771484375,-1.285833716392517,-3.5524747371673584,9.053323745727539
1702070868505398800,5.029398681640625,-1.1763498783111572,-3.951895236968994,8.901394844055176
1702070868522378800,5.046378662109375,-1.087910771369934,-4.340340614318848,8.730064392089844
1702070868539369200,5.063369140625,-1.0205063819885254,-4.717023849487305,8.540748596191406
1702070868556370200,5.0803701171875,-0.9677762389183044,-5.078697204589844,8.337048530578613
1702070868573361200,5.097361083984375,-0.9241191148757935,-5.415802478790283,8.127190589904785
1702070868590350300,5.114350341796875,-0.8867419958114624,-5.7209320068359375,7.919643402099609
1702070868607342000,5.131342041015625,-0.8488420844078064,-5.9912824630737305,7.721406936645508
1702070868624332300,5.148332275390625,-0.799712598323822,-6.221479415893555,7.542531967163086
1702070868641323800,5.16532373046875,-0.7397716045379639,-6.404641628265381,7.393879413604736
1702070868658313500,5.1823134765625,-0.6872548460960388,-6.546600818634033,7.273637771606445
1702070868675304700,5.1993046875,-0.6665943264961243,-6.656342029571533,7.175296783447266
1702070868692295000,5.216294921875,-0.6566897034645081,-6.742086887359619,7.095714569091797
1702070868709286000,5.233285888671875,-0.6020825505256653,-6.81168794631958,7.0338134765625
1702070868726276000,5.250276123046875,-0.5197888612747192,-6.8591437339782715,6.994146347045898
1702070868743266800,5.267266845703125,-0.48937806487083435,-6.877145767211914,6.978646278381348
1702070868760246300,5.284246337890625,-0.5431846976280212,-6.877180576324463,6.974630355834961
1702070868777252400,5.30125244140625,-0.6338756084442139,-6.8770294189453125,6.967122554779053
1702070868794238500,5.318238525390625,-0.7109354734420776,-6.874168395996094,6.96250581741333
1702070868811229400,5.3352294921875,-0.752754807472229,-6.855672359466553,6.976333141326904
1702070868828217900,5.3522177734375,-0.7710460424423218,-6.832638263702393,6.996902942657471
1702070868845208800,5.369208740234375,-0.7686007618904114,-6.821397304534912,7.008131980895996
1702070868862203600,5.38620361328125,-0.7432910799980164,-6.8070807456970215,7.02476167678833
1702070868879191600,5.403191650390625,-0.7014501690864563,-6.752588748931885,7.081429958343506
1702070868896181500,5.420181396484375,-0.6558576226234436,-6.622636795043945,7.207403659820557
1702070868913172700,5.4371728515625,-0.6333417892456055,-6.405712127685547,7.402828693389893
1702070868930163000,5.454162841796875,-0.6512243151664734,-6.1266069412231445,7.633918762207031
1702070868947154000,5.47115380859375,-0.7056993246078491,-5.824226379394531,7.86234712600708
1702070868964144000,5.48814404296875,-0.7808863520622253,-5.519212245941162,8.07246208190918
1702070868981132500,5.505132568359375,-0.8671064376831055,-5.208670616149902,8.267648696899414
1702070868998125000,5.522125,-0.9625575542449951,-4.887381553649902,8.45121955871582
1702070869015112700,5.53911279296875,-1.0684494972229004,-4.553657531738281,8.623150825500488
1702070869032109600,5.556109619140625,-1.1784367561340332,-4.204648971557617,8.784549713134766
1702070869049097500,5.573097412109375,-1.2862424850463867,-3.844217538833618,8.933289527893066
1702070869066087400,5.59008740234375,-1.3878566026687622,-3.4800243377685547,9.066388130187988
1702070869083078400,5.607078369140625,-1.4975521564483643,-3.129401922225952,9.176074028015137
1702070869100068600,5.624068603515625,-1.631932258605957,-2.802877187728882,9.25833797454834
1702070869117059800,5.641059814453125,-1.8003904819488525,-2.4994874000549316,9.313822746276855
1702070869134049500,5.658049560546875,-1.9908214807510376,-2.2099010944366455,9.348212242126465
1702070869151041000,5.675041015625,-2.183847427368164,-1.9324355125427246,9.366567611694336
1702070869168031000,5.692031005859375,-2.377772569656372,-1.673802137374878,9.369135856628418
1702070869185022200,5.709022216796875,-2.5794057846069336,-1.4445979595184326,9.353925704956055
1702070869201999000,5.7259990234375,-2.783090591430664,-1.2497764825820923,9.323549270629883
1702070869219007000,5.743007080078125,-2.960371255874634,-1.0830881595611572,9.289740562438965
1702070869235992000,5.759991943359375,-3.086489200592041,-0.9330018162727356,9.264944076538086
1702070869252984600,5.776984619140625,-3.147705316543579,-0.7986935973167419,9.256897926330566
1702070869269966600,5.793966552734375,-3.137432336807251,-0.7001790404319763,9.268356323242188
1702070869286962700,5.810962646484375,-3.059006690979004,-0.6707281470298767,9.29670524597168
1702070869303954200,5.8279541015625,-2.924734115600586,-0.7305981516838074,9.335325241088867
1702070869320948200,5.8449482421875,-2.769383430480957,-0.8577920794487,9.371810913085938
1702070869337936600,5.8619365234375,-2.6316962242126465,-1.0134642124176025,9.395913124084473
1702070869354928000,5.87892822265625,-2.526747465133667,-1.198553442955017,9.402932167053223
1702070869371918000,5.89591796875,-2.4492297172546387,-1.4534772634506226,9.387479782104492
1702070869388908800,5.91290869140625,-2.371091604232788,-1.813429832458496,9.344812393188477
1702070869405899000,5.92989892578125,-2.2819180488586426,-2.2465808391571045,9.272642135620117
1702070869422890200,5.94689013671875,-2.1728768348693848,-2.688645124435425,9.18073558807373
1702070869439877600,5.963877685546875,-2.0463600158691406,-3.096193552017212,9.080863952636719
1702070869456874200,5.980874267578125,-1.9116290807724,-3.4666194915771484,8.975763320922852
1702070869473861400,5.997861328125,-1.7856707572937012,-3.8164732456207275,8.859007835388184
1702070869490852600,6.0148525390625,-1.6851465702056885,-4.16217565536499,8.721967697143555
1702070869507842800,6.0318427734375,-1.609328031539917,-4.512138843536377,8.560770034790039
1702070869524833500,6.04883349609375,-1.5411220788955688,-4.860450744628906,8.380757331848145
1702070869541823500,6.065823486328125,-1.4638464450836182,-5.18927526473999,8.19540786743164
1702070869558815000,6.08281494140625,-1.3707598447799683,-5.47695255279541,8.022477149963379
1702070869575805000,6.099804931640625,-1.2762548923492432,-5.7193121910095215,7.8674492835998535
1702070869592796000,6.1167958984375,-1.1971818208694458,-5.928274631500244,7.723887920379639
1702070869609785600,6.13378564453125,-1.1409742832183838,-6.113694667816162,7.586637020111084
1702070869626777600,6.150777587890625,-1.1095939874649048,-6.27716064453125,7.456688404083252
1702070869643767000,6.16776708984375,-1.0933300256729126,-6.411154747009277,7.344240188598633
1702070869660757500,6.184757568359375,-1.0788090229034424,-6.511295795440674,7.257777690887451
1702070869677758000,6.201758056640625,-1.0600897073745728,-6.582059383392334,7.196442127227783
1702070869694739500,6.218739501953125,-1.0366861820220947,-6.63117790222168,7.1546430587768555
1702070869711729200,6.235729248046875,-1.0200152397155762,-6.664188861846924,7.126307010650635
1702070869728720400,6.252720458984375,-1.0141563415527344,-6.686631202697754,7.1060943603515625
1702070869745710800,6.2697109375,-1.016181230545044,-6.69692325592041,7.096107006072998
1702070869762701800,6.286701904296875,-1.0232563018798828,-6.691675662994385,7.100035667419434
1702070869779691800,6.30369189453125,-1.0349420309066772,-6.668729782104492,7.1199049949646
1702070869796682800,6.320682861328125,-1.0486361980438232,-6.628944396972656,7.154969692230225
1702070869813672700,6.337672607421875,-1.0542799234390259,-6.576691150665283,7.202204704284668
1702070869830664000,6.354663818359375,-1.0425878763198853,-6.51344633102417,7.261139869689941
1702070869847654100,6.371654052734375,-1.014967918395996,-6.44301700592041,7.3275837898254395
1702070869864645400,6.388645263671875,-0.9786087870597839,-6.368856906890869,7.397034645080566
1702070869881635000,6.405635009765625,-0.9354463815689087,-6.298608303070068,7.462480068206787
1702070869898626600,6.42262646484375,-0.8883230686187744,-6.245058059692383,7.513071537017822
1702070869915603700,6.439603759765625,-0.8533584475517273,-6.202813148498535,7.552021503448486
1702070869932599800,6.456599853515625,-0.8419371247291565,-6.160181045532227,7.58811092376709
1702070869949597700,6.47359765625,-0.8436486124992371,-6.10991096496582,7.628456115722656
1702070869966578400,6.490578369140625,-0.8652119636535645,-6.050826549530029,7.673006534576416
1702070869983579000,6.507578857421875,-0.9076001644134521,-5.989785194396973,7.715883731842041
1702070870000569900,6.52456982421875,-0.9421706795692444,-5.945757865905762,7.745733737945557
1702070870017560000,6.54156005859375,-0.9361158609390259,-5.925479888916016,7.761989116668701
1702070870034550800,6.55855078125,-0.9196869730949402,-5.900458812713623,7.782987594604492
1702070870051541000,6.575541015625,-0.9521559476852417,-5.836698055267334,7.827035903930664
1702070870068532200,6.5925322265625,-1.0493992567062378,-5.732714653015137,7.891188144683838
1702070870085522200,6.609522216796875,-1.1801635026931763,-5.612823009490967,7.958616256713867
1702070870102513400,6.626513427734375,-1.3074806928634644,-5.500580787658691,8.01687240600586
1702070870119495000,6.643494873046875,-1.4076213836669922,-5.396695613861084,8.07033920288086
1702070870136494300,6.660494384765625,-1.4844940900802612,-5.272615909576416,8.138298034667969
1702070870153484300,6.677484375,-1.5410051345825195,-5.108619213104248,8.231855392456055
1702070870170475500,6.6944755859375,-1.5910742282867432,-4.905694961547852,8.344983100891113
1702070870187465500,6.711465576171875,-1.6501532793045044,-4.675450325012207,8.464825630187988
1702070870204456700,6.728456787109375,-1.7269214391708374,-4.4370245933532715,8.577101707458496
1702070870221447000,6.745447021484375,-1.8260300159454346,-4.210371017456055,8.670321464538574
1702070870238438000,6.76243798828125,-1.936151146888733,-4.008859157562256,8.74165153503418
1702070870255427800,6.779427734375,-2.0476973056793213,-3.827234983444214,8.797462463378906
1702070870272419000,6.796419189453125,-2.153810977935791,-3.6534762382507324,8.845863342285156
1702070870289409000,6.813408935546875,-2.256469964981079,-3.4891273975372314,8.886530876159668
1702070870306400000,6.83039990234375,-2.369389057159424,-3.3431167602539062,8.913228988647461
1702070870323390200,6.84739013671875,-2.4710071086883545,-3.2283718585968018,8.927926063537598
1702070870340379000,6.86437890625,-2.5373895168304443,-3.1479673385620117,8.938013076782227
1702070870357374000,6.8813740234375,-2.558908224105835,-3.079146146774292,8.95583438873291
1702070870374362400,6.8983623046875,-2.5431361198425293,-3.0028433799743652,8.986186027526855
1702070870391352300,6.915352294921875,-2.517155647277832,-2.9179444313049316,9.02139949798584
1702070870408343600,6.932343505859375,-2.4858829975128174,-2.8397951126098633,9.054946899414062
1702070870425323300,6.9493232421875,-2.425004243850708,-2.7945497035980225,9.085481643676758
1702070870442324700,6.96632470703125,-2.3272931575775146,-2.798321485519409,9.109844207763672
1702070870459314700,6.983314697265625,-2.2046172618865967,-2.852299690246582,9.123603820800781
1702070870476306000,7.000305908203125,-2.06661319732666,-2.949828624725342,9.124897003173828
1702070870493295900,7.0172958984375,-1.933454990386963,-3.0739312171936035,9.113112449645996
1702070870510276400,7.0342763671875,-1.8021891117095947,-3.208702802658081,9.09354019165039
1702070870527278600,7.051278564453125,-1.661280632019043,-3.344024181365967,9.071593284606934
1702070870544268300,7.068268310546875,-1.5178266763687134,-3.4702389240264893,9.049297332763672
1702070870561258000,7.085258056640625,-1.3881909847259521,-3.591519594192505,9.022749900817871
1702070870578249200,7.102249267578125,-1.300061821937561,-3.720430850982666,8.983559608459473
1702070870595239200,7.1192392578125,-1.2665157318115234,-3.870837688446045,8.92461109161377
1702070870612227800,7.136227783203125,-1.2813016176223755,-4.052548408508301,8.841449737548828
1702070870629220600,7.153220703125,-1.3196557760238647,-4.271855354309082,8.731888771057129
1702070870646214000,7.1702138671875,-1.3465278148651123,-4.530388355255127,8.596427917480469
1702070870663201500,7.187201416015625,-1.3396906852722168,-4.815852165222168,8.440908432006836
1702070870680192800,7.20419287109375,-1.29843270778656,-5.099485397338867,8.279217720031738
1702070870697182700,7.2211826171875,-1.237145185470581,-5.355180740356445,8.125740051269531
1702070870714171000,7.2381708984375,-1.1650805473327637,-5.572536945343018,7.989089488983154
1702070870731164400,7.255164306640625,-1.0914080142974854,-5.753529071807861,7.870315074920654
1702070870748155000,7.27215478515625,-1.0175120830535889,-5.909862518310547,7.76365327835083
1702070870765145000,7.28914501953125,-0.9342494606971741,-6.054121971130371,7.6623053550720215
1702070870782136600,7.306136474609375,-0.8463727831840515,-6.189060688018799,7.564080238342285
1702070870799125500,7.32312548828125,-0.7649871706962585,-6.312896728515625,7.469821929931641
1702070870816118300,7.3401181640625,-0.6941867470741272,-6.423364162445068,7.3820481300354
1702070870833096400,7.357096435546875,-0.634406566619873,-6.514161109924316,7.307486057281494
1702070870850099000,7.374098876953125,-0.589056134223938,-6.578729629516602,7.253236770629883
1702070870867088000,7.391087890625,-0.549687385559082,-6.6173248291015625,7.22114896774292
1702070870884079600,7.40807958984375,-0.5023646950721741,-6.63487434387207,7.208481311798096
1702070870901059000,7.42505908203125,-0.4451947510242462,-6.6306633949279785,7.216108798980713
1702070870918060500,7.442060546875,-0.38865917921066284,-6.606608867645264,7.24139404296875
1702070870935050800,7.45905078125,-0.34536874294281006,-6.566025733947754,7.280395030975342
1702070870952041700,7.476041748046875,-0.30630114674568176,-6.513445854187012,7.32921028137207
1702070870969031700,7.49303173828125,-0.27154937386512756,-6.448427677154541,7.3878397941589355
1702070870986022700,7.510022705078125,-0.2618471086025238,-6.3630290031433105,7.461863994598389
1702070871003003000,7.5270029296875,-0.2919193208217621,-6.262117862701416,7.545645236968994
1702070871020004000,7.544004150390625,-0.34361690282821655,-6.16554594039917,7.622604846954346
1702070871036991500,7.560991455078125,-0.3757251501083374,-6.091925621032715,7.6800642013549805
1702070871053987800,7.57798779296875,-0.3480631411075592,-6.040382385253906,7.72196626663208
1702070871070975000,7.59497509765625,-0.27665165066719055,-5.987654685974121,7.765796184539795
1702070871087966200,7.61196630859375,-0.22018451988697052,-5.898502826690674,7.835515975952148
1702070871104956200,7.6289560546875,-0.22887639701366425,-5.744994640350342,7.9485063552856445
1702070871121947600,7.64594775390625,-0.30413883924484253,-5.538154125213623,8.091506004333496
1702070871138937600,7.6629375,-0.40815964341163635,-5.32372522354126,8.229671478271484
1702070871155928600,7.679928466796875,-0.5134820342063904,-5.118537425994873,8.353025436401367
1702070871172918800,7.696918701171875,-0.6120398044586182,-4.889893531799316,8.4823637008667
1702070871189909800,7.71390966796875,-0.7106033563613892,-4.600257396697998,8.635321617126465
1702070871206899700,7.730899658203125,-0.8013042211532593,-4.2493438720703125,8.805516242980957
1702070871223891000,7.747890869140625,-0.8669363260269165,-3.853522777557373,8.979693412780762
1702070871240870100,7.7648701171875,-0.9057121276855469,-3.4355006217956543,9.144021987915039
1702070871257872000,7.781871826171875,-0.9337694048881531,-3.0239572525024414,9.285465240478516
1702070871274859500,7.798859619140625,-0.9581505060195923,-2.636423110961914,9.400392532348633
1702070871291856000,7.81585595703125,-0.979522705078125,-2.256586790084839,9.496549606323242
1702070871308843300,7.83284326171875,-0.9948242902755737,-1.8763806819915771,9.577351570129395
1702070871325834200,7.849834228515625,-1.0197010040283203,-1.5173373222351074,9.638154029846191
1702070871342824400,7.866824462890625,-1.0688287019729614,-1.2115402221679688,9.676047325134277
1702070871359815200,7.883815185546875,-1.1511472463607788,-0.9931691884994507,9.6914701461792
1702070871376805400,7.900805419921875,-1.2860603332519531,-0.8497612476348877,9.688141822814941
1702070871393796400,7.91779638671875,-1.4690781831741333,-0.7338066101074219,9.67158031463623
1702070871410771700,7.934771728515625,-1.6882996559143066,-0.6116564869880676,9.64425277709961
1702070871427781600,7.95178173828125,-1.9350942373275757,-0.49597957730293274,9.604454040527344
1702070871444765200,7.96876513671875,-2.1854732036590576,-0.43644028902053833,9.553498268127441
1702070871461761500,7.985761474609375,-2.40501070022583,-0.45862841606140137,9.499564170837402
1702070871478748700,8.002748779296875,-2.5546579360961914,-0.5484349131584167,9.45563793182373
1702070871495729200,8.019729248046875,-2.6089861392974854,-0.6852387189865112,9.431849479675293
1702070871512719400,8.03671923828125,-2.5590758323669434,-0.8373087644577026,9.433249473571777
1702070871529721000,8.05372119140625,-2.4211084842681885,-0.972807765007019,9.45663833618164
1702070871546710800,8.070710693359375,-2.2265894412994385,-1.1086409091949463,9.489434242248535
1702070871563699500,8.087699462890624,-2.0130584239959717,-1.2987046241760254,9.512995719909668
1702070871580694500,8.104694580078124,-1.8178538084030151,-1.5829960107803345,9.509241104125977
1702070871597683200,8.12168310546875,-1.654781699180603,-1.945202350616455,9.471748352050781
1702070871614673200,8.138673095703124,-1.511396884918213,-2.325068235397339,9.409882545471191
1702070871631664400,8.155664306640626,-1.3756473064422607,-2.670961856842041,9.33861255645752
1702070871648654600,8.172654541015625,-1.2491366863250732,-2.976957321166992,9.263558387756348
1702070871665641000,8.189640869140625,-1.1503689289093018,-3.2814669609069824,9.173044204711914
1702070871682635500,8.206635498046875,-1.086714744567871,-3.6141679286956787,9.054996490478516
1702070871699626500,8.22362646484375,-1.0507605075836182,-3.9760966300964355,8.906328201293945
1702070871716616700,8.24061669921875,-1.020564317703247,-4.3498992919921875,8.733437538146973
1702070871733607400,8.257607421875,-0.9671476483345032,-4.710843563079834,8.550362586975098
1702070871750597600,8.27459765625,-0.8780658841133118,-5.034276485443115,8.373839378356934
1702070871767588900,8.2915888671875,-0.755606472492218,-5.309965133666992,8.213977813720703
1702070871784579000,8.3085791015625,-0.618372917175293,-5.5509514808654785,8.064778327941895
1702070871801570000,8.325570068359376,-0.47896474599838257,-5.774593830108643,7.915856838226318
1702070871818557000,8.342556884765624,-0.34773099422454834,-5.985783100128174,7.764382362365723
1702070871835551200,8.35955126953125,-0.23060132563114166,-6.180665016174316,7.61461067199707
1702070871852530400,8.376530517578125,-0.12657292187213898,-6.350973606109619,7.475642204284668
1702070871869532200,8.3935322265625,-0.029699178412556648,-6.497842788696289,7.349371433258057
1702070871886522400,8.4105224609375,0.062314365059137344,-6.627472877502441,7.232485771179199
1702070871903510800,8.4275107421875,0.14886310696601868,-6.743450164794922,7.123190879821777
1702070871920506000,8.444506103515625,0.23157665133476257,-6.8452653884887695,7.023164749145508
1702070871937492700,8.46149267578125,0.30663326382637024,-6.927608966827393,6.9390435218811035
1702070871954484500,8.478484375,0.3660532534122467,-6.987171173095703,6.876158714294434
1702070871971475500,8.495475341796874,0.40291470289230347,-7.017998218536377,6.842623710632324
1702070871988465400,8.51246533203125,0.40573713183403015,-7.011703968048096,6.848904132843018
1702070872005457000,8.529456787109375,0.37895339727401733,-6.970372676849365,6.892490386962891
1702070872022446800,8.54644677734375,0.3516615033149719,-6.903939247131348,6.960465431213379
1702070872039437800,8.563437744140625,0.3402734696865082,-6.810113430023193,7.05285120010376
1702070872056427800,8.580427734375,0.34113943576812744,-6.678256511688232,7.177788257598877
1702070872073409500,8.597409423828125,0.34742870926856995,-6.505944728851318,7.334037780761719
1702070872090408200,8.614408203125,0.33980393409729004,-6.309099197387695,7.504391670227051
1702070872107400000,8.63139990234375,0.30848389863967896,-6.1095991134643555,7.669013023376465
1702070872124390000,8.648389892578125,0.2682848870754242,-5.91861629486084,7.818831443786621
1702070872141380400,8.66538037109375,0.23095567524433136,-5.70850133895874,7.974697113037109
1702070872158371600,8.68237158203125,0.18958048522472382,-5.446150302886963,8.157181739807129
1702070872175362300,8.6993623046875,0.11157160252332687,-5.108544826507568,8.374153137207031
1702070872192352500,8.7163525390625,-0.01783927157521248,-4.706710338592529,8.607131004333496
1702070872209343500,8.733343505859375,-0.18056757748126984,-4.275160312652588,8.82759952545166
1702070872226333200,8.750333251953125,-0.35455557703971863,-3.842524766921997,9.019169807434082
1702070872243324400,8.767324462890626,-0.5246829390525818,-3.4139742851257324,9.181808471679688
1702070872260314400,8.784314453125,-0.6796362400054932,-2.9892680644989014,9.318717002868652
1702070872277305600,8.8013056640625,-0.8169452548027039,-2.5694353580474854,9.432217597961426
1702070872294295800,8.8182958984375,-0.9321020841598511,-2.1649057865142822,9.52263069152832
1702070872311286500,8.83528662109375,-1.0239660739898682,-1.7860729694366455,9.591534614562988
1702070872328276700,8.85227685546875,-1.0929949283599854,-1.4409887790679932,9.641838073730469
1702070872345268000,8.86926806640625,-1.1491312980651855,-1.1348358392715454,9.67614459991455
1702070872362257700,8.886257568359374,-1.1983692646026611,-0.8701010942459106,9.697574615478516
1702070872379246300,8.903246337890625,-1.2436025142669678,-0.6509860157966614,9.70905876159668
1702070872396241400,8.920241455078125,-1.2872889041900635,-0.4797509014606476,9.713334083557129
1702070872413230000,8.93722998046875,-1.3321834802627563,-0.3471807837486267,9.712924003601074
1702070872430220000,8.954219970703125,-1.3904809951782227,-0.23375093936920166,9.708144187927246
1702070872447211300,8.971211181640625,-1.4629589319229126,-0.12887409329414368,9.699445724487305
1702070872464201200,8.988201171875,-1.5451091527938843,-0.03384368494153023,9.687496185302734
1702070872481192400,9.0051923828125,-1.624334692955017,0.03760052099823952,9.674513816833496
1702070872498182100,9.02218212890625,-1.6834176778793335,0.06791570782661438,9.664243698120117
1702070872515173400,9.03917333984375,-1.7182564735412598,0.04310392215847969,9.65825366973877
1702070872532171300,9.056171142578124,-1.7392512559890747,-0.03937602788209915,9.654509544372559
1702070872549154600,9.073154541015626,-1.7536059617996216,-0.18104617297649384,9.65029525756836
1702070872566144800,9.090144775390625,-1.7648158073425293,-0.37302955985069275,9.642739295959473
1702070872583134000,9.107134033203126,-1.779707908630371,-0.6200463771820068,9.627269744873047
1702070872600127500,9.12412744140625,-1.7969788312911987,-0.9394771456718445,9.598145484924316
1702070872617119700,9.14111962890625,-1.8152446746826172,-1.3116023540496826,9.550954818725586
1702070872634106600,9.158106689453126,-1.8406951427459717,-1.6994524002075195,9.484716415405273
1702070872651097900,9.175097900390625,-1.8663030862808228,-2.0938220024108887,9.400474548339844
1702070872668088000,9.192088134765624,-1.868820309638977,-2.514430284500122,9.296302795410156
1702070872685079000,9.2090791015625,-1.7981995344161987,-2.9803309440612793,9.171707153320312
1702070872702069000,9.226069091796875,-1.6256999969482422,-3.4642398357391357,9.032845497131348
1702070872719060200,9.243060302734374,-1.3706175088882446,-3.918466091156006,8.888372421264648
1702070872736050200,9.26005029296875,-1.0872803926467896,-4.307549476623535,8.746369361877441
1702070872753041200,9.277041259765625,-0.839897871017456,-4.616088390350342,8.615243911743164
1702070872770031000,9.294031005859376,-0.6667600870132446,-4.867590427398682,8.491060256958008
1702070872787022000,9.31102197265625,-0.5562260746955872,-5.119647979736328,8.349608421325684
1702070872804012300,9.32801220703125,-0.47753188014030457,-5.401217937469482,8.175264358520508
1702070872821003300,9.345003173828125,-0.4019583761692047,-5.693232536315918,7.978825569152832
1702070872837993500,9.361993408203125,-0.3085859417915344,-5.960528373718262,7.785437107086182
1702070872854982100,9.378982177734375,-0.19797386229038239,-6.192814350128174,7.605653285980225
1702070872871977200,9.395977294921876,-0.08366371691226959,-6.389494895935059,7.443350791931152
1702070872888965600,9.412965576171874,0.016134807839989662,-6.555331230163574,7.298184394836426
1702070872905955800,9.429955810546875,0.09402089565992355,-6.696331024169922,7.168433666229248
1702070872922946800,9.44694677734375,0.1486876904964447,-6.811400890350342,7.05824613571167
1702070872939936800,9.463936767578126,0.1900199055671692,-6.890035152435303,6.980502128601074
1702070872956928000,9.480927978515625,0.2261451631784439,-6.935925483703613,6.933822154998779
1702070872973918000,9.49791796875,0.2642444670200348,-6.961617946624756,6.906675815582275
1702070872990909000,9.514908935546876,0.30225661396980286,-6.971848011016846,6.894789695739746
1702070873007899000,9.53189892578125,0.32993265986442566,-6.960994720458984,6.904478549957275
1702070873024879400,9.54887939453125,0.342461496591568,-6.930099010467529,6.934879779815674
1702070873041880000,9.565880126953125,0.34146279096603394,-6.880595684051514,6.984050750732422
1702070873058871300,9.582871337890625,0.3278048634529114,-6.818648815155029,7.045191287994385
1702070873075861000,9.599861083984376,0.30330970883369446,-6.746441841125488,7.115448951721191
1702070873092852500,9.6168525390625,0.25363701581954956,-6.658091068267822,7.200113296508789
1702070873109836000,9.6338359375,0.17507149279117584,-6.548066139221191,7.302624225616455
1702070873126835700,9.650835693359374,0.08514540642499924,-6.404623985290527,7.4303202629089355
1702070873143810600,9.667810546875,0.005860079545527697,-6.22522497177124,7.581733226776123
1702070873160812000,9.68481201171875,-0.05063922703266144,-6.021134376525879,7.74464225769043
1702070873177804500,9.701804443359375,-0.08597102761268616,-5.80759859085083,7.905728340148926
1702070873194793000,9.71879296875,-0.11257527768611908,-5.593388080596924,8.058378219604492
1702070873211783000,9.735782958984375,-0.13701488077640533,-5.383661270141602,8.199606895446777
1702070873228777500,9.752777587890625,-0.14830848574638367,-5.179369926452637,8.329961776733398
1702070873245768400,9.7697685546875,-0.13689033687114716,-4.966758728027344,8.45864486694336
1702070873262740700,9.78674072265625,-0.11570821702480316,-4.710895538330078,8.604080200195312
1702070873279747800,9.803747802734375,-0.11744922399520874,-4.367275714874268,8.783464431762695
1702070873296738800,9.82073876953125,-0.1645403653383255,-3.929123878479004,8.98727035522461
1702070873313718300,9.83771826171875,-0.24292053282260895,-3.4332878589630127,9.186383247375488
1702070873330720300,9.85472021484375,-0.3126848340034485,-2.9412364959716797,9.353473663330078
1702070873347710000,9.8717099609375,-0.3422682583332062,-2.500260829925537,9.479856491088867
1702070873364701200,9.888701171875,-0.3414320945739746,-2.114428758621216,9.573335647583008
1702070873381691100,9.905691162109376,-0.3341912031173706,-1.783941388130188,9.640643119812012
1702070873398683100,9.92268310546875,-0.3397270441055298,-1.5099540948867798,9.68714427947998
1702070873415671300,9.93967138671875,-0.37988966703414917,-1.287391185760498,9.71773624420166
1702070873432663000,9.9566630859375,-0.46030452847480774,-1.1063140630722046,9.736546516418457
1702070873449653200,9.9736533203125,-0.5661059617996216,-0.9576137661933899,9.746724128723145
1702070873466644200,9.990644287109374,-0.6785805225372314,-0.8342544436454773,9.75087833404541
1702070873483634200,10.00763427734375,-0.7882794141769409,-0.7325447797775269,9.750800132751465
1702070873500625700,10.024625732421875,-0.8993250727653503,-0.6463024020195007,9.74728775024414
1702070873517615600,10.04161572265625,-1.0211275815963745,-0.5740121006965637,9.739811897277832
1702070873534606300,10.0586064453125,-1.1467887163162231,-0.5166260600090027,9.729034423828125
1702070873551596500,10.075596435546874,-1.26145601272583,-0.4779449999332428,9.716813087463379
1702070873568587800,10.092587890625,-1.3480424880981445,-0.4674851894378662,9.7056884765625
1702070873585577700,10.10957763671875,-1.4049227237701416,-0.4897730350494385,9.696517944335938
1702070873602568700,10.126568603515626,-1.4400527477264404,-0.5410715341567993,9.68863296508789
1702070873619553000,10.143552978515626,-1.468024492263794,-0.6207225918769836,9.679655075073242
1702070873636539400,10.160539306640626,-1.4950110912322998,-0.7427025437355042,9.666927337646484
1702070873653540000,10.1775400390625,-1.5217138528823853,-0.9215106964111328,9.64734935760498
1702070873670527500,10.194527587890626,-1.5478326082229614,-1.1603578329086304,9.6173734664917
1702070873687524000,10.211524169921875,-1.575518250465393,-1.4487496614456177,9.573662757873535
1702070873704512300,10.22851220703125,-1.6064022779464722,-1.7659906148910522,9.515087127685547
1702070873721502000,10.245501953125,-1.641410231590271,-2.0918173789978027,9.442784309387207
1702070873738493200,10.2624931640625,-1.6720311641693115,-2.4179141521453857,9.359172821044922
1702070873755483100,10.279483154296875,-1.6783117055892944,-2.7515065670013428,9.26545238494873
1702070873772474400,10.296474365234374,-1.648529291152954,-3.1103241443634033,9.156657218933105
1702070873789464000,10.313464111328125,-1.559202790260315,-3.5067741870880127,9.028152465820312
1702070873806455300,10.330455322265625,-1.3918776512145996,-3.92802095413208,8.880846977233887
1702070873823445200,10.3474453125,-1.1484549045562744,-4.338530540466309,8.72320556640625
1702070873840436500,10.3644365234375,-0.8730056881904602,-4.696881294250488,8.568154335021973
1702070873857426400,10.381426513671874,-0.6348702311515808,-4.979151248931885,8.4285888671875
1702070873874415400,10.398415283203125,-0.48513269424438477,-5.214555263519287,8.295129776000977
1702070873891407400,10.415407470703125,-0.41866621375083923,-5.452826499938965,8.144170761108398
1702070873908401200,10.432401123046875,-0.39238911867141724,-5.721697807312012,7.958915710449219
1702070873925388500,10.449388427734375,-0.3598300516605377,-6.024936199188232,7.733485221862793
1702070873942382800,10.4663828125,-0.3030196726322174,-6.337574481964111,7.481943607330322
1702070873959366100,10.4833662109375,-0.23318345844745636,-6.61733865737915,7.238269805908203
1702070873976361000,10.50036083984375,-0.1694675236940384,-6.847766399383545,7.02249813079834
1702070873993351000,10.517350830078126,-0.1267050802707672,-7.038545608520508,6.832197189331055
1702070874010342000,10.534341796875,-0.10498910397291183,-7.198085308074951,6.6642842292785645
1702070874027332000,10.55133203125,-0.10242743790149689,-7.3286614418029785,6.5204548835754395
1702070874044323000,10.568322998046876,-0.10869740694761276,-7.428314685821533,6.406592845916748
1702070874061313000,10.58531298828125,-0.11110762506723404,-7.49376916885376,6.329867839813232
1702070874078286600,10.60228662109375,-0.10733149200677872,-7.530471324920654,6.286224842071533
1702070874095294200,10.619294189453125,-0.0968410074710846,-7.555017471313477,6.256871700286865
1702070874112281600,10.636281494140626,-0.08650839328765869,-7.57072114944458,6.238015651702881
1702070874129279000,10.653279052734375,-0.08032671362161636,-7.5763983726501465,6.231202125549316
1702070874146266400,10.670266357421875,-0.08210192620754242,-7.56680154800415,6.242827415466309
1702070874163256300,10.68725634765625,-0.09410333633422852,-7.537195682525635,6.278371334075928
1702070874180245000,10.704244873046875,-0.10984813421964645,-7.485729694366455,6.339393615722656
1702070874197239600,10.721239501953125,-0.12005386501550674,-7.407538414001465,6.430403709411621
1702070874214229200,10.738229248046874,-0.111847884953022,-7.30093240737915,6.551335334777832
1702070874231217200,10.755217041015625,-0.06670153141021729,-7.16197395324707,6.70356559753418
1702070874248209700,10.772209716796874,-0.0007876199670135975,-6.985381126403809,6.887711524963379
1702070874265199600,10.78919970703125,0.015268835239112377,-6.774062156677246,7.0956315994262695
1702070874282190600,10.806190673828125,-0.05023109167814255,-6.558411121368408,7.295263290405273
1702070874299180500,10.8231806640625,-0.14409878849983215,-6.3709492683410645,7.458309650421143
1702070874316159700,10.84015966796875,-0.19709619879722595,-6.19812536239624,7.6013503074646
1702070874333161500,10.857161376953124,-0.19755695760250092,-5.996084690093994,7.761704444885254
1702070874350142000,10.874141845703125,-0.17815297842025757,-5.72662353515625,7.96304988861084
1702070874367142700,10.891142578125,-0.18668025732040405,-5.366755962371826,8.209700584411621
1702070874384133600,10.908133544921874,-0.24287347495555878,-4.932356357574463,8.476377487182617
1702070874401123000,10.925123046875,-0.3355351686477661,-4.46105432510376,8.730550765991211
1702070874418114800,10.94211474609375,-0.43702763319015503,-4.000647068023682,8.946504592895508
1702070874435104800,10.959104736328126,-0.5366188883781433,-3.5714049339294434,9.12103271484375
1702070874452095700,10.976095703125,-0.6349053382873535,-3.1690938472747803,9.262283325195312
1702070874469086000,10.9930859375,-0.7407416701316833,-2.790411949157715,9.375555038452148
1702070874486077200,11.0100771484375,-0.8567776083946228,-2.4334545135498047,9.464690208435059
1702070874503067400,11.0270673828125,-0.9746243357658386,-2.101043462753296,9.532673835754395
1702070874520058400,11.044058349609376,-1.0732637643814087,-1.812885046005249,9.581110954284668
1702070874537048300,11.06104833984375,-1.1469250917434692,-1.581144094467163,9.613568305969238
1702070874554039600,11.07803955078125,-1.2083474397659302,-1.3999687433242798,9.634112358093262
1702070874571026200,11.095026123046875,-1.2847497463226318,-1.258115291595459,9.643790245056152
1702070874588020200,11.112020263671875,-1.3955808877944946,-1.1393557786941528,9.643150329589844
1702070874605010200,11.12901025390625,-1.5464599132537842,-1.0303212404251099,9.63239574432373
1702070874622001700,11.146001708984375,-1.7214529514312744,-0.9285086393356323,9.613041877746582
1702070874638991400,11.162991455078124,-1.8891820907592773,-0.8366491794586182,9.589949607849121
1702070874655982300,11.179982421875,-2.0290894508361816,-0.758063793182373,9.567875862121582
1702070874672970000,11.196969970703124,-2.1268978118896484,-0.6967208981513977,9.551284790039062
1702070874689966300,11.21396630859375,-2.172049045562744,-0.655146598815918,9.544060707092285
1702070874706953500,11.230953369140625,-2.1637120246887207,-0.6372404098510742,9.547167778015137
1702070874723944400,11.2479443359375,-2.1067984104156494,-0.6549662351608276,9.558691024780273
1702070874740932000,11.26493212890625,-2.013436794281006,-0.718103289604187,9.574262619018555
1702070874757928400,11.281928466796876,-1.8886359930038452,-0.8350070118904114,9.590202331542969
1702070874774915800,11.298915771484374,-1.7215142250061035,-1.016546368598938,9.604121208190918
1702070874791902500,11.31590234375,-1.5000462532043457,-1.2599279880523682,9.612419128417969
1702070874808901000,11.332901123046875,-1.2353960275650024,-1.5475019216537476,9.608077049255371
1702070874825888000,11.349887939453126,-0.98038250207901,-1.8671836853027344,9.580636024475098
1702070874842878000,11.3668779296875,-0.8053773641586304,-2.231208086013794,9.518887519836426
1702070874859868700,11.38386865234375,-0.7349371314048767,-2.6570799350738525,9.414665222167969
1702070874876859000,11.40085888671875,-0.7224100828170776,-3.1194796562194824,9.272706985473633
1702070874893849900,11.417849853515625,-0.7148762345314026,-3.5601048469543457,9.1132173538208
1702070874910839800,11.43483984375,-0.6851428747177124,-3.933349132537842,8.960774421691895
1702070874927831000,11.4518310546875,-0.6357151865959167,-4.226439952850342,8.83001708984375
1702070874944821200,11.4688212890625,-0.5822297930717468,-4.462728023529053,8.716719627380371
1702070874961812000,11.48581201171875,-0.5433405637741089,-4.684865951538086,8.60191535949707
1702070874978802200,11.50280224609375,-0.5373550653457642,-4.926177501678467,8.466413497924805
1702070874995793200,11.519793212890624,-0.5680143237113953,-5.191821575164795,8.304123878479004
1702070875012783000,11.536783203125,-0.618800938129425,-5.462151050567627,8.125151634216309
1702070875029774000,11.553774169921875,-0.6754007935523987,-5.714519023895264,7.945076942443848
1702070875046764500,11.5707646484375,-0.7267247438430786,-5.934432506561279,7.777564525604248
1702070875063755500,11.587755615234375,-0.776641845703125,-6.125350475311279,7.623191833496094
1702070875080745500,11.604745361328124,-0.8279102444648743,-6.295388698577881,7.4778852462768555
1702070875097736400,11.621736328125,-0.8816356062889099,-6.444336414337158,7.343658924102783
1702070875114726400,11.638726318359375,-0.9349651336669922,-6.567677021026611,7.226864814758301
1702070875131707000,11.655706787109375,-0.979048490524292,-6.659466743469238,7.136462211608887
1702070875148707600,11.67270751953125,-1.005689024925232,-6.71914005279541,7.076572418212891
1702070875165698800,11.68969873046875,-1.00882887840271,-6.7464447021484375,7.050097942352295
1702070875182690000,11.70668994140625,-0.9965971112251282,-6.7434282302856445,7.054723262786865
1702070875199678000,11.723677978515624,-0.9876888990402222,-6.715088844299316,7.082949161529541
1702070875216670500,11.74067041015625,-1.0007948875427246,-6.66734504699707,7.126083850860596
1702070875233660000,11.757659912109375,-1.0323336124420166,-6.6054487228393555,7.17902946472168
1702070875250650600,11.774650634765624,-1.0514984130859375,-6.536291599273682,7.239294052124023
1702070875267641900,11.791641845703126,-1.033738613128662,-6.463179111480713,7.307176113128662
1702070875284633900,11.8086337890625,-0.9874386191368103,-6.385264873504639,7.3816986083984375
1702070875301623000,11.825623046875,-0.9306703805923462,-6.297417640686035,7.46408224105835
1702070875318617000,11.8426171875,-0.8817893862724304,-6.20346212387085,7.548221111297607
1702070875335604000,11.85960400390625,-0.83733069896698,-6.118272304534912,7.622450351715088
1702070875352594000,11.876593994140626,-0.7945045232772827,-6.049681186676025,7.681552410125732
1702070875369585000,11.8935849609375,-0.7555626034736633,-5.982604026794434,7.737809181213379
1702070875386575000,11.9105751953125,-0.7338957786560059,-5.902380466461182,7.801244258880615
1702070875403566000,11.927566162109375,-0.7321790456771851,-5.821336269378662,7.862065315246582
1702070875420556000,11.94455615234375,-0.7189198732376099,-5.774648666381836,7.897640228271484
1702070875437547000,11.961547119140626,-0.6564832925796509,-5.771667957305908,7.9052510261535645
1702070875454525000,11.97852490234375,-0.5473046898841858,-5.779050350189209,7.908170223236084
1702070875471528400,11.995528564453124,-0.420331209897995,-5.7537841796875,7.934317588806152
1702070875488513500,12.012513427734374,-0.3040446937084198,-5.667660236358643,8.001330375671387
1702070875505513700,12.029513671875,-0.2193039208650589,-5.511821269989014,8.112203598022461
1702070875522499600,12.04649951171875,-0.17260396480560303,-5.29757022857666,8.25482177734375
1702070875539490600,12.063490478515625,-0.15590548515319824,-5.049873352050781,8.40895938873291
1702070875556480300,12.080480224609374,-0.15160398185253143,-4.781076431274414,8.564722061157227
1702070875573471700,12.0974716796875,-0.14517702162265778,-4.482720375061035,8.724693298339844
1702070875590461400,12.11446142578125,-0.13601969182491302,-4.1545844078063965,8.885777473449707
1702070875607452400,12.131452392578124,-0.13386820256710052,-3.8060920238494873,9.040566444396973
1702070875624442400,12.1484423828125,-0.15220829844474792,-3.453683853149414,9.18068790435791
1702070875641433600,12.16543359375,-0.1914656162261963,-3.1154699325561523,9.300176620483398
1702070875658423600,12.182423583984376,-0.244283527135849,-2.802189826965332,9.39809513092041
1702070875675414500,12.19941455078125,-0.30728259682655334,-2.5079433917999268,9.479022979736328
1702070875692404500,12.216404541015624,-0.37898993492126465,-2.221906900405884,9.54754638671875
1702070875709382700,12.233382568359374,-0.4585684835910797,-1.9418872594833374,9.604942321777344
1702070875726386200,12.25038623046875,-0.5519947409629822,-1.6752960681915283,9.65011978149414
1702070875743379200,12.267379150390624,-0.6554673314094543,-1.4283297061920166,9.683304786682129
1702070875760366800,12.284366943359375,-0.7651653289794922,-1.1993811130523682,9.706294059753418
1702070875777358000,12.301358154296874,-0.873654305934906,-0.9849510788917542,9.721251487731934
1702070875794348000,12.31834814453125,-0.979231059551239,-0.7868700623512268,9.729238510131836
1702070875811338800,12.3353388671875,-1.087783694267273,-0.6178504824638367,9.72990894317627
1702070875828329000,12.352328857421876,-1.1984102725982666,-0.49743375182151794,9.723809242248535
1702070875845320200,12.3693203125,-1.3033313751220703,-0.4409142732620239,9.713032722473145
1702070875862310000,12.386309814453124,-1.3954169750213623,-0.44971728324890137,9.699831008911133
1702070875879300900,12.40330078125,-1.4648433923721313,-0.5250710844993591,9.685794830322266
1702070875896291000,12.420291015625,-1.500915765762329,-0.6581746339797974,9.672134399414062
1702070875913282000,12.437281982421876,-1.5002081394195557,-0.8292251229286194,9.659083366394043
1702070875930272300,12.454272216796875,-1.4659565687179565,-1.0275869369506836,9.64526653289795
1702070875947263000,12.471262939453124,-1.4178799390792847,-1.2415212392807007,9.627272605895996
1702070875964246300,12.488246337890626,-1.3736236095428467,-1.4726723432540894,9.601069450378418
1702070875981244400,12.505244384765625,-1.3427733182907104,-1.7481156587600708,9.559141159057617
1702070875998232800,12.52223291015625,-1.3272674083709717,-2.1014130115509033,9.489917755126953
1702070876015224000,12.53922412109375,-1.2993208169937134,-2.524775505065918,9.390069007873535
1702070876032218400,12.55621826171875,-1.2285922765731812,-2.9557149410247803,9.273103713989258
1702070876049206500,12.57320654296875,-1.1052114963531494,-3.3402116298675537,9.157382011413574
1702070876066196500,12.590196533203125,-0.9586998820304871,-3.6568992137908936,9.052298545837402
1702070876083187500,12.6071875,-0.8353990316390991,-3.916539192199707,8.955387115478516
1702070876100177200,12.62417724609375,-0.767886221408844,-4.1517181396484375,8.854927062988281
1702070876117168600,12.641168701171875,-0.7665071487426758,-4.401079177856445,8.733790397644043
1702070876134158600,12.65815869140625,-0.8114529252052307,-4.6864213943481445,8.579924583435059
1702070876151149800,12.67514990234375,-0.8743768930435181,-4.991125106811523,8.400015830993652
1702070876168129000,12.69212890625,-0.9357855319976807,-5.286646366119385,8.210468292236328
1702070876185130800,12.709130859375,-0.984599232673645,-5.559316635131836,8.02251148223877
1702070876202120700,12.72612060546875,-1.0137183666229248,-5.804638862609863,7.843128204345703
1702070876219111700,12.743111572265626,-1.0267366170883179,-6.024880409240723,7.6735100746154785
1702070876236107300,12.760107177734374,-1.027126669883728,-6.224154949188232,7.51272439956665
1702070876253092900,12.7770927734375,-1.015114426612854,-6.396894931793213,7.367860794067383
1702070876270082600,12.79408251953125,-0.9935173988342285,-6.535602569580078,7.248100757598877
1702070876287061800,12.811061767578124,-0.9629434943199158,-6.635737895965576,7.160714626312256
1702070876304057300,12.828057373046875,-0.9264931082725525,-6.6928181648254395,7.112236976623535
1702070876321054700,12.8450546875,-0.8880330324172974,-6.7100396156311035,7.100906848907471
1702070876338045200,12.862045166015625,-0.8570077419281006,-6.69624137878418,7.1177263259887695
1702070876355036000,12.879035888671876,-0.8331955075263977,-6.663666248321533,7.1510467529296875
1702070876372025900,12.89602587890625,-0.8167572617530823,-6.620054721832275,7.193322658538818
1702070876389017000,12.91301708984375,-0.8001593351364136,-6.568488597869873,7.242293834686279
1702070876406006800,12.9300068359375,-0.7811295986175537,-6.515324115753174,7.292223930358887
1702070876422998000,12.946998046875,-0.7609783411026001,-6.467860221862793,7.336472511291504
1702070876439988000,12.963988037109376,-0.7381370663642883,-6.426633358001709,7.374935150146484
1702070876456979200,12.980979248046875,-0.7129104137420654,-6.388010501861572,7.41088342666626
1702070876473969200,12.99796923828125,-0.6815897822380066,-6.349156856536865,7.447131156921387
1702070876490957600,13.01495751953125,-0.6343545317649841,-6.311154842376709,7.483516216278076
1702070876507952600,13.03195263671875,-0.5627194046974182,-6.274930477142334,7.519622325897217
1702070876524941000,13.048941162109376,-0.47387826442718506,-6.233921051025391,7.559747695922852
1702070876541931000,13.065930908203125,-0.38715147972106934,-6.171968460083008,7.615315914154053
1702070876558922200,13.082922119140624,-0.34331050515174866,-6.0760579109191895,7.6941399574279785
1702070876575912200,13.099912109375,-0.3555580973625183,-5.961177349090576,7.782933712005615
1702070876592903400,13.1169033203125,-0.39223504066467285,-5.8569016456604,7.859961032867432
1702070876609900800,13.13390087890625,-0.38114288449287415,-5.779799938201904,7.9173712730407715
1702070876626886000,13.150885986328126,-0.30505597591400146,-5.699891090393066,7.978363513946533
1702070876643874600,13.16787451171875,-0.19745229184627533,-5.592978000640869,8.057028770446777
1702070876660865300,13.184865234375,-0.1189659908413887,-5.440201282501221,8.16248607635498
1702070876677855200,13.201855224609375,-0.10865355283021927,-5.241946697235107,8.291338920593262
1702070876694846200,13.21884619140625,-0.1641896814107895,-5.019948959350586,8.426700592041016
1702070876711836400,13.23583642578125,-0.2672022581100464,-4.7993879318237305,8.551642417907715
1702070876728827600,13.25282763671875,-0.4110247790813446,-4.597263813018799,8.656347274780273
1702070876745815000,13.26981494140625,-0.5794488787651062,-4.401372909545898,8.748044967651367
1702070876762811100,13.28681103515625,-0.7636114358901978,-4.187071323394775,8.838635444641113
1702070876779798500,13.303798583984374,-0.9408448338508606,-3.940929651260376,8.9342041015625
1702070876796785000,13.320784912109374,-1.0820330381393433,-3.6641035079956055,9.035467147827148
1702070876813779500,13.337779541015625,-1.172612190246582,-3.3708226680755615,9.137760162353516
1702070876830770200,13.354770263671876,-1.2158141136169434,-3.072460174560547,9.236767768859863
1702070876847761400,13.371761474609375,-1.2394251823425293,-2.7734227180480957,9.327813148498535
1702070876864751600,13.388751708984374,-1.2714533805847168,-2.467785120010376,9.409015655517578
1702070876881741800,13.405741943359375,-1.3172821998596191,-2.1425588130950928,9.48210620880127
1702070876898732800,13.42273291015625,-1.3684297800064087,-1.8005151748657227,9.545766830444336
1702070876915723000,13.439722900390626,-1.4080007076263428,-1.4612945318222046,9.597827911376953
1702070876932713700,13.456713623046875,-1.4278775453567505,-1.1527575254440308,9.636825561523438
1702070876949697000,13.473697021484375,-1.4367125034332275,-0.8944967985153198,9.662910461425781
1702070876966695000,13.49069482421875,-1.4431586265563965,-0.6872634887695312,9.678899765014648
1702070876983676000,13.507676025390625,-1.4542841911315918,-0.5264448523521423,9.687311172485352
1702070877000675800,13.52467578125,-1.4743918180465698,-0.40945377945899963,9.689923286437988
1702070877017666000,13.541666015625,-1.504824161529541,-0.34493008255958557,9.687758445739746
1702070877034657000,13.558656982421875,-1.5379241704940796,-0.34899574518203735,9.682412147521973
1702070877051646700,13.575646728515625,-1.5600496530532837,-0.4234640598297119,9.675899505615234
1702070877068637200,13.59263720703125,-1.5631579160690308,-0.5538181662559509,9.668811798095703
1702070877085628400,13.60962841796875,-1.5470192432403564,-0.7145765423774719,9.660861015319824
1702070877102617600,13.62661767578125,-1.5098694562911987,-0.8789777755737305,9.653175354003906
1702070877119602000,13.643601806640625,-1.4552510976791382,-1.0395276546478271,9.645606994628906
1702070877136600300,13.660600341796876,-1.388330101966858,-1.2105629444122314,9.635516166687012
1702070877153590300,13.67759033203125,-1.3073275089263916,-1.4116061925888062,9.619478225708008
1702070877170581200,13.694581298828124,-1.2182565927505493,-1.648781180381775,9.593408584594727
1702070877187571000,13.711571044921875,-1.1479815244674683,-1.9149292707443237,9.552555084228516
1702070877204562400,13.7285625,-1.1061813831329346,-2.196906566619873,9.496635437011719
1702070877221552400,13.745552490234376,-1.0709468126296997,-2.483644485473633,9.429776191711426
1702070877238543400,13.76254345703125,-1.034942865371704,-2.7639315128326416,9.35551643371582
1702070877255533300,13.779533203125,-0.983879566192627,-3.0480117797851562,9.272417068481445
1702070877272530000,13.796530029296875,-0.9246225953102112,-3.3651251792907715,9.168266296386719
1702070877289504500,13.81350439453125,-0.88996821641922,-3.731602668762207,9.028799057006836
1702070877306505200,13.830505126953126,-0.8789724111557007,-4.127176761627197,8.85606861114502
1702070877323495200,13.8474951171875,-0.8952801823616028,-4.502242088317871,8.669740676879883
1702070877340486400,13.864486328125,-0.9315007925033569,-4.817748069763184,8.4945707321167
1702070877357466000,13.881466064453125,-0.9874075055122375,-5.0623955726623535,8.344656944274902
1702070877374467300,13.89846728515625,-1.0494728088378906,-5.265537261962891,8.21028995513916
1702070877391457500,13.91545751953125,-1.1004276275634766,-5.465048789978027,8.072077751159668
1702070877408449500,13.932449462890625,-1.1265943050384521,-5.680295467376709,7.918406963348389
1702070877425441500,13.949441650390625,-1.1176220178604126,-5.898655414581299,7.7584075927734375
1702070877442426400,13.96642626953125,-1.08456552028656,-6.091768741607666,7.612504005432129
1702070877459419400,13.98341943359375,-1.0472767353057861,-6.253625869750977,7.485418796539307
1702070877476408000,14.000407958984376,-1.0177862644195557,-6.383894920349121,7.3787617683410645
1702070877493400600,14.017400634765625,-0.9926405549049377,-6.48472261428833,7.293776035308838
1702070877510394400,14.034394287109375,-0.964335560798645,-6.556008338928223,7.2335991859436035
1702070877527379000,14.05137890625,-0.9223219156265259,-6.586929798126221,7.21095085144043
1702070877544375300,14.068375244140626,-0.8733185529708862,-6.573161602020264,7.229590892791748
1702070877561362700,14.08536279296875,-0.8360686302185059,-6.530649662017822,7.272395610809326
1702070877578353700,14.102353759765625,-0.8126209378242493,-6.477142810821533,7.322730541229248
1702070877595343600,14.119343505859375,-0.792715847492218,-6.421022891998291,7.374155044555664
1702070877612334800,14.1363349609375,-0.7659088969230652,-6.359577178955078,7.430025100708008
1702070877629324800,14.15332470703125,-0.7332703471183777,-6.284988880157471,7.496488571166992
1702070877646315800,14.170315673828124,-0.7049242854118347,-6.1947126388549805,7.573951244354248
1702070877663306000,14.187305908203125,-0.6858841180801392,-6.093015670776367,7.657731533050537
1702070877680297200,14.204297119140625,-0.6747307777404785,-5.982396125793457,7.745437145233154
1702070877697286700,14.22128662109375,-0.6662293076515198,-5.859659194946289,7.8394293785095215
1702070877714277600,14.238277587890625,-0.6579912900924683,-5.721803665161133,7.941292762756348
1702070877731267800,14.255267822265624,-0.6605035662651062,-5.569589614868164,8.048572540283203
1702070877748259000,14.272259033203126,-0.6795700788497925,-5.411540508270264,8.154111862182617
1702070877765249000,14.2892490234375,-0.7024214267730713,-5.264459133148193,8.247920036315918
1702070877782240300,14.306240234375,-0.7182367444038391,-5.131644248962402,8.329854965209961
1702070877799229700,14.323229736328125,-0.718949019908905,-4.9991374015808105,8.409985542297363
1702070877816221200,14.34022119140625,-0.7220951318740845,-4.852555751800537,8.495139122009277
1702070877833211100,14.357211181640626,-0.7421801090240479,-4.699965000152588,8.578786849975586
1702070877850197800,14.37419775390625,-0.7749113440513611,-4.5604166984558105,8.650911331176758
1702070877867196200,14.391196044921875,-0.7886019945144653,-4.455092430114746,8.704388618469238
1702070877884182800,14.408182861328125,-0.7673647999763489,-4.393951892852783,8.737303733825684
1702070877901155300,14.4251552734375,-0.7233557105064392,-4.356762886047363,8.759651184082031
1702070877918164000,14.4421640625,-0.6935274600982666,-4.299866199493408,8.790124893188477
1702070877935154000,14.45915380859375,-0.708304762840271,-4.191880226135254,8.840958595275879
1702070877952145000,14.476144775390624,-0.7575258016586304,-4.037211894989014,8.908602714538574
1702070877969135000,14.493135009765625,-0.82023686170578,-3.867684841156006,8.97799301147461
1702070877986119700,14.51011962890625,-0.876483142375946,-3.694782018661499,9.045247077941895
1702070878003116300,14.5271162109375,-0.9249821901321411,-3.5024657249450684,9.116647720336914
1702070878020107300,14.544107177734375,-0.9758875966072083,-3.287801742553711,9.190980911254883
1702070878037097200,14.56109716796875,-1.0258984565734863,-3.065636157989502,9.262048721313477
1702070878054088200,14.578088134765625,-1.0704535245895386,-2.8465652465820312,9.326699256896973
1702070878071075800,14.595075927734374,-1.1053407192230225,-2.6423778533935547,9.382545471191406
1702070878088072000,14.612072021484375,-1.135345458984375,-2.457132577896118,9.42918872833252
1702070878105059300,14.629059326171875,-1.1693464517593384,-2.286789894104004,9.467804908752441
1702070878122058800,14.646058837890624,-1.2082154750823975,-2.1242306232452393,9.500736236572266
1702070878139040500,14.66304052734375,-1.2524359226226807,-1.9763484001159668,9.526887893676758
1702070878156029000,14.68002880859375,-1.2971454858779907,-1.8593941926956177,9.54443359375
1702070878173024000,14.69702392578125,-1.3406145572662354,-1.7907925844192505,9.55154037475586
1702070878190012400,14.714012451171875,-1.3782700300216675,-1.7800556421279907,9.548188209533691
1702070878207002400,14.73100244140625,-1.4161901473999023,-1.8154698610305786,9.535964012145996
1702070878223993300,14.747993408203126,-1.4621413946151733,-1.8748410940170288,9.517523765563965
1702070878240983300,14.7649833984375,-1.5203208923339844,-1.9476265907287598,9.49376106262207
1702070878257974500,14.781974609375,-1.5905307531356812,-2.0343542098999023,9.464022636413574
1702070878274964500,14.798964599609375,-1.6616629362106323,-2.1409337520599365,9.428223609924316
1702070878291955500,14.81595556640625,-1.7239270210266113,-2.2668890953063965,9.387513160705566
1702070878308946400,14.832946533203126,-1.7587530612945557,-2.388049364089966,9.35094165802002
1702070878325935600,14.849935546875,-1.749639630317688,-2.4923465251922607,9.32540225982666
1702070878342926300,14.86692626953125,-1.6999555826187134,-2.5834405422210693,9.309783935546875
1702070878359906800,14.88390673828125,-1.6295734643936157,-2.6794960498809814,9.295210838317871
1702070878376907500,14.900907470703125,-1.5436863899230957,-2.7974154949188232,9.275106430053711
1702070878393898800,14.917898681640626,-1.4325708150863647,-2.9312984943389893,9.251561164855957
1702070878410888700,14.934888671875,-1.2925288677215576,-3.0578370094299316,9.231202125549316
1702070878427879700,14.951879638671874,-1.1493864059448242,-3.1647894382476807,9.21407413482666
1702070878444869400,14.968869384765625,-1.041344404220581,-3.267484664916992,9.191041946411133
1702070878461868500,14.98586865234375,-0.9947196245193481,-3.389526605606079,9.15192699432373
1702070878478850800,15.002850830078126,-0.9920000433921814,-3.55483078956604,9.0892915725708
1702070878495841300,15.01984130859375,-0.993038535118103,-3.7665305137634277,9.00351333618164
1702070878512830700,15.036830810546874,-0.9789730310440063,-4.004688739776611,8.901697158813477
1702070878529823500,15.053823486328126,-0.9506161212921143,-4.250732421875,8.789978981018066
1702070878546812400,15.0708125,-0.9019815921783447,-4.492604732513428,8.67404556274414
1702070878563803600,15.0878037109375,-0.8387898206710815,-4.7239179611206055,8.556700706481934
1702070878580793600,15.104793701171875,-0.7744464874267578,-4.937161445617676,8.441609382629395
1702070878597784800,15.121784912109375,-0.7169660329818726,-5.1257781982421875,8.333575248718262
1702070878614770400,15.1387705078125,-0.66599440574646,-5.286483287811279,8.236848831176758
1702070878631765500,15.155765625,-0.617493748664856,-5.42231559753418,8.15188980102539
1702070878648755700,15.172755615234376,-0.5664694905281067,-5.529139995574951,8.0835542678833
1702070878665746700,15.18974658203125,-0.5138720273971558,-5.605720520019531,8.034173011779785
1702070878682736600,15.206736572265624,-0.4660964906215668,-5.656311988830566,8.00156307220459
1702070878699728000,15.223727783203126,-0.429556667804718,-5.681381702423096,7.985832214355469
1702070878716718000,15.240718017578125,-0.39398714900016785,-5.675268650054932,7.992010593414307
1702070878733696800,15.25769677734375,-0.3509393632411957,-5.631902694702148,8.024627685546875
1702070878750700800,15.27470068359375,-0.3102450966835022,-5.553295135498047,8.080890655517578
1702070878767698700,15.29169873046875,-0.296351820230484,-5.439134120941162,8.158683776855469
1702070878784680000,15.308679931640626,-0.3179727792739868,-5.3015456199646,8.247946739196777
1702070878801668400,15.32566845703125,-0.35494092106819153,-5.156624794006348,8.337828636169434
1702070878818663200,15.3426630859375,-0.387040376663208,-5.0052947998046875,8.428130149841309
1702070878835652000,15.359652099609375,-0.4147096872329712,-4.83598518371582,8.525102615356445
1702070878852642000,15.37664208984375,-0.46201542019844055,-4.64479398727417,8.628355979919434
1702070878869632800,15.3936328125,-0.543061375617981,-4.446066856384277,8.727753639221191
1702070878886623000,15.410623046875,-0.6326430439949036,-4.267611980438232,8.81041145324707
1702070878903614000,15.427614013671874,-0.6924512982368469,-4.121057510375977,8.875445365905762
1702070878920604000,15.44460400390625,-0.7260792255401611,-3.9863839149475098,8.934074401855469
1702070878937595100,15.46159521484375,-0.7796671986579895,-3.819160223007202,9.002347946166992
1702070878954585000,15.478585205078126,-0.8954543471336365,-3.5865752696990967,9.086844444274902
1702070878971576000,15.495576171875,-1.0730336904525757,-3.300279140472412,9.175666809082031
1702070878988566000,15.51256591796875,-1.2726892232894897,-3.001408338546753,9.252456665039062
1702070879005557000,15.529556884765626,-1.4371298551559448,-2.713324785232544,9.317116737365723
1702070879022547200,15.546547119140625,-1.548112392425537,-2.4147441387176514,9.381282806396484
1702070879039538200,15.5635380859375,-1.608411192893982,-2.085979700088501,9.449753761291504
1702070879056528100,15.580528076171875,-1.6322309970855713,-1.7310360670089722,9.51711368560791
1702070879073518800,15.597518798828125,-1.6364182233810425,-1.36166250705719,9.576229095458984
1702070879090492400,15.614492431640626,-1.6100496053695679,-0.9931318163871765,9.62587833404541
1702070879107500000,15.6315,-1.5418249368667603,-0.6475476026535034,9.666414260864258
1702070879124490000,15.648489990234374,-1.4468929767608643,-0.33553048968315125,9.69690990447998
1702070879141481000,15.66548095703125,-1.3509448766708374,-0.05815202370285988,9.716361045837402
1702070879158471000,15.682470947265625,-1.2744170427322388,0.18671125173568726,9.725077629089355
1702070879175462100,15.699462158203126,-1.2268178462982178,0.39703795313835144,9.724884986877441
1702070879192452400,15.716452392578125,-1.1993522644042969,0.5685338377952576,9.719795227050781
1702070879209443300,15.733443359375,-1.1727936267852783,0.6997857093811035,9.71447467803955
1702070879226433000,15.75043310546875,-1.1451889276504517,0.7877638339996338,9.711029052734375
1702070879243424300,15.76742431640625,-1.1234203577041626,0.8230526447296143,9.710644721984863
1702070879260414000,15.7844140625,-1.1150768995285034,0.7952315807342529,9.713923454284668
1702070879277394400,15.80139453125,-1.122571349143982,0.6991103887557983,9.720452308654785
1702070879294395100,15.81839501953125,-1.1489416360855103,0.5432119369506836,9.72733211517334
1702070879311386000,15.83538623046875,-1.1986231803894043,0.3362289369106293,9.730691909790039
1702070879328376000,15.8523759765625,-1.2805625200271606,0.08595757931470871,9.725683212280273
1702070879345363000,15.869363037109375,-1.381875991821289,-0.2056889683008194,9.710005760192871
1702070879362361300,15.886361328125,-1.4639919996261597,-0.559130072593689,9.684019088745117
1702070879379348200,15.90334814453125,-1.4908108711242676,-0.9996157884597778,9.644394874572754
1702070879396338400,15.92033837890625,-1.4651380777359009,-1.50960111618042,9.581785202026367
1702070879413329200,15.9373291015625,-1.4060087203979492,-2.0318667888641357,9.493724822998047
1702070879430319400,15.9543193359375,-1.323748230934143,-2.509406089782715,9.390777587890625
1702070879447310300,15.971310302734375,-1.2232609987258911,-2.924980878829956,9.28354549407959
1702070879464300000,15.988300048828124,-1.1261509656906128,-3.29734468460083,9.170355796813965
1702070879481280000,16.005280029296873,-1.0542547702789307,-3.6584203243255615,9.041051864624023
1702070879498271500,16.022271484375,-1.0211127996444702,-4.027775287628174,8.8865327835083
1702070879515272400,16.0392724609375,-1.019058108329773,-4.405243873596191,8.705829620361328
1702070879532262100,16.05626220703125,-1.0223108530044556,-4.772725582122803,8.509529113769531
1702070879549253000,16.073253173828125,-1.0078548192977905,-5.112133026123047,8.3118257522583
1702070879566243300,16.090243408203126,-0.9642094373703003,-5.41513729095459,8.12297534942627
1702070879583223800,16.107223876953125,-0.8988451361656189,-5.6834716796875,7.94520902633667
1702070879600222000,16.124221923828124,-0.8290241360664368,-5.926708698272705,7.773221969604492
1702070879617218000,16.141218017578126,-0.768616259098053,-6.142826557159424,7.609930992126465
1702070879634203000,16.158202880859374,-0.7211938500404358,-6.327544689178467,7.461780548095703
1702070879651199000,16.175198974609376,-0.6879986524581909,-6.475636005401611,7.336819171905518
1702070879668186000,16.19218603515625,-0.6761279106140137,-6.588292121887207,7.236944675445557
1702070879685175000,16.209175048828126,-0.6870306134223938,-6.668994903564453,7.161608695983887
1702070879702149400,16.2261494140625,-0.711023211479187,-6.7240166664123535,7.107614517211914
1702070879719161000,16.2431611328125,-0.7354753613471985,-6.762225151062012,7.0687713623046875
1702070879736148000,16.26014794921875,-0.7539768815040588,-6.787137031555176,7.042897701263428
1702070879753139700,16.2771396484375,-0.7645223140716553,-6.795295238494873,7.033888339996338
1702070879770129400,16.29412939453125,-0.7728566527366638,-6.782255172729492,7.045551776885986
1702070879787120000,16.3111201171875,-0.7854930758476257,-6.745020389556885,7.079818248748779
1702070879804099800,16.328099853515624,-0.7973760366439819,-6.688194751739502,7.132208347320557
1702070879821101600,16.3451015625,-0.7959660291671753,-6.6193461418151855,7.196304798126221
1702070879838089000,16.3620888671875,-0.7678581476211548,-6.546173572540283,7.265955924987793
1702070879855084800,16.379084716796875,-0.7134822607040405,-6.466823577880859,7.342156410217285
1702070879872062500,16.3960625,-0.6523615717887878,-6.364275932312012,7.436835765838623
1702070879889063400,16.4130634765625,-0.62712562084198,-6.217805862426758,7.561861515045166
1702070879906053400,16.430053466796874,-0.6443982720375061,-6.034092426300049,7.707826137542725
1702070879923044400,16.44704443359375,-0.6829659342765808,-5.838326930999756,7.853891372680664
1702070879940032000,16.464031982421876,-0.7004294991493225,-5.657571315765381,7.983572483062744
1702070879957028000,16.481028076171874,-0.6717278957366943,-5.476177215576172,8.111495971679688
1702070879974015500,16.498015380859375,-0.6133553981781006,-5.262511730194092,8.256263732910156
1702070879991006500,16.51500634765625,-0.5582553148269653,-4.990269660949707,8.427435874938965
1702070880007996700,16.53199658203125,-0.545890212059021,-4.656576156616211,8.61709976196289
1702070880024987400,16.5489873046875,-0.582366943359375,-4.288394927978516,8.803786277770996
1702070880041964800,16.56596484375,-0.6539362668991089,-3.9145212173461914,8.971343994140625
1702070880058968600,16.582968505859377,-0.7482290267944336,-3.5487465858459473,9.114969253540039
1702070880075958500,16.59995849609375,-0.8525393009185791,-3.196560859680176,9.235328674316406
1702070880092948700,16.61694873046875,-0.9571389555931091,-2.8584043979644775,9.335391998291016
1702070880109940200,16.633940185546876,-1.0606919527053833,-2.535818338394165,9.417040824890137
1702070880126928100,16.65092822265625,-1.154857873916626,-2.237077474594116,9.48144817352295
1702070880143912200,16.667912109375,-1.2310588359832764,-1.9710499048233032,9.530769348144531
1702070880160911400,16.684911376953124,-1.2870558500289917,-1.73465895652771,9.56925106048584
1702070880177897500,16.7018974609375,-1.3227595090866089,-1.5214402675628662,9.600608825683594
1702070880194899700,16.718899658203124,-1.338456392288208,-1.3248282670974731,9.627538681030273
1702070880211882200,16.73588232421875,-1.347335934638977,-1.1434903144836426,9.649519920349121
1702070880228873500,16.75287353515625,-1.362745761871338,-0.9766335487365723,9.665672302246094
1702070880245853000,16.76985302734375,-1.3864591121673584,-0.8238493204116821,9.676523208618164
1702070880262854400,16.7868544921875,-1.4297548532485962,-0.6852238178253174,9.681032180786133
1702070880279844400,16.80384423828125,-1.4986572265625,-0.5715901851654053,9.677985191345215
1702070880296835300,16.82083544921875,-1.5866647958755493,-0.4906270205974579,9.668396949768066
1702070880313825500,16.837825439453123,-1.684052586555481,-0.4442632794380188,9.654156684875488
1702070880330814000,16.85481396484375,-1.7838324308395386,-0.4392259120941162,9.63645076751709
1702070880347808800,16.871808837890626,-1.8899166584014893,-0.48188164830207825,9.614163398742676
1702070880364799000,16.888799072265623,-1.9949356317520142,-0.5765050649642944,9.587699890136719
1702070880381789700,16.905789794921876,-2.081221103668213,-0.7201650142669678,9.559602737426758
1702070880398778000,16.922778076171873,-2.1307640075683594,-0.9051960706710815,9.53292179107666
1702070880415768600,16.9397685546875,-2.1439366340637207,-1.1239503622055054,9.506650924682617
1702070880432759300,16.95675927734375,-2.139727830886841,-1.3678128719329834,9.475587844848633
1702070880449749200,16.973749267578125,-2.140983819961548,-1.6265510320663452,9.434332847595215
1702070880466740500,16.990740478515626,-2.133394241333008,-1.9140180349349976,9.381966590881348
1702070880483730400,17.00773046875,-2.0866410732269287,-2.2569942474365234,9.316010475158691
1702070880500721700,17.0247216796875,-1.9632799625396729,-2.654012680053711,9.237850189208984
1702070880517711400,17.04171142578125,-1.7663462162017822,-3.075129747390747,9.14656925201416
1702070880534700300,17.0587001953125,-1.5313975811004639,-3.483675718307495,9.041844367980957
1702070880551694300,17.0756943359375,-1.3013429641723633,-3.865419387817383,8.921947479248047
1702070880568672800,17.0926728515625,-1.1266175508499146,-4.199466228485107,8.793825149536133
1702070880585671000,17.1096708984375,-1.0350589752197266,-4.481659889221191,8.664843559265137
1702070880602664400,17.12666455078125,-0.9977788329124451,-4.7499237060546875,8.525186538696289
1702070880619654100,17.143654052734377,-0.9692894816398621,-5.033128261566162,8.364460945129395
1702070880636645600,17.160645751953126,-0.921085000038147,-5.32380485534668,8.188091278076172
1702070880653635600,17.177635498046875,-0.8586928844451904,-5.597387313842773,8.010494232177734
1702070880670626300,17.194626220703125,-0.7962586879730225,-5.8441081047058105,7.838908672332764
1702070880687616300,17.2116162109375,-0.7472575306892395,-6.06531286239624,7.673961639404297
1702070880704607500,17.228607421875,-0.7153589129447937,-6.263626575469971,7.516073703765869
1702070880721597200,17.24559716796875,-0.6950401067733765,-6.4406328201293945,7.366905689239502
1702070880738573000,17.262572998046874,-0.6823744773864746,-6.597935199737549,7.227567195892334
1702070880755578600,17.27957861328125,-0.6735723614692688,-6.734078884124756,7.1017303466796875
1702070880772569300,17.2965693359375,-0.6617870330810547,-6.846229076385498,6.994803428649902
1702070880789548800,17.313548828125,-0.6451683640480042,-6.935378551483154,6.907993793487549
1702070880806550500,17.330550537109374,-0.6238064169883728,-6.996559143066406,6.848001956939697
1702070880823540500,17.34754052734375,-0.6073827743530273,-7.037765026092529,6.807131767272949
1702070880840531200,17.36453125,-0.599341094493866,-7.069345474243164,6.77504825592041
1702070880857521400,17.381521484375,-0.5930767059326172,-7.094795227050781,6.748946666717529
1702070880874512100,17.39851220703125,-0.5885915756225586,-7.110104560852051,6.733211040496826
1702070880891498500,17.41549853515625,-0.5816470980644226,-7.109231472015381,6.734732151031494
1702070880908493600,17.43249365234375,-0.5664349794387817,-7.091336727142334,6.754864692687988
1702070880925483300,17.449483154296875,-0.5410095453262329,-7.052777290344238,6.797186851501465
1702070880942472400,17.466472412109376,-0.5113106966018677,-6.9871296882629395,6.8669281005859375
1702070880959466000,17.483466064453125,-0.49339598417282104,-6.889462947845459,6.9662041664123535
1702070880976455200,17.500455078125,-0.5019639134407043,-6.768947601318359,7.082760810852051
1702070880993445000,17.517445068359375,-0.53250652551651,-6.646578788757324,7.195523262023926
1702070881010436400,17.534436279296877,-0.5639522671699524,-6.538092613220215,7.291874885559082
1702070881027426300,17.55142626953125,-0.5610702037811279,-6.4294023513793945,7.388105392456055
1702070881044406500,17.568406494140625,-0.5139594674110413,-6.280031681060791,7.518853664398193
1702070881061392000,17.585391845703125,-0.4533703029155731,-6.046865463256836,7.711419582366943
1702070881078398200,17.602398193359374,-0.42848193645477295,-5.7079973220825195,7.966886043548584
1702070881095388200,17.61938818359375,-0.4669206440448761,-5.274799823760986,8.258000373840332
1702070881112379100,17.636379150390624,-0.5549896955490112,-4.782400131225586,8.547324180603027
1702070881129369300,17.653369384765625,-0.6641425490379333,-4.273945331573486,8.805022239685059
1702070881146360300,17.6703603515625,-0.766270637512207,-3.768043041229248,9.025010108947754
1702070881163350300,17.687350341796876,-0.8514323830604553,-3.2742996215820312,9.20815658569336
1702070881180338700,17.704338623046876,-0.9286565780639648,-2.801881790161133,9.355381965637207
1702070881197331200,17.721331298828126,-1.0027841329574585,-2.3527235984802246,9.470757484436035
1702070881214310000,17.738309814453125,-1.0727202892303467,-1.9358701705932617,9.557082176208496
1702070881231312100,17.75531201171875,-1.1291289329528809,-1.5623281002044678,9.61874771118164
1702070881248303400,17.772303466796874,-1.1737794876098633,-1.2267824411392212,9.661954879760742
1702070881265280300,17.7892802734375,-1.2193602323532104,-0.9219536185264587,9.690163612365723
1702070881282276000,17.806276123046874,-1.2797292470932007,-0.6409808993339539,9.70502758026123
1702070881299274200,17.823274169921874,-1.357772707939148,-0.381071537733078,9.708107948303223
1702070881316265200,17.84026513671875,-1.44887113571167,-0.1427103728055954,9.701366424560547
1702070881333255400,17.85725537109375,-1.541107416152954,0.06478159874677658,9.68797779083252
1702070881350246100,17.87424609375,-1.6192455291748047,0.23265574872493744,9.672643661499023
1702070881367236400,17.891236328125,-1.702248454093933,0.362374484539032,9.654383659362793
1702070881384227000,17.90822705078125,-1.824917197227478,0.45629042387008667,9.627958297729492
1702070881401217300,17.92521728515625,-1.9860068559646606,0.5181004405021667,9.592885971069336
1702070881418208300,17.942208251953126,-2.136777877807617,0.5375804305076599,9.559358596801758
1702070881435198500,17.959198486328123,-2.2363181114196777,0.48398691415786743,9.539432525634766
1702070881452189200,17.976189208984376,-2.269969940185547,0.34463608264923096,9.53753662109375
1702070881469179000,17.993178955078125,-2.2627391815185547,0.12520644068717957,9.544654846191406
1702070881486171400,18.01017138671875,-2.2518506050109863,-0.15612855553627014,9.54677677154541
1702070881503160000,18.02716015625,-2.25182843208313,-0.4740539789199829,9.53628158569336
1702070881520149800,18.044149658203125,-2.2495269775390625,-0.8316056728363037,9.51231575012207
1702070881537142500,18.061142578125,-2.224918842315674,-1.2589552402496338,9.471056938171387
1702070881554129400,18.07812939453125,-2.154082775115967,-1.770112156867981,9.405465126037598
1702070881571124700,18.095124755859374,-2.0178332328796387,-2.347022533416748,9.308918952941895
1702070881588113200,18.112113037109374,-1.8112763166427612,-2.942060708999634,9.181485176086426
1702070881605102800,18.129102783203123,-1.565169334411621,-3.4932754039764404,9.032352447509766
1702070881622094000,18.146093994140625,-1.3227776288986206,-3.969862461090088,8.87279987335205
1702070881639081000,18.1630810546875,-1.1331535577774048,-4.374523639678955,8.707216262817383
1702070881656069600,18.180069580078126,-1.0097241401672363,-4.735931396484375,8.531560897827148
1702070881673067300,18.1970673828125,-0.9235162734985352,-5.0900092124938965,8.33517074584961
1702070881690038000,18.2140380859375,-0.8443982005119324,-5.452969074249268,8.110993385314941
1702070881707046100,18.231046142578126,-0.7551562190055847,-5.812536716461182,7.866401195526123
1702070881724034300,18.248034423828123,-0.6468602418899536,-6.133551597595215,7.628710746765137
1702070881741029400,18.265029296875,-0.5410276651382446,-6.405818939208984,7.410053253173828
1702070881758016500,18.2820166015625,-0.45136764645576477,-6.638246059417725,7.208751678466797
1702070881775010300,18.29901025390625,-0.3865392804145813,-6.838944435119629,7.022503852844238
1702070881791999000,18.3159990234375,-0.3417811691761017,-7.015510559082031,6.848498821258545
1702070881808988700,18.33298876953125,-0.3063370883464813,-7.1657514572143555,6.692852973937988
1702070881825980000,18.34997998046875,-0.2713821530342102,-7.282011985778809,6.567707538604736
1702070881842969900,18.366969970703124,-0.231382817029953,-7.363499164581299,6.4777679443359375
1702070881859957000,18.38395703125,-0.19501399993896484,-7.416395664215088,6.418346881866455
1702070881876951600,18.40095166015625,-0.17103077471256256,-7.446119785308838,6.384527206420898
1702070881893933800,18.417933837890626,-0.15650248527526855,-7.454885005950928,6.374662399291992
1702070881910931700,18.434931640625,-0.14751824736595154,-7.442409992218018,6.3894362449646
1702070881927923000,18.4519228515625,-0.14519572257995605,-7.405704975128174,6.431994438171387
1702070881944910300,18.468910400390627,-0.14797520637512207,-7.347737789154053,6.498073101043701
1702070881961906400,18.485906494140625,-0.1504383385181427,-7.2796101570129395,6.574251651763916
1702070881978893600,18.5028935546875,-0.14966972172260284,-7.213488578796387,6.646749973297119
1702070881995884800,18.519884765625,-0.14328309893608093,-7.154672145843506,6.710160732269287
1702070882012864300,18.5368642578125,-0.1366836428642273,-7.0957231521606445,6.772604465484619
1702070882029865700,18.55386572265625,-0.14690983295440674,-7.019580364227295,6.851279258728027
1702070882046855700,18.570855712890626,-0.18856540322303772,-6.917117595672607,6.953706741333008
1702070882063846700,18.5878466796875,-0.2635875344276428,-6.799928665161133,7.065945625305176
1702070882080836600,18.604836669921873,-0.34646478295326233,-6.6884236335754395,7.1680588722229
1702070882097827300,18.621827392578126,-0.3885495364665985,-6.595892906188965,7.251161098480225
1702070882114817500,18.638817626953124,-0.3706468343734741,-6.488337516784668,7.348483085632324
1702070882131808500,18.65580859375,-0.3105017840862274,-6.314243793487549,7.50133752822876
1702070882148798700,18.672798828125,-0.2608022093772888,-6.040533542633057,7.725287914276123
1702070882165789700,18.689789794921875,-0.2760534882545471,-5.664280414581299,8.004737854003906
1702070882182779600,18.706779541015624,-0.36227187514305115,-5.219973564147949,8.297996520996094
1702070882199770600,18.7237705078125,-0.49180054664611816,-4.7585039138793945,8.564513206481934
1702070882216760600,18.740760498046875,-0.6291475892066956,-4.314969539642334,8.787568092346191
1702070882233751600,18.75775146484375,-0.7413960099220276,-3.901244640350342,8.97032642364502
1702070882250741200,18.7747412109375,-0.820092499256134,-3.5284976959228516,9.116647720336914
1702070882267732500,18.791732421875,-0.8735927939414978,-3.197749376296997,9.232950210571289
1702070882284722400,18.808722412109375,-0.9156131744384766,-2.903707265853882,9.325570106506348
1702070882301704700,18.82570458984375,-0.9565951824188232,-2.6400551795959473,9.399530410766602
1702070882318703600,18.84270361328125,-1.0022765398025513,-2.3988866806030273,9.459223747253418
1702070882335694300,18.8596943359375,-1.059166431427002,-2.173429012298584,9.507391929626465
1702070882352684500,18.8766845703125,-1.1365876197814941,-1.9631834030151367,9.544118881225586
1702070882369675500,18.893675537109374,-1.2397688627243042,-1.776586890220642,9.567802429199219
1702070882386662700,18.91066259765625,-1.3657066822052002,-1.6215500831604004,9.578181266784668
1702070882403659000,18.927658935546877,-1.5111936330795288,-1.499562382698059,9.576204299926758
1702070882420646400,18.944646484375,-1.669787049293518,-1.4062703847885132,9.56401252746582
1702070882437637000,18.96163720703125,-1.83780038356781,-1.3381494283676147,9.542953491210938
1702070882454627300,18.97862744140625,-2.003577709197998,-1.2936350107192993,9.5156888961792
1702070882471618300,18.995618408203125,-2.152693510055542,-1.2696770429611206,9.486302375793457
1702070882488608300,19.012608154296874,-2.2730257511138916,-1.262780785560608,9.459115028381348
1702070882505599200,19.02959912109375,-2.3501603603363037,-1.2741880416870117,9.438713073730469
1702070882522589200,19.046589111328124,-2.369131088256836,-1.3032342195510864,9.430000305175781
1702070882539580200,19.063580078125,-2.329965829849243,-1.348006248474121,9.433465003967285
1702070882556559400,19.080559326171876,-2.253401756286621,-1.4143942594528198,9.442340850830078
1702070882573561300,19.097561279296876,-2.1635751724243164,-1.5094027519226074,9.448637962341309
1702070882590548700,19.114548828125,-2.068580150604248,-1.6518099308013916,9.446091651916504
1702070882607544300,19.13154443359375,-1.9573842287063599,-1.869023084640503,9.429289817810059
1702070882624521500,19.148521484375,-1.819333791732788,-2.187592029571533,9.388322830200195
1702070882641522700,19.165522705078125,-1.6563776731491089,-2.6019175052642822,9.312496185302734
1702070882658500400,19.182500244140623,-1.4864728450775146,-3.0472614765167236,9.205471992492676
1702070882675498800,19.199498779296874,-1.3294692039489746,-3.461359739303589,9.082269668579102
1702070882692493800,19.216493896484376,-1.1897412538528442,-3.8046319484710693,8.963560104370117
1702070882709485300,19.2334853515625,-1.0767332315444946,-4.077168941497803,8.857396125793457
1702070882726475000,19.25047509765625,-0.990664541721344,-4.312192916870117,8.755552291870117
1702070882743466000,19.267466064453124,-0.9254868030548096,-4.559807300567627,8.636419296264648
1702070882760455700,19.28445556640625,-0.8713123798370361,-4.842647075653076,8.486796379089355
1702070882777447000,19.301447021484375,-0.8140283226966858,-5.145772933959961,8.312311172485352
1702070882794437000,19.31843701171875,-0.7525097727775574,-5.436453819274902,8.131103515625
1702070882811425300,19.33542529296875,-0.6824461221694946,-5.688607692718506,7.963048458099365
1702070882828410400,19.352410400390625,-0.6134752631187439,-5.9036970138549805,7.810641288757324
1702070882845408800,19.36940869140625,-0.5613628625869751,-6.099597930908203,7.662628650665283
1702070882862390500,19.386390625,-0.528154730796814,-6.285721302032471,7.513115406036377
1702070882879390000,19.403389892578126,-0.5082411766052246,-6.462405204772949,7.363093376159668
1702070882896379600,19.420379638671875,-0.48987242579460144,-6.626489162445068,7.217047214508057
1702070882913371000,19.437370849609376,-0.45424944162368774,-6.773777008056641,7.081366062164307
1702070882930360800,19.45436083984375,-0.3849610984325409,-6.904635429382324,6.958011627197266
1702070882947351800,19.471351806640627,-0.2928469777107239,-7.0182061195373535,6.84800386428833
1702070882964329700,19.488329833984373,-0.18842828273773193,-7.109677314758301,6.756710052490234
1702070882981319700,19.505319580078126,-0.07710518687963486,-7.185400485992432,6.678338050842285
1702070882998313200,19.522313232421876,-0.0002610781812109053,-7.23282527923584,6.627395153045654
1702070883015305700,19.5393056640625,0.0935811847448349,-7.298633098602295,6.554183483123779
1702070883032294400,19.55629443359375,0.1292056441307068,-7.316311359405518,6.533836841583252
1702070883049284400,19.573284423828124,0.14687971770763397,-7.29038667678833,6.562380313873291
1702070883066276900,19.59027685546875,0.14873358607292175,-7.214746475219727,6.645405292510986
1702070883083264500,19.607264404296874,0.12422702461481094,-7.09740686416626,6.771077632904053
1702070883100257500,19.624257568359376,0.06435621529817581,-6.960928916931152,6.912124156951904
1702070883117248500,19.64124853515625,-0.009490324184298515,-6.831887245178223,7.039982318878174
1702070883134237400,19.658237548828126,-0.05006503313779831,-6.724573135375977,7.142389297485352
1702070883151232800,19.675232666015624,-0.024611223489046097,-6.624483585357666,7.235450267791748
1702070883168217300,19.69221728515625,0.046425431966781616,-6.496401786804199,7.350558280944824
1702070883185209000,19.709208984375,0.10014000535011292,-6.310273170471191,7.510429382324219
1702070883202200800,19.726200927734375,0.07586470246315002,-6.057213306427002,7.716251373291016
1702070883219189800,19.743189697265624,-0.041654981672763824,-5.748469829559326,7.949180603027344
1702070883236183300,19.760183349609374,-0.23254260420799255,-5.403159141540527,8.184616088867188
1702070883253180400,19.777180419921876,-0.4563377797603607,-5.04923677444458,8.398397445678711
1702070883270170000,19.794170166015626,-0.6480913758277893,-4.7123332023620605,8.579627990722656
1702070883287147000,19.81114697265625,-0.7841765284538269,-4.392200469970703,8.736688613891602
1702070883304160500,19.828160400390626,-0.8836610913276672,-4.075109004974365,8.879680633544922
1702070883321142300,19.845142333984374,-0.9802500605583191,-3.7570345401763916,9.008880615234375
1702070883338129700,19.862129638671874,-1.1088274717330933,-3.4384207725524902,9.120519638061523
1702070883355126000,19.8791259765625,-1.2674132585525513,-3.1227548122406006,9.212936401367188
1702070883372110600,19.896110595703124,-1.4280123710632324,-2.809389114379883,9.290007591247559
1702070883389106700,19.913106689453127,-1.5555933713912964,-2.4979288578033447,9.358235359191895
1702070883406094000,19.930093994140623,-1.6426899433135986,-2.2026426792144775,9.417329788208008
1702070883423085000,19.9470849609375,-1.7205321788787842,-1.9448682069778442,9.460091590881348
1702070883440074500,19.964074462890625,-1.816365122795105,-1.7371164560317993,9.48258113861084
1702070883457066200,19.981066162109375,-1.9286473989486694,-1.5698399543762207,9.489575386047363
1702070883474056000,19.998055908203124,-2.0355818271636963,-1.4289799928665161,9.489498138427734
1702070883491047000,20.015046875,-2.123206615447998,-1.3083680868148804,9.487691879272461
1702070883508037400,20.032037353515626,-2.1959218978881836,-1.2026641368865967,9.485128402709961
1702070883525027800,20.04902783203125,-2.249485969543457,-1.1265552043914795,9.481919288635254
1702070883542007300,20.06600732421875,-2.276636838912964,-1.0975807905197144,9.478837966918945
1702070883559008800,20.0830087890625,-2.27380633354187,-1.123136043548584,9.476522445678711
1702070883575998700,20.099998779296875,-2.2417242527008057,-1.1953555345535278,9.47533130645752
1702070883592989700,20.11698974609375,-2.186992645263672,-1.3086183071136475,9.473158836364746
1702070883609980000,20.13397998046875,-2.1098930835723877,-1.4802054166793823,9.465384483337402
1702070883626970600,20.150970703125,-2.008061408996582,-1.7134289741516113,9.448172569274902
1702070883643961300,20.16796142578125,-1.8858212232589722,-2.000890016555786,9.416805267333984
1702070883660951600,20.18495166015625,-1.750538945198059,-2.3359732627868652,9.36562728881836
1702070883677942000,20.20194189453125,-1.617963194847107,-2.704554319381714,9.289978981018066
1702070883694919200,20.218919189453125,-1.491162896156311,-3.0991504192352295,9.187374114990234
1702070883711922700,20.235922607421877,-1.354591727256775,-3.536364793777466,9.049602508544922
1702070883728913400,20.252913330078126,-1.1869871616363525,-4.023747444152832,8.867730140686035
1702070883745903600,20.269903564453124,-0.9840858578681946,-4.532284259796143,8.644425392150879
1702070883762894600,20.28689453125,-0.7636598348617554,-5.00120210647583,8.404814720153809
1702070883779884500,20.303884521484374,-0.5695924758911133,-5.384532928466797,8.180374145507812
1702070883796875500,20.32087548828125,-0.4410455524921417,-5.673557758331299,7.990767478942871
1702070883813865700,20.33786572265625,-0.38434335589408875,-5.892669200897217,7.833571910858154
1702070883830846000,20.354845947265623,-0.3855747580528259,-6.077386856079102,7.691086292266846
1702070883847846700,20.3718466796875,-0.4357473850250244,-6.247830867767334,7.55055046081543
1702070883864837600,20.388837646484376,-0.5183545351028442,-6.401060581207275,7.415785789489746
1702070883881824000,20.405823974609376,-0.6117252111434937,-6.524271488189697,7.300396919250488
1702070883898822100,20.422822265625,-0.6945784687995911,-6.612808704376221,7.212798118591309
1702070883915808300,20.439808349609375,-0.7542990446090698,-6.666977405548096,7.156714916229248
1702070883932799500,20.456799560546877,-0.7853571176528931,-6.685429573059082,7.136130332946777
1702070883949789400,20.47378955078125,-0.7995956540107727,-6.671011447906494,7.148033618927002
1702070883966780400,20.490780517578123,-0.8009767532348633,-6.62988805770874,7.186038494110107
1702070883983770400,20.507770263671876,-0.7859517931938171,-6.5736823081970215,7.2391357421875
1702070884000761300,20.52476123046875,-0.7578845620155334,-6.509548664093018,7.299829959869385
1702070884017750800,20.541750732421875,-0.725369930267334,-6.44075870513916,7.363869667053223
1702070884034742800,20.55874267578125,-0.6948059797286987,-6.3693132400512695,7.428675174713135
1702070884051732000,20.57573193359375,-0.6702827215194702,-6.292871952056885,7.495772838592529
1702070884068723200,20.59272314453125,-0.6571516394615173,-6.206425666809082,7.568655967712402
1702070884085713000,20.609712890625,-0.6600273251533508,-6.109004020690918,7.6472578048706055
1702070884102704000,20.6267041015625,-0.675037682056427,-6.007649898529053,7.725839138031006
1702070884119693800,20.64369384765625,-0.6896604299545288,-5.909585952758789,7.7998270988464355
1702070884136685000,20.66068505859375,-0.6961233615875244,-5.811900615692139,7.872313976287842
1702070884153674800,20.6776748046875,-0.6953421235084534,-5.703913688659668,7.9509735107421875
1702070884170666000,20.694666015625,-0.6890581250190735,-5.578288555145264,8.040151596069336
1702070884187656000,20.711656005859375,-0.6809942722320557,-5.439418315887451,8.135421752929688
1702070884204647000,20.72864697265625,-0.6671761274337769,-5.297603130340576,8.22960376739502
1702070884221636900,20.745636962890625,-0.6420792937278748,-5.168433666229248,8.313311576843262
1702070884238627600,20.762627685546875,-0.6071924567222595,-5.061814785003662,8.381257057189941
1702070884255615200,20.779615234375,-0.5686937570571899,-4.981976509094238,8.43164348602295
1702070884272611300,20.796611328125,-0.5398430228233337,-4.929836750030518,8.46412467956543
1702070884289599000,20.813598876953126,-0.5413528084754944,-4.891540050506592,8.486218452453613
1702070884306589400,20.83058935546875,-0.5756981372833252,-4.848639965057373,8.50854778289795
1702070884323579600,20.84757958984375,-0.6128963828086853,-4.804450988769531,8.530987739562988
1702070884340570600,20.864570556640626,-0.6450508236885071,-4.769603729248047,8.548152923583984
1702070884357560800,20.881560791015627,-0.6753411293029785,-4.752142429351807,8.555535316467285
1702070884374549800,20.8985498046875,-0.6942276358604431,-4.763036251068115,8.54796314239502
1702070884391543600,20.91554345703125,-0.6931886076927185,-4.8013482093811035,8.526585578918457
1702070884408534300,20.9325341796875,-0.6703891754150391,-4.8386735916137695,8.507288932800293
1702070884425525000,20.94952490234375,-0.6546922922134399,-4.837950706481934,8.50892162322998
1702070884442513700,20.966513671875,-0.6756036877632141,-4.7857232093811035,8.536775588989258
1702070884459503600,20.983503662109374,-0.7314258813858032,-4.696676731109619,8.581513404846191
1702070884476494300,21.000494384765624,-0.8059691190719604,-4.605413913726807,8.624194145202637
1702070884493484500,21.017484619140625,-0.8841434717178345,-4.538719177246094,8.65184497833252
1702070884510475300,21.034475341796874,-0.961022675037384,-4.499179840087891,8.664289474487305
1702070884527468800,21.05146875,-1.038446307182312,-4.4585981369018555,8.676326751708984
1702070884544441300,21.06844140625,-1.1203768253326416,-4.386596202850342,8.702796936035156
1702070884561447700,21.08544775390625,-1.2106105089187622,-4.270871162414551,8.748154640197754
1702070884578437000,21.10243701171875,-1.308401107788086,-4.108591079711914,8.811566352844238
1702070884595427000,21.119427001953124,-1.4094234704971313,-3.9123964309692383,8.884976387023926
1702070884612418300,21.136418212890625,-1.5095757246017456,-3.706845998764038,8.956371307373047
1702070884629397500,21.1533974609375,-1.6044725179672241,-3.5076143741607666,9.019889831542969
1702070884646388500,21.170388427734373,-1.6947664022445679,-3.3094818592071533,9.0780611038208
1702070884663389200,21.18738916015625,-1.7801556587219238,-3.1120171546936035,9.131402015686035
1702070884680380400,21.20438037109375,-1.86115300655365,-2.9236581325531006,9.177389144897461
1702070884697370000,21.2213701171875,-1.9410851001739502,-2.748218297958374,9.214967727661133
1702070884714360800,21.23836083984375,-2.0236611366271973,-2.591313123703003,9.242618560791016
1702070884731350800,21.255350830078125,-2.09546160697937,-2.4603536128997803,9.2623872756958
1702070884748342300,21.27234228515625,-2.150604724884033,-2.357602834701538,9.276461601257324
1702070884765331700,21.289331787109376,-2.1861588954925537,-2.282498598098755,9.28692626953125
1702070884782312400,21.3063125,-2.207975387573242,-2.229440689086914,9.29465103149414
1702070884799302400,21.323302490234376,-2.236665964126587,-2.1852214336395264,9.29829216003418
1702070884816293600,21.340293701171873,-2.271352767944336,-2.145348072052002,9.299171447753906
1702070884833293600,21.35729345703125,-2.2912795543670654,-2.121100425720215,9.299843788146973
1702070884850284500,21.374284423828126,-2.2763655185699463,-2.1338303089141846,9.300594329833984
1702070884867264000,21.391263916015625,-2.221220016479492,-2.1822609901428223,9.302688598632812
1702070884884274700,21.408274658203126,-2.128743886947632,-2.251838207244873,9.307727813720703
1702070884901255700,21.425255615234374,-2.0026767253875732,-2.337179660797119,9.314667701721191
1702070884918246700,21.44224658203125,-1.8592170476913452,-2.4369378089904785,9.318839073181152
1702070884935236600,21.459236572265624,-1.7273775339126587,-2.5576746463775635,9.31185245513916
1702070884952227600,21.4762275390625,-1.6245478391647339,-2.719280481338501,9.284527778625488
1702070884969217300,21.49321728515625,-1.5599833726882935,-2.9354865550994873,9.229598999023438
1702070884986208500,21.51020849609375,-1.5227606296539307,-3.193956136703491,9.149642944335938
1702070885003196000,21.52719580078125,-1.502575397491455,-3.455580949783325,9.057446479797363
1702070885020189700,21.544189697265626,-1.4899051189422607,-3.6855931282043457,8.968428611755371
1702070885037182000,21.561181884765624,-1.4726850986480713,-3.8748154640197754,8.891182899475098
1702070885054170400,21.57817041015625,-1.4444634914398193,-4.037899494171143,8.822982788085938
1702070885071160300,21.595160400390625,-1.4013367891311646,-4.200676918029785,8.753666877746582
1702070885088151600,21.612151611328127,-1.347931146621704,-4.389005661010742,8.669246673583984
1702070885105141200,21.629141357421876,-1.2957658767700195,-4.61195707321167,8.560781478881836
1702070885122132200,21.64613232421875,-1.2555919885635376,-4.856725215911865,8.430410385131836
1702070885139122200,21.6631220703125,-1.2246707677841187,-5.100363254547119,8.289908409118652
