time,seconds_elapsed,z,y,x
1701911544543817700,0.116817626953125,8.024454116821289,5.636564254760742,0.2709082365036011
1701911544560812500,0.1338125,7.973049163818359,5.699528694152832,0.42658305168151855
1701911544577803800,0.1508037109375,7.924617767333984,5.756031036376953,0.5519473552703857
1701911544594792400,0.16779248046875,7.881868839263916,5.803940773010254,0.6530901789665222
1701911544611786500,0.184786376953125,7.829989433288574,5.860165119171143,0.7654078602790833
1701911544628779800,0.20177978515625,7.745456218719482,5.9488725662231445,0.9246234893798828
1701911544645773600,0.218773681640625,7.603546619415283,6.090263843536377,1.1536387205123901
1701911544662763000,0.235762939453125,7.408293724060059,6.271074295043945,1.4237022399902344
1701911544679752700,0.252752685546875,7.199214458465576,6.44253396987915,1.703284740447998
1701911544696747800,0.269747802734375,7.003485202789307,6.577350616455078,1.9813553094863892
1701911544713739000,0.286739013671875,6.803800582885742,6.689493179321289,2.2792763710021973
1701911544730732500,0.303732666015625,6.537845611572266,6.819733619689941,2.6427104473114014
1701911544747731500,0.3207314453125,6.157877445220947,6.977011680603027,3.104506731033325
1701911544764715800,0.3377158203125,5.674736022949219,7.127748489379883,3.63712739944458
1701911544781710600,0.354710693359375,5.124261379241943,7.24379825592041,4.183952331542969
1701911544798703400,0.371703369140625,4.540561199188232,7.30582857131958,4.716384410858154
1701911544815692500,0.388692626953125,3.8801538944244385,7.312917709350586,5.263246059417725
1701911544832688000,0.405688232421875,3.131129264831543,7.242664337158203,5.828890323638916
1701911544849679000,0.42267919921875,2.4197230339050293,7.024379730224609,6.406181812286377
1701911544866670600,0.439670654296875,1.8890231847763062,6.634181499481201,6.975337982177734
1701911544883661600,0.45666162109375,1.5641074180603027,6.123326301574707,7.5029706954956055
1701911544900657000,0.473656982421875,1.3279629945755005,5.5777058601379395,7.9600138664245605
1701911544917639700,0.4906396484375,1.035057783126831,5.049530982971191,8.346673965454102
1701911544934638300,0.507638427734375,0.618800938129425,4.5265092849731445,8.681241035461426
1701911544951634700,0.524634765625,0.14094363152980804,3.9459502696990967,8.980297088623047
1701911544968626000,0.5416259765625,-0.2661418914794922,3.277963876724243,9.24230670928955
1701911544985616400,0.558616455078125,-0.5394758582115173,2.555661916732788,9.45588207244873
1701911545002611700,0.57561181640625,-0.7157857418060303,1.8356564044952393,9.610105514526367
1701911545019602400,0.5926025390625,-0.8507447838783264,1.1557542085647583,9.704462051391602
1701911545036586500,0.60958642578125,-0.9234893918037415,0.5213159918785095,9.752513885498047
1701911545053584100,0.626584228515625,-0.8951461911201477,-0.0990687906742096,9.768573760986328
1701911545070580700,0.643580810546875,-0.7553153038024902,-0.7473823428153992,9.75228500366211
1701911545087573200,0.6605732421875,-0.5427994132041931,-1.4378107786178589,9.688868522644043
1701911545104562200,0.677562255859375,-0.3142399191856384,-2.1437907218933105,9.567733764648438
1701911545121554700,0.6945546875,-0.11103687435388565,-2.81412410736084,9.397047996520996
1701911545138552600,0.711552490234375,0.04041069373488426,-3.4296674728393555,9.19085693359375
1701911545155533800,0.728533935546875,0.1291304975748062,-3.993021011352539,8.959644317626953
1701911545172530400,0.745530517578125,0.15884020924568176,-4.513253211975098,8.708699226379395
1701911545189527300,0.76252734375,0.1396128088235855,-4.995769500732422,8.441499710083008
1701911545206519600,0.77951953125,0.09041257947683334,-5.437703609466553,8.164517402648926
1701911545223508000,0.796508056640625,0.028680887073278427,-5.833913326263428,7.886744022369385
1701911545240509400,0.813509521484375,-0.02942202053964138,-6.185856342315674,7.613832473754883
1701911545257494800,0.830494873046875,-0.06373932957649231,-6.498657703399658,7.348433971405029
1701911545274486000,0.847486083984375,-0.066707082092762,-6.775661468505859,7.093806266784668
1701911545291479600,0.8644794921875,-0.04339832812547684,-7.011960029602051,6.860515117645264
1701911545308474400,0.881474365234375,-0.004369331989437342,-7.197935581207275,6.665268898010254
1701911545325461800,0.898461669921875,0.04064721241593361,-7.3321404457092285,6.517223358154297
1701911545342452700,0.91545263671875,0.0882517397403717,-7.424574375152588,6.4112420082092285
1701911545359451000,0.932450927734375,0.13740138709545135,-7.4910993576049805,6.332508563995361
1701911545376440800,0.94944091796875,0.1880333125591278,-7.544439315795898,6.267549991607666
1701911545393430800,0.9664306640625,0.2483254075050354,-7.590673923492432,6.2093586921691895
1701911545410426600,0.983426513671875,0.3203303813934326,-7.629253387451172,6.158571243286133
1701911545427419600,1.000419677734375,0.39730194211006165,-7.655913352966309,6.120887756347656
1701911545444408000,1.017407958984375,0.47617459297180176,-7.668921947479248,6.098935127258301
1701911545461404000,1.03440380859375,0.5606641173362732,-7.67379903793335,6.085604190826416
1701911545478397400,1.0513974609375,0.6575455665588379,-7.66934061050415,6.0815277099609375
1701911545495385300,1.06838525390625,0.7615547180175781,-7.648683547973633,6.095390319824219
1701911545512379400,1.08537939453125,0.8625894784927368,-7.604630470275879,6.136908531188965
1701911545529374200,1.102374267578125,0.9508720636367798,-7.5316290855407715,6.213414192199707
1701911545546366700,1.11936669921875,1.0216796398162842,-7.427211761474609,6.326831340789795
1701911545563352000,1.13635205078125,1.0798834562301636,-7.289141654968262,6.475984573364258
1701911545580354000,1.15335400390625,1.1369507312774658,-7.1174492835998535,6.654725551605225
1701911545597343500,1.170343505859375,1.1934889554977417,-6.913401126861572,6.856863021850586
1701911545614329600,1.18732958984375,1.2291760444641113,-6.680417060852051,7.077942371368408
1701911545631328500,1.20432861328125,1.234650731086731,-6.4205098152160645,7.313605308532715
1701911545648320800,1.22132080078125,1.2074536085128784,-6.1440277099609375,7.551760673522949
1701911545665308400,1.238308349609375,1.1564463376998901,-5.868210315704346,7.775787830352783
1701911545682302200,1.25530224609375,1.1065326929092407,-5.588348388671875,7.9863667488098145
1701911545699292200,1.272292236328125,1.0616377592086792,-5.272106647491455,8.204507827758789
1701911545716290000,1.2892900390625,0.9964778423309326,-4.885844707489014,8.448175430297852
1701911545733277700,1.306277587890625,0.8836306929588318,-4.416172981262207,8.715086936950684
1701911545750273000,1.32327294921875,0.7069389224052429,-3.875948429107666,8.984062194824219
1701911545767263200,1.34026318359375,0.48389220237731934,-3.2985939979553223,9.226117134094238
1701911545784254200,1.357254150390625,0.2454567700624466,-2.727501153945923,9.420010566711426
1701911545801250300,1.374250244140625,0.011439492926001549,-2.18527889251709,9.563499450683594
1701911545818243800,1.391243896484375,-0.20931805670261383,-1.6779614686965942,9.663164138793945
1701911545835229400,1.4082294921875,-0.4294341504573822,-1.2119220495224,9.725378036499023
1701911545852230000,1.42522998046875,-0.6577661633491516,-0.7953090667724609,9.755560874938965
1701911545869218800,1.44221875,-0.8770478963851929,-0.43281325697898865,9.761125564575195
1701911545886213400,1.45921337890625,-1.079359769821167,-0.11629790812730789,9.749748229980469
1701911545903194000,1.476194091796875,-1.264515995979309,0.16615331172943115,9.726741790771484
1701911545920196400,1.4931962890625,-1.4428333044052124,0.42759549617767334,9.693890571594238
1701911545937176000,1.510176025390625,-1.619468331336975,0.6784188151359558,9.651591300964355
1701911545954179600,1.5271796875,-1.7868776321411133,0.9166005253791809,9.602241516113281
1701911545971163100,1.5441630859375,-1.9152672290802002,1.1313785314559937,9.55446720123291
1701911545988167200,1.561167236328125,-2.0075626373291016,1.3177204132080078,9.511542320251465
1701911546005154800,1.57815478515625,-2.084669351577759,1.4797734022140503,9.471036911010742
1701911546022157000,1.595156982421875,-2.1601696014404297,1.6281920671463013,9.42967700958252
1701911546039142100,1.61214208984375,-2.2389421463012695,1.7622935771942139,9.38709545135498
1701911546056129000,1.62912890625,-2.308783769607544,1.865655541419983,9.350132942199707
1701911546073128200,1.646128173828125,-2.3600802421569824,1.9284311532974243,9.324552536010742
1701911546090116400,1.663116455078125,-2.3967983722686768,1.9536631107330322,9.30992317199707
1701911546107112400,1.680112548828125,-2.416593551635742,1.954856038093567,9.304553985595703
1701911546124102400,1.697102294921875,-2.403719186782837,1.9292898178100586,9.31322193145752
1701911546141096000,1.714095947265625,-2.3537604808807373,1.8677109479904175,9.338499069213867
1701911546158088400,1.73108837890625,-2.280031681060791,1.7642015218734741,9.376843452453613
1701911546175081000,1.7480810546875,-2.176185131072998,1.5996170043945312,9.430883407592773
1701911546192064800,1.765064697265625,-2.028795003890991,1.3710095882415771,9.49949836730957
1701911546209063000,1.78206298828125,-1.8279449939727783,1.07787024974823,9.577731132507324
1701911546226052400,1.79905224609375,-1.5747897624969482,0.7237046360969543,9.655692100524902
1701911546243049700,1.8160498046875,-1.3050477504730225,0.32177668809890747,9.71748161315918
1701911546260049400,1.83304931640625,-1.0598797798156738,-0.10390941053628922,9.752025604248047
1701911546277031700,1.85003173828125,-0.8666912913322449,-0.5400199294090271,9.756708145141602
1701911546294021000,1.867021240234375,-0.7237432599067688,-1.0016900300979614,9.731851577758789
1701911546311015000,1.884014892578125,-0.602902352809906,-1.5039819478988647,9.675261497497559
1701911546328015600,1.901015625,-0.47993597388267517,-2.036018133163452,9.584383964538574
1701911546345001500,1.91800146484375,-0.35792094469070435,-2.577188491821289,9.458651542663574
1701911546361993700,1.93499365234375,-0.24172097444534302,-3.123138427734375,9.29643440246582
1701911546378988800,1.95198876953125,-0.127323716878891,-3.6739578247070312,9.095159530639648
1701911546395982000,1.968982177734375,-0.014612192288041115,-4.223720550537109,8.854155540466309
1701911546412973000,1.98597314453125,0.09147325903177261,-4.75645112991333,8.57927417755127
1701911546429966000,2.002966064453125,0.19184774160385132,-5.248973846435547,8.285384178161621
1701911546446949000,2.01994921875,0.28219541907310486,-5.685460090637207,7.989495277404785
1701911546463947800,2.03694775390625,0.3746074438095093,-6.063977241516113,7.702206611633301
1701911546480943600,2.053943603515625,0.4760347008705139,-6.3916473388671875,7.426731586456299
1701911546497924000,2.070924072265625,0.5650056600570679,-6.673070907592773,7.168473243713379
1701911546514927400,2.08792724609375,0.6200302839279175,-6.908166408538818,6.937500476837158
1701911546531920400,2.10492041015625,0.6378464698791504,-7.097963809967041,6.741526126861572
1701911546548912400,2.121912353515625,0.6382671594619751,-7.2533278465271,6.574036598205566
1701911546565906700,2.13890673828125,0.6527740955352783,-7.3826069831848145,6.427061557769775
1701911546582894000,2.15589404296875,0.6798563599586487,-7.481268882751465,6.309083938598633
1701911546599886300,2.17288623046875,0.7023260593414307,-7.551760673522949,6.2220377922058105
1701911546616882700,2.189882568359375,0.7178506851196289,-7.597113609313965,6.164794445037842
1701911546633869300,2.206869384765625,0.7261984944343567,-7.608393669128418,6.1498870849609375
1701911546650858000,2.22385791015625,0.741432249546051,-7.5743608474731445,6.1899495124816895
1701911546667873300,2.240873291015625,0.7732408046722412,-7.488437175750732,6.289795398712158
1701911546684845800,2.257845703125,0.8196408152580261,-7.348534107208252,6.446966171264648
1701911546701845800,2.274845703125,0.8689363598823547,-7.160719871520996,6.64869499206543
1701911546718836200,2.291836181640625,0.9051525592803955,-6.945364952087402,6.868677616119385
1701911546735829800,2.308829833984375,0.9283300042152405,-6.719524383544922,7.086771488189697
1701911546752819200,2.325819091796875,0.9461110830307007,-6.470627307891846,7.3124518394470215
1701911546769814800,2.342814697265625,0.9483532309532166,-6.163416862487793,7.572912693023682
1701911546786795500,2.35979541015625,0.9202243089675903,-5.781296730041504,7.8718414306640625
1701911546803796200,2.376796142578125,0.8479617834091187,-5.317494869232178,8.200081825256348
1701911546820788200,2.393788330078125,0.7325237393379211,-4.784458160400391,8.532790184020996
1701911546837773300,2.410773193359375,0.5903968811035156,-4.208394527435303,8.841773986816406
1701911546854770200,2.427770263671875,0.4326741099357605,-3.61283278465271,9.11023235321045
1701911546871766000,2.44476611328125,0.25875216722488403,-3.0128955841064453,9.332290649414062
1701911546888745700,2.461745849609375,0.07116822153329849,-2.421983480453491,9.50605297088623
1701911546905751300,2.478751220703125,-0.11586375534534454,-1.8558443784713745,9.632163047790527
1701911546922741200,2.4957412109375,-0.2837729752063751,-1.3310939073562622,9.715131759643555
1701911546939739400,2.512739501953125,-0.4255317151546478,-0.8475624322891235,9.764049530029297
1701911546956725500,2.5297255859375,-0.5450441241264343,-0.40226009488105774,9.78658390045166
1701911546973718500,2.546718505859375,-0.6569066643714905,0.007819482125341892,9.787979125976562
1701911546990712800,2.563712890625,-0.7795900106430054,0.38233718276023865,9.771498680114746
1701911547007707000,2.580706787109375,-0.9242530465126038,0.7103440761566162,9.740498542785645
1701911547024692200,2.597692138671875,-1.0922598838806152,0.9814081192016602,9.699480056762695
1701911547041693400,2.614693359375,-1.277158260345459,1.1931214332580566,9.653054237365723
1701911547058682000,2.63168212890625,-1.4680218696594238,1.3557740449905396,9.604316711425781
1701911547075672600,2.648672607421875,-1.649061679840088,1.4915958642959595,9.55467700958252
1701911547092667100,2.665667236328125,-1.8086163997650146,1.6180599927902222,9.505098342895508
1701911547109656000,2.682656005859375,-1.9439618587493896,1.7323747873306274,9.45811939239502
1701911547126652700,2.699652587890625,-2.042804479598999,1.8239208459854126,9.420000076293945
1701911547143650000,2.716650146484375,-2.0986592769622803,1.8801021575927734,9.396649360656738
1701911547160625400,2.73362548828125,-2.115251302719116,1.8939489126205444,9.390142440795898
1701911547177627100,2.750627197265625,-2.117628335952759,1.859419345855713,9.39650821685791
1701911547194617900,2.767617919921875,-2.117516040802002,1.7638158798217773,9.414946556091309
1701911547211614200,2.7846142578125,-2.0933074951171875,1.5936335325241089,9.450636863708496
1701911547228605200,2.801605224609375,-2.033128499984741,1.3604944944381714,9.500082969665527
1701911547245596200,2.81859619140625,-1.9424638748168945,1.0907987356185913,9.553696632385254
1701911547262590700,2.8355908203125,-1.8237600326538086,0.7932409048080444,9.606290817260742
1701911547279582700,2.852582763671875,-1.668104887008667,0.458238422870636,9.656270980834961
1701911547296570000,2.869570068359375,-1.4611303806304932,0.06603115051984787,9.700353622436523
1701911547313567200,2.886567138671875,-1.2156081199645996,-0.4115940034389496,9.725687980651855
1701911547330559000,2.90355908203125,-0.963420033454895,-0.9663369059562683,9.714634895324707
1701911547347553300,2.92055322265625,-0.7478933930397034,-1.5449081659317017,9.658675193786621
1701911547364539000,2.937538818359375,-0.5851250290870667,-2.082200527191162,9.568603515625
1701911547381539000,2.9545390625,-0.4646759033203125,-2.5413999557495117,9.463693618774414
1701911547398529500,2.971529541015625,-0.37022581696510315,-2.9326751232147217,9.354063034057617
1701911547415518500,2.9885185546875,-0.28994765877723694,-3.295200824737549,9.235458374023438
1701911547432513800,3.005513671875,-0.221109539270401,-3.6642074584960938,9.097297668457031
1701911547449506800,3.0225068359375,-0.16531658172607422,-4.046718597412109,8.934925079345703
1701911547466498300,3.039498291015625,-0.11930717527866364,-4.424057960510254,8.754976272583008
1701911547483488300,3.05648828125,-0.07172896713018417,-4.781486988067627,8.565533638000488
1701911547500472800,3.073472900390625,-0.018950242549180984,-5.120423316955566,8.367618560791016
1701911547517476400,3.090476318359375,0.03557504713535309,-5.447107315063477,8.158668518066406
1701911547534457000,3.10745703125,0.08386223018169403,-5.766420364379883,7.935834884643555
1701911547551459800,3.1244599609375,0.12404166907072067,-6.084261417388916,7.6943159103393555
1701911547568453000,3.141453125,0.16205675899982452,-6.394473075866699,7.437778472900391
1701911547585440800,3.158440673828125,0.19072653353214264,-6.689666271209717,7.172732830047607
1701911547602449400,3.175449462890625,0.19959910213947296,-6.958745956420898,6.911740303039551
1701911547619419600,3.192419677734375,0.1887080818414688,-7.197728157043457,6.662823677062988
1701911547636422000,3.209421875,0.16983969509601593,-7.409377574920654,6.427161693572998
1701911547653414700,3.22641455078125,0.156299889087677,-7.599730491638184,6.201272964477539
1701911547670406700,3.24340673828125,0.1604088693857193,-7.772348403930664,5.983391284942627
1701911547687401500,3.2604013671875,0.17196018993854523,-7.919444561004639,5.786962509155273
1701911547704392400,3.277392333984375,0.18127085268497467,-8.036921501159668,5.622381210327148
1701911547721384200,3.29438427734375,0.1931964010000229,-8.119930267333984,5.501413822174072
1701911547738363100,3.311363037109375,0.22121143341064453,-8.165968894958496,5.431771278381348
1701911547755371000,3.32837109375,0.28134873509407043,-8.168286323547363,5.425501823425293
1701911547772360400,3.3453603515625,0.3731621503829956,-8.124101638793945,5.485969066619873
1701911547789353200,3.362353271484375,0.4736069440841675,-8.039217948913574,5.602034568786621
1701911547806345500,3.379345458984375,0.5655079483985901,-7.924605369567871,5.754734992980957
1701911547823335400,3.39633544921875,0.6502902507781982,-7.789397716522217,5.927775859832764
1701911547840331300,3.413331298828125,0.7449833750724792,-7.632690906524658,6.117445945739746
1701911547857323000,3.430322998046875,0.8603957295417786,-7.436087131500244,6.340383052825928
1701911547874313700,3.447313720703125,0.983222246170044,-7.178280830383301,6.613749027252197
1701911547891308000,3.46430810546875,1.0811634063720703,-6.849708080291748,6.938924312591553
1701911547908299000,3.481299072265625,1.1324121952056885,-6.455846786499023,7.2990264892578125
1701911547925281500,3.498281494140625,1.1192317008972168,-6.012149333953857,7.67056131362915
1701911547942279400,3.515279541015625,1.041761040687561,-5.548631191253662,8.022689819335938
1701911547959276800,3.53227685546875,0.9128316640853882,-5.083952903747559,8.340039253234863
1701911547976269300,3.549269287109375,0.7455355525016785,-4.6242570877075195,8.619544982910156
1701911547993251800,3.566251953125,0.5537325143814087,-4.172698020935059,8.861043930053711
1701911548010247700,3.58324755859375,0.3529391288757324,-3.7332398891448975,9.065013885498047
1701911548027242500,3.600242431640625,0.15493425726890564,-3.315131187438965,9.23157787322998
1701911548044230000,3.61722998046875,-0.04284021258354187,-2.923398017883301,9.364189147949219
1701911548061220600,3.634220703125,-0.2469530701637268,-2.5603723526000977,9.466765403747559
1701911548078218500,3.651218505859375,-0.4591444432735443,-2.225803852081299,9.54311752319336
1701911548095208200,3.668208251953125,-0.6777952313423157,-1.9182218313217163,9.596726417541504
1701911548112208400,3.68520849609375,-0.8975552320480347,-1.6381434202194214,9.630523681640625
1701911548129198300,3.7021982421875,-1.1159721612930298,-1.3839313983917236,9.647562026977539
1701911548146182100,3.71918212890625,-1.3365267515182495,-1.152799129486084,9.649916648864746
1701911548163177000,3.736177001953125,-1.5632888078689575,-0.9409489035606384,9.638822555541992
1701911548180164400,3.753164306640625,-1.789017677307129,-0.7469286322593689,9.616530418395996
1701911548197167900,3.77016796875,-2.0020031929016113,-0.5688554644584656,9.586682319641113
1701911548214159600,3.78715966796875,-2.1898255348205566,-0.4097784459590912,9.553683280944824
1701911548231146000,3.80414599609375,-2.3468713760375977,-0.2784774601459503,9.521069526672363
1701911548248139000,3.821138916015625,-2.474851608276367,-0.18543538451194763,9.490883827209473
1701911548265131000,3.838131103515625,-2.5759050846099854,-0.13964174687862396,9.464743614196777
1701911548282125800,3.855125732421875,-2.6518971920013428,-0.1394420713186264,9.443734169006348
1701911548299123200,3.872123291015625,-2.713083505630493,-0.16969701647758484,9.425840377807617
1701911548316115200,3.889115234375,-2.769732713699341,-0.2013985812664032,9.40872573852539
1701911548333106700,3.906106689453125,-2.8066296577453613,-0.21467936038970947,9.397492408752441
1701911548350101000,3.92310107421875,-2.783229112625122,-0.20569190382957458,9.404650688171387
1701911548367095300,3.94009521484375,-2.6605112552642822,-0.18000361323356628,9.440627098083496
1701911548384083700,3.957083740234375,-2.420311689376831,-0.15708544850349426,9.505448341369629
1701911548401067500,3.974067626953125,-2.0865299701690674,-0.19276195764541626,9.583600044250488
1701911548418058800,3.991058837890625,-1.7022643089294434,-0.3338070213794708,9.655413627624512
1701911548435064300,4.008064208984375,-1.3215924501419067,-0.5610499978065491,9.704367637634277
1701911548452053000,4.025052978515625,-1.0135722160339355,-0.8116318583488464,9.723684310913086
1701911548469047600,4.042047607421875,-0.8229032754898071,-1.0392400026321411,9.720026969909668
1701911548486038500,4.05903857421875,-0.7309879660606384,-1.247231364250183,9.702897071838379
1701911548503028500,4.076028564453125,-0.6592618823051453,-1.4792670011520386,9.675395011901855
1701911548520022500,4.0930224609375,-0.5631546974182129,-1.762172818183899,9.633988380432129
1701911548537016000,4.11001611328125,-0.4406251311302185,-2.094691514968872,9.57362174987793
1701911548554007600,4.127007568359375,-0.30551353096961975,-2.4546775817871094,9.493016242980957
1701911548571000300,4.144000244140625,-0.17838627099990845,-2.814051389694214,9.396031379699707
1701911548587992300,4.160992431640625,-0.07368018478155136,-3.1643035411834717,9.285358428955078
1701911548604985300,4.1779853515625,0.006226700264960527,-3.523974895477295,9.155198097229004
1701911548621977000,4.19497705078125,0.07673827558755875,-3.9163734912872314,8.994009971618652
1701911548638966800,4.211966796875,0.14106641709804535,-4.342623233795166,8.795331954956055
1701911548655965000,4.22896484375,0.19747188687324524,-4.779255390167236,8.564802169799805
1701911548672954400,4.245954345703125,0.24907326698303223,-5.197608947753906,8.316184043884277
1701911548689946000,4.262946044921875,0.2997060716152191,-5.582525253295898,8.061123847961426
1701911548706936000,4.27993603515625,0.3465367257595062,-5.930846214294434,7.806477069854736
1701911548723931000,4.296930908203125,0.38475996255874634,-6.242950439453125,7.557358264923096
1701911548740913200,4.3139130859375,0.40923231840133667,-6.523044109344482,7.315637588500977
1701911548757913600,4.33091357421875,0.42043352127075195,-6.767332553863525,7.089610576629639
1701911548774909700,4.34790966796875,0.42766740918159485,-6.969086170196533,6.890939235687256
1701911548791900200,4.364900146484375,0.4334292709827423,-7.1296305656433105,6.724329948425293
1701911548808893700,4.381893798828125,0.4352319538593292,-7.250665664672852,6.593523025512695
1701911548825885000,4.398885009765625,0.43566977977752686,-7.33685302734375,6.497453689575195
1701911548842867200,4.4158671875,0.4477619528770447,-7.389139652252197,6.437099933624268
1701911548859869700,4.43286962890625,0.4733286201953888,-7.408628463745117,6.412824630737305
1701911548876862500,4.449862548828125,0.5071682333946228,-7.398187637329102,6.422282695770264
1701911548893853200,4.466853271484375,0.5333517789840698,-7.357074737548828,6.467233657836914
1701911548910837500,4.48383740234375,0.5406594276428223,-7.29194974899292,6.539976119995117
1701911548927839200,4.500839111328125,0.546095609664917,-7.20936918258667,6.630451202392578
1701911548944831500,4.51783154296875,0.5715492963790894,-7.095494270324707,6.750068187713623
1701911548961823700,4.53482373046875,0.6215675473213196,-6.920586585998535,6.924973487854004
1701911548978806800,4.551806884765625,0.6746342182159424,-6.664592266082764,7.1668829917907715
1701911548995808000,4.56880810546875,0.7025584578514099,-6.32982063293457,7.461629867553711
1701911549012801000,4.585801025390625,0.6926404237747192,-5.939276695251465,7.776975631713867
1701911549029791700,4.602791748046875,0.6361949443817139,-5.521946907043457,8.083284378051758
1701911549046797800,4.6197978515625,0.536760687828064,-5.105653762817383,8.359444618225098
1701911549063777500,4.636777587890625,0.4019148051738739,-4.7025299072265625,8.600046157836914
1701911549080770300,4.653770263671875,0.23985162377357483,-4.309077739715576,8.809678077697754
1701911549097759000,4.670759033203125,0.05614672228693962,-3.9186878204345703,8.993157386779785
1701911549114755000,4.687755126953125,-0.15295322239398956,-3.5277819633483887,9.152457237243652
1701911549131746800,4.704746826171875,-0.37899431586265564,-3.1417617797851562,9.285572052001953
1701911549148739800,4.72173974609375,-0.6171210408210754,-2.770188331604004,9.390491485595703
1701911549165731300,4.7387314453125,-0.8614305853843689,-2.417205333709717,9.46843147277832
1701911549182724400,4.755724365234375,-1.103947401046753,-2.0821919441223145,9.522704124450684
1701911549199716000,4.772716064453125,-1.340549111366272,-1.7698153257369995,9.555459022521973
1701911549216705800,4.789705810546875,-1.5701756477355957,-1.4796736240386963,9.569808006286621
1701911549233700900,4.806700927734375,-1.791363000869751,-1.208254337310791,9.569076538085938
1701911549250693600,4.823693603515625,-2.0016582012176514,-0.9614858031272888,9.555367469787598
1701911549267685400,4.840685302734375,-2.1935157775878906,-0.7382805943489075,9.533077239990234
1701911549284677600,4.857677734375,-2.3695626258850098,-0.5300015807151794,9.504755973815918
1701911549301671000,4.8746708984375,-2.5323543548583984,-0.32637491822242737,9.471894264221191
1701911549318663000,4.891662841796875,-2.678748846054077,-0.11788571625947952,9.436446189880371
1701911549335654700,4.908654541015625,-2.7999651432037354,0.09128556400537491,9.401488304138184
1701911549352637000,4.925636962890625,-2.878842830657959,0.2780643403530121,9.373958587646484
1701911549369639400,4.942639404296875,-2.894882917404175,0.4177829921245575,9.363824844360352
1701911549386632400,4.959632568359375,-2.8493354320526123,0.5147038102149963,9.372965812683105
1701911549403624200,4.976624267578125,-2.7585861682891846,0.5747988820075989,9.39659309387207
1701911549420613600,4.993613525390625,-2.6479649543762207,0.6069579720497131,9.426347732543945
1701911549437609000,5.01060888671875,-2.534207820892334,0.6082256436347961,9.457484245300293
1701911549454601500,5.0276015625,-2.3976006507873535,0.5594320893287659,9.496034622192383
1701911549471582000,5.04458203125,-2.2228097915649414,0.43384939432144165,9.544999122619629
1701911549488586500,5.06158642578125,-2.0021324157714844,0.20058435201644897,9.601425170898438
1701911549505578000,5.078577880859375,-1.7467166185379028,-0.12912055850028992,9.652379035949707
1701911549522571000,5.095571044921875,-1.4844800233840942,-0.5066185593605042,9.683789253234863
1701911549539559400,5.112559326171875,-1.2573022842407227,-0.8793505430221558,9.689276695251465
1701911549556555500,5.129555419921875,-1.0950443744659424,-1.2171406745910645,9.67241382598877
1701911549573547500,5.146547607421875,-0.9834222197532654,-1.5290627479553223,9.640071868896484
1701911549590540000,5.1635400390625,-0.8788856863975525,-1.8500837087631226,9.593794822692871
1701911549607531300,5.18053125,-0.759256899356842,-2.217313051223755,9.525920867919922
1701911549624524800,5.19752490234375,-0.6321255564689636,-2.6362204551696777,9.427983283996582
1701911549641516500,5.2145166015625,-0.5113828778266907,-3.0835511684417725,9.298727035522461
1701911549658509600,5.231509521484375,-0.39319369196891785,-3.5389206409454346,9.140982627868652
1701911549675502000,5.248502197265625,-0.2711038291454315,-3.999178647994995,8.95372486114502
1701911549692493800,5.265493896484375,-0.142534077167511,-4.464302062988281,8.734174728393555
1701911549709485800,5.28248583984375,-0.010114514268934727,-4.925495147705078,8.483838081359863
1701911549726469600,5.2994697265625,0.1152474582195282,-5.370358943939209,8.208658218383789
1701911549743469000,5.316468994140625,0.22712545096874237,-5.796055316925049,7.911401271820068
1701911549760454400,5.333454345703125,0.32401585578918457,-6.1929473876953125,7.601221084594727
1701911549777455400,5.350455322265625,0.40903526544570923,-6.550625801086426,7.290960311889648
1701911549794447400,5.367447265625,0.4866105616092682,-6.864732265472412,6.991050720214844
1701911549811441000,5.38444091796875,0.5566210150718689,-7.137328147888184,6.7070722579956055
1701911549828433000,5.401432861328125,0.6163865923881531,-7.372392177581787,6.442361831665039
1701911549845424600,5.418424560546875,0.6634052395820618,-7.57396125793457,6.199283599853516
1701911549862407200,5.4354072265625,0.6947094798088074,-7.741636753082275,5.98502779006958
1701911549879398700,5.452398681640625,0.7109521627426147,-7.870139122009277,5.813051223754883
1701911549896402000,5.46940185546875,0.7207149863243103,-7.959263801574707,5.689183712005615
1701911549913391400,5.486391357421875,0.73222416639328,-8.007363319396973,5.619794845581055
1701911549930386200,5.50338623046875,0.7548863887786865,-8.012784004211426,5.609058856964111
1701911549947378400,5.52037841796875,0.7885389924049377,-7.977620601654053,5.6543707847595215
1701911549964371200,5.53737109375,0.8172653913497925,-7.915745735168457,5.736651420593262
1701911549981363200,5.55436328125,0.8401458263397217,-7.839330673217773,5.837394714355469
1701911549998356000,5.57135595703125,0.8697537779808044,-7.738430023193359,5.966268062591553
1701911550015348000,5.588347900390625,0.9122133255004883,-7.590155124664307,6.147646903991699
1701911550032340500,5.605340576171875,0.9457091093063354,-7.370452404022217,6.404542922973633
1701911550049332500,5.62233251953125,0.9396777153015137,-7.074963569641113,6.730379581451416
1701911550066325500,5.639325439453125,0.8874901533126831,-6.72023868560791,7.091325283050537
1701911550083317200,5.656317138671875,0.7922384142875671,-6.3266191482543945,7.455358505249023
1701911550100318700,5.673318603515625,0.6712861061096191,-5.919280052185059,7.794075012207031
1701911550117298700,5.690298583984375,0.5389443039894104,-5.515020370483398,8.095073699951172
1701911550134282000,5.707281982421875,0.4054903984069824,-5.120400905609131,8.357821464538574
1701911550151278300,5.7242783203125,0.282489538192749,-4.743130207061768,8.582484245300293
1701911550168269000,5.74126904296875,0.16554345190525055,-4.379354000091553,8.776671409606934
1701911550185273300,5.7582734375,0.046459637582302094,-4.026721477508545,8.945361137390137
1701911550202257400,5.77525732421875,-0.08575058728456497,-3.6781980991363525,9.093934059143066
1701911550219256000,5.792256103515625,-0.2298862189054489,-3.3298935890197754,9.224699974060059
1701911550236251100,5.809251220703125,-0.38272717595100403,-2.980314254760742,9.33848762512207
1701911550253237800,5.82623779296875,-0.5378456115722656,-2.636394500732422,9.433784484863281
1701911550270233300,5.8432333984375,-0.6926553249359131,-2.305126190185547,9.510140419006348
1701911550287213000,5.860213134765625,-0.8512932658195496,-1.9938058853149414,9.567453384399414
1701911550304207000,5.87720703125,-1.0139434337615967,-1.7071189880371094,9.606966018676758
1701911550321203500,5.894203369140625,-1.1762131452560425,-1.44475257396698,9.631475448608398
1701911550338195000,5.91119482421875,-1.3295025825500488,-1.207357406616211,9.644210815429688
1701911550355188200,5.928188232421875,-1.4675898551940918,-0.99406498670578,9.648530006408691
1701911550372180500,5.945180419921875,-1.5909613370895386,-0.8022447228431702,9.646830558776855
1701911550389170400,5.96217041015625,-1.6995997428894043,-0.6353590488433838,9.640737533569336
1701911550406164000,5.9791640625,-1.7959262132644653,-0.5111644864082336,9.630654335021973
1701911550423161000,5.9961611328125,-1.8780953884124756,-0.45014673471450806,9.618019104003906
1701911550440156000,6.013156005859375,-1.951019525527954,-0.4542216658592224,9.603296279907227
1701911550457148700,6.030148681640625,-2.0162177085876465,-0.5016180276870728,9.587458610534668
1701911550474141200,6.04714111328125,-2.080644130706787,-0.5669410824775696,9.570034980773926
1701911550491133000,6.0641328125,-2.122523069381714,-0.6419386267662048,9.5560941696167
1701911550508125700,6.081125732421875,-2.103827714920044,-0.7393780946731567,9.55318546295166
1701911550525107500,6.098107421875,-1.9956454038619995,-0.883825421333313,9.564118385314941
1701911550542110700,6.11511083984375,-1.7975867986679077,-1.1106204986572266,9.579736709594727
1701911550559102200,6.132102294921875,-1.5433480739593506,-1.4350115060806274,9.580967903137207
1701911550576080400,6.149080322265625,-1.2751392126083374,-1.8111011981964111,9.556675910949707
1701911550593089000,6.166089111328125,-1.0384141206741333,-2.173462390899658,9.509672164916992
1701911550610082000,6.18308203125,-0.8689851760864258,-2.4849042892456055,9.45019817352295
1701911550627068400,6.200068359375,-0.7547171115875244,-2.75207257270813,9.385766983032227
1701911550644062500,6.2170625,-0.6635929346084595,-3.016328811645508,9.311149597167969
1701911550661056300,6.23405615234375,-0.5772395133972168,-3.311119794845581,9.21625804901123
1701911550678046700,6.251046630859375,-0.49550068378448486,-3.6412456035614014,9.095708847045898
1701911550695042800,6.268042724609375,-0.421853244304657,-3.985701560974121,8.953901290893555
1701911550712034600,6.28503466796875,-0.3540360629558563,-4.327051639556885,8.79701042175293
1701911550729024000,6.30202392578125,-0.2867322564125061,-4.659257888793945,8.628164291381836
1701911550746020000,6.31902001953125,-0.21871569752693176,-4.979643821716309,8.449346542358398
1701911550763014700,6.3360146484375,-0.15161655843257904,-5.291771411895752,8.258951187133789
1701911550780003300,6.35300341796875,-0.08939164876937866,-5.598419189453125,8.055173873901367
1701911550796994800,6.369994873046875,-0.03114490397274494,-5.893033504486084,7.842658996582031
1701911550813987000,6.386987060546875,0.016014646738767624,-6.160103797912598,7.63472318649292
1701911550830980600,6.403980712890625,0.051036253571510315,-6.398393630981445,7.435999393463135
1701911550847972600,6.42097265625,0.08149732649326324,-6.617906093597412,7.2410502433776855
1701911550864953300,6.437953369140625,0.10932861268520355,-6.822473049163818,7.048264026641846
1701911550881949200,6.45494921875,0.13745196163654327,-7.008535385131836,6.862773418426514
1701911550898935600,6.471935546875,0.16880561411380768,-7.163828372955322,6.699791431427002
1701911550915947000,6.488947021484375,0.2041657716035843,-7.287027359008789,6.564577102661133
1701911550932933600,6.50593359375,0.24871893227100372,-7.385690212249756,6.451809883117676
1701911550949923300,6.52292333984375,0.30537378787994385,-7.464858531951904,6.357574462890625
1701911550966918100,6.539918212890625,0.3723384439945221,-7.530446529388428,6.2761359214782715
1701911550983911200,6.5569111328125,0.45623543858528137,-7.582243919372559,6.207862854003906
1701911551000903000,6.57390283203125,0.5436118841171265,-7.61226224899292,6.1639323234558105
1701911551017895400,6.5908955078125,0.618965208530426,-7.621505260467529,6.1453776359558105
1701911551034884400,6.60788427734375,0.6891297698020935,-7.626779079437256,6.131350040435791
1701911551051879700,6.624879638671875,0.7751303315162659,-7.627913475036621,6.119658946990967
1701911551068868900,6.641868896484375,0.8810219764709473,-7.597649097442627,6.142934799194336
1701911551085869600,6.65886962890625,0.9812678098678589,-7.5040740966796875,6.2419633865356445
1701911551102857000,6.67585693359375,1.0403910875320435,-7.332067489624023,6.433854103088379
1701911551119849700,6.692849609375,1.0469735860824585,-7.096061706542969,6.692225933074951
1701911551136838400,6.70983837890625,1.0038070678710938,-6.818903923034668,6.980762958526611
1701911551153834500,6.72683447265625,0.9216638803482056,-6.52386999130249,7.268133163452148
1701911551170826000,6.743825927734375,0.8152369856834412,-6.226517677307129,7.536708831787109
1701911551187815400,6.7608154296875,0.6968930959701538,-5.925403594970703,7.787173748016357
1701911551204813600,6.7778134765625,0.5595048666000366,-5.613554954528809,8.025651931762695
1701911551221801700,6.7948017578125,0.39094075560569763,-5.296031475067139,8.248353004455566
1701911551238798000,6.811798095703125,0.19068005681037903,-4.98077917098999,8.449356079101562
1701911551255788300,6.828788330078125,-0.032823346555233,-4.673553943634033,8.625133514404297
1701911551272780300,6.8457802734375,-0.26969581842422485,-4.37733793258667,8.77509593963623
1701911551289772800,6.862772705078125,-0.507486879825592,-4.089078903198242,8.902698516845703
1701911551306764800,6.879764892578125,-0.7382285594940186,-3.809985399246216,9.009724617004395
1701911551323757600,6.896757568359375,-0.9555754065513611,-3.54567813873291,9.09676742553711
1701911551340739800,6.91373974609375,-1.1508010625839233,-3.296637535095215,9.167549133300781
1701911551357742300,6.930742431640625,-1.3171491622924805,-3.0623080730438232,9.226242065429688
1701911551374734000,6.947734130859375,-1.46342134475708,-2.8353800773620605,9.276593208312988
1701911551391726800,6.964726806640625,-1.5945082902908325,-2.593657970428467,9.32558822631836
1701911551408707800,6.981707763671875,-1.7150627374649048,-2.3206655979156494,9.37598991394043
1701911551425711600,6.998711669921875,-1.827561378479004,-2.021805763244629,9.423824310302734
1701911551442703400,7.015703369140625,-1.9163553714752197,-1.723833680152893,9.465311050415039
1701911551459693000,7.032693115234375,-1.9689780473709106,-1.459265947341919,9.498936653137207
1701911551476675600,7.049675537109375,-1.9815577268600464,-1.2418545484542847,9.527190208435059
1701911551493671700,7.066671630859375,-1.9659368991851807,-1.0654501914978027,9.55175495147705
1701911551510666800,7.083666748046875,-1.9360885620117188,-0.9166171550750732,9.57326889038086
1701911551527659300,7.1006591796875,-1.8970619440078735,-0.7850191593170166,9.59276008605957
1701911551544650000,7.11764990234375,-1.8493802547454834,-0.6798280477523804,9.610086441040039
1701911551561642800,7.134642822265625,-1.7883347272872925,-0.6283441781997681,9.625131607055664
1701911551578634200,7.15163427734375,-1.6920971870422363,-0.6665902137756348,9.639947891235352
1701911551595633200,7.168633056640625,-1.532778024673462,-0.8154138326644897,9.655144691467285
1701911551612624000,7.185623779296875,-1.3214912414550781,-1.0477471351623535,9.663954734802246
1701911551629615600,7.20261572265625,-1.0885486602783203,-1.3120535612106323,9.660731315612793
1701911551646606000,7.219606201171875,-0.8842481374740601,-1.5809073448181152,9.641315460205078
1701911551663595000,7.236594970703125,-0.7432126998901367,-1.8560653924942017,9.60410213470459
1701911551680585700,7.253585693359375,-0.6682865023612976,-2.1484169960021973,9.548498153686523
1701911551697579800,7.270579833984375,-0.6438708305358887,-2.475975751876831,9.470538139343262
1701911551714573800,7.28757373046875,-0.6491941809654236,-2.8602819442749023,9.361274719238281
1701911551731562500,7.3045625,-0.6673368811607361,-3.298870801925659,9.214566230773926
1701911551748567800,7.32156787109375,-0.6831185221672058,-3.745049476623535,9.041243553161621
1701911551765558300,7.338558349609375,-0.68109130859375,-4.175040245056152,8.85106086730957
1701911551782550000,7.355550048828125,-0.6461857557296753,-4.591845512390137,8.644854545593262
1701911551799542500,7.37254248046875,-0.5762969255447388,-5.002328872680664,8.419068336486816
1701911551816534800,7.38953466796875,-0.48452427983283997,-5.401411533355713,8.174724578857422
1701911551833527600,7.406527587890625,-0.38259121775627136,-5.763847351074219,7.928922176361084
1701911551850516200,7.42351611328125,-0.27861836552619934,-6.081964015960693,7.692086219787598
1701911551867511800,7.44051171875,-0.17658504843711853,-6.370357513427734,7.458114147186279
1701911551884501200,7.457501220703125,-0.0815008357167244,-6.639272689819336,7.221463680267334
1701911551901499400,7.47449951171875,0.003059263341128826,-6.893100261688232,6.980064392089844
1701911551918488600,7.491488525390625,0.07937537133693695,-7.1249589920043945,6.742758750915527
1701911551935470800,7.508470947265625,0.16503533720970154,-7.325873374938965,6.522304058074951
1701911551952473000,7.52547314453125,0.27505478262901306,-7.497445106506348,6.320505142211914
1701911551969465900,7.5424658203125,0.41490674018859863,-7.641949653625488,6.137146949768066
1701911551986458000,7.5594580078125,0.5737445950508118,-7.763038158416748,5.970108985900879
1701911552003450600,7.57645068359375,0.7253433465957642,-7.867830753326416,5.814400672912598
1701911552020432100,7.59343212890625,0.8430293798446655,-7.959219932556152,5.672410011291504
1701911552037431800,7.610431884765625,0.9214876294136047,-8.027238845825195,5.563307762145996
1701911552054427000,7.627427001953125,0.9778887033462524,-8.058773040771484,5.507814407348633
1701911552071419600,7.644419677734375,1.0232315063476562,-8.048124313354492,5.515145301818848
1701911552088412000,7.661411865234375,1.0570141077041626,-8.000443458557129,5.577789783477783
1701911552105404700,7.67840478515625,1.0704830884933472,-7.928397178649902,5.677209377288818
1701911552122385700,7.6953857421875,1.0642096996307373,-7.844566822052002,5.793647766113281
1701911552139389400,7.712389404296875,1.057401180267334,-7.755895137786865,5.913046360015869
1701911552156382500,7.729382568359375,1.068519115447998,-7.654379367828369,6.041926383972168
1701911552173362200,7.746362060546875,1.0933682918548584,-7.518778324127197,6.205532550811768
1701911552190365700,7.76336572265625,1.1105587482452393,-7.328215599060059,6.426510334014893
1701911552207358500,7.7803583984375,1.1024843454360962,-7.07904052734375,6.701329231262207
1701911552224349700,7.797349609375,1.0569283962249756,-6.784340858459473,7.00654935836792
1701911552241344000,7.814343994140625,0.975265622138977,-6.464869976043701,7.313715934753418
1701911552258332400,7.83133251953125,0.8633884787559509,-6.133886337280273,7.606977462768555
1701911552275330600,7.84833056640625,0.7248507142066956,-5.796387195587158,7.8811540603637695
1701911552292319200,7.8653193359375,0.5660771727561951,-5.456064701080322,8.133082389831543
1701911552309313000,7.88231298828125,0.38575953245162964,-5.112513065338135,8.363582611083984
1701911552326304000,7.899303955078125,0.18351662158966064,-4.764569282531738,8.57328987121582
1701911552343295700,7.916295654296875,-0.022540433332324028,-4.419619560241699,8.757999420166016
1701911552360273000,7.93327294921875,-0.21798069775104523,-4.081847667694092,8.91779899597168
1701911552377281800,7.95028173828125,-0.3959448039531708,-3.7535853385925293,9.054830551147461
1701911552394273500,7.9672734375,-0.5583688020706177,-3.4385786056518555,9.170633316040039
1701911552411266600,7.9842666015625,-0.7116518020629883,-3.1365840435028076,9.267766952514648
1701911552428258300,8.00125830078125,-0.8525422215461731,-2.851184368133545,9.347729682922363
1701911552445250800,8.018250732421874,-0.9816464185714722,-2.585951805114746,9.411980628967285
1701911552462232000,8.035232177734375,-1.1045887470245361,-2.3415679931640625,9.46219253540039
1701911552479235600,8.052235595703126,-1.2361353635787964,-2.1165292263031006,9.49886417388916
1701911552496214300,8.06921435546875,-1.3756084442138672,-1.9204823970794678,9.521321296691895
1701911552513222100,8.08622216796875,-1.5178033113479614,-1.7637081146240234,9.530043601989746
1701911552530212900,8.103212890625,-1.6591112613677979,-1.6475425958633423,9.527281761169434
1701911552547201800,8.120201904296875,-1.7997368574142456,-1.5526200532913208,9.517690658569336
1701911552564196900,8.13719677734375,-1.951491355895996,-1.4416614770889282,9.505232810974121
1701911552581189600,8.154189697265625,-2.126708507537842,-1.2904518842697144,9.489360809326172
1701911552598178800,8.1711787109375,-2.3238351345062256,-1.1500011682510376,9.461151123046875
1701911552615176000,8.188176025390625,-2.488105058670044,-1.086763858795166,9.426791191101074
1701911552632167000,8.2051669921875,-2.58061146736145,-1.0918370485305786,9.401301383972168
1701911552649159000,8.222158935546876,-2.6111695766448975,-1.120420217514038,9.389492988586426
1701911552666147600,8.239147705078125,-2.5891897678375244,-1.14424729347229,9.392706871032715
1701911552683143700,8.256143798828125,-2.508618116378784,-1.1928201913833618,9.408514022827148
1701911552700124700,8.273124755859374,-2.3482909202575684,-1.3316724300384521,9.431241035461426
1701911552717139200,8.29013916015625,-2.1396782398223877,-1.5783225297927856,9.442816734313965
1701911552734108400,8.3071083984375,-1.932594895362854,-1.8926786184310913,9.42968463897705
1701911552751111400,8.324111328125,-1.765855073928833,-2.2278215885162354,9.38907241821289
1701911552768104000,8.34110400390625,-1.6310925483703613,-2.5341243743896484,9.335623741149902
1701911552785094700,8.3580947265625,-1.5027269124984741,-2.784738540649414,9.28564167022705
1701911552802088700,8.375088623046874,-1.358442783355713,-3.000009536743164,9.240708351135254
1701911552819083000,8.3920830078125,-1.1972929239273071,-3.2236337661743164,9.187536239624023
1701911552836075300,8.4090751953125,-1.0391005277633667,-3.4739959239959717,9.115248680114746
1701911552853065200,8.426065185546875,-0.9081287384033203,-3.734564781188965,9.025765419006348
1701911552870055700,8.4430556640625,-0.802624523639679,-3.98728084564209,8.927123069763184
1701911552887051500,8.460051513671875,-0.7031949758529663,-4.2216596603393555,8.827187538146973
1701911552904040700,8.477040771484376,-0.5954799056053162,-4.438310623168945,8.728281021118164
1701911552921038600,8.49403857421875,-0.47802743315696716,-4.648183822631836,8.625658988952637
1701911552938020400,8.511020263671876,-0.35982537269592285,-4.864983558654785,8.51108455657959
1701911552955025700,8.528025634765624,-0.2440914362668991,-5.102401256561279,8.375085830688477
1701911552972014800,8.545014892578125,-0.1397683471441269,-5.353707790374756,8.219148635864258
1701911552989003000,8.5620029296875,-0.0585879348218441,-5.596219539642334,8.056984901428223
1701911553005997000,8.5789970703125,0.00006724298145854846,-5.813772201538086,7.901656627655029
1701911553022990000,8.595989990234376,0.042087674140930176,-6.012810707092285,7.751157760620117
1701911553039982000,8.612982177734375,0.07568080723285675,-6.200158596038818,7.601870536804199
1701911553056969200,8.62996923828125,0.10533642768859863,-6.3799309730529785,7.451275825500488
1701911553073969200,8.64696923828125,0.13098874688148499,-6.548220634460449,7.303408145904541
1701911553090959000,8.663958984375,0.1514478623867035,-6.696439743041992,7.1673479080200195
1701911553107951000,8.680951171875,0.17212332785129547,-6.823509693145752,7.0460052490234375
1701911553124943000,8.697943115234375,0.2031153291463852,-6.93946647644043,6.930992126464844
1701911553141934000,8.71493408203125,0.25458016991615295,-7.0498433113098145,6.8169660568237305
1701911553158931000,8.731930908203125,0.32769641280174255,-7.156764984130859,6.701450347900391
1701911553175920400,8.74892041015625,0.4118378460407257,-7.253946304321289,6.591418743133545
1701911553192918300,8.765918212890625,0.4976276159286499,-7.329113483428955,6.501735210418701
1701911553209905200,8.7829052734375,0.5672410726547241,-7.372629165649414,6.446604251861572
1701911553226897700,8.799897705078125,0.6080335378646851,-7.384824752807617,6.428901672363281
1701911553243890000,8.816889892578125,0.6275065541267395,-7.378973484039307,6.4337477684021
1701911553260879600,8.833879638671876,0.6448973417282104,-7.366673946380615,6.446109771728516
1701911553277874200,8.850874267578124,0.680036187171936,-7.347044944763184,6.464873790740967
1701911553294867500,8.867867431640626,0.7331467270851135,-7.309138774871826,6.501930236816406
1701911553311859500,8.884859375,0.7863172292709351,-7.241182804107666,6.571384429931641
1701911553328849200,8.90184912109375,0.8052756786346436,-7.13258171081543,6.686846733093262
1701911553345846300,8.91884619140625,0.7655619382858276,-6.986509799957275,6.843881607055664
1701911553362836500,8.93583642578125,0.6810977458953857,-6.822600364685059,7.01600456237793
1701911553379825000,8.952824951171875,0.5739901661872864,-6.663575172424316,7.1765875816345215
1701911553396821000,8.969821044921876,0.46205049753189087,-6.5139899253845215,7.320557594299316
1701911553413809400,8.986809326171874,0.35183632373809814,-6.361717224121094,7.459280967712402
1701911553430809600,9.0038095703125,0.23132580518722534,-6.184293270111084,7.611644744873047
1701911553447790000,9.0207900390625,0.09151828289031982,-5.965919017791748,7.78688383102417
1701911553464795000,9.037794921875,-0.06478364020586014,-5.711320400238037,7.975759983062744
1701911553481782300,9.0547822265625,-0.2264235019683838,-5.443502902984619,8.158010482788086
1701911553498775000,9.071775146484375,-0.38209450244903564,-5.191272735595703,8.315094947814941
1701911553515756300,9.08875634765625,-0.536478579044342,-4.9569621086120605,8.448481559753418
1701911553532759800,9.105759765625,-0.7018530368804932,-4.727654933929443,8.566960334777832
1701911553549751600,9.12275146484375,-0.8737804889678955,-4.4836955070495605,8.681538581848145
1701911553566741800,9.13974169921875,-1.039947271347046,-4.2151713371276855,8.796985626220703
1701911553583739000,9.15673876953125,-1.1856850385665894,-3.938312530517578,8.906176567077637
1701911553600729000,9.17372900390625,-1.3124414682388306,-3.6837642192840576,8.996859550476074
1701911553617720800,9.190720947265625,-1.4518911838531494,-3.4738712310791016,9.0587158203125
1701911553634713000,9.207713134765624,-1.627170205116272,-3.291097402572632,9.09709358215332
1701911553651693600,9.224693603515625,-1.8319350481033325,-3.0869791507720947,9.129661560058594
1701911553668694800,9.24169482421875,-2.035315752029419,-2.8480687141418457,9.164176940917969
1701911553685691400,9.25869140625,-2.1967692375183105,-2.5949559211730957,9.201986312866211
1701911553702683000,9.275682861328125,-2.300468921661377,-2.3547024726867676,9.241175651550293
1701911553719675000,9.2926748046875,-2.350323438644409,-2.1530261039733887,9.27774429321289
1701911553736667400,9.30966748046875,-2.360400676727295,-1.9998449087142944,9.309417724609375
1701911553753659400,9.326659423828126,-2.344788074493408,-1.8791958093643188,9.338452339172363
1701911553770648800,9.34364892578125,-2.326984405517578,-1.755325198173523,9.366966247558594
1701911553787637800,9.3606376953125,-2.3210365772247314,-1.6204335689544678,9.392715454101562
1701911553804636000,9.377635986328125,-2.3209214210510254,-1.4936318397521973,9.413741111755371
1701911553821618700,9.39461865234375,-2.310523748397827,-1.3896201848983765,9.432209014892578
1701911553838618000,9.4116181640625,-2.27919864654541,-1.3131983280181885,9.450759887695312
1701911553855608600,9.428608642578125,-2.2137956619262695,-1.2614107131958008,9.473334312438965
1701911553872602000,9.44560205078125,-2.106590509414673,-1.236452579498291,9.501029968261719
1701911553889587700,9.462587646484375,-1.964795470237732,-1.239539623260498,9.530960083007812
1701911553906580200,9.479580322265624,-1.8145735263824463,-1.279910922050476,9.555377960205078
1701911553923583000,9.4965830078125,-1.6862266063690186,-1.378865122795105,9.565116882324219
1701911553940575500,9.513575439453126,-1.5859479904174805,-1.5511153936386108,9.555882453918457
1701911553957564000,9.53056396484375,-1.5067211389541626,-1.7933627367019653,9.526267051696777
1701911553974560000,9.54756005859375,-1.4275333881378174,-2.0835118293762207,9.4793062210083
1701911553991549200,9.564549072265624,-1.3383861780166626,-2.3976192474365234,9.417868614196777
1701911554008547600,9.581547607421875,-1.2440887689590454,-2.71476149559021,9.344433784484863
1701911554025536800,9.598536865234376,-1.1704424619674683,-3.026465654373169,9.257789611816406
1701911554042529300,9.615529296875,-1.1277765035629272,-3.345036745071411,9.15286636352539
1701911554059508700,9.6325087890625,-1.106321930885315,-3.6860053539276123,9.023609161376953
1701911554076515600,9.649515625,-1.0915722846984863,-4.05790901184082,8.864421844482422
1701911554093506000,9.666506103515625,-1.0711287260055542,-4.450754642486572,8.676382064819336
1701911554110498800,9.683498779296874,-1.0383474826812744,-4.84670352935791,8.46566104888916
1701911554127490600,9.700490478515626,-0.9885852932929993,-5.221492290496826,8.245898246765137
1701911554144482300,9.717482421875,-0.9250435829162598,-5.565866947174072,8.025056838989258
1701911554161475800,9.734475830078125,-0.8575760722160339,-5.88158655166626,7.804335117340088
1701911554178468000,9.751468017578125,-0.7951517701148987,-6.169681072235107,7.5854387283325195
1701911554195449000,9.768448974609376,-0.7360750436782837,-6.433843612670898,7.368849754333496
1701911554212450000,9.785449951171875,-0.6768521070480347,-6.6758952140808105,7.156146049499512
1701911554229444600,9.802444580078125,-0.622983992099762,-6.885158538818359,6.960072040557861
1701911554246439700,9.819439697265626,-0.5835603475570679,-7.054305076599121,6.792082786560059
1701911554263413200,9.836413330078125,-0.5683488249778748,-7.1809916496276855,6.659313678741455
1701911554280411400,9.853411376953124,-0.5749695897102356,-7.266783237457275,6.565011978149414
1701911554297399800,9.87039990234375,-0.5945320725440979,-7.31403923034668,6.510566711425781
1701911554314406700,9.88740673828125,-0.6259403824806213,-7.324316024780273,6.4960503578186035
1701911554331387400,9.904387451171875,-0.6704435348510742,-7.2937188148498535,6.525968551635742
1701911554348391200,9.92139111328125,-0.7252336740493774,-7.231685161590576,6.588846206665039
1701911554365383000,9.9383828125,-0.7867200970649719,-7.163242816925049,6.656210422515869
1701911554382365200,9.955365234375,-0.8476457595825195,-7.0982232093811035,6.71809720993042
1701911554399367400,9.972367431640626,-0.9053969383239746,-7.0271501541137695,6.784947395324707
1701911554416360700,9.989360595703126,-0.9733445048332214,-6.935755252838135,6.869062900543213
1701911554433352200,10.006352294921875,-1.0617374181747437,-6.816644668579102,6.974396228790283
1701911554450345200,10.02334521484375,-1.1584539413452148,-6.674962520599365,7.094998359680176
1701911554467334000,10.040333984375,-1.2454862594604492,-6.518309593200684,7.224714756011963
1701911554484329700,10.057329833984374,-1.2882550954818726,-6.355047702789307,7.36137580871582
1701911554501321500,10.074321533203126,-1.2828224897384644,-6.190817832946777,7.500951290130615
1701911554518314200,10.091314208984375,-1.2729452848434448,-6.0169453620910645,7.642783164978027
1701911554535305200,10.10830517578125,-1.3034812211990356,-5.822565078735352,7.786833763122559
1701911554552299500,10.125299560546875,-1.3774439096450806,-5.61387300491333,7.926109790802002
1701911554569290800,10.142290771484374,-1.4706004858016968,-5.409900188446045,8.05024528503418
1701911554586283500,10.159283447265626,-1.5618878602981567,-5.213282585144043,8.162006378173828
1701911554603275500,10.176275634765625,-1.6443142890930176,-5.008549690246582,8.273258209228516
1701911554620257500,10.193257568359375,-1.7182949781417847,-4.78438138961792,8.390069007873535
1701911554637260000,10.210260009765625,-1.7867079973220825,-4.542437553405762,8.509408950805664
1701911554654252300,10.227252197265624,-1.8541083335876465,-4.293553829193115,8.623444557189941
1701911554671242800,10.24424267578125,-1.9330165386199951,-4.0443902015686035,8.725966453552246
1701911554688230100,10.261230224609376,-2.0325396060943604,-3.7972280979156494,8.813962936401367
1701911554705229600,10.2782294921875,-2.1460177898406982,-3.539619207382202,8.893921852111816
1701911554722214100,10.295214111328125,-2.2586655616760254,-3.269167900085449,8.969229698181152
1701911554739214600,10.312214599609375,-2.3526840209960938,-3.00761342048645,9.036328315734863
1701911554756209400,10.32920947265625,-2.4238200187683105,-2.77868390083313,9.090662002563477
1701911554773201400,10.346201416015624,-2.4792890548706055,-2.5979793071746826,9.129060745239258
1701911554790188000,10.36318798828125,-2.5248634815216064,-2.4711415767669678,9.151756286621094
1701911554807183400,10.380183349609375,-2.561236619949341,-2.37412166595459,9.167319297790527
1701911554824176000,10.397176025390625,-2.572333574295044,-2.26383113861084,9.192079544067383
1701911554841168100,10.414168212890624,-2.573139190673828,-2.1257553100585938,9.224761009216309
1701911554858155000,10.431155029296875,-2.577284336090088,-1.9745486974716187,9.25715160369873
1701911554875156700,10.44815673828125,-2.572967290878296,-1.82509183883667,9.288972854614258
1701911554892143900,10.465143798828125,-2.5478880405426025,-1.6838984489440918,9.322492599487305
1701911554909128000,10.4821279296875,-2.4833903312683105,-1.5552103519439697,9.362167358398438
1701911554926127900,10.4991279296875,-2.3505702018737793,-1.4488450288772583,9.413382530212402
1701911554943121400,10.516121337890626,-2.1467936038970947,-1.3877919912338257,9.471085548400879
1701911554960104000,10.53310400390625,-1.9213337898254395,-1.411118507385254,9.515952110290527
1701911554977096000,10.550095947265625,-1.7298164367675781,-1.5561652183532715,9.530067443847656
1701911554994090000,10.567090087890625,-1.5867279767990112,-1.832367181777954,9.505831718444824
1701911555011086300,10.58408642578125,-1.4720553159713745,-2.2120344638824463,9.44330883026123
1701911555028078000,10.601078125,-1.3723398447036743,-2.626337766647339,9.35174560546875
1701911555045067800,10.61806787109375,-1.2856501340866089,-3.0106263160705566,9.247669219970703
1701911555062059300,10.635059326171875,-1.2347501516342163,-3.349388360977173,9.137456893920898
1701911555079050500,10.652050537109375,-1.2322949171066284,-3.6688528060913086,9.014270782470703
1701911555096043000,10.66904296875,-1.265390157699585,-3.9993419647216797,8.867929458618164
1701911555113037000,10.686037109375,-1.3023282289505005,-4.358389854431152,8.691632270812988
1701911555130030800,10.70303076171875,-1.3207966089248657,-4.734126567840576,8.489974021911621
1701911555147021300,10.720021240234376,-1.3174841403961182,-5.111868381500244,8.26856517791748
1701911555164014300,10.737014404296875,-1.2893397808074951,-5.486881256103516,8.029187202453613
1701911555181004000,10.754004150390625,-1.2420129776000977,-5.852818489074707,7.774190425872803
1701911555197998300,10.770998291015625,-1.185289740562439,-6.204416275024414,7.505760192871094
1701911555215000600,10.78800048828125,-1.1229783296585083,-6.536674976348877,7.228204250335693
1701911555231991000,10.804990966796876,-1.049432635307312,-6.843295574188232,6.950117111206055
1701911555248984600,10.821984619140625,-0.96170973777771,-7.115190505981445,6.68470573425293
1701911555265975000,10.83897509765625,-0.8614130020141602,-7.346674919128418,6.443638324737549
1701911555282969600,10.855969482421875,-0.7524256110191345,-7.5350728034973145,6.2363996505737305
1701911555299957800,10.872957763671875,-0.6397415399551392,-7.677185535430908,6.073523044586182
1701911555316952600,10.88995263671875,-0.5260283946990967,-7.774378776550293,5.959732532501221
1701911555333945600,10.906945556640625,-0.413876473903656,-7.8299713134765625,5.8954572677612305
1701911555350937600,10.9239375,-0.31302952766418457,-7.8396711349487305,5.888773441314697
1701911555367927300,10.94092724609375,-0.2287582904100418,-7.798664093017578,5.946815013885498
1701911555384922000,10.957922119140624,-0.1711842566728592,-7.710055828094482,6.0631561279296875
1701911555401914400,10.974914306640626,-0.14493143558502197,-7.580349445343018,6.225225448608398
1701911555418907100,10.9919072265625,-0.14725686609745026,-7.41939115524292,6.416157245635986
1701911555435899600,11.008899658203125,-0.17277060449123383,-7.236960411071777,6.620625019073486
1701911555452891000,11.025890869140625,-0.2105693519115448,-7.034764289855957,6.834023475646973
1701911555469884200,11.04288427734375,-0.24617305397987366,-6.811232566833496,7.0556817054748535
1701911555486862600,11.059862548828125,-0.26670145988464355,-6.56796932220459,7.281949043273926
1701911555503861000,11.076861083984374,-0.27697911858558655,-6.326427936553955,7.492376327514648
1701911555520860700,11.093860595703125,-0.28850045800209045,-6.108888149261475,7.670356750488281
1701911555537851400,11.110851318359375,-0.30672213435173035,-5.901559352874756,7.83030366897583
1701911555554847000,11.127846923828125,-0.34650543332099915,-5.661046981811523,8.004286766052246
1701911555571838700,11.144838623046875,-0.42147669196128845,-5.3488335609436035,8.212700843811035
1701911555588829700,11.16182958984375,-0.5300834774971008,-4.962836265563965,8.445436477661133
1701911555605823000,11.178822998046876,-0.6556211113929749,-4.531754016876221,8.675798416137695
1701911555622814500,11.195814453125,-0.7792304158210754,-4.0848517417907715,8.884984016418457
1701911555639807200,11.21280712890625,-0.8944684863090515,-3.6413588523864746,9.0651273727417
1701911555656799200,11.22979931640625,-1.0182280540466309,-3.2065231800079346,9.215071678161621
1701911555673792300,11.246792236328124,-1.1692951917648315,-2.77927303314209,9.335123062133789
1701911555690781700,11.26378173828125,-1.3431525230407715,-2.3678910732269287,9.424711227416992
1701911555707776500,11.280776611328125,-1.5093140602111816,-1.9805926084518433,9.48869800567627
1701911555724758000,11.297758056640625,-1.6562949419021606,-1.6173059940338135,9.53294849395752
1701911555741761300,11.31476123046875,-1.793527364730835,-1.2823917865753174,9.559019088745117
1701911555758753000,11.3317529296875,-1.9338728189468384,-0.9799109101295471,9.567444801330566
1701911555775746000,11.34874609375,-2.0811712741851807,-0.7013890147209167,9.561010360717773
1701911555792738000,11.365738037109375,-2.2144222259521484,-0.44379666447639465,9.546490669250488
1701911555809730600,11.38273046875,-2.3049356937408447,-0.21865780651569366,9.532869338989258
1701911555826722300,11.399722412109375,-2.3503575325012207,-0.03029618039727211,9.52423095703125
1701911555843715300,11.41671533203125,-2.374746084213257,0.11912211030721664,9.517484664916992
1701911555860707000,11.43370703125,-2.400300979614258,0.22955584526062012,9.509047508239746
1701911555877696500,11.450696533203125,-2.4429497718811035,0.30435869097709656,9.496078491210938
1701911555894691600,11.467691650390625,-2.4998059272766113,0.34115728735923767,9.480016708374023
1701911555911684400,11.484684326171875,-2.563269853591919,0.33607953786849976,9.463234901428223
1701911555928676400,11.50167626953125,-2.6192004680633545,0.28197965025901794,9.449678421020508
1701911555945669000,11.518669189453124,-2.654852867126465,0.17006978392601013,9.442400932312012
1701911555962660900,11.535660888671876,-2.6760034561157227,0.005301085766404867,9.437960624694824
1701911555979648500,11.5526484375,-2.699615478515625,-0.1890612542629242,9.429338455200195
1701911555996645600,11.569645751953125,-2.7222177982330322,-0.38851094245910645,9.416723251342773
1701911556013650700,11.586650634765626,-2.7260334491729736,-0.5903632640838623,9.405121803283691
1701911556030630400,11.60363037109375,-2.676569700241089,-0.821722686290741,9.401960372924805
1701911556047623200,11.620623046875,-2.549621105194092,-1.1196073293685913,9.40649127960205
1701911556064600000,11.63760009765625,-2.355232000350952,-1.4970433712005615,9.404671669006348
1701911556081608400,11.6546083984375,-2.1363775730133057,-1.9230294227600098,9.37944507598877
1701911556098599200,11.67159912109375,-1.9523897171020508,-2.3412258625030518,9.324321746826172
1701911556115592000,11.688592041015625,-1.8275066614151,-2.717359781265259,9.247285842895508
1701911556132581400,11.705581298828125,-1.7386506795883179,-3.0533924102783203,9.159149169921875
1701911556149582000,11.72258203125,-1.6518124341964722,-3.386127471923828,9.057690620422363
1701911556166566100,11.739566162109375,-1.5492584705352783,-3.7549123764038086,8.929532051086426
1701911556183561500,11.7565615234375,-1.430023193359375,-4.181262016296387,8.758322715759277
1701911556200550100,11.773550048828126,-1.3064732551574707,-4.649630546569824,8.538745880126953
1701911556217546200,11.790546142578124,-1.1816843748092651,-5.109163761138916,8.290728569030762
1701911556234537700,11.807537841796876,-1.049353003501892,-5.533320903778076,8.032267570495605
1701911556251530800,11.82453076171875,-0.9092057943344116,-5.92608642578125,7.764725208282471
1701911556268522800,11.841522705078125,-0.7600404024124146,-6.295930862426758,7.4846320152282715
1701911556285515500,11.858515625,-0.6090752482414246,-6.645091533660889,7.190820693969727
1701911556302507300,11.87550732421875,-0.46810996532440186,-6.966662883758545,6.8907623291015625
1701911556319499800,11.892499755859374,-0.3387765884399414,-7.239188194274902,6.611771583557129
1701911556336484900,11.90948486328125,-0.2246447652578354,-7.4557061195373535,6.371664524078369
1701911556353473800,11.926473876953125,-0.14076821506023407,-7.630383014678955,6.163889408111572
1701911556370476300,11.943476318359375,-0.09759821742773056,-7.779576301574707,5.975347518920898
1701911556387466200,11.96046630859375,-0.08345789462327957,-7.90965461730957,5.802288055419922
1701911556404461000,11.9774609375,-0.07645761221647263,-8.016246795654297,5.654208660125732
1701911556421454000,11.9944541015625,-0.060680653899908066,-8.089158058166504,5.549592018127441
1701911556438443000,12.011443115234375,-0.034748248755931854,-8.123282432556152,5.499746799468994
1701911556455433500,12.02843359375,-0.009047982282936573,-8.12267780303955,5.500736236572266
1701911556472431000,12.04543115234375,-0.005207530688494444,-8.098217964172363,5.536689758300781
1701911556489423000,12.062423095703124,-0.03402027115225792,-8.058709144592285,5.593940734863281
1701911556506415000,12.0794150390625,-0.064576655626297,-8.003460884094238,5.672438144683838
1701911556523408000,12.096407958984376,-0.06107183173298836,-7.921645164489746,5.7861833572387695
1701911556540389000,12.11338916015625,-0.01830880157649517,-7.804293155670166,5.9438018798828125
1701911556557392400,12.130392333984375,0.03859454765915871,-7.65971565246582,6.128899097442627
1701911556574383400,12.14738330078125,0.07460930198431015,-7.505665302276611,6.316293239593506
1701911556591378000,12.1643779296875,0.07249085605144501,-7.354451656341553,6.491755485534668
1701911556608350500,12.1813505859375,0.041823964565992355,-7.197363376617432,6.665760040283203
1701911556625362000,12.19836181640625,-0.0034726615995168686,-7.003841876983643,6.868938446044922
1701911556642342100,12.215342041015624,-0.05806870013475418,-6.742891311645508,7.125040054321289
1701911556659347200,12.23234716796875,-0.13538233935832977,-6.400210380554199,7.433377265930176
1701911556676338200,12.249338134765624,-0.24044454097747803,-5.991708278656006,7.7638750076293945
1701911556693331000,12.2663310546875,-0.3652574419975281,-5.545334815979004,8.08405876159668
1701911556710319600,12.283319580078125,-0.5077318549156189,-5.087571144104004,8.372272491455078
1701911556727315700,12.300315673828125,-0.6551474928855896,-4.62813138961792,8.62480640411377
1701911556744307200,12.31730712890625,-0.7976494431495667,-4.168979644775391,8.844178199768066
1701911556761300500,12.334300537109375,-0.9298608303070068,-3.7102549076080322,9.033576965332031
1701911556778288600,12.35128857421875,-1.0432859659194946,-3.260626792907715,9.193256378173828
1701911556795284700,12.36828466796875,-1.1317280530929565,-2.835461139678955,9.322847366333008
1701911556812274400,12.3852744140625,-1.2031357288360596,-2.443307399749756,9.424375534057617
1701911556829270000,12.40227001953125,-1.2694118022918701,-2.0880937576293945,9.500767707824707
1701911556846263300,12.41926318359375,-1.3429698944091797,-1.7669590711593628,9.555647850036621
1701911556863254000,12.43625390625,-1.4354722499847412,-1.4706707000732422,9.592325210571289
1701911556880241400,12.453241455078125,-1.5480656623840332,-1.1952358484268188,9.613064765930176
1701911556897235500,12.4702353515625,-1.6837526559829712,-0.9389854073524475,9.618700981140137
1701911556914230300,12.487230224609375,-1.832244873046875,-0.7109866738319397,9.611114501953125
1701911556931223600,12.5042236328125,-1.9788992404937744,-0.5257319808006287,9.593939781188965
1701911556948215300,12.52121533203125,-2.1211020946502686,-0.39175352454185486,9.569930076599121
1701911556965207300,12.538207275390626,-2.2572617530822754,-0.3048519194126129,9.54190444946289
1701911556982209800,12.555209716796876,-2.388512372970581,-0.2519243657588959,9.511448860168457
1701911556999180300,12.57218017578125,-2.50761342048645,-0.2214922457933426,9.481505393981934
1701911557016171500,12.589171630859376,-2.608381986618042,-0.20971360802650452,9.454546928405762
1701911557033179000,12.606178955078125,-2.670758008956909,-0.2333819717168808,9.43656063079834
1701911557050170000,12.623170166015624,-2.6839821338653564,-0.31301432847976685,9.430502891540527
1701911557067161900,12.640161865234376,-2.6634275913238525,-0.4428035318851471,9.431127548217773
1701911557084153600,12.657153564453125,-2.632127046585083,-0.5941309332847595,9.431597709655762
1701911557101147000,12.67414697265625,-2.5929007530212402,-0.7664071321487427,9.430038452148438
1701911557118135600,12.691135498046876,-2.5256552696228027,-0.9792423248291016,9.428587913513184
1701911557135133700,12.7081337890625,-2.397737503051758,-1.2675269842147827,9.427638053894043
1701911557152110000,12.725110107421875,-2.20082426071167,-1.6418640613555908,9.417898178100586
1701911557169111000,12.742111083984375,-1.9639021158218384,-2.071275472640991,9.385577201843262
1701911557186110700,12.75911083984375,-1.7224924564361572,-2.5138468742370605,9.324682235717773
1701911557203097900,12.776097900390624,-1.496907114982605,-2.938203811645508,9.239174842834473
1701911557220089000,12.793089111328126,-1.2995308637619019,-3.3364529609680176,9.133206367492676
1701911557237072600,12.81007275390625,-1.125957727432251,-3.720644950866699,9.006948471069336
1701911557254068700,12.82706884765625,-0.9636691212654114,-4.109679698944092,8.855392456054688
1701911557271069400,12.8440693359375,-0.8062372207641602,-4.515591621398926,8.671537399291992
1701911557288050400,12.861050537109374,-0.6559231281280518,-4.934378147125244,8.453271865844727
1701911557305049900,12.8780498046875,-0.511838972568512,-5.351341724395752,8.20592975616455
1701911557322035700,12.89503564453125,-0.3760087192058563,-5.739436149597168,7.946924209594727
1701911557339033600,12.91203369140625,-0.24821782112121582,-6.09135103225708,7.685697555541992
1701911557356020200,12.929020263671875,-0.12350431084632874,-6.418747901916504,7.417583465576172
1701911557373022200,12.946022216796875,-0.003517684992402792,-6.732121467590332,7.135447978973389
1701911557390010000,12.963010009765625,0.11081526428461075,-7.03131103515625,6.839920997619629
1701911557407001600,12.980001708984375,0.20907539129257202,-7.305595874786377,6.5437493324279785
1701911557423990300,12.996990234375,0.2881607413291931,-7.537097454071045,6.272579669952393
1701911557440992800,13.01399267578125,0.3518848717212677,-7.72348690032959,6.038218021392822
1701911557457983700,13.030983642578125,0.40974658727645874,-7.873521327972412,5.837454795837402
1701911557474977300,13.047977294921875,0.4662558138370514,-7.9949445724487305,5.665652275085449
1701911557491959300,13.064959228515624,0.5081189870834351,-8.089662551879883,5.525875568389893
1701911557508962000,13.081962158203124,0.5193052887916565,-8.159414291381836,5.421292781829834
1701911557525951700,13.09895166015625,0.504448652267456,-8.202961921691895,5.35659122467041
1701911557542949000,13.11594921875,0.47619783878326416,-8.213679313659668,5.342738151550293
1701911557559938300,13.132938232421875,0.44421300292015076,-8.185616493225098,5.388363838195801
1701911557576931300,13.149931396484375,0.4142378270626068,-8.11393928527832,5.498046875
1701911557593923000,13.166923095703124,0.40482673048973083,-8.004910469055176,5.656294345855713
1701911557610916000,13.183916015625,0.4267631471157074,-7.8751325607299805,5.834061622619629
1701911557627907600,13.200907470703125,0.46413737535476685,-7.738483905792236,6.011370658874512
1701911557644900400,13.217900390625,0.49888211488723755,-7.600442886352539,6.182271480560303
1701911557661891600,13.2348916015625,0.5189403891563416,-7.459542274475098,6.349964141845703
1701911557678883600,13.251883544921874,0.5159425735473633,-7.306302070617676,6.525938510894775
1701911557695876600,13.268876708984376,0.4825783371925354,-7.1233134269714355,6.727676868438721
1701911557712870100,13.2858701171875,0.40453261137008667,-6.893561840057373,6.967875003814697
1701911557729861600,13.302861572265625,0.26688945293426514,-6.6082048416137695,7.245448589324951
1701911557746854400,13.3198544921875,0.07794543355703354,-6.270162582397461,7.5442094802856445
1701911557763846100,13.33684619140625,-0.13786332309246063,-5.893420219421387,7.841218948364258
1701911557780839200,13.353839111328124,-0.35356009006500244,-5.500680446624756,8.11502456665039
1701911557797827600,13.37082763671875,-0.5466629266738892,-5.108720302581787,8.356927871704102
1701911557814823700,13.38782373046875,-0.7175165414810181,-4.7187180519104,8.570589065551758
1701911557831815400,13.4048154296875,-0.8706533908843994,-4.32919979095459,8.759913444519043
1701911557848808400,13.421808349609375,-1.0128421783447266,-3.9411978721618652,8.9262113571167
1701911557865800000,13.438800048828124,-1.1505317687988281,-3.560218334197998,9.068476676940918
1701911557882793000,13.45579296875,-1.2843395471572876,-3.1941521167755127,9.186075210571289
1701911557899781000,13.472781005859375,-1.4174724817276,-2.8482420444488525,9.279786109924316
1701911557916777200,13.489777099609375,-1.5567563772201538,-2.5279958248138428,9.349967956542969
1701911557933766400,13.506766357421874,-1.703527569770813,-2.2375478744506836,9.398272514343262
1701911557950765000,13.52376513671875,-1.8604445457458496,-1.9753655195236206,9.427237510681152
1701911557967754000,13.54075390625,-2.0303702354431152,-1.7327213287353516,9.439885139465332
1701911557984746000,13.55774609375,-2.206662178039551,-1.499220609664917,9.44029426574707
1701911558001739300,13.5747392578125,-2.373272657394409,-1.2727099657058716,9.433128356933594
1701911558018731300,13.591731201171875,-2.516568660736084,-1.0580976009368896,9.42249584197998
1701911558035723000,13.608722900390624,-2.6216065883636475,-0.8642366528511047,9.413629531860352
1701911558052715300,13.62571533203125,-2.6827266216278076,-0.7013165354728699,9.409955978393555
1701911558069708500,13.64270849609375,-2.710052490234375,-0.5763428211212158,9.41061019897461
1701911558086700800,13.65970068359375,-2.7201857566833496,-0.49560797214508057,9.412285804748535
1701911558103690500,13.6766904296875,-2.7264702320098877,-0.4642835557460785,9.412064552307129
1701911558120684000,13.69368408203125,-2.7306299209594727,-0.49220168590545654,9.409439086914062
1701911558137677000,13.710677001953124,-2.7257633209228516,-0.5809592008590698,9.405790328979492
1701911558154669800,13.727669921875,-2.698831081390381,-0.7236716151237488,9.403656005859375
1701911558171658800,13.74465869140625,-2.6323835849761963,-0.9262142181396484,9.404723167419434
1701911558188657000,13.761656982421876,-2.505201578140259,-1.2093697786331177,9.407312393188477
1701911558205646300,13.778646240234375,-2.3413567543029785,-1.57612943649292,9.395210266113281
1701911558222639000,13.79563916015625,-2.1700491905212402,-2.0106699466705322,9.353299140930176
1701911558239631000,13.812631103515624,-1.9886693954467773,-2.4999661445617676,9.27531623840332
1701911558256621000,13.82962109375,-1.7970362901687622,-3.012120246887207,9.161544799804688
1701911558273618200,13.8466181640625,-1.6130712032318115,-3.5005760192871094,9.021089553833008
1701911558290608400,13.8636083984375,-1.4401148557662964,-3.9403305053710938,8.867692947387695
1701911558307596800,13.8805966796875,-1.2647346258163452,-4.335784435272217,8.708475112915039
1701911558324593000,13.897593017578124,-1.079086184501648,-4.714730739593506,8.534811973571777
1701911558341584600,13.914584716796876,-0.8980215787887573,-5.101511001586914,8.330924034118652
1701911558358577700,13.93157763671875,-0.7405838370323181,-5.496417045593262,8.091789245605469
1701911558375568600,13.948568603515625,-0.6167567372322083,-5.881150245666504,7.82737398147583
1701911558392563200,13.965563232421875,-0.5269785523414612,-6.247104644775391,7.54533576965332
1701911558409543400,13.98254345703125,-0.4595385491847992,-6.588547706604004,7.253688335418701
1701911558426547000,13.999546875,-0.39659443497657776,-6.908293724060059,6.953726768493652
1701911558443528000,14.01652783203125,-0.32063618302345276,-7.209162712097168,6.645395278930664
1701911558460518100,14.03351806640625,-0.2368917614221573,-7.485861778259277,6.3357625007629395
1701911558477517600,14.050517578125,-0.15841102600097656,-7.728351593017578,6.040163993835449
1701911558494505500,14.06750537109375,-0.09796600788831711,-7.933280944824219,5.769711494445801
1701911558511499300,14.084499267578124,-0.06018364056944847,-8.101009368896484,5.532284259796143
1701911558528494000,14.101494140625,-0.03624221310019493,-8.232178688049316,5.33535623550415
1701911558545483500,14.1184833984375,-0.015349526889622211,-8.327874183654785,5.184823513031006
1701911558562475000,14.13547509765625,0.002547047333791852,-8.394218444824219,5.076732158660889
1701911558579466800,14.152466796875,0.02234162762761116,-8.443947792053223,4.993534088134766
1701911558596461000,14.1694609375,0.04448561742901802,-8.485069274902344,4.923184871673584
1701911558613453600,14.18645361328125,0.06972044706344604,-8.516697883605957,4.867969989776611
1701911558630445800,14.20344580078125,0.10274142771959305,-8.53281307220459,4.839079856872559
1701911558647438300,14.220438232421875,0.14107461273670197,-8.53181266784668,4.8398756980896
1701911558664432400,14.237432373046875,0.17937679588794708,-8.518823623657227,4.861439228057861
1701911558681425200,14.254425048828125,0.2153862863779068,-8.494247436523438,4.902805328369141
1701911558698421000,14.2714208984375,0.2452620565891266,-8.453376770019531,4.971558570861816
1701911558715417600,14.28841748046875,0.2753705382347107,-8.392557144165039,5.0720086097717285
1701911558732408000,14.305407958984375,0.30797988176345825,-8.313130378723145,5.199337482452393
1701911558749400000,14.322400146484375,0.34139904379844666,-8.219478607177734,5.3441314697265625
1701911558766393000,14.33939306640625,0.38340136408805847,-8.11666202545166,5.496265411376953
1701911558783384600,14.356384521484374,0.44571104645729065,-8.001792907714844,5.657628059387207
1701911558800366800,14.373366943359375,0.5298612713813782,-7.8638715744018555,5.840796947479248
1701911558817366000,14.390365966796875,0.6101973056793213,-7.6851725578308105,6.066458225250244
1701911558834362400,14.4073623046875,0.6485597491264343,-7.456408977508545,6.341724872589111
1701911558851353900,14.424353759765625,0.6236208081245422,-7.180165767669678,6.655256271362305
1701911558868346600,14.4413466796875,0.5376322269439697,-6.868813514709473,6.983301162719727
1701911558885337900,14.458337890625,0.41627147793769836,-6.54376745223999,7.296709060668945
1701911558902322000,14.475322021484375,0.28239479660987854,-6.21669864654541,7.583470821380615
1701911558919323400,14.492323486328125,0.14608246088027954,-5.885936260223389,7.846690654754639
1701911558936312800,14.509312744140624,0.006765228696167469,-5.553043842315674,8.08701229095459
1701911558953308400,14.526308349609375,-0.1421794444322586,-5.223333835601807,8.302572250366211
1701911558970303000,14.543302978515625,-0.29873600602149963,-4.905298233032227,8.490283012390137
1701911558987292400,14.56029248046875,-0.4575466811656952,-4.611299991607666,8.646541595458984
1701911559004285200,14.57728515625,-0.6183118224143982,-4.33865213394165,8.776668548583984
1701911559021281000,14.594281005859376,-0.7857857346534729,-4.077934265136719,8.887581825256348
1701911559038270000,14.61127001953125,-0.9634594917297363,-3.8288991451263428,8.980389595031738
1701911559055251500,14.62825146484375,-1.15384042263031,-3.5975589752197266,9.053303718566895
1701911559072253700,14.645253662109376,-1.351377248764038,-3.3937442302703857,9.10452651977539
1701911559089247200,14.662247314453126,-1.543161153793335,-3.220182180404663,9.137024879455566
1701911559106228500,14.679228515625,-1.7282341718673706,-3.066718339920044,9.156667709350586
1701911559123231000,14.69623095703125,-1.904976725578308,-2.9185688495635986,9.170014381408691
1701911559140219000,14.713218994140625,-2.0698142051696777,-2.7693283557891846,9.180567741394043
1701911559157215500,14.730215576171876,-2.21818470954895,-2.6253349781036377,9.188220977783203
1701911559174208000,14.7472080078125,-2.3374271392822266,-2.5006015300750732,9.193453788757324
1701911559191200300,14.7642001953125,-2.424762010574341,-2.4076223373413086,9.19565200805664
1701911559208189700,14.781189697265624,-2.4885387420654297,-2.3491218090057373,9.193743705749512
1701911559225184800,14.798184814453125,-2.5410315990448,-2.3177742958068848,9.187341690063477
1701911559242167000,14.8151669921875,-2.581345558166504,-2.302158832550049,9.180025100708008
1701911559259169500,14.83216943359375,-2.5871269702911377,-2.2900474071502686,9.181427955627441
1701911559276157000,14.849156982421874,-2.5501978397369385,-2.276510238647461,9.195114135742188
1701911559293156400,14.86615625,-2.469677686691284,-2.277416706085205,9.216841697692871
1701911559310146800,14.883146728515625,-2.3285632133483887,-2.322143793106079,9.242379188537598
1701911559327138600,14.900138671875,-2.126673460006714,-2.4433364868164062,9.259778022766113
1701911559344131300,14.91713134765625,-1.8963894844055176,-2.6387078762054443,9.256189346313477
1701911559361112800,14.93411279296875,-1.6731799840927124,-2.8724887371063232,9.229594230651855
1701911559378113500,14.951113525390625,-1.4693076610565186,-3.1092300415039062,9.187487602233887
1701911559395109600,14.968109619140625,-1.2863044738769531,-3.327522039413452,9.138333320617676
1701911559412101000,14.98510107421875,-1.1108161211013794,-3.5380337238311768,9.082098960876465
1701911559429094000,15.002093994140624,-0.9346938133239746,-3.763380527496338,9.011073112487793
1701911559446083300,15.019083251953125,-0.7712568640708923,-4.026443958282471,8.912297248840332
1701911559463077000,15.0360771484375,-0.6401017308235168,-4.343231201171875,8.77284049987793
1701911559480079400,15.053079345703125,-0.5474853515625,-4.70635986328125,8.589909553527832
1701911559497053200,15.07005322265625,-0.4745819568634033,-5.08871603012085,8.373522758483887
1701911559514054700,15.0870546875,-0.39221662282943726,-5.472302436828613,8.132413864135742
1701911559531046700,15.104046630859376,-0.29183894395828247,-5.840891361236572,7.876225471496582
1701911559548039200,15.1210390625,-0.1807853877544403,-6.186476230621338,7.611238956451416
1701911559565031000,15.138031005859375,-0.07662951946258545,-6.510751724243164,7.337599754333496
1701911559582023000,15.15502294921875,0.017534630373120308,-6.818105220794678,7.053314685821533
1701911559599016200,15.17201611328125,0.10111648589372635,-7.103311538696289,6.765267848968506
1701911559616003800,15.18900390625,0.1694265902042389,-7.356220722198486,6.4879469871521
1701911559633004000,15.206004150390624,0.21951676905155182,-7.5781073570251465,6.225769996643066
1701911559649993200,15.2229931640625,0.2599374055862427,-7.771300792694092,5.981257438659668
1701911559666983000,15.23998291015625,0.30249637365341187,-7.939850330352783,5.753556728363037
1701911559683974700,15.256974609375,0.3537752628326416,-8.089734077453613,5.537794589996338
1701911559700972300,15.27397216796875,0.4109131097793579,-8.220202445983887,5.338120937347412
1701911559717958100,15.290958251953125,0.45938417315483093,-8.330456733703613,5.160289764404297
1701911559734954800,15.307954833984375,0.47847533226013184,-8.41901969909668,5.012711048126221
1701911559751946200,15.3249462890625,0.46318545937538147,-8.48194694519043,4.9069504737854
1701911559768940300,15.341940185546875,0.4229682981967926,-8.51835823059082,4.847146034240723
1701911559785928200,15.35892822265625,0.37540003657341003,-8.526257514953613,4.837162017822266
1701911559802925000,15.375925048828124,0.3431491255760193,-8.503350257873535,4.879693984985352
1701911559819913500,15.39291357421875,0.33057528734207153,-8.45072078704834,4.971133232116699
1701911559836910300,15.409910400390626,0.3425603210926056,-8.376145362854004,5.0949931144714355
1701911559853898000,15.42689794921875,0.39081329107284546,-8.281662940979004,5.243802070617676
1701911559870894800,15.443894775390625,0.47400397062301636,-8.153298377990723,5.434627532958984
1701911559887885300,15.46088525390625,0.573289692401886,-7.97067403793335,5.689974308013916
1701911559904876300,15.477876220703125,0.6464424729347229,-7.72484827041626,6.01206636428833
1701911559921870600,15.49487060546875,0.6480580568313599,-7.420362949371338,6.383915424346924
1701911559938861800,15.51186181640625,0.5652123689651489,-7.072335720062256,6.774857997894287
1701911559955851800,15.528851806640626,0.41824668645858765,-6.699901580810547,7.153496265411377
1701911559972848000,15.54584814453125,0.24331434071063995,-6.316955089569092,7.501532554626465
1701911559989840000,15.56283984375,0.07558725029230118,-5.926953315734863,7.81675386428833
1701911560006831000,15.5798310546875,-0.0711498036980629,-5.529012203216553,8.103153228759766
1701911560023824000,15.596823974609375,-0.19922809302806854,-5.11745023727417,8.367085456848145
1701911560040815600,15.613815673828125,-0.3153698742389679,-4.699893951416016,8.605093955993652
1701911560057808400,15.630808349609374,-0.41827619075775146,-4.300041198730469,8.807430267333984
1701911560074800000,15.647800048828126,-0.5151727795600891,-3.934962272644043,8.971443176269531
1701911560091793000,15.66479296875,-0.6207079887390137,-3.60612416267395,9.10201644897461
1701911560108784600,15.68178466796875,-0.7470675110816956,-3.3036305904388428,9.206737518310547
1701911560125777700,15.698777587890625,-0.9019691348075867,-3.018172264099121,9.290492057800293
1701911560142769400,15.715769287109374,-1.081597924232483,-2.7443466186523438,9.356006622314453
1701911560159762200,15.73276220703125,-1.2756516933441162,-2.4866156578063965,9.403488159179688
1701911560176754000,15.74975390625,-1.468145728111267,-2.2520015239715576,9.434466361999512
1701911560193746700,15.76674658203125,-1.6392567157745361,-2.0479750633239746,9.452762603759766
1701911560210738400,15.783738525390625,-1.7823911905288696,-1.878387689590454,9.462076187133789
1701911560227726000,15.80072607421875,-1.8975341320037842,-1.7427181005477905,9.465643882751465
1701911560244723200,15.81772314453125,-1.9958463907241821,-1.6371535062789917,9.464272499084473
1701911560261716200,15.83471630859375,-2.0849599838256836,-1.5561546087265015,9.458724021911621
1701911560278719000,15.851718994140626,-2.161695957183838,-1.507243037223816,9.44941520690918
1701911560295689200,15.868689208984375,-2.2233517169952393,-1.499221920967102,9.43637466430664
1701911560312690700,15.885690673828124,-2.276026487350464,-1.5348148345947266,9.418076515197754
1701911560329687800,15.902687744140625,-2.320955991744995,-1.609610915184021,9.394597053527832
1701911560346677000,15.919677001953126,-2.363779067993164,-1.704903483390808,9.367070198059082
1701911560363669800,15.936669677734375,-2.3971381187438965,-1.7992136478424072,9.34091567993164
1701911560380661800,15.953661865234375,-2.4063868522644043,-1.8921164274215698,9.320157051086426
1701911560397654300,15.970654296875,-2.3578572273254395,-2.022078514099121,9.305259704589844
1701911560414647300,15.987647216796875,-2.2157323360443115,-2.2290360927581787,9.292901992797852
1701911560431626200,16.004626220703123,-1.9760525226593018,-2.525162935256958,9.271184921264648
1701911560448633300,16.02163330078125,-1.6840308904647827,-2.883974313735962,9.224037170410156
1701911560465637000,16.03863720703125,-1.3983324766159058,-3.2604856491088867,9.146039962768555
1701911560482614800,16.05561474609375,-1.169537901878357,-3.61432147026062,9.044611930847168
1701911560499608800,16.07260888671875,-1.0098448991775513,-3.9322071075439453,8.93051528930664
1701911560516599800,16.089599853515626,-0.8986542224884033,-4.230833053588867,8.805032730102539
1701911560533592800,16.1065927734375,-0.8110316395759583,-4.536894798278809,8.659961700439453
1701911560550581800,16.123581787109377,-0.7353657484054565,-4.865283489227295,8.48671817779541
1701911560567577600,16.14057763671875,-0.6675310134887695,-5.214727401733398,8.28233814239502
1701911560584569300,16.1575693359375,-0.6024032831192017,-5.570053577423096,8.05280876159668
1701911560601562000,16.17456201171875,-0.5311619639396667,-5.901241302490234,7.818525791168213
1701911560618550800,16.19155078125,-0.445734441280365,-6.1960954666137695,7.59248685836792
1701911560635546400,16.20854638671875,-0.3475661277770996,-6.4574055671691895,7.376804351806641
1701911560652525800,16.22552587890625,-0.2568085491657257,-6.696669578552246,7.164131164550781
1701911560669520600,16.242520751953126,-0.18779736757278442,-6.925077438354492,6.94580078125
1701911560686525700,16.259525634765627,-0.1437210589647293,-7.142673015594482,6.722921371459961
1701911560703516000,16.276515869140624,-0.11751559376716614,-7.336112976074219,6.511816501617432
1701911560720508400,16.29350830078125,-0.09569846093654633,-7.489730358123779,6.334897518157959
1701911560737497600,16.31049755859375,-0.06002050265669823,-7.6053571701049805,6.1960530281066895
1701911560754492200,16.3274921875,-0.00924327876418829,-7.690458297729492,6.090392112731934
1701911560771476200,16.344476318359376,0.04490720108151436,-7.754700660705566,6.0082221031188965
1701911560788466700,16.361466796875,0.09441324323415756,-7.804931640625,5.942245006561279
1701911560805458000,16.3784580078125,0.1307712346315384,-7.846964359283447,5.885929584503174
1701911560822451700,16.39545166015625,0.15036992728710175,-7.881343841552734,5.839345932006836
1701911560839445500,16.412445556640623,0.15376949310302734,-7.903273105621338,5.809539318084717
1701911560856438800,16.429438720703125,0.14683645963668823,-7.91129207611084,5.798795700073242
1701911560873431000,16.44643115234375,0.13604190945625305,-7.908039093017578,5.803492546081543
1701911560890421800,16.463421875,0.12588120996952057,-7.895847797393799,5.8202996253967285
1701911560907425800,16.48042578125,0.11097606271505356,-7.872099876403809,5.8526787757873535
1701911560924415200,16.497415283203125,0.09588732570409775,-7.838733196258545,5.89755916595459
1701911560941408300,16.514408203125,0.09104816615581512,-7.80462646484375,5.942697048187256
1701911560958400000,16.53139990234375,0.09875012189149857,-7.776584148406982,5.979223251342773
1701911560975392800,16.548392822265626,0.13592614233493805,-7.758988857269287,6.001311779022217
1701911560992384000,16.565384033203124,0.2168247103691101,-7.74329948425293,6.019173622131348
1701911561009378300,16.58237841796875,0.3382333815097809,-7.709169387817383,6.0572614669799805
1701911561026369500,16.59936962890625,0.4773801565170288,-7.633002281188965,6.143736362457275
1701911561043353900,16.616353759765627,0.6001021265983582,-7.498764991760254,6.296391487121582
1701911561060349200,16.63334912109375,0.676491916179657,-7.307406425476074,6.510013580322266
1701911561077359400,16.650359375,0.6924264430999756,-7.077152729034424,6.758000373840332
1701911561094338600,16.667338623046874,0.6576980352401733,-6.830345153808594,7.010702133178711
1701911561111331000,16.6843310546875,0.5977061986923218,-6.577670574188232,7.2534894943237305
1701911561128320000,16.701320068359376,0.5334371328353882,-6.321146011352539,7.482958793640137
1701911561145316000,16.718316162109375,0.4715311825275421,-6.0567755699157715,7.702548980712891
1701911561162297000,16.735297119140625,0.4149111211299896,-5.780399799346924,7.9152350425720215
1701911561179293200,16.752293212890624,0.3591213822364807,-5.493058204650879,8.119941711425781
1701911561196292400,16.769292236328123,0.29865387082099915,-5.201826095581055,8.311914443969727
1701911561213285400,16.786285400390625,0.22734910249710083,-4.917637825012207,8.485355377197266
1701911561230276900,16.80327685546875,0.14064863324165344,-4.651611804962158,8.635905265808105
1701911561247270000,16.820269775390624,0.03566597029566765,-4.40678596496582,8.764421463012695
1701911561264261400,16.837261474609374,-0.0892922505736351,-4.174398899078369,8.877080917358398
1701911561281249800,16.854249755859374,-0.23648245632648468,-3.9462904930114746,8.97813892364502
1701911561298246000,16.871245849609377,-0.40396881103515625,-3.7232043743133545,9.067010879516602
1701911561315238000,16.88823779296875,-0.5828158259391785,-3.5194895267486572,9.138360977172852
1701911561332231700,16.905231689453124,-0.7574018836021423,-3.351022481918335,9.188748359680176
1701911561349223700,16.9222236328125,-0.9157484173774719,-3.2191269397735596,9.221428871154785
1701911561366215400,16.93921533203125,-1.054409384727478,-3.116654634475708,9.24179744720459
1701911561383208200,16.956208251953125,-1.1724390983581543,-3.0385172367095947,9.253589630126953
1701911561400198700,16.97319873046875,-1.2729254961013794,-2.9815077781677246,9.258854866027832
1701911561417194000,16.990194091796877,-1.3553191423416138,-2.9460816383361816,9.258498191833496
1701911561434184400,17.007184326171874,-1.4227149486541748,-2.936239004135132,9.25151538848877
1701911561451177700,17.024177734375,-1.4777140617370605,-2.952401876449585,9.237737655639648
1701911561468169200,17.041169189453125,-1.529625415802002,-2.9932267665863037,9.216123580932617
1701911561485162000,17.058161865234375,-1.5827221870422363,-3.0604350566864014,9.185033798217773
1701911561502137000,17.07513720703125,-1.639243245124817,-3.1521427631378174,9.144014358520508
1701911561519145000,17.09214501953125,-1.6908786296844482,-3.2732582092285156,9.091911315917969
1701911561536135400,17.109135498046875,-1.7273141145706177,-3.425873279571533,9.02861499786377
1701911561553132500,17.126132568359374,-1.7156670093536377,-3.6091253757476807,8.959177017211914
1701911561570124000,17.1431240234375,-1.6132559776306152,-3.8297295570373535,8.886322975158691
1701911561587116000,17.160115966796877,-1.4156275987625122,-4.089285373687744,8.80396842956543
1701911561604096800,17.1770966796875,-1.1489044427871704,-4.371987819671631,8.706425666809082
1701911561621112000,17.194112060546875,-0.8579038381576538,-4.65498161315918,8.592512130737305
1701911561638086400,17.21108642578125,-0.5985996723175049,-4.91896915435791,8.466496467590332
1701911561655087900,17.228087890625,-0.40739381313323975,-5.158257961273193,8.334417343139648
1701911561672076800,17.245076904296877,-0.2954248785972595,-5.3754167556762695,8.200838088989258
1701911561689069800,17.26206982421875,-0.25383260846138,-5.581923484802246,8.063115119934082
1701911561706061300,17.279061279296876,-0.2625351846218109,-5.790875434875488,7.91409969329834
1701911561723054300,17.296054443359374,-0.2957721948623657,-6.001997947692871,7.754010200500488
1701911561740046000,17.313046142578123,-0.33214861154556274,-6.192744255065918,7.601034164428711
1701911561757037000,17.330037109375,-0.35876646637916565,-6.349594593048096,7.469274520874023
1701911561774032400,17.347032470703127,-0.36870935559272766,-6.475186347961426,7.360172271728516
1701911561791030500,17.364030517578126,-0.3646608889102936,-6.577252388000488,7.269311904907227
1701911561808015000,17.38101513671875,-0.35326671600341797,-6.659409999847412,7.194692611694336
1701911561825006600,17.398006591796875,-0.33170613646507263,-6.716993808746338,7.141993522644043
1701911561842001400,17.41500146484375,-0.30625641345977783,-6.7486443519592285,7.113234996795654
1701911561858992600,17.43199267578125,-0.27752524614334106,-6.762770175933838,7.100989818572998
1701911561875982300,17.448982421875,-0.24214957654476166,-6.770384788513184,7.095026969909668
1701911561892978700,17.465978759765626,-0.19509878754615784,-6.780257225036621,7.087040901184082
1701911561909970000,17.482969970703124,-0.13340364396572113,-6.79241943359375,7.07681941986084
1701911561926962000,17.4999619140625,-0.07221692055463791,-6.796854496002197,7.073447227478027
1701911561943937000,17.51693701171875,-0.02681533247232437,-6.782556533813477,7.087475299835205
1701911561960934700,17.5339345703125,0.0008554476662538946,-6.751884460449219,7.116754531860352
1701911561977929700,17.5509296875,0.023869797587394714,-6.720158576965332,7.146678924560547
1701911561994923000,17.567923095703126,0.05439752712845802,-6.695774555206299,7.169362545013428
1701911562011916300,17.584916259765624,0.09630496054887772,-6.676440715789795,7.186931133270264
1701911562028902700,17.601902587890624,0.13927161693572998,-6.657105445861816,7.204142093658447
1701911562045901300,17.6189013671875,0.1838291585445404,-6.6424126625061035,7.216696262359619
1701911562062890200,17.63589013671875,0.22986458241939545,-6.636775016784668,7.2205610275268555
1701911562079884800,17.652884765625,0.2724510133266449,-6.642523765563965,7.2137908935546875
1701911562096874200,17.669874267578123,0.30483365058898926,-6.662120819091797,7.194396495819092
1701911562113870300,17.686870361328126,0.32660356163978577,-6.691261291503906,7.1663432121276855
1701911562130859300,17.703859375,0.3418836295604706,-6.732145309448242,7.127233505249023
1701911562147854000,17.72085400390625,0.3562118113040924,-6.78900146484375,7.072391033172607
1701911562164846300,17.737846435546874,0.3619427978992462,-6.856449604034424,7.00672721862793
1701911562181847800,17.754847900390626,0.33890536427497864,-6.917813301086426,6.947312355041504
1701911562198839000,17.771839111328124,0.2709585130214691,-6.957922458648682,6.910138130187988
1701911562215832000,17.78883203125,0.1727701723575592,-6.983654499053955,6.887297630310059
1701911562232822000,17.805822021484374,0.09412365406751633,-7.016461372375488,6.855400085449219
1701911562249815300,17.822815185546876,0.06464900821447372,-7.060527324676514,6.810351848602295
1701911562266808300,17.839808349609374,0.06732535362243652,-7.092276573181152,6.777254104614258
1701911562283799800,17.8567998046875,0.0680379867553711,-7.0822930335998535,6.787682056427002
1701911562300792800,17.873792724609373,0.05174047872424126,-7.019276142120361,6.852969646453857
1701911562317784600,17.89078466796875,0.021664008498191833,-6.9141058921813965,6.959224700927734
1701911562334776300,17.9077763671875,-0.022447535768151283,-6.78203010559082,7.087995529174805
1701911562351769900,17.924769775390626,-0.08051905035972595,-6.635317325592041,7.22511100769043
1701911562368762000,17.94176220703125,-0.14860104024410248,-6.482450008392334,7.361515045166016
1701911562385751300,17.958751220703125,-0.2213553637266159,-6.328151702880859,7.492771625518799
1701911562402748400,17.97574853515625,-0.29738524556159973,-6.175837516784668,7.616213321685791
1701911562419739400,17.992739501953125,-0.3803832530975342,-6.022631645202637,7.734295845031738
1701911562436731100,18.009731201171874,-0.48323050141334534,-5.863563537597656,7.849919319152832
1701911562453723000,18.026722900390624,-0.6050044298171997,-5.699308395385742,7.961655616760254
1701911562470712300,18.04371240234375,-0.7457053065299988,-5.533858776092529,8.065755844116211
1701911562487697000,18.06069677734375,-0.8985360264778137,-5.371937274932861,8.15910816192627
1701911562504700700,18.07770068359375,-1.0492746829986572,-5.2231926918029785,8.23731803894043
1701911562521692200,18.094692138671874,-1.1843026876449585,-5.099116802215576,8.296540260314941
1701911562538679300,18.11167919921875,-1.3053275346755981,-5.004715919494629,8.335769653320312
1701911562555679500,18.128679443359374,-1.429547905921936,-4.936973571777344,8.355765342712402
1701911562572669700,18.145669677734375,-1.5727424621582031,-4.8833160400390625,8.36156940460205
1701911562589661200,18.1626611328125,-1.7390391826629639,-4.830279350280762,8.359439849853516
1701911562606647800,18.179647705078125,-1.925421118736267,-4.770719051361084,8.352787971496582
1701911562623648500,18.1966484375,-2.113267183303833,-4.703029632568359,8.345763206481934
1701911562640628200,18.213628173828123,-2.2816765308380127,-4.626791954040527,8.344032287597656
1701911562657627600,18.230627685546875,-2.4171340465545654,-4.5388383865356445,8.354190826416016
1701911562674622200,18.247622314453125,-2.5254743099212646,-4.435262203216553,8.377740859985352
1701911562691616500,18.264616455078126,-2.5973386764526367,-4.318778991699219,8.416537284851074
1701911562708608300,18.281608154296876,-2.6255276203155518,-4.189912796020508,8.47274112701416
1701911562725599000,18.298598876953125,-2.6034035682678223,-4.04976224899292,8.547388076782227
1701911562742593500,18.315593505859376,-2.5256340503692627,-3.9012794494628906,8.639289855957031
1701911562759584500,18.33258447265625,-2.3945767879486084,-3.7490956783294678,8.743363380432129
1701911562776577300,18.349577392578126,-2.215639352798462,-3.607055187225342,8.849645614624023
1701911562793567700,18.366567626953124,-1.978305459022522,-3.5148766040802,8.942484855651855
1701911562810560800,18.383560791015626,-1.6704788208007812,-3.5180578231811523,9.003825187683105
1701911562827556400,18.400556396484376,-1.3206350803375244,-3.624269962310791,9.019796371459961
1701911562844546800,18.417546875,-1.00166916847229,-3.788625717163086,8.993281364440918
1701911562861527800,18.43452783203125,-0.7670835256576538,-3.9489758014678955,8.94725227355957
1701911562878531000,18.451531005859376,-0.6365709900856018,-4.077905178070068,8.899526596069336
1701911562895535000,18.46853515625,-0.6012930274009705,-4.18463134765625,8.852311134338379
1701911562912515000,18.48551513671875,-0.6290168762207031,-4.291348934173584,8.799135208129883
1701911562929508600,18.502508544921874,-0.6815130114555359,-4.41964864730835,8.731457710266113
1701911562946500600,18.51950048828125,-0.7237713932991028,-4.595244884490967,8.636897087097168
1701911562963492000,18.5364921875,-0.7377219796180725,-4.829963207244873,8.506665229797363
1701911562980474600,18.553474609375,-0.7160908579826355,-5.120927333831787,8.33663272857666
1701911562997476600,18.5704765625,-0.6594964265823364,-5.451495170593262,8.129105567932129
1701911563014469600,18.5874697265625,-0.5705379247665405,-5.795940399169922,7.894156455993652
1701911563031458600,18.60445849609375,-0.45340561866760254,-6.129279613494873,7.646076202392578
1701911563048454000,18.621453857421876,-0.31249839067459106,-6.435341835021973,7.397624969482422
1701911563065439000,18.63843896484375,-0.1651182472705841,-6.70245885848999,7.161418437957764
1701911563082446000,18.655446044921874,-0.026537643745541573,-6.927658557891846,6.94571590423584
1701911563099430700,18.6724306640625,0.09262994676828384,-7.11541748046875,6.752658367156982
1701911563116423400,18.68942333984375,0.19995148479938507,-7.277230262756348,6.575563430786133
1701911563133404700,18.70640478515625,0.30481722950935364,-7.421569347381592,6.408082485198975
1701911563150408200,18.723408203125,0.4103410542011261,-7.553136825561523,6.246427536010742
1701911563167400000,18.74039990234375,0.5101404786109924,-7.670494079589844,6.094210624694824
1701911563184393000,18.75739306640625,0.5973742604255676,-7.7686967849731445,5.960421562194824
1701911563201382000,18.7743818359375,0.6695277094841003,-7.846989631652832,5.849155902862549
1701911563218380000,18.791380126953126,0.725027859210968,-7.909122467041016,5.758144855499268
1701911563235368200,18.8083681640625,0.7606089115142822,-7.957972049713135,5.68579626083374
1701911563252363000,18.825363037109376,0.772759199142456,-7.993875026702881,5.633554935455322
1701911563269354800,18.842354736328126,0.7635699510574341,-8.01756763458252,5.601044654846191
1701911563286345700,18.859345703125,0.7411052584648132,-8.029435157775879,5.587040424346924
1701911563303338500,18.87633837890625,0.7106139659881592,-8.0294771194458,5.590941905975342
1701911563320329500,18.89332958984375,0.6779664158821106,-8.018353462219238,5.610926628112793
1701911563337323000,18.910322998046876,0.6378917098045349,-7.99039363861084,5.655335903167725
1701911563354315800,18.927315673828126,0.5848334431648254,-7.937140464782715,5.7354936599731445
1701911563371307500,18.9443076171875,0.5192287564277649,-7.859297752380371,5.847904682159424
1701911563388300300,18.96130029296875,0.43699729442596436,-7.76027774810791,5.985250949859619
1701911563405292300,18.978292236328127,0.3523074686527252,-7.644521236419678,6.137857437133789
1701911563422279200,18.995279052734375,0.29389846324920654,-7.514734745025635,6.299086570739746
1701911563439277800,19.01227783203125,0.2559550106525421,-7.364881992340088,6.475270748138428
1701911563456269800,19.029269775390624,0.18762443959712982,-7.1806745529174805,6.681230545043945
1701911563473261600,19.046261474609373,0.04603483900427818,-6.956386566162109,6.91684103012085
1701911563490254300,19.06325439453125,-0.15755996108055115,-6.708247661590576,7.1561665534973145
1701911563507246000,19.08024609375,-0.39064839482307434,-6.462486267089844,7.370197772979736
1701911563524239000,19.097239013671874,-0.6330280900001526,-6.218505859375,7.560792922973633
1701911563541230800,19.11423095703125,-0.8853491544723511,-5.955520153045654,7.744937419891357
1701911563558220300,19.13122021484375,-1.155547022819519,-5.664289474487305,7.92569637298584
1701911563575215400,19.14821533203125,-1.448997974395752,-5.336407661437988,8.10304069519043
1701911563592208400,19.16520849609375,-1.7400524616241455,-4.971571445465088,8.275979995727539
1701911563609186800,19.182186767578123,-1.9887146949768066,-4.588946342468262,8.43935489654541
1701911563626183200,19.19918310546875,-2.1849782466888428,-4.199067115783691,8.592429161071777
1701911563643186400,19.2161865234375,-2.3408236503601074,-3.808607578277588,8.732192993164062
1701911563660167000,19.2331669921875,-2.482576370239258,-3.4184885025024414,8.853636741638184
1701911563677169000,19.2501689453125,-2.6113624572753906,-3.0381834506988525,8.954684257507324
1701911563694162200,19.267162109375,-2.7171270847320557,-2.6802730560302734,9.037116050720215
1701911563711153700,19.284153564453124,-2.7914328575134277,-2.3497917652130127,9.106181144714355
1701911563728146400,19.301146484375,-2.824422836303711,-2.053962230682373,9.16733169555664
1701911563745127000,19.318126953125,-2.8175506591796875,-1.7978458404541016,9.223081588745117
1701911563762123000,19.335123046875,-2.785390853881836,-1.5895048379898071,9.270987510681152
1701911563779125500,19.35212548828125,-2.7482283115386963,-1.4381505250930786,9.306721687316895
1701911563796116000,19.369115966796876,-2.7121007442474365,-1.3449201583862305,9.33122730255127
1701911563813109500,19.386109619140626,-2.688460350036621,-1.319887638092041,9.341638565063477
1701911563830101200,19.403101318359376,-2.676840305328369,-1.3747856616973877,9.337055206298828
1701911563847092200,19.42009228515625,-2.67201566696167,-1.4951637983322144,9.319920539855957
1701911563864085200,19.437085205078127,-2.6613848209381104,-1.6504600048065186,9.29672622680664
1701911563881076700,19.45407666015625,-2.625119924545288,-1.8215746879577637,9.27506160736084
1701911563898067000,19.47106689453125,-2.5446550846099854,-2.0081050395965576,9.258960723876953
1701911563915064000,19.48806396484375,-2.4254560470581055,-2.218933582305908,9.242815017700195
1701911563932051700,19.5050517578125,-2.2718563079833984,-2.477109670639038,9.216221809387207
1701911563949048800,19.522048828125,-2.0763649940490723,-2.794626474380493,9.171416282653809
1701911563966039000,19.5390390625,-1.8451859951019287,-3.1463799476623535,9.106684684753418
1701911563983030800,19.55603076171875,-1.6016231775283813,-3.484144687652588,9.029488563537598
1701911564000023800,19.57302392578125,-1.3687204122543335,-3.7783145904541016,8.949139595031738
1701911564017015300,19.590015380859374,-1.1665552854537964,-4.04674768447876,8.85997200012207
1701911564034008300,19.60700830078125,-1.0019333362579346,-4.3269195556640625,8.747000694274902
1701911564051006000,19.624005859375,-0.8738976716995239,-4.646188735961914,8.595659255981445
1701911564067990000,19.640989990234374,-0.7737986445426941,-5.003608226776123,8.40245532989502
1701911564084982000,19.65798193359375,-0.6859638094902039,-5.373407363891602,8.178755760192871
1701911564101980200,19.674980224609374,-0.5894598960876465,-5.718390464782715,7.949129581451416
1701911564118969300,19.69196923828125,-0.47037607431411743,-6.01926326751709,7.731968879699707
1701911564135961300,19.70896142578125,-0.3329164981842041,-6.279004096984863,7.529901027679443
1701911564152942000,19.725942138671876,-0.19581039249897003,-6.508291721343994,7.337569713592529
1701911564169938400,19.7429384765625,-0.074405238032341,-6.7168660163879395,7.149425029754639
1701911564186941200,19.759941162109374,0.02268339693546295,-6.905902862548828,6.9673590660095215
1701911564203931400,19.776931396484375,0.09838584065437317,-7.071533679962158,6.798518180847168
1701911564220923100,19.793923095703125,0.15892820060253143,-7.210301399230957,6.649994373321533
1701911564237913600,19.81091357421875,0.2147546410560608,-7.329637050628662,6.516627311706543
1701911564254908000,19.827907958984376,0.2648952603340149,-7.436507701873779,6.392518997192383
1701911564271901700,19.844901611328126,0.3109077215194702,-7.536993026733398,6.2716193199157715
1701911564288882700,19.861882568359373,0.36279943585395813,-7.629905700683594,6.1554083824157715
1701911564305875700,19.878875732421875,0.4257540702819824,-7.708771705627441,6.05224609375
1701911564322867000,19.895866943359376,0.4877753257751465,-7.7663655281066895,5.973423004150391
1701911564339862800,19.91286279296875,0.5303847193717957,-7.800713062286377,5.924835205078125
1701911564356852500,19.9298525390625,0.547516942024231,-7.819316387176514,5.898695945739746
1701911564373848000,19.94684814453125,0.5348663330078125,-7.831507205963135,5.883665084838867
1701911564390838500,19.963838623046875,0.5061493515968323,-7.84325647354126,5.870543479919434
1701911564407835000,19.9808349609375,0.472799152135849,-7.847628593444824,5.867477893829346
1701911564424820500,19.997820556640626,0.43150466680526733,-7.82669734954834,5.898536205291748
1701911564441823700,20.01482373046875,0.3796977400779724,-7.77293586730957,5.97272253036499
1701911564458812200,20.031812255859375,0.319379597902298,-7.7004828453063965,6.06932258605957
1701911564475808000,20.04880810546875,0.2507327198982239,-7.62428617477417,6.167942523956299
1701911564492800500,20.065800537109375,0.18992502987384796,-7.551130771636963,6.2594313621521
1701911564509793000,20.08279296875,0.1584671586751938,-7.4610114097595215,6.367444038391113
1701911564526780700,20.09978076171875,0.14915546774864197,-7.318766117095947,6.530663013458252
1701911564543777500,20.116777587890624,0.16498300433158875,-7.0975260734558105,6.770082950592041
1701911564560755700,20.133755615234374,0.19805864989757538,-6.79724645614624,7.070666790008545
1701911564577756700,20.150756591796874,0.22265204787254333,-6.437290668487549,7.399178504943848
1701911564594756600,20.167756591796874,0.22843551635742188,-6.027515888214111,7.736473560333252
1701911564611746800,20.184746826171875,0.2054629772901535,-5.570806980133057,8.072175979614258
1701911564628737800,20.20173779296875,0.14740276336669922,-5.079216957092285,8.391419410705566
1701911564645731800,20.21873193359375,0.06422523409128189,-4.5786285400390625,8.675721168518066
1701911564662723800,20.235723876953124,-0.02293628826737404,-4.097453594207764,8.913274765014648
1701911564679716000,20.252716064453125,-0.0970696285367012,-3.646244525909424,9.106678009033203
1701911564696707800,20.269707763671875,-0.1433766633272171,-3.2252357006073,9.263550758361816
1701911564713700900,20.286700927734376,-0.15817362070083618,-2.8276171684265137,9.39232063293457
1701911564730691300,20.30369140625,-0.1457330882549286,-2.4463205337524414,9.498967170715332
1701911564747681800,20.320681884765627,-0.12738393247127533,-2.085650682449341,9.584880828857422
1701911564764677400,20.337677490234373,-0.13482744991779327,-1.7542191743850708,9.65093994140625
1701911564781670100,20.354670166015627,-0.16897869110107422,-1.4624950885772705,9.698901176452637
1701911564798662000,20.371661865234376,-0.21795380115509033,-1.2136043310165405,9.73220443725586
1701911564815655000,20.388655029296874,-0.2807874083518982,-1.0038543939590454,9.754463195800781
1701911564832646000,20.40564599609375,-0.37613794207572937,-0.8333732485771179,9.767297744750977
1701911564849640200,20.42264013671875,-0.514207661151886,-0.7024009227752686,9.771302223205566
1701911564866631200,20.439631103515627,-0.6830606460571289,-0.6239347457885742,9.766281127929688
1701911564883624000,20.4566240234375,-0.863433837890625,-0.6083130836486816,9.752975463867188
1701911564900612600,20.473612548828125,-1.0313570499420166,-0.6557997465133667,9.73356819152832
1701911564917608700,20.490608642578124,-1.1878215074539185,-0.7608230710029602,9.708054542541504
1701911564934600200,20.50760009765625,-1.3483638763427734,-0.9187502264976501,9.673360824584961
1701911564951593000,20.524593017578123,-1.5096920728683472,-1.1285951137542725,9.627212524414062
1701911564968582000,20.541581787109376,-1.6743496656417847,-1.3782563209533691,9.567291259765625
1701911564985577700,20.55857763671875,-1.8302686214447021,-1.6572153568267822,9.49420166015625
1701911565002549500,20.575549560546875,-1.94850754737854,-1.9464051723480225,9.415464401245117
1701911565019563000,20.59256298828125,-2.010845899581909,-2.220771312713623,9.341348648071289
1701911565036557000,20.60955712890625,-1.9972387552261353,-2.478595018386841,9.279210090637207
1701911565053546800,20.626546630859377,-1.8995153903961182,-2.7388007640838623,9.226426124572754
1701911565070528300,20.6435283203125,-1.7383562326431274,-3.027330160140991,9.167852401733398
1701911565087531500,20.660531494140624,-1.5524369478225708,-3.3507325649261475,9.088380813598633
1701911565104523800,20.677523681640626,-1.3777344226837158,-3.6911511421203613,8.984062194824219
1701911565121516300,20.694516357421875,-1.2290923595428467,-4.022923946380615,8.862366676330566
1701911565138508000,20.711508056640625,-1.1054962873458862,-4.3278069496154785,8.734075546264648
1701911565155500300,20.728500244140626,-1.0034208297729492,-4.6072869300842285,8.602452278137207
1701911565172493600,20.74549365234375,-0.9161160588264465,-4.872986793518066,8.464681625366211
1701911565189485300,20.7624853515625,-0.8348520398139954,-5.137467384338379,8.31538200378418
1701911565206474800,20.779474853515627,-0.7539657354354858,-5.404991626739502,8.1519136428833
1701911565223455500,20.79645556640625,-0.6600278615951538,-5.666680335998535,7.980553150177002
1701911565240451300,20.813451416015624,-0.5482478141784668,-5.917627334594727,7.804949760437012
1701911565257454800,20.830454833984376,-0.4192453920841217,-6.157489776611328,7.625330924987793
1701911565274446300,20.8474462890625,-0.27947908639907837,-6.385330677032471,7.442146301269531
1701911565291438800,20.86443896484375,-0.13448479771614075,-6.599815845489502,7.256753444671631
1701911565308431400,20.881431396484373,0.008930160664021969,-6.798228740692139,7.072490692138672
1701911565325424000,20.898424072265627,0.13994376361370087,-6.97552490234375,6.896273612976074
1701911565342404600,20.915404541015626,0.25009390711784363,-7.133237838745117,6.729820251464844
1701911565359409400,20.932409423828126,0.3352527618408203,-7.273741245269775,6.573920726776123
1701911565376400600,20.949400634765624,0.39647573232650757,-7.389477729797363,6.440074443817139
1701911565393393400,20.966393310546874,0.4425058960914612,-7.479195594787598,6.332607746124268
1701911565410385000,20.983385009765627,0.4822002947330475,-7.546689510345459,6.249085903167725
1701911565427377700,21.000377685546876,0.5127876996994019,-7.593104362487793,6.190149307250977
1701911565444357400,21.017357421875,0.5397751927375793,-7.618763446807861,6.156234264373779
1701911565461353200,21.034353271484374,0.5673527121543884,-7.628320693969727,6.141903877258301
1701911565478343700,21.05134375,0.5880966186523438,-7.626431941986084,6.142295837402344
1701911565495341600,21.068341552734374,0.5984549522399902,-7.61163854598999,6.159622669219971
1701911565512332800,21.085332763671875,0.6048784255981445,-7.584600925445557,6.192257881164551
1701911565529325600,21.10232568359375,0.6143529415130615,-7.546828269958496,6.2373127937316895
1701911565546316300,21.11931640625,0.6302056312561035,-7.499777317047119,6.292242050170898
1701911565563306000,21.136305908203123,0.6502703428268433,-7.444226264953613,6.3558454513549805
1701911565580298000,21.153298095703125,0.6639510989189148,-7.3824944496154785,6.4260478019714355
1701911565597290500,21.17029052734375,0.6565397381782532,-7.324926853179932,6.492342948913574
1701911565614286000,21.1872861328125,0.6317200660705566,-7.285993576049805,6.538450241088867
1701911565631278300,21.2042783203125,0.6142082214355469,-7.2679314613342285,6.560184478759766
1701911565648268300,21.221268310546876,0.6162140965461731,-7.252615928649902,6.576925277709961
1701911565665265000,21.238264892578126,0.6212468147277832,-7.206862449645996,6.626560211181641
1701911565682261200,21.25526123046875,0.6077222228050232,-7.0997114181518555,6.742467880249023
1701911565699255300,21.27225537109375,0.568428635597229,-6.913222789764404,6.936885356903076
1701911565716250000,21.28925,0.5107224583625793,-6.655083656311035,7.189237117767334
1701911565733235200,21.306235107421877,0.441109299659729,-6.350469589233398,7.4641194343566895
1701911565750232300,21.323232421875,0.36054956912994385,-6.024839878082275,7.733526229858398
1701911565767224000,21.34022412109375,0.2652624547481537,-5.689241886138916,7.9873833656311035
1701911565784216000,21.357216064453127,0.15144522488117218,-5.339843273162842,8.227956771850586
1701911565801214200,21.374214111328126,0.015709714964032173,-4.976572036743164,8.453971862792969
1701911565818199800,21.39119970703125,-0.13282302021980286,-4.608378887176514,8.659175872802734
1701911565835194400,21.4081943359375,-0.2741847336292267,-4.252019882202148,8.836360931396484
1701911565852184300,21.425184326171873,-0.400671124458313,-3.9217114448547363,8.983080863952637
1701911565869169400,21.44216943359375,-0.5167582035064697,-3.621586799621582,9.102371215820312
1701911565886167800,21.459167724609376,-0.6324682235717773,-3.351694345474243,9.19794750213623
1701911565903160800,21.476160888671874,-0.7628201842308044,-3.1098358631134033,9.272709846496582
1701911565920152300,21.49315234375,-0.9100332260131836,-2.893613576889038,9.329253196716309
1701911565937147400,21.5101474609375,-1.063132643699646,-2.7063353061676025,9.369185447692871
1701911565954139400,21.527139404296875,-1.218050479888916,-2.553065776824951,9.393314361572266
1701911565971132000,21.5441318359375,-1.369009256362915,-2.435157060623169,9.403827667236328
1701911565988120600,21.56112060546875,-1.5178027153015137,-2.3473939895629883,9.403303146362305
1701911566005117000,21.578116943359376,-1.6665997505187988,-2.28226900100708,9.39413833618164
1701911566022108400,21.5951083984375,-1.8088631629943848,-2.2361888885498047,9.378891944885254
1701911566039099000,21.612098876953127,-1.9404752254486084,-2.2128348350524902,9.358099937438965
1701911566056096300,21.62909619140625,-2.0585193634033203,-2.220214605331421,9.331090927124023
1701911566073085400,21.64608544921875,-2.1531314849853516,-2.2602803707122803,9.300069808959961
1701911566090067500,21.6630673828125,-2.2226805686950684,-2.3290443420410156,9.266681671142578
1701911566107070500,21.680070556640626,-2.261169195175171,-2.426309585571289,9.232348442077637
