time,seconds_elapsed,z,y,x
1702070549061825800,0.14482568359375,8.319305419921875,5.0755414962768555,1.1243432760238647
1702070549078830800,0.161830810546875,8.214814186096191,5.195312023162842,1.327280879020691
1702070549095819800,0.17881982421875,8.09340763092041,5.3213582038879395,1.5543519258499146
1702070549112813800,0.195813720703125,7.930276393890381,5.477805137634277,1.8276933431625366
1702070549129799200,0.212799072265625,7.724424839019775,5.653926849365234,2.145341396331787
1702070549146792200,0.229792236328125,7.472159385681152,5.836172103881836,2.5183420181274414
1702070549163783200,0.246783203125,7.144252777099609,6.026238918304443,2.9799671173095703
1702070549180769500,0.26376953125,6.7112627029418945,6.2097859382629395,3.5543806552886963
1702070549197760500,0.280760498046875,6.207090377807617,6.3269362449646,4.204524993896484
1702070549214755000,0.297755126953125,5.707202911376953,6.335339069366455,4.8505072593688965
1702070549231740000,0.314739990234375,5.221930980682373,6.256662368774414,5.460926532745361
1702070549248733700,0.331733642578125,4.7213053703308105,6.112300395965576,6.048567295074463
1702070549265722400,0.348722412109375,4.132277011871338,5.932331562042236,6.630824565887451
1702070549282714600,0.365714599609375,3.4210236072540283,5.706333160400391,7.209055423736572
1702070549299702000,0.382701904296875,2.681520938873291,5.379796981811523,7.752634525299072
1702070549316693500,0.399693603515625,2.060580015182495,4.997840404510498,8.186068534851074
1702070549333684700,0.416684814453125,1.578694462776184,4.646018981933594,8.494606018066406
1702070549350671400,0.43367138671875,1.1812118291854858,4.337612628936768,8.719286918640137
1702070549367663900,0.450663818359375,0.8350695371627808,4.005309581756592,8.916068077087402
1702070549384653300,0.4676533203125,0.5335608124732971,3.5826494693756104,9.116800308227539
1702070549401636900,0.484636962890625,0.259633332490921,3.0589773654937744,9.317261695861816
1702070549418621400,0.501621337890625,-0.015510909259319305,2.4831740856170654,9.490506172180176
1702070549435625700,0.518625732421875,-0.2858651280403137,1.928200602531433,9.614387512207031
1702070549452618800,0.53561865234375,-0.515023946762085,1.426522135734558,9.69205379486084
1702070549469602300,0.552602294921875,-0.6473347544670105,0.949079155921936,9.742501258850098
1702070549486608600,0.569608642578125,-0.65224289894104,0.44099411368370056,9.778355598449707
1702070549503587000,0.586587158203125,-0.5450827479362488,-0.13054494559764862,9.793975830078125
1702070549520573200,0.6035732421875,-0.39595651626586914,-0.7531366348266602,9.773030281066895
1702070549537565200,0.620565185546875,-0.2753986120223999,-1.378759741783142,9.708722114562988
1702070549554559000,0.63755908203125,-0.21439635753631592,-1.9746133089065552,9.606823921203613
1702070549571543600,0.65454345703125,-0.2243424654006958,-2.5370981693267822,9.473591804504395
1702070549588537300,0.671537353515625,-0.2976115942001343,-3.078950881958008,9.309544563293457
1702070549605526300,0.6885263671875,-0.4177350401878357,-3.5977914333343506,9.11688232421875
1702070549622518300,0.705518310546875,-0.5704432725906372,-4.083375930786133,8.901503562927246
1702070549639504100,0.722504150390625,-0.7250500917434692,-4.545578479766846,8.663033485412598
1702070549656496400,0.739496337890625,-0.8499472141265869,-4.991847515106201,8.402093887329102
1702070549673485600,0.756485595703125,-0.9274739623069763,-5.418813228607178,8.124801635742188
1702070549690477600,0.7734775390625,-0.9481611251831055,-5.815961837768555,7.8429388999938965
1702070549707467500,0.790467529296875,-0.9122586250305176,-6.169406414031982,7.572473049163818
1702070549724459500,0.80745947265625,-0.8330747485160828,-6.470595359802246,7.326220989227295
1702070549741445000,0.824445068359375,-0.7275041937828064,-6.724519729614258,7.105470180511475
1702070549758423800,0.841423828125,-0.6115869283676147,-6.943542957305908,6.902847766876221
1702070549775427800,0.858427734375,-0.4997141659259796,-7.139796733856201,6.708927631378174
1702070549792420000,0.875420166015625,-0.40227851271629333,-7.303250789642334,6.5373406410217285
1702070549809405700,0.89240576171875,-0.3203318417072296,-7.422181129455566,6.406615734100342
1702070549826403300,0.9094033203125,-0.25216177105903625,-7.499988079071045,6.318441867828369
1702070549843377700,0.926377685546875,-0.19113905727863312,-7.548354625701904,6.262739658355713
1702070549860372200,0.943372314453125,-0.13027362525463104,-7.575157165527344,6.231866359710693
1702070549877368800,0.960368896484375,-0.058866847306489944,-7.574958801269531,6.233189105987549
1702070549894363400,0.97736328125,0.021268663927912712,-7.537718296051025,6.278413772583008
1702070549911350800,0.994350830078125,0.10377930849790573,-7.470515727996826,6.357415676116943
1702070549928341000,1.011341064453125,0.18029803037643433,-7.377742767333984,6.463168144226074
1702070549945323500,1.028323486328125,0.23733294010162354,-7.252648830413818,6.601428508758545
1702070549962311700,1.045311767578125,0.27221596240997314,-7.091316223144531,6.773128032684326
1702070549979308000,1.06230810546875,0.29409098625183105,-6.9001288414001465,6.966912269592285
1702070549996299000,1.079299072265625,0.3087926506996155,-6.691532135009766,7.166878700256348
1702070550013293800,1.0962939453125,0.326434850692749,-6.472375869750977,7.364637851715088
1702070550030278700,1.113278564453125,0.35174688696861267,-6.239188194274902,7.562070846557617
1702070550047271000,1.13027099609375,0.3783920407295227,-5.979257106781006,7.767974853515625
1702070550064263200,1.14726318359375,0.40278106927871704,-5.6790032386779785,7.988918781280518
1702070550081241900,1.164241943359375,0.42298001050949097,-5.329766750335693,8.22500991821289
1702070550098232800,1.18123291015625,0.42433685064315796,-4.914152145385742,8.479808807373047
1702070550115230700,1.198230712890625,0.37493225932121277,-4.417527675628662,8.751056671142578
1702070550132224000,1.21522412109375,0.2560466527938843,-3.8546993732452393,9.017308235168457
1702070550149209600,1.232209716796875,0.0816616341471672,-3.2671031951904297,9.24962043762207
1702070550166202000,1.2492021484375,-0.10316652059555054,-2.694289445877075,9.432194709777832
1702070550183195100,1.266195068359375,-0.24591636657714844,-2.166576623916626,9.56460189819336
1702070550200180700,1.2831806640625,-0.344206303358078,-1.6850775480270386,9.658061981201172
1702070550217172700,1.3001728515625,-0.4252539873123169,-1.2444275617599487,9.721453666687012
1702070550234167600,1.31716748046875,-0.5315949320793152,-0.8484854102134705,9.758770942687988
1702070550251148000,1.33414794921875,-0.6934710144996643,-0.49385616183280945,9.772990226745605
1702070550268144000,1.35114404296875,-0.915988564491272,-0.16432899236679077,9.765759468078613
1702070550285134000,1.368134033203125,-1.1795121431350708,0.14341261982917786,9.737776756286621
1702070550302134800,1.385134765625,-1.4621448516845703,0.4245339035987854,9.691132545471191
1702070550319116500,1.402116455078125,-1.752114176750183,0.6809778809547424,9.628214836120605
1702070550336106000,1.41910595703125,-2.0403151512145996,0.9180868864059448,9.551457405090332
1702070550353097200,1.43609716796875,-2.313955545425415,1.143187403678894,9.464399337768555
1702070550370082300,1.453082275390625,-2.5623130798339844,1.3622406721115112,9.370965957641602
1702070550387069200,1.470069091796875,-2.7743847370147705,1.5752613544464111,9.276716232299805
1702070550404064500,1.487064453125,-2.9276115894317627,1.7676807641983032,9.194591522216797
1702070550421053200,1.50405322265625,-3.0191187858581543,1.9243519306182861,9.133342742919922
1702070550438048800,1.521048828125,-3.058534860610962,2.0406739711761475,9.09489631652832
1702070550455025200,1.538025146484375,-3.051776647567749,2.1170051097869873,9.079705238342285
1702070550472023800,1.55502392578125,-2.98250412940979,2.150383234024048,9.094869613647461
1702070550489016300,1.572016357421875,-2.8202250003814697,2.130826711654663,9.151063919067383
1702070550505997600,1.58899755859375,-2.585669755935669,2.0228335857391357,9.244383811950684
1702070550522995200,1.6059951171875,-2.3314669132232666,1.780680775642395,9.361066818237305
1702070550539979800,1.622979736328125,-2.1098504066467285,1.4169093370437622,9.475074768066406
1702070550556976000,1.63997607421875,-1.9475806951522827,0.9890615344047546,9.563722610473633
1702070550573966300,1.65696630859375,-1.8360415697097778,0.5542216300964355,9.620699882507324
1702070550590950100,1.6739501953125,-1.7380434274673462,0.12407616525888443,9.654009819030762
1702070550607948300,1.6909482421875,-1.598453402519226,-0.34330320358276367,9.672807693481445
1702070550624935400,1.707935302734375,-1.3971010446548462,-0.8800784945487976,9.67004108428955
1702070550641927700,1.724927734375,-1.1706115007400513,-1.4648377895355225,9.629124641418457
1702070550658923000,1.741923095703125,-0.9497796297073364,-2.020343780517578,9.552603721618652
1702070550675908400,1.758908447265625,-0.7378116250038147,-2.4822824001312256,9.462030410766602
1702070550692899300,1.7758994140625,-0.5360154509544373,-2.8547160625457764,9.370132446289062
1702070550709886500,1.792886474609375,-0.35541659593582153,-3.1837997436523438,9.272173881530762
1702070550726876400,1.80987646484375,-0.20094892382621765,-3.5250134468078613,9.152596473693848
1702070550743872000,1.8268720703125,-0.0640825629234314,-3.9195051193237305,8.992746353149414
1702070550760852500,1.8438525390625,0.054808877408504486,-4.371720790863037,8.781867027282715
1702070550777849300,1.860849365234375,0.16514408588409424,-4.850882053375244,8.525126457214355
1702070550794839600,1.877839599609375,0.2831800878047943,-5.314608097076416,8.240805625915527
1702070550811827000,1.894826904296875,0.42055046558380127,-5.736167907714844,7.947052478790283
1702070550828819700,1.91181982421875,0.5896519422531128,-6.1115946769714355,7.650938034057617
1702070550845810400,1.928810546875,0.7778931260108948,-6.443154335021973,7.356408596038818
1702070550862801700,1.9458017578125,0.956089973449707,-6.733452320098877,7.069839000701904
1702070550879774700,1.962774658203125,1.1019037961959839,-6.991234302520752,6.792980194091797
1702070550896779500,1.979779541015625,1.2170836925506592,-7.218869209289551,6.5301408767700195
1702070550913772000,1.99677197265625,1.3013657331466675,-7.407323360443115,6.298738956451416
1702070550930758100,2.013758056640625,1.3600308895111084,-7.555314064025879,6.107670307159424
1702070550947750700,2.030750732421875,1.3930124044418335,-7.667714595794678,5.958337783813477
1702070550964742100,2.0477421875,1.399557113647461,-7.745361804962158,5.855485439300537
1702070550981723400,2.064723388671875,1.375355839729309,-7.784926414489746,5.808564186096191
1702070550998724000,2.08172412109375,1.3221946954727173,-7.784038543701172,5.822083950042725
1702070551015707600,2.098707763671875,1.2475330829620361,-7.740817546844482,5.895723819732666
1702070551032705000,2.115705078125,1.1529887914657593,-7.653702259063721,6.027235507965088
1702070551049689300,2.132689453125,1.046938180923462,-7.527767658233643,6.202641487121582
1702070551066682000,2.14968212890625,0.9446805715560913,-7.379904270172119,6.393802642822266
1702070551083673900,2.166673828125,0.8492271304130554,-7.220919132232666,6.585838317871094
1702070551100660000,2.183659912109375,0.7552626729011536,-7.044018268585205,6.785831928253174
1702070551117652700,2.20065283203125,0.6582345366477966,-6.823975563049316,7.016852855682373
1702070551134644500,2.21764453125,0.5475479364395142,-6.539115905761719,7.292206764221191
1702070551151630600,2.234630615234375,0.4192640781402588,-6.17389440536499,7.612054347991943
1702070551168623900,2.251623779296875,0.2655378580093384,-5.724879741668701,7.961869239807129
1702070551185619200,2.268619140625,0.07840298116207123,-5.209271430969238,8.312249183654785
1702070551202605800,2.285605712890625,-0.1321178376674652,-4.663297176361084,8.62973403930664
1702070551219590000,2.30258984375,-0.34314852952957153,-4.126799583435059,8.89313793182373
1702070551236567300,2.3195673828125,-0.5342648029327393,-3.632955312728882,9.096829414367676
1702070551253575400,2.336575439453125,-0.6980581879615784,-3.2017343044281006,9.246496200561523
1702070551270561800,2.353561767578125,-0.8292971849441528,-2.8348989486694336,9.354771614074707
1702070551287554800,2.370554931640625,-0.9300979375839233,-2.5111987590789795,9.437420845031738
1702070551304546000,2.387546142578125,-1.0173810720443726,-2.198577404022217,9.506174087524414
1702070551321532200,2.4045322265625,-1.0912880897521973,-1.875366449356079,9.567037582397461
1702070551338515200,2.42151513671875,-1.1379945278167725,-1.539733648300171,9.621346473693848
1702070551355515400,2.438515380859375,-1.1430670022964478,-1.2055740356445312,9.668303489685059
1702070551372506600,2.455506591796875,-1.1070481538772583,-0.8958250284194946,9.706083297729492
1702070551389493200,2.4724931640625,-1.0545331239700317,-0.6217256784439087,9.733321189880371
1702070551406485800,2.48948583984375,-1.0187393426895142,-0.38138115406036377,9.749503135681152
1702070551423478000,2.50647802734375,-1.020668387413025,-0.1729486584663391,9.755226135253906
1702070551440463400,2.52346337890625,-1.0618011951446533,0.0066979858092963696,9.75236701965332
1702070551457456000,2.5404560546875,-1.1255797147750854,0.15334352850914001,9.74400806427002
1702070551474444500,2.557444580078125,-1.189239501953125,0.25553473830223083,9.734296798706055
1702070551491427600,2.574427490234375,-1.2460235357284546,0.29838138818740845,9.725972175598145
1702070551508427300,2.59142724609375,-1.307938575744629,0.2723533809185028,9.718602180480957
1702070551525417000,2.6084169921875,-1.3868848085403442,0.16868633031845093,9.710005760192871
1702070551542401000,2.625401123046875,-1.4898284673690796,-0.005583506543189287,9.696210861206055
1702070551559395600,2.6423955078125,-1.6158056259155273,-0.2130865752696991,9.673669815063477
1702070551576398800,2.65939892578125,-1.7408185005187988,-0.42737650871276855,9.644844055175781
1702070551593371000,2.676370849609375,-1.8143022060394287,-0.6685733199119568,9.617559432983398
1702070551610366000,2.693365966796875,-1.7794855833053589,-0.9760351181030273,9.597756385803223
1702070551627363000,2.710363037109375,-1.6073212623596191,-1.3547639846801758,9.582130432128906
1702070551644343600,2.727343505859375,-1.3198399543762207,-1.7777390480041504,9.556870460510254
1702070551661336000,2.744336181640625,-0.9808628559112549,-2.2155802249908447,9.506062507629395
1702070551678329300,2.761329345703125,-0.6601536273956299,-2.659151792526245,9.4196195602417
1702070551695317200,2.778317138671875,-0.4067726731300354,-3.1093289852142334,9.295308113098145
1702070551712301600,2.795301513671875,-0.24022993445396423,-3.572777509689331,9.133108139038086
1702070551729296600,2.812296630859375,-0.14387133717536926,-4.06547737121582,8.926774024963379
1702070551746289700,2.82928955078125,-0.08282054960727692,-4.589653015136719,8.669736862182617
1702070551763281400,2.846281494140625,-0.03482835739850998,-5.118168830871582,8.36894702911377
1702070551780267000,2.86326708984375,0.011452942155301571,-5.623716831207275,8.0380220413208
1702070551797259800,2.880259765625,0.06625422090291977,-6.097761631011963,7.684337615966797
1702070551814249200,2.897249267578125,0.12881533801555634,-6.538718223571777,7.311954498291016
1702070551831240700,2.91424072265625,0.19448161125183105,-6.941246509552002,6.9294586181640625
1702070551848231000,2.93123095703125,0.2592102885246277,-7.288585186004639,6.5609049797058105
1702070551865220400,2.948220458984375,0.31445831060409546,-7.564711093902588,6.237979412078857
1702070551882213000,2.965213134765625,0.34788450598716736,-7.775247097015381,5.971652984619141
1702070551899199000,2.982198974609375,0.3564629554748535,-7.933675765991211,5.758978366851807
1702070551916189200,2.999189208984375,0.34139877557754517,-8.051814079284668,5.593554496765137
1702070551933184800,3.016184814453125,0.3077448308467865,-8.138163566589355,5.469160079956055
1702070551950169000,3.033169189453125,0.2689935564994812,-8.19412612915039,5.387029647827148
1702070551967161900,3.050161865234375,0.24505272507667542,-8.217854499816895,5.351908206939697
1702070551984153300,3.0671533203125,0.2615509331226349,-8.21491813659668,5.355635166168213
1702070552001143000,3.08414306640625,0.3377194106578827,-8.200629234313965,5.373244762420654
1702070552018134500,3.101134521484375,0.4632239043712616,-8.181671142578125,5.392755031585693
1702070552035128000,3.118128173828125,0.5936664938926697,-8.14967155456543,5.428308010101318
1702070552052113200,3.135113037109375,0.6810855865478516,-8.095888137817383,5.498075008392334
1702070552069103900,3.152103759765625,0.7103939056396484,-8.024255752563477,5.598461151123047
1702070552086093800,3.16909375,0.7026362419128418,-7.935917377471924,5.72395133972168
1702070552103084500,3.18608447265625,0.668428897857666,-7.821066856384277,5.883897304534912
1702070552120063500,3.2030634765625,0.6027897596359253,-7.674909591674805,6.08017635345459
1702070552137064200,3.220064208984375,0.515880286693573,-7.506645202636719,6.294464111328125
1702070552154054700,3.2370546875,0.44219863414764404,-7.330144882202148,6.504581451416016
1702070552171045000,3.254045166015625,0.4354889392852783,-7.148704528808594,6.703916549682617
1702070552188023000,3.27102294921875,0.5009680986404419,-6.934689521789551,6.920637130737305
1702070552205017300,3.288017333984375,0.5884907245635986,-6.653112411499023,7.185116291046143
1702070552222018000,3.30501806640625,0.6286400556564331,-6.291337490081787,7.500667572021484
1702070552239005700,3.322005615234375,0.5778122544288635,-5.856852054595947,7.848538875579834
1702070552255995100,3.3389951171875,0.44063565135002136,-5.374075412750244,8.195199012756348
1702070552272985600,3.355985595703125,0.26594892144203186,-4.880998611450195,8.505364418029785
1702070552289975800,3.372975830078125,0.09565167874097824,-4.402583599090576,8.766083717346191
1702070552306966500,3.389966552734375,-0.051985256373882294,-3.9439618587493896,8.982125282287598
1702070552323956200,3.406956298828125,-0.16941606998443604,-3.5086617469787598,9.159513473510742
1702070552340946700,3.42394677734375,-0.25324058532714844,-3.100951671600342,9.303553581237793
1702070552357936600,3.4409365234375,-0.30457329750061035,-2.723994493484497,9.41930103302002
1702070552374927000,3.457927001953125,-0.33301296830177307,-2.377258062362671,9.511775016784668
1702070552391906600,3.474906494140625,-0.3529636859893799,-2.059213399887085,9.584945678710938
1702070552408907300,3.4919072265625,-0.3788732886314392,-1.764740228652954,9.642523765563965
1702070552425897500,3.5088974609375,-0.42192456126213074,-1.4911681413650513,9.686821937561035
1702070552442888000,3.525887939453125,-0.4942534565925598,-1.238266110420227,9.718977928161621
1702070552459880000,3.5428798828125,-0.5946226716041565,-1.0086345672607422,9.739876747131348
1702070552476868400,3.559868408203125,-0.7186526656150818,-0.8048432469367981,9.750482559204102
1702070552493845800,3.576845703125,-0.8466879725456238,-0.6299980282783508,9.753067016601562
1702070552510832600,3.59383251953125,-0.9624552726745605,-0.48580512404441833,9.750577926635742
1702070552527827500,3.610827392578125,-1.0622748136520386,-0.37880632281303406,9.74495792388916
1702070552544822500,3.627822509765625,-1.1476926803588867,-0.32121914625167847,9.737336158752441
1702070552561818000,3.644818115234375,-1.2166624069213867,-0.319537490606308,9.729015350341797
1702070552578798600,3.661798583984375,-1.2678091526031494,-0.37889257073402405,9.720349311828613
1702070552595792600,3.678792724609375,-1.2970685958862305,-0.5136255621910095,9.710299491882324
1702070552612789800,3.695789794921875,-1.3075474500656128,-0.7287145256996155,9.695122718811035
1702070552629770000,3.71277001953125,-1.3135730028152466,-1.011224389076233,9.66892147064209
1702070552646757400,3.72975732421875,-1.316214680671692,-1.3426412343978882,9.62813663482666
1702070552663751700,3.746751708984375,-1.3105984926223755,-1.6962485313415527,9.572940826416016
1702070552680751900,3.763751953125,-1.2923107147216797,-2.0575740337371826,9.504337310791016
1702070552697739000,3.780739013671875,-1.2512942552566528,-2.4409570693969727,9.418710708618164
1702070552714731000,3.79773095703125,-1.1687999963760376,-2.8918604850769043,9.300922393798828
1702070552731720700,3.814720703125,-1.029090166091919,-3.423571825027466,9.135438919067383
1702070552748711200,3.831711181640625,-0.8381364345550537,-3.9599807262420654,8.936007499694824
1702070552765701400,3.848701416015625,-0.603865385055542,-4.409245014190674,8.742427825927734
1702070552782691600,3.865691650390625,-0.35553646087646484,-4.736550331115723,8.583402633666992
1702070552799681300,3.882681396484375,-0.1426977962255478,-4.959827423095703,8.462615966796875
1702070552816671500,3.89967138671875,0.013388955034315586,-5.1264472007751465,8.36393928527832
1702070552833662000,3.916661865234375,0.12307687848806381,-5.291245460510254,8.25976276397705
1702070552850652200,3.933652099609375,0.20279665291309357,-5.490685939788818,8.126953125
1702070552867641900,3.950641845703125,0.2693353295326233,-5.7295026779174805,7.958414077758789
1702070552884642800,3.967642822265625,0.3317365348339081,-5.9935479164123535,7.759088039398193
1702070552901622800,3.984622802734375,0.39942479133605957,-6.26255989074707,7.540353298187256
1702070552918603000,4.00160302734375,0.4740542471408844,-6.519743919372559,7.314666748046875
1702070552935604700,4.018604736328125,0.5474727749824524,-6.753293991088867,7.09432315826416
1702070552952590800,4.0355908203125,0.6140137910842896,-6.969607830047607,6.876311779022217
1702070552969573000,4.052572998046875,0.6717796325683594,-7.180746555328369,6.649941444396973
1702070552986575000,4.0695751953125,0.71857750415802,-7.389182090759277,6.412468433380127
1702070553003563500,4.0865634765625,0.7630423903465271,-7.588193416595459,6.170349597930908
1702070553020553700,4.1035537109375,0.8199729323387146,-7.762976169586182,5.941378116607666
1702070553037544000,4.1205439453125,0.8964328765869141,-7.905192852020264,5.739377975463867
1702070553054534700,4.13753466796875,0.9997976422309875,-8.024162292480469,5.55421781539917
1702070553071510300,4.15451025390625,1.1320770978927612,-8.126123428344727,5.377789497375488
1702070553088514800,4.171514892578125,1.2626854181289673,-8.205581665039062,5.2259135246276855
1702070553105505000,4.188505126953125,1.348386287689209,-8.261076927185059,5.115915775299072
1702070553122495200,4.2054951171875,1.3793848752975464,-8.298057556152344,5.0473408699035645
1702070553139485000,4.22248486328125,1.3824560642242432,-8.318331718444824,5.013010501861572
1702070553156475100,4.23947509765625,1.3851839303970337,-8.317638397216797,5.013407230377197
1702070553173468000,4.256468017578125,1.3847850561141968,-8.287449836730957,5.063265800476074
1702070553190456000,4.2734560546875,1.3591712713241577,-8.224777221679688,5.171248435974121
1702070553207445500,4.290445556640625,1.2887728214263916,-8.131261825561523,5.334582328796387
1702070553224435700,4.307435791015625,1.1792653799057007,-8.020262718200684,5.524566650390625
1702070553241437200,4.324437255859375,1.0917880535125732,-7.905467987060547,5.705060958862305
1702070553258407400,4.341407470703125,1.0737783908843994,-7.778837203979492,5.879865646362305
1702070553275403800,4.35840380859375,1.1129897832870483,-7.606436252593994,6.09421968460083
1702070553292399000,4.375399169921875,1.1468241214752197,-7.356700897216797,6.387476444244385
1702070553309384200,4.39238427734375,1.1073585748672485,-7.022562503814697,6.759696006774902
1702070553326380000,4.409380126953125,0.9746344089508057,-6.6193528175354,7.174285411834717
1702070553343354600,4.426354736328125,0.7739822268486023,-6.179998874664307,7.579225540161133
1702070553360346400,4.443346435546875,0.5549259185791016,-5.733912467956543,7.940429210662842
1702070553377351000,4.460350830078125,0.350435346364975,-5.2873215675354,8.255759239196777
1702070553394334500,4.47733447265625,0.18187765777111053,-4.844878673553467,8.528199195861816
1702070553411330000,4.494330078125,0.04564044252038002,-4.4071879386901855,8.76417350769043
1702070553428318200,4.511318115234375,-0.06852936744689941,-3.9801857471466064,8.966020584106445
1702070553445300200,4.52830029296875,-0.1670689880847931,-3.5760467052459717,9.13346004486084
1702070553462296800,4.545296875,-0.2554999589920044,-3.2043211460113525,9.268397331237793
1702070553479282400,4.562282470703125,-0.33992087841033936,-2.8671553134918213,9.375499725341797
1702070553496273000,4.57927294921875,-0.4354357421398163,-2.5588743686676025,9.460373878479004
1702070553513268200,4.596268310546875,-0.551814615726471,-2.269564628601074,9.527892112731934
1702070553530251800,4.613251708984375,-0.6901311278343201,-1.9929226636886597,9.580610275268555
1702070553547242200,4.6302421875,-0.8552728295326233,-1.7235503196716309,9.61945915222168
1702070553564235000,4.647235107421875,-1.039444923400879,-1.46023428440094,9.644864082336426
1702070553581228500,4.664228515625,-1.2216535806655884,-1.2084358930587769,9.658331871032715
1702070553598213000,4.681213134765625,-1.3732917308807373,-0.9796995520591736,9.66386890411377
1702070553615202000,4.6982021484375,-1.4822171926498413,-0.7897536158561707,9.665166854858398
1702070553632197600,4.71519775390625,-1.5488070249557495,-0.6501116156578064,9.665125846862793
1702070553649188400,4.732188232421875,-1.5848721265792847,-0.5676628947257996,9.664475440979004
1702070553666177800,4.749177734375,-1.6019927263259888,-0.5497324466705322,9.662688255310059
1702070553683160000,4.76616015625,-1.6011682748794556,-0.6060905456542969,9.659454345703125
1702070553700151800,4.78315185546875,-1.5938376188278198,-0.7314820289611816,9.651981353759766
1702070553717144600,4.80014453125,-1.5979558229446411,-0.908890962600708,9.636211395263672
1702070553734146600,4.817146484375,-1.607370376586914,-1.1265935897827148,9.611621856689453
1702070553751127600,4.83412744140625,-1.609391212463379,-1.393165111541748,9.576276779174805
1702070553768121600,4.85112158203125,-1.5853503942489624,-1.7287510633468628,9.525450706481934
1702070553785093600,4.86809375,-1.5103049278259277,-2.1391797065734863,9.454047203063965
1702070553802099700,4.885099609375,-1.3881086111068726,-2.587172269821167,9.360332489013672
1702070553819091700,4.902091796875,-1.2524830102920532,-2.993668794631958,9.257719039916992
1702070553836082400,4.91908251953125,-1.1389265060424805,-3.300201892852783,9.16775131225586
1702070553853069800,4.93606982421875,-1.060856819152832,-3.4960148334503174,9.104316711425781
1702070553870065700,4.953065673828125,-0.9892659187316895,-3.614075183868408,9.066197395324707
1702070553887052500,4.970052490234375,-0.88475102186203,-3.7220959663391113,9.033234596252441
1702070553904032500,4.987032470703125,-0.7318170666694641,-3.8793795108795166,8.98058795928955
1702070553921033200,5.004033203125,-0.5444459915161133,-4.108328342437744,8.891642570495605
1702070553938024000,5.02102392578125,-0.35471081733703613,-4.398452281951904,8.761502265930176
1702070553955013000,5.03801318359375,-0.18655717372894287,-4.71898078918457,8.598403930664062
1702070553972003800,5.05500390625,-0.04301738366484642,-5.039431095123291,8.41655445098877
1702070553988993800,5.071993896484375,0.07788550108671188,-5.3418989181518555,8.227646827697754
1702070554005984500,5.088984619140625,0.1817794144153595,-5.624537467956543,8.035399436950684
1702070554022970000,5.10597021484375,0.26897895336151123,-5.892084121704102,7.838820934295654
1702070554039958000,5.1229580078125,0.3410189747810364,-6.154024124145508,7.632026672363281
1702070554056954600,5.13995458984375,0.39955079555511475,-6.409240245819092,7.416071891784668
1702070554073939000,5.15693896484375,0.4514424800872803,-6.648405075073242,7.199377059936523
1702070554090939100,5.173939208984375,0.508320689201355,-6.867549419403076,6.9867377281188965
1702070554107925200,5.19092529296875,0.5776605010032654,-7.064352512359619,6.782135486602783
1702070554124915700,5.207915771484375,0.6598249673843384,-7.23873233795166,6.587982177734375
1702070554141906000,5.224906005859375,0.7430934309959412,-7.3919806480407715,6.406446933746338
1702070554158893600,5.2418935546875,0.8116146326065063,-7.524758815765381,6.241426467895508
1702070554175888000,5.258887939453125,0.851016640663147,-7.637772083282471,6.097240447998047
1702070554192876300,5.275876220703125,0.8563358783721924,-7.732483863830566,5.975907802581787
1702070554209866500,5.292866455078125,0.8372184038162231,-7.811385154724121,5.875154972076416
1702070554226856400,5.3098564453125,0.811348557472229,-7.871693134307861,5.797780990600586
1702070554243846700,5.3268466796875,0.7828744053840637,-7.904916286468506,5.756348609924316
1702070554260836900,5.3438369140625,0.7415430545806885,-7.907212734222412,5.758665084838867
1702070554277827300,5.360827392578125,0.671404242515564,-7.882962703704834,5.800364017486572
1702070554294817000,5.377817138671875,0.5850738883018494,-7.843807220458984,5.8624653816223145
1702070554311807200,5.39480712890625,0.5319197773933411,-7.809098243713379,5.9136433601379395
1702070554328797200,5.411797119140625,0.5525452494621277,-7.777439594268799,5.953338623046875
1702070554345788000,5.428787841796875,0.6578793525695801,-7.717062950134277,6.020816326141357
1702070554362777600,5.445777587890625,0.8205307722091675,-7.589898109436035,6.1608662605285645
1702070554379768000,5.46276806640625,0.959746241569519,-7.373281478881836,6.399197101593018
1702070554396758300,5.47975830078125,1.0059585571289062,-7.071853160858154,6.724066257476807
1702070554413748700,5.496748779296875,0.9499334096908569,-6.719298362731934,7.084122657775879
1702070554430733800,5.51373388671875,0.8424265384674072,-6.361435413360596,7.4201459884643555
1702070554447733200,5.530733154296875,0.7640475034713745,-6.028833389282227,7.70100736618042
1702070554464718800,5.54771875,0.7481729388237,-5.728081703186035,7.928771495819092
1702070554481699300,5.56469921875,0.7612969875335693,-5.452937126159668,8.119236946105957
1702070554498699000,5.581698974609375,0.769133448600769,-5.203778266906738,8.280413627624512
1702070554515689200,5.598689208984375,0.7533026933670044,-4.980157852172852,8.418235778808594
1702070554532680000,5.615679931640625,0.7097403407096863,-4.773564338684082,8.540811538696289
1702070554549670000,5.632669921875,0.6343866586685181,-4.564370155334473,8.66026496887207
1702070554566659800,5.649659912109375,0.5177727341651917,-4.3433756828308105,8.780838012695312
1702070554583650300,5.666650390625,0.35886701941490173,-4.111583709716797,8.899561882019043
1702070554600640300,5.68364013671875,0.1657177060842514,-3.8757143020629883,9.01041030883789
1702070554617630700,5.700630615234375,-0.049621228128671646,-3.6494905948638916,9.10576057434082
1702070554634620700,5.71762060546875,-0.272879034280777,-3.4386985301971436,9.183517456054688
1702070554651611000,5.73461083984375,-0.4932962656021118,-3.241441011428833,9.245855331420898
1702070554668601000,5.75160107421875,-0.7038007378578186,-3.0487186908721924,9.297638893127441
1702070554685580800,5.768580810546875,-0.8951514363288879,-2.8501522541046143,9.344059944152832
1702070554702581200,5.785581298828125,-1.0512627363204956,-2.6540024280548096,9.385481834411621
1702070554719571500,5.802571533203125,-1.1511343717575073,-2.485659599304199,9.419795036315918
1702070554736559600,5.8195595703125,-1.1821632385253906,-2.3609025478363037,9.448001861572266
1702070554753554700,5.8365546875,-1.152325987815857,-2.2919628620147705,9.468639373779297
1702070554770541800,5.853541748046875,-1.0926563739776611,-2.2951879501342773,9.474932670593262
1702070554787532300,5.8705322265625,-1.0334042310714722,-2.384931802749634,9.459402084350586
1702070554804522500,5.8875224609375,-0.9929040670394897,-2.570983648300171,9.414897918701172
1702070554821513000,5.904512939453125,-0.9800571203231812,-2.8443098068237305,9.33731746673584
1702070554838492000,5.921491943359375,-0.9772136211395264,-3.18510103225708,9.226932525634766
1702070554855492900,5.938492919921875,-0.9432161450386047,-3.578542947769165,9.085180282592773
1702070554872483000,5.955483154296875,-0.8448864221572876,-4.021518707275391,8.907842636108398
1702070554889473500,5.9724736328125,-0.6834249496459961,-4.506689548492432,8.686701774597168
1702070554906460700,5.989460693359375,-0.48898687958717346,-4.990969657897949,8.431324005126953
1702070554923456300,6.006456298828125,-0.29313963651657104,-5.426876068115234,8.166958808898926
1702070554940443600,6.023443603515625,-0.118678018450737,-5.777814865112305,7.927099227905273
1702070554957432000,6.04043212890625,0.017244024202227592,-6.042855739593506,7.727854251861572
1702070554974426000,6.057426025390625,0.10498091578483582,-6.24049711227417,7.5684404373168945
1702070554991414500,6.07441455078125,0.1381784826517105,-6.3828229904174805,7.448263168334961
1702070555008404500,6.091404541015625,0.12497839331626892,-6.4746246337890625,7.368836402893066
1702070555025395000,6.10839501953125,0.09628435224294662,-6.528226375579834,7.321823596954346
1702070555042384600,6.125384521484375,0.08090851455926895,-6.558205604553223,7.295172691345215
1702070555059381800,6.1423818359375,0.10159596055746078,-6.58197021484375,7.273477554321289
1702070555076365000,6.159364990234375,0.15674631297588348,-6.610533237457275,7.246542930603027
1702070555093351400,6.176351318359375,0.22390218079090118,-6.645805835723877,7.212437152862549
1702070555110345000,6.193344970703125,0.2856593132019043,-6.68769645690918,7.171416759490967
1702070555127333600,6.210333740234375,0.33273932337760925,-6.732687950134277,7.127151966094971
1702070555144328400,6.227328369140625,0.3741112947463989,-6.781681537628174,7.07848596572876
1702070555161305600,6.2443056640625,0.42431315779685974,-6.836716175079346,7.022492408752441
1702070555178305800,6.261305908203125,0.48321861028671265,-6.887024402618408,6.969327449798584
1702070555195296500,6.278296630859375,0.543325662612915,-6.916933059692383,6.935197353363037
1702070555212286500,6.295286376953125,0.5919984579086304,-6.923188209533691,6.924962997436523
1702070555229277200,6.312277099609375,0.6200750470161438,-6.912709712982178,6.93297004699707
1702070555246256000,6.329256103515625,0.6293294429779053,-6.894542694091797,6.950204849243164
1702070555263254500,6.346254638671875,0.6239067316055298,-6.874823093414307,6.9701972007751465
1702070555280249900,6.363249755859375,0.6055107712745667,-6.85059118270874,6.995631694793701
1702070555297227300,6.380227294921875,0.5755870938301086,-6.81424617767334,7.0335540771484375
1702070555314222800,6.397222900390625,0.5365183353424072,-6.758299827575684,7.090390682220459
1702070555331222000,6.414221923828125,0.49295011162757874,-6.681842803955078,7.16562032699585
1702070555348208000,6.4312080078125,0.45423218607902527,-6.583971977233887,7.258175849914551
1702070555365198600,6.448198486328125,0.4244248569011688,-6.461894512176514,7.368847370147705
1702070555382176800,6.4651767578125,0.4064721465110779,-6.318841934204102,7.492873191833496
1702070555399179300,6.48217919921875,0.40072372555732727,-6.164130210876465,7.620960712432861
1702070555416168700,6.499168701171875,0.40751469135284424,-6.013955593109131,7.739663600921631
1702070555433159000,6.516158935546875,0.41539791226387024,-5.884620189666748,7.8380351066589355
1702070555450146000,6.53314599609375,0.39638394117355347,-5.774636745452881,7.920388221740723
1702070555467142000,6.550141845703125,0.3414686322212219,-5.675958156585693,7.993936061859131
1702070555484129300,6.56712939453125,0.2653244435787201,-5.586365699768066,8.059667587280273
1702070555501119700,6.58411962890625,0.18513864278793335,-5.496236801147461,8.123620986938477
1702070555518109400,6.601109375,0.12220973521471024,-5.399446487426758,8.189453125
1702070555535099600,6.618099609375,0.09537218511104584,-5.31038236618042,8.24783992767334
1702070555552090000,6.635090087890625,0.10245491564273834,-5.251011371612549,8.285679817199707
1702070555569080000,6.652080078125,0.11349212378263474,-5.218210220336914,8.306234359741211
1702070555586059300,6.669059326171875,0.08680952340364456,-5.189347743988037,8.324617385864258
1702070555603060500,6.686060546875,0.008129969239234924,-5.153656005859375,8.347208976745605
1702070555620040200,6.703040283203125,-0.10557323694229126,-5.117700099945068,8.36863899230957
1702070555637041000,6.720041015625,-0.20982851088047028,-5.099303722381592,8.377898216247559
1702070555654030800,6.73703076171875,-0.2716476321220398,-5.102365970611572,8.37425708770752
1702070555671021300,6.754021240234375,-0.2921701669692993,-5.11582612991333,8.365350723266602
1702070555688011300,6.77101123046875,-0.28412556648254395,-5.118627071380615,8.363914489746094
1702070555705002000,6.788001953125,-0.27476945519447327,-5.089841842651367,8.3817720413208
1702070555721991400,6.804991455078125,-0.285062313079834,-5.022235870361328,8.422114372253418
1702070555738982000,6.82198193359375,-0.3190276026725769,-4.929185390472412,8.475699424743652
1702070555755963100,6.838963134765625,-0.35673046112060547,-4.834720134735107,8.5284423828125
1702070555772961500,6.85596142578125,-0.37753427028656006,-4.762368202209473,8.568164825439453
1702070555789952800,6.872952880859375,-0.38643956184387207,-4.717730522155762,8.592429161071777
1702070555806942500,6.8899423828125,-0.4015107750892639,-4.695645809173584,8.603826522827148
1702070555823932700,6.9069326171875,-0.43585148453712463,-4.691626071929932,8.604348182678223
1702070555840913200,6.9239130859375,-0.49257296323776245,-4.704589366912842,8.594202995300293
1702070555857913000,6.9409130859375,-0.5661157369613647,-4.731320381164551,8.574978828430176
1702070555874901000,6.95790087890625,-0.6451163291931152,-4.767114162445068,8.549534797668457
1702070555891893200,6.974893310546875,-0.7103063464164734,-4.809791564941406,8.520415306091309
1702070555908873200,6.991873291015625,-0.7495890855789185,-4.858513355255127,8.489351272583008
1702070555925873700,7.008873779296875,-0.7677406072616577,-4.912980556488037,8.456318855285645
1702070555942856200,7.025856201171875,-0.7717161178588867,-4.9671406745910645,8.42425537109375
1702070555959860000,7.04285986328125,-0.7749876379966736,-5.012534141540527,8.397025108337402
1702070555976844300,7.05984423828125,-0.7845203876495361,-5.045457363128662,8.376397132873535
1702070555993822700,7.07682275390625,-0.7912020087242126,-5.074139595031738,8.35842227935791
1702070556010818000,7.093818115234375,-0.7759857773780823,-5.111793041229248,8.336878776550293
1702070556027807500,7.110807373046875,-0.7381846904754639,-5.158858776092529,8.31128215789795
1702070556044793900,7.1277939453125,-0.6854901909828186,-5.205110549926758,8.286919593811035
1702070556061787100,7.144787109375,-0.6432592272758484,-5.237061977386475,8.270159721374512
1702070556078774300,7.161774169921875,-0.6269542574882507,-5.256641387939453,8.258981704711914
1702070556095765800,7.178765869140625,-0.627568244934082,-5.2746992111206055,8.247413635253906
1702070556112768500,7.1957685546875,-0.6163948178291321,-5.297276973724365,8.233773231506348
1702070556129755400,7.21275537109375,-0.5764501094818115,-5.318121433258057,8.223224639892578
1702070556146745600,7.22974560546875,-0.5137030482292175,-5.327486038208008,8.221321105957031
1702070556163735800,7.24673583984375,-0.4440375864505768,-5.317468643188477,8.231858253479004
1702070556180726500,7.2637265625,-0.3933480679988861,-5.2924675941467285,8.250526428222656
1702070556197716000,7.280716064453125,-0.3949718475341797,-5.262365818023682,8.269680976867676
1702070556214701000,7.297701171875,-0.45435672998428345,-5.252429962158203,8.272948265075684
1702070556231696400,7.3146962890625,-0.5468047261238098,-5.292757034301758,8.241592407226562
1702070556248687600,7.3316875,-0.6251100897789001,-5.3926100730896,8.170991897583008
1702070556265675300,7.34867529296875,-0.661056399345398,-5.526220321655273,8.078367233276367
1702070556282665700,7.365665771484375,-0.6600723266601562,-5.664594650268555,7.982027530670166
1702070556299658800,7.38265869140625,-0.6323530077934265,-5.794316291809082,7.890638828277588
1702070556316647700,7.399647705078125,-0.5810489654541016,-5.9178266525268555,7.80242395401001
1702070556333637400,7.416637451171875,-0.5129774212837219,-6.049678325653076,7.7054762840271
1702070556350627800,7.4336279296875,-0.43698233366012573,-6.198502063751221,7.591031074523926
1702070556367617800,7.45061767578125,-0.3630647361278534,-6.3581743240356445,7.461764812469482
1702070556384608300,7.467608154296875,-0.29012423753738403,-6.519068241119385,7.324869155883789
1702070556401598000,7.484597900390625,-0.20834507048130035,-6.674302101135254,7.186542987823486
1702070556418578200,7.501578125,-0.11235717684030533,-6.816429138183594,7.054062366485596
1702070556435576000,7.518576171875,-0.003463305998593569,-6.942049980163574,6.93138313293457
1702070556452572000,7.535572021484375,0.10680174082517624,-7.047696590423584,6.8230977058410645
1702070556469550600,7.552550537109375,0.2010623663663864,-7.127011299133301,6.738056182861328
1702070556486546700,7.569546630859375,0.26082324981689453,-7.178236484527588,6.681393623352051
1702070556503542000,7.5865419921875,0.2893354594707489,-7.2076921463012695,6.6484270095825195
1702070556520529700,7.60352978515625,0.31016087532043457,-7.231476306915283,6.621605396270752
1702070556537519400,7.620519287109375,0.3201432526111603,-7.256932735443115,6.593218803405762
1702070556554509600,7.637509521484375,0.30908089876174927,-7.27013635635376,6.579187393188477
1702070556571500300,7.654500244140625,0.2955755889415741,-7.255100250244141,6.596381664276123
1702070556588490500,7.671490478515625,0.2995511293411255,-7.202895641326904,6.653171062469482
1702070556605480000,7.68847998046875,0.30637481808662415,-7.10808801651001,6.754060745239258
1702070556622470400,7.705470458984375,0.2913223206996918,-6.976808071136475,6.8902387619018555
1702070556639456000,7.7224560546875,0.2520062327384949,-6.82740592956543,7.039827346801758
1702070556656455400,7.739455322265625,0.19991981983184814,-6.678511142730713,7.182870388031006
1702070556673440500,7.7564404296875,0.16766014695167542,-6.534059047698975,7.315332889556885
1702070556690431200,7.77343115234375,0.1678595393896103,-6.386334419250488,7.444639682769775
1702070556707421200,7.790421142578125,0.16918276250362396,-6.231761455535889,7.574472427368164
1702070556724411600,7.80741162109375,0.12501756846904755,-6.0736165046691895,7.702703952789307
1702070556741401300,7.8244013671875,0.006054207216948271,-5.902471542358398,7.835618495941162
1702070556758404400,7.841404296875,-0.18963631987571716,-5.704684257507324,7.978518962860107
1702070556775374000,7.8583740234375,-0.4247008264064789,-5.4703474044799805,8.132099151611328
1702070556792372200,7.875372314453125,-0.6615312099456787,-5.178596496582031,8.305459022521973
1702070556809362200,7.892362060546875,-0.878372848033905,-4.812982559204102,8.502927780151367
1702070556826342700,7.9093427734375,-1.041815996170044,-4.388473033905029,8.711605072021484
1702070556843340300,7.92634033203125,-1.141442894935608,-3.9393961429595947,8.911476135253906
1702070556860323300,7.9433232421875,-1.1933985948562622,-3.4854066371917725,9.09196662902832
1702070556877304600,7.9603046875,-1.2206051349639893,-3.038656711578369,9.247314453125
1702070556894304000,7.977303955078125,-1.243138313293457,-2.610077381134033,9.374338150024414
1702070556911304700,7.9943046875,-1.2597931623458862,-2.193983793258667,9.478158950805664
1702070556928293600,8.011293701171875,-1.240338921546936,-1.7720762491226196,9.568564414978027
1702070556945272300,8.028272216796875,-1.1513004302978516,-1.3456192016601562,9.64883041381836
1702070556962269700,8.045269775390626,-1.0269722938537598,-0.9421554803848267,9.710498809814453
1702070556979255300,8.06225537109375,-0.9498913288116455,-0.5870692729949951,9.746238708496094
1702070556996250400,8.07925048828125,-0.984139084815979,-0.2842954397201538,9.756372451782227
1702070557013238500,8.096238525390625,-1.1316797733306885,-0.021497288718819618,9.744483947753906
1702070557030230800,8.113230712890624,-1.340827465057373,0.22515319287776947,9.715330123901367
1702070557047215000,8.130215087890624,-1.54099702835083,0.45821502804756165,9.677370071411133
1702070557064205600,8.14720556640625,-1.689439296722412,0.6633435487747192,9.64063835144043
1702070557081200600,8.16420068359375,-1.7907310724258423,0.8195507526397705,9.610294342041016
1702070557098201600,8.18120166015625,-1.8560844659805298,0.9069116711616516,9.590024948120117
1702070557115181000,8.19818115234375,-1.8976057767868042,0.9237402677536011,9.580288887023926
1702070557132167000,8.2151669921875,-1.9201585054397583,0.8958998918533325,9.578435897827148
1702070557149162800,8.232162841796875,-1.9245558977127075,0.8547273278236389,9.581317901611328
1702070557166154200,8.249154296875,-1.920118808746338,0.7829904556274414,9.588337898254395
1702070557183139800,8.266139892578124,-1.9108960628509521,0.6266709566116333,9.601659774780273
1702070557200127200,8.283127197265625,-1.9000263214111328,0.36906370520591736,9.61716365814209
1702070557217121000,8.30012109375,-1.8830742835998535,0.017606843262910843,9.627556800842285
1702070557234108700,8.317108642578125,-1.8533570766448975,-0.41095227003097534,9.624566078186035
1702070557251102000,8.33410205078125,-1.798451542854309,-0.8958633542060852,9.602038383483887
1702070557268097500,8.35109765625,-1.6807576417922974,-1.4227015972137451,9.559660911560059
1702070557285076500,8.368076416015626,-1.5066144466400146,-1.9750615358352661,9.490277290344238
1702070557302069500,8.385069580078126,-1.3272168636322021,-2.5332329273223877,9.38388729095459
1702070557319055000,8.40205517578125,-1.1887811422348022,-3.0710134506225586,9.240768432617188
1702070557336058400,8.419058349609376,-1.1040301322937012,-3.561849594116211,9.073612213134766
1702070557353047000,8.436047119140625,-1.0545397996902466,-3.9964659214019775,8.896759986877441
1702070557370037800,8.453037841796874,-1.0248780250549316,-4.390143394470215,8.71277141571045
1702070557387028000,8.470028076171875,-1.0070587396621704,-4.7636494636535645,8.516432762145996
1702070557404018400,8.487018310546874,-0.9927765727043152,-5.127357006072998,8.304258346557617
1702070557420990200,8.503990234375,-0.9769715666770935,-5.480325222015381,8.077603340148926
1702070557437998300,8.520998291015625,-0.9298815727233887,-5.8152971267700195,7.845622539520264
1702070557454988500,8.537988525390626,-0.8339942693710327,-6.100183486938477,7.637298583984375
1702070557471979000,8.55497900390625,-0.7080171704292297,-6.329567909240723,7.461328506469727
1702070557488970200,8.57197021484375,-0.5827727317810059,-6.520933151245117,7.305745601654053
1702070557505957000,8.58895703125,-0.4784490168094635,-6.690789222717285,7.158251762390137
1702070557522948900,8.605948974609374,-0.39255109429359436,-6.848114490509033,7.013225555419922
1702070557539933700,8.62293359375,-0.3272429406642914,-6.988239765167236,6.8770294189453125
1702070557556927700,8.639927734375,-0.27394264936447144,-7.105958461761475,6.757694244384766
1702070557573909000,8.656908935546875,-0.22241756319999695,-7.198270320892334,6.661198139190674
1702070557590909400,8.673909423828125,-0.166330486536026,-7.272037029266357,6.582243919372559
1702070557607900400,8.690900390625,-0.10133868455886841,-7.3332133293151855,6.515352725982666
1702070557624889600,8.7078896484375,-0.033977001905441284,-7.3857808113098145,6.456408500671387
1702070557641880300,8.72488037109375,0.021313101053237915,-7.427423000335693,6.4085164070129395
1702070557658867700,8.74186767578125,0.048520781099796295,-7.448165416717529,6.384246349334717
1702070557675863600,8.758863525390625,0.05123681575059891,-7.436468601226807,6.3978447914123535
1702070557692850200,8.77585009765625,0.04258410260081291,-7.3860039710998535,6.4561028480529785
1702070557709840600,8.792840576171875,0.028349056839942932,-7.298079013824463,6.555405616760254
1702070557726830000,8.809830078125,0.0009016406838782132,-7.184942722320557,6.6792755126953125
1702070557743822300,8.826822265625,-0.040256913751363754,-7.074028491973877,6.796514987945557
1702070557760811000,8.84381103515625,-0.07434442639350891,-6.98581075668335,6.886873722076416
1702070557777801200,8.86080126953125,-0.0733831450343132,-6.915728569030762,6.957259654998779
1702070557794791700,8.877791748046874,-0.027842102572321892,-6.849864482879639,7.02244234085083
1702070557811782100,8.8947822265625,0.054512426257133484,-6.7641825675964355,7.104857444763184
1702070557828770800,8.911770751953124,0.13552793860435486,-6.626829147338867,7.232072353363037
1702070557845763000,8.92876318359375,0.1740020364522934,-6.418867588043213,7.416465759277344
1702070557862752000,8.945751953125,0.14873504638671875,-6.146729469299316,7.644063949584961
1702070557879742700,8.96274267578125,0.07218212634325027,-5.833698749542236,7.886626720428467
1702070557896732700,8.979732666015625,-0.03122764080762863,-5.507606029510498,8.117968559265137
1702070557913721900,8.996721923828124,-0.14233936369419098,-5.1800432205200195,8.329645156860352
1702070557930713900,9.0137138671875,-0.25693777203559875,-4.841999530792236,8.527904510498047
1702070557947700700,9.03070068359375,-0.37488168478012085,-4.486565113067627,8.715867042541504
1702070557964695300,9.0476953125,-0.497419148683548,-4.11801815032959,8.889917373657227
1702070557981683200,9.06468310546875,-0.6168915033340454,-3.749981641769409,9.04395866394043
1702070557998673700,9.081673583984376,-0.7184255123138428,-3.3973493576049805,9.174856185913086
1702070558015652900,9.09865283203125,-0.7966115474700928,-3.071571111679077,9.282617568969727
1702070558032654000,9.115654052734374,-0.8596270084381104,-2.7761926651000977,9.369626998901367
1702070558049644000,9.13264404296875,-0.9238633513450623,-2.5055992603302,9.439521789550781
1702070558066634000,9.149634033203125,-1.0060644149780273,-2.247838258743286,9.495850563049316
1702070558083624400,9.16662451171875,-1.1111867427825928,-1.996168613433838,9.540266990661621
1702070558100614400,9.183614501953125,-1.2337779998779297,-1.7517659664154053,9.573151588439941
1702070558117604900,9.20060498046875,-1.3634496927261353,-1.5233359336853027,9.594612121582031
1702070558134594600,9.217594482421875,-1.4908617734909058,-1.3222455978393555,9.605473518371582
1702070558151585300,9.234585205078124,-1.6048109531402588,-1.161652684211731,9.607876777648926
1702070558168575000,9.251574951171875,-1.6996517181396484,-1.0513426065444946,9.604268074035645
1702070558185565200,9.268565185546874,-1.7781316041946411,-0.9990082383155823,9.59564208984375
1702070558202555600,9.2855556640625,-1.8437825441360474,-1.018814206123352,9.581158638000488
1702070558219545900,9.3025458984375,-1.8993761539459229,-1.120613694190979,9.558905601501465
1702070558236535300,9.319535400390626,-1.9445204734802246,-1.3030036687850952,9.526655197143555
1702070558253526000,9.336526123046875,-1.9755308628082275,-1.5578657388687134,9.481903076171875
1702070558270516000,9.353515869140624,-1.9896844625473022,-1.8607608079910278,9.424163818359375
1702070558287506400,9.37050634765625,-2.0021042823791504,-2.178452730178833,9.353182792663574
1702070558304496000,9.38749609375,-2.021817684173584,-2.5003578662872314,9.26804256439209
1702070558321486600,9.404486572265625,-2.0187196731567383,-2.846755027770996,9.168253898620605
1702070558338468000,9.421468017578125,-1.9545985460281372,-3.238960027694702,9.051233291625977
1702070558355467300,9.43846728515625,-1.8259735107421875,-3.652043104171753,8.919897079467773
1702070558372468700,9.45546875,-1.6555777788162231,-4.03185510635376,8.788590431213379
1702070558389436400,9.4724365234375,-1.4754648208618164,-4.33829402923584,8.674003601074219
1702070558406434800,9.489434814453125,-1.3107885122299194,-4.57411003112793,8.578781127929688
1702070558423428600,9.5064287109375,-1.1791340112686157,-4.771108150482178,8.490130424499512
1702070558440419000,9.523419189453126,-1.0742701292037964,-4.975449085235596,8.386116981506348
1702070558457407700,9.54040771484375,-0.9830394983291626,-5.2225260734558105,8.245906829833984
1702070558474397700,9.557397705078126,-0.8943042159080505,-5.519641876220703,8.060389518737793
1702070558491401000,9.57440087890625,-0.8044816255569458,-5.844125747680664,7.8380560874938965
1702070558508378000,9.591378173828126,-0.6963361501693726,-6.167608261108398,7.596832275390625
1702070558525368300,9.608368408203125,-0.5627851486206055,-6.470686435699463,7.351846218109131
1702070558542358500,9.625358642578124,-0.4179548919200897,-6.743609428405762,7.112325191497803
1702070558559336000,9.6423359375,-0.2844845950603485,-6.988345146179199,6.8788251876831055
1702070558576333000,9.6593330078125,-0.17076385021209717,-7.208370685577393,6.651795387268066
1702070558593331700,9.676331787109374,-0.06579462438821793,-7.399628162384033,6.440287113189697
1702070558610319600,9.693319580078125,0.040727611631155014,-7.557559967041016,6.254417896270752
1702070558627309000,9.71030908203125,0.14671073853969574,-7.683058738708496,6.0979695320129395
1702070558644299000,9.727299072265625,0.2525921165943146,-7.783802509307861,5.965293884277344
1702070558661283800,9.744283935546875,0.35872727632522583,-7.8622307777404785,5.856002330780029
1702070558678279700,9.76127978515625,0.46754688024520874,-7.918999195098877,5.7712202072143555
1702070558695267600,9.778267578125,0.5706216096878052,-7.955289363861084,5.711731433868408
1702070558712262100,9.79526220703125,0.6533778309822083,-7.971558570861816,5.680096626281738
1702070558729250000,9.81225,0.7038480639457703,-7.9681901931762695,5.6787919998168945
1702070558746240500,9.829240478515626,0.719963014125824,-7.942893981933594,5.712109565734863
1702070558763230500,9.84623046875,0.7178621292114258,-7.892428398132324,5.7819013595581055
1702070558780220400,9.863220458984374,0.7145946621894836,-7.811897277832031,5.89064884185791
1702070558797210600,9.880210693359375,0.7076604962348938,-7.7071852684021,6.027820587158203
1702070558814200600,9.89720068359375,0.6806609630584717,-7.591172218322754,6.176321983337402
1702070558831189500,9.914189453125,0.6214292645454407,-7.472990989685059,6.3248982429504395
1702070558848183600,9.93118359375,0.5466199517250061,-7.347975254058838,6.47646427154541
1702070558865158400,9.948158447265625,0.4792752265930176,-7.200248718261719,6.64551305770874
1702070558882164200,9.965164306640625,0.41925475001335144,-7.002923011779785,6.8570709228515625
1702070558899145500,9.9821455078125,0.34382739663124084,-6.740262985229492,7.119462966918945
1702070558916141800,9.999141845703125,0.23679937422275543,-6.417762279510498,7.415684223175049
1702070558933132000,10.016132080078124,0.10688038170337677,-6.0592827796936035,7.714258670806885
1702070558950122000,10.0331220703125,-0.03061777725815773,-5.677829265594482,7.999839782714844
1702070558967112700,10.05011279296875,-0.17239375412464142,-5.2776031494140625,8.267605781555176
1702070558984102400,10.067102294921876,-0.31961584091186523,-4.864963054656982,8.512702941894531
1702070559001092600,10.084092529296875,-0.47229015827178955,-4.449269771575928,8.730239868164062
1702070559018082800,10.101082763671876,-0.6185556054115295,-4.042463779449463,8.916948318481445
1702070559035073300,10.1180732421875,-0.7383294105529785,-3.6541929244995117,9.07402229309082
1702070559052063000,10.13506298828125,-0.8234636783599854,-3.2926526069641113,9.204154014587402
1702070559069053000,10.152052978515625,-0.8844402432441711,-2.9651567935943604,9.309228897094727
1702070559086030800,10.16903076171875,-0.9484719038009644,-2.6720495223999023,9.391308784484863
1702070559103033900,10.186033935546876,-1.0410257577896118,-2.4125447273254395,9.451560020446777
1702070559120014800,10.203014892578125,-1.1690309047698975,-2.1879642009735107,9.491170883178711
1702070559137012000,10.220011962890625,-1.3219774961471558,-1.9940448999404907,9.513795852661133
1702070559153991700,10.23699169921875,-1.4762978553771973,-1.8273987770080566,9.524561882019043
1702070559170997000,10.2539970703125,-1.6188476085662842,-1.6846497058868408,9.527717590332031
1702070559187984100,10.270984130859375,-1.7602512836456299,-1.5680582523345947,9.522543907165527
1702070559204974300,10.287974365234374,-1.9143919944763184,-1.4821847677230835,9.506543159484863
1702070559221964500,10.304964599609375,-2.0671064853668213,-1.4265905618667603,9.483038902282715
1702070559238955000,10.321955078125,-2.191321849822998,-1.39811110496521,9.459362030029297
1702070559255941600,10.338941650390625,-2.261176586151123,-1.4007452726364136,9.44251537322998
1702070559272937700,10.355937744140626,-2.2776572704315186,-1.4354571104049683,9.433338165283203
1702070559289925000,10.372925048828124,-2.2505500316619873,-1.5121499300003052,9.42785930633545
1702070559306915600,10.38991552734375,-2.1883492469787598,-1.6419167518615723,9.420795440673828
1702070559323906300,10.40690625,-2.0945723056793213,-1.8294029235839844,9.40755844116211
1702070559340895500,10.4238955078125,-1.9726442098617554,-2.070854663848877,9.383835792541504
1702070559357883400,10.44088330078125,-1.8423373699188232,-2.3533198833465576,9.343650817871094
1702070559374879000,10.45787890625,-1.71547532081604,-2.6589314937591553,9.285652160644531
1702070559391855400,10.47485546875,-1.5791754722595215,-2.982430934906006,9.211265563964844
1702070559408856000,10.49185595703125,-1.4103906154632568,-3.3383913040161133,9.116033554077148
1702070559425846500,10.508846435546875,-1.2020858526229858,-3.7243072986602783,8.995589256286621
1702070559442837000,10.5258369140625,-0.9798983931541443,-4.106845378875732,8.854927062988281
1702070559459815700,10.542815673828125,-0.7749312520027161,-4.444965839385986,8.710790634155273
1702070559476805400,10.559805419921876,-0.6115173101425171,-4.710606575012207,8.583259582519531
1702070559493801000,10.576801025390624,-0.502036988735199,-4.914071083068848,8.47561264038086
1702070559510793500,10.59379345703125,-0.4258480668067932,-5.098887920379639,8.369953155517578
1702070559527782100,10.6107822265625,-0.3514416515827179,-5.310502529144287,8.240823745727539
1702070559544773600,10.627773681640624,-0.2633436918258667,-5.5620832443237305,8.076509475708008
1702070559561758700,10.6447587890625,-0.1672651618719101,-5.836734771728516,7.8829345703125
1702070559578746000,10.66174609375,-0.07070628553628922,-6.11568021774292,7.6700439453125
1702070559595747600,10.67874755859375,0.028292924165725708,-6.384009838104248,7.4484734535217285
1702070559612740600,10.69574072265625,0.12366744875907898,-6.630989074707031,7.2284722328186035
1702070559629728300,10.712728271484375,0.2066388577222824,-6.853276252746582,7.016125679016113
1702070559646718200,10.72971826171875,0.2783818542957306,-7.05228853225708,6.813505172729492
1702070559663708200,10.746708251953125,0.34068337082862854,-7.226917743682861,6.6250834465026855
1702070559680695800,10.76369580078125,0.3970528542995453,-7.378714561462402,6.452367782592773
1702070559697691400,10.78069140625,0.4509916603565216,-7.503629684448242,6.303035259246826
1702070559714678800,10.7976787109375,0.5013443827629089,-7.595831871032715,6.187738418579102
1702070559731667200,10.814667236328125,0.5388543009757996,-7.6526408195495605,6.114150047302246
1702070559748660200,10.83166015625,0.5596767663955688,-7.677380561828613,6.081176280975342
1702070559765646300,10.848646240234375,0.5760045647621155,-7.678269863128662,6.07852840423584
1702070559782642400,10.865642333984376,0.5926632881164551,-7.66046667098999,6.0993523597717285
1702070559799643100,10.88264306640625,0.5992255806922913,-7.631059169769287,6.135468006134033
1702070559816619800,10.899619873046875,0.5823680758476257,-7.59498929977417,6.181675434112549
1702070559833610000,10.91660986328125,0.5393489599227905,-7.55096960067749,6.2392377853393555
1702070559850600000,10.933599853515625,0.4855557382106781,-7.4983391761779785,6.306765079498291
1702070559867590000,10.95058984375,0.4378962516784668,-7.432199001312256,6.388017654418945
1702070559884580400,10.967580322265626,0.40865373611450195,-7.34653902053833,6.488258361816406
1702070559901570300,10.9845703125,0.3905682861804962,-7.247560024261475,6.599730491638184
1702070559918550300,11.00155029296875,0.36715254187583923,-7.153212547302246,6.703199863433838
1702070559935553000,11.018552978515626,0.33360180258750916,-7.073999881744385,6.788473129272461
1702070559952538400,11.035538330078126,0.31001120805740356,-6.99968147277832,6.866182327270508
1702070559969531100,11.05253125,0.31008780002593994,-6.895171642303467,6.971124649047852
1702070559986519600,11.06951953125,0.3238094747066498,-6.715962886810303,7.143325328826904
1702070560003512800,11.086512939453126,0.34093186259269714,-6.428682804107666,7.402156829833984
1702070560020501500,11.10350146484375,0.351843923330307,-6.023536205291748,7.734943389892578
1702070560037491500,11.120491455078126,0.3477622866630554,-5.530672073364258,8.094866752624512
1702070560054485200,11.1374853515625,0.33337169885635376,-5.007009029388428,8.429403305053711
1702070560071468300,11.15446826171875,0.3147298991680145,-4.494365215301514,8.714226722717285
1702070560088462000,11.171462158203125,0.25829988718032837,-4.003071308135986,8.952363967895508
1702070560105449500,11.188449462890626,0.14967089891433716,-3.5345566272735596,9.14989948272705
1702070560122444300,11.2054443359375,0.007504024542868137,-3.0865936279296875,9.311767578125
1702070560139433200,11.22243310546875,-0.12774236500263214,-2.659804344177246,9.441675186157227
1702070560156419800,11.239419921875,-0.22845949232578278,-2.2521207332611084,9.54525375366211
1702070560173415200,11.256415283203125,-0.29020288586616516,-1.868057370185852,9.626124382019043
1702070560190392600,11.273392578125,-0.3262752294540405,-1.5098841190338135,9.687618255615234
1702070560207392800,11.290392822265625,-0.35522931814193726,-1.1717987060546875,9.733285903930664
1702070560224381000,11.307380859375,-0.39549192786216736,-0.8485342264175415,9.765230178833008
1702070560241375700,11.324375732421874,-0.4657639265060425,-0.5409122109413147,9.783997535705566
1702070560258360800,11.34136083984375,-0.5699892640113831,-0.252389520406723,9.790175437927246
1702070560275353300,11.358353271484376,-0.6987537145614624,0.010701281949877739,9.785078048706055
1702070560292343800,11.37534375,-0.8309690356254578,0.2394864708185196,9.771809577941895
1702070560309333800,11.392333740234376,-0.9486972093582153,0.43542376160621643,9.754305839538574
1702070560326324200,11.40932421875,-1.0427714586257935,0.6091995239257812,9.735379219055176
1702070560343314000,11.42631396484375,-1.1200133562088013,0.7722541093826294,9.7152099609375
1702070560360291800,11.443291748046875,-1.1821633577346802,0.9079413414001465,9.696094512939453
1702070560377283800,11.460283935546874,-1.2317427396774292,0.9830222725868225,9.682592391967773
1702070560394284800,11.477284912109376,-1.2697004079818726,0.9573231339454651,9.680265426635742
1702070560411277000,11.494277099609375,-1.284954309463501,0.8250094056129456,9.690425872802734
1702070560428264700,11.5112646484375,-1.2895478010177612,0.615007221698761,9.705409049987793
1702070560445243600,11.52824365234375,-1.2853392362594604,0.3716025650501251,9.718330383300781
1702070560462242000,11.545241943359375,-1.2498544454574585,0.11290798336267471,9.729400634765625
1702070560479228200,11.562228271484376,-1.189507007598877,-0.18993481993675232,9.735764503479004
1702070560496220000,11.579219970703125,-1.1346276998519897,-0.5738498568534851,9.727253913879395
1702070560513215200,11.59621533203125,-1.096942663192749,-1.0543292760849,9.691296577453613
1702070560530202400,11.613202392578126,-1.040787935256958,-1.5925579071044922,9.62375545501709
1702070560547195400,11.6301953125,-0.9301122426986694,-2.112779378890991,9.534524917602539
1702070560564178200,11.64717822265625,-0.7543627619743347,-2.5559279918670654,9.441096305847168
1702070560581166800,11.664166748046876,-0.554950475692749,-2.9227066040039062,9.348044395446777
1702070560598161200,11.6811611328125,-0.38728246092796326,-3.257291555404663,9.245332717895508
1702070560615144000,11.69814404296875,-0.28636008501052856,-3.602977752685547,9.119904518127441
1702070560632137500,11.715137451171875,-0.24313512444496155,-3.9826879501342773,8.961875915527344
1702070560649132500,11.732132568359376,-0.23224996030330658,-4.3925933837890625,8.768542289733887
1702070560666123800,11.749123779296875,-0.23108313977718353,-4.797540664672852,8.553731918334961
1702070560683112700,11.76611279296875,-0.22283534705638885,-5.162364482879639,8.338851928710938
1702070560700097000,11.783096923828126,-0.2059769481420517,-5.486985206604004,8.12937068939209
1702070560717091600,11.800091552734376,-0.1864185929298401,-5.7819719314575195,7.922764301300049
1702070560734077700,11.81707763671875,-0.17221307754516602,-6.056791305541992,7.715033531188965
1702070560751071000,11.834071044921876,-0.16479149460792542,-6.313399791717529,7.506659984588623
1702070560768067800,11.85106787109375,-0.16056863963603973,-6.532998085021973,7.316440105438232
1702070560785049600,11.868049560546876,-0.15659604966640472,-6.701502323150635,7.162503719329834
1702070560802048300,11.88504833984375,-0.14172130823135376,-6.829536437988281,7.040844917297363
1702070560819038000,11.902037841796876,-0.11387687176465988,-6.932591915130615,6.939908981323242
1702070560836035600,11.91903564453125,-0.07921983301639557,-7.021862506866455,6.850058078765869
1702070560853018400,11.936018310546874,-0.039531271904706955,-7.105524063110352,6.763586521148682
1702070560870008600,11.953008544921875,0.005361312068998814,-7.179736614227295,6.684869289398193
1702070560886998500,11.96999853515625,0.05304184928536415,-7.233018398284912,6.626972198486328
1702070560903988700,11.98698876953125,0.10754316300153732,-7.264355182647705,6.591940879821777
1702070560920979000,12.00397900390625,0.16501370072364807,-7.273820400238037,6.580305099487305
1702070560937969200,12.02096923828125,0.21127159893512726,-7.266467571258545,6.587105751037598
1702070560954959000,12.037958984375,0.22427639365196228,-7.242735385894775,6.6127610206604
1702070560971949600,12.054949462890624,0.1910688877105713,-7.200599670410156,6.659653186798096
1702070560988939500,12.071939453125,0.11969543248414993,-7.143856525421143,6.722135543823242
1702070561005930000,12.088929931640624,0.03701813891530037,-7.079727649688721,6.790597438812256
1702070561022919000,12.1059189453125,-0.0087211225181818,-7.00965690612793,6.86299991607666
1702070561039911000,12.122910888671875,0.01120794378221035,-6.933348655700684,6.9400763511657715
1702070561056899000,12.139899169921875,0.08772461116313934,-6.836886882781982,7.034586429595947
1702070561073892600,12.156892578125,0.18039099872112274,-6.691464424133301,7.171323299407959
1702070561090880000,12.1738798828125,0.23967650532722473,-6.4816436767578125,7.35982084274292
1702070561107870700,12.19087060546875,0.235642209649086,-6.212970733642578,7.588122844696045
1702070561124860700,12.207860595703124,0.17649324238300323,-5.901671409606934,7.834234237670898
1702070561141851000,12.224850830078125,0.09738625586032867,-5.568804740905762,8.075584411621094
1702070561158843100,12.241843017578125,0.028587037697434425,-5.225541591644287,8.302350044250488
1702070561175826200,12.258826171875,-0.020327845588326454,-4.868505477905273,8.51665210723877
1702070561192823300,12.2758232421875,-0.0550353117287159,-4.4932379722595215,8.720315933227539
1702070561209811500,12.2928115234375,-0.07779969274997711,-4.103946685791016,8.909977912902832
1702070561226801000,12.30980078125,-0.09071122109889984,-3.7142367362976074,9.079224586486816
1702070561243791600,12.32679150390625,-0.0990109071135521,-3.3469085693359375,9.220874786376953
1702070561260768500,12.3437685546875,-0.10396642237901688,-3.0017197132110596,9.338897705078125
1702070561277772300,12.360772216796875,-0.11153637617826462,-2.656280040740967,9.442874908447266
1702070561294761500,12.377761474609375,-0.1214994490146637,-2.29964280128479,9.535879135131836
1702070561311752200,12.394752197265625,-0.13318240642547607,-1.9428809881210327,9.61475944519043
1702070561328742000,12.411741943359376,-0.14160481095314026,-1.614284873008728,9.6752347946167
1702070561345732900,12.42873291015625,-0.14378516376018524,-1.3414400815963745,9.716789245605469
1702070561362722000,12.44572216796875,-0.15016235411167145,-1.124376893043518,9.744194984436035
1702070561379712500,12.46271240234375,-0.17298856377601624,-0.9452155828475952,9.762825965881348
1702070561396703000,12.479702880859374,-0.21149547398090363,-0.7921944260597229,9.775675773620605
1702070561413693200,12.496693115234375,-0.2633073031902313,-0.6749657392501831,9.783209800720215
1702070561430683000,12.513682861328125,-0.3189544081687927,-0.611344575881958,9.785737991333008
1702070561447673300,12.53067333984375,-0.359898179769516,-0.6211417317390442,9.783700942993164
1702070561464663300,12.547663330078125,-0.36817362904548645,-0.7143021821975708,9.777032852172852
1702070561481654800,12.56465478515625,-0.34336766600608826,-0.8747445344924927,9.764888763427734
1702070561498642200,12.58164208984375,-0.3130229115486145,-1.0623537302017212,9.747283935546875
1702070561515629800,12.5986298828125,-0.2949375808238983,-1.2602789402008057,9.72424030303955
1702070561532627700,12.615627685546874,-0.28033357858657837,-1.4883149862289429,9.692392349243164
1702070561549611800,12.63261181640625,-0.2650981545448303,-1.7782158851623535,9.643847465515137
1702070561566606600,12.649606689453124,-0.25618603825569153,-2.1586365699768066,9.566126823425293
1702070561583594000,12.666593994140625,-0.27138960361480713,-2.6332414150238037,9.446085929870605
1702070561600586800,12.683586669921874,-0.3102995455265045,-3.154071807861328,9.283946990966797
1702070561617564200,12.700564208984375,-0.33218151330947876,-3.647174596786499,9.100764274597168
1702070561634564000,12.717564208984374,-0.30709269642829895,-4.059314250946045,8.925457000732422
1702070561651554600,12.734554443359375,-0.2511085271835327,-4.380978107452393,8.773831367492676
1702070561668545000,12.751544921875,-0.21058309078216553,-4.634284496307373,8.643795013427734
1702070561685535500,12.768535400390626,-0.22286838293075562,-4.852585315704346,8.522844314575195
1702070561702525200,12.785525146484375,-0.2776968479156494,-5.074464321136475,8.390996932983398
1702070561719515100,12.80251513671875,-0.35212621092796326,-5.319197177886963,8.235184669494629
1702070561736505600,12.819505615234375,-0.4271530210971832,-5.565046787261963,8.067460060119629
1702070561753504800,12.8365048828125,-0.4857608377933502,-5.765834331512451,7.921825408935547
1702070561770486000,12.853486083984375,-0.5250796675682068,-5.916057586669922,7.807730197906494
1702070561787478000,12.87047802734375,-0.5504279732704163,-6.03875732421875,7.711456775665283
1702070561804465700,12.887465576171875,-0.5684651732444763,-6.155269622802734,7.61745548248291
1702070561821456400,12.904456298828125,-0.5790085792541504,-6.2754740715026855,7.5179314613342285
1702070561838447600,12.921447509765626,-0.5801233649253845,-6.390089988708496,7.420670509338379
1702070561855438800,12.93843896484375,-0.5691697597503662,-6.477245330810547,7.345576286315918
1702070561872413400,12.955413330078125,-0.5461065769195557,-6.523839950561523,7.3059844970703125
1702070561889417000,12.9724169921875,-0.5153116583824158,-6.5363922119140625,7.296996116638184
1702070561906406700,12.98940673828125,-0.48616909980773926,-6.527337074279785,7.307095527648926
1702070561923398700,13.006398681640626,-0.46502265334129333,-6.508824348449707,7.3249640464782715
1702070561940383000,13.023383056640625,-0.4490194022655487,-6.48531436920166,7.346781253814697
1702070561957380000,13.040380126953124,-0.43567562103271484,-6.456961154937744,7.372514724731445
1702070561974367500,13.057367431640625,-0.4216415584087372,-6.422811031341553,7.403095722198486
1702070561991354000,13.07435400390625,-0.4061473309993744,-6.385766506195068,7.4359354972839355
1702070562008350200,13.09135009765625,-0.38102418184280396,-6.341902732849121,7.474704265594482
1702070562025338000,13.108338134765624,-0.34883320331573486,-6.274749755859375,7.532725811004639
1702070562042327800,13.125327880859375,-0.3035418391227722,-6.178289890289307,7.613981246948242
1702070562059315500,13.1423154296875,-0.2427872270345688,-6.064699649810791,7.706920146942139
1702070562076311000,13.15931103515625,-0.1676722764968872,-5.956860542297363,7.7925496101379395
1702070562093298700,13.176298583984375,-0.08414538204669952,-5.870753765106201,7.858962059020996
1702070562110288100,13.1932880859375,-0.0051724473014473915,-5.798793792724609,7.912652969360352
1702070562127278300,13.2102783203125,0.05954614654183388,-5.729513168334961,7.962742805480957
1702070562144268500,13.2272685546875,0.09208283573389053,-5.655015468597412,8.01551342010498
1702070562161257700,13.2442578125,0.0825800821185112,-5.5734052658081055,8.072574615478516
1702070562178239500,13.261239501953124,0.04393612593412399,-5.496647834777832,8.125333786010742
1702070562195235600,13.278235595703125,-0.02054441161453724,-5.432523250579834,8.168439865112305
1702070562212229000,13.29522900390625,-0.10728391259908676,-5.380972862243652,8.201814651489258
1702070562229219600,13.312219482421876,-0.2052915096282959,-5.342280864715576,8.225207328796387
1702070562246209000,13.329208984375,-0.31055617332458496,-5.301730155944824,8.2481107711792
1702070562263199500,13.346199462890626,-0.42827698588371277,-5.243158340454102,8.280217170715332
1702070562280189700,13.363189697265625,-0.5636395812034607,-5.16163444519043,8.323217391967773
1702070562297169400,13.38016943359375,-0.7128270864486694,-5.069397449493408,8.368345260620117
1702070562314166000,13.397166015625,-0.8634995222091675,-4.977856159210205,8.40900707244873
1702070562331164000,13.414163818359375,-1.0070801973342896,-4.887933254241943,8.445710182189941
1702070562348150300,13.431150390625,-1.1390447616577148,-4.797171115875244,8.480911254882812
1702070562365139200,13.44813916015625,-1.2675079107284546,-4.707951545715332,8.512622833251953
1702070562382129000,13.46512890625,-1.393784523010254,-4.618551731109619,8.541808128356934
1702070562399125500,13.48212548828125,-1.5103535652160645,-4.519985198974609,8.574652671813965
1702070562416110800,13.49911083984375,-1.6234463453292847,-4.396718978881836,8.617969512939453
1702070562433101300,13.516101318359375,-1.7402753829956055,-4.241588115692139,8.67274284362793
1702070562450090800,13.5330908203125,-1.8602920770645142,-4.061334133148193,8.733899116516113
1702070562467081000,13.5500810546875,-1.9739893674850464,-3.8661019802093506,8.797314643859863
1702070562484071200,13.5670712890625,-2.0758655071258545,-3.6569666862487793,8.863041877746582
1702070562501057500,13.5840576171875,-2.182645320892334,-3.4317972660064697,8.927201271057129
1702070562518051000,13.601051025390625,-2.2942891120910645,-3.1806323528289795,8.991991996765137
1702070562535041800,13.618041748046876,-2.406834840774536,-2.8959357738494873,9.05852222442627
1702070562552031700,13.63503173828125,-2.5062975883483887,-2.5917809009552,9.123446464538574
1702070562569022200,13.652022216796874,-2.5750162601470947,-2.299546480178833,9.182456970214844
1702070562586012000,13.669011962890625,-2.5993998050689697,-2.0392072200775146,9.236929893493652
1702070562602999800,13.685999755859376,-2.5728094577789307,-1.8103355169296265,9.291901588439941
1702070562619985200,13.702985107421876,-2.511897563934326,-1.5981897115707397,9.347315788269043
1702070562636982300,13.719982177734375,-2.436948776245117,-1.3990504741668701,9.39893913269043
1702070562653967600,13.736967529296875,-2.349919080734253,-1.2283626794815063,9.444846153259277
1702070562670965200,13.75396533203125,-2.2563066482543945,-1.1103401184082031,9.482211112976074
1702070562687952600,13.77095263671875,-2.1535184383392334,-1.0720864534378052,9.510475158691406
1702070562704943400,13.787943359375,-2.0271761417388916,-1.1225733757019043,9.532392501831055
1702070562721932800,13.804932861328124,-1.8768627643585205,-1.2449613809585571,9.547964096069336
1702070562738923300,13.82192333984375,-1.7124165296554565,-1.4108867645263672,9.555791854858398
1702070562755913200,13.838913330078125,-1.5548337697982788,-1.5874282121658325,9.555035591125488
1702070562772903400,13.8559033203125,-1.4211349487304688,-1.749846339225769,9.547490119934082
1702070562789893600,13.8728935546875,-1.3367115259170532,-1.904424786567688,9.530083656311035
1702070562806883800,13.8898837890625,-1.3169692754745483,-2.093621015548706,9.493075370788574
1702070562823873800,13.906873779296875,-1.3508943319320679,-2.3519515991210938,9.427595138549805
1702070562840864300,13.9238642578125,-1.424309253692627,-2.6642632484436035,9.333229064941406
1702070562857854000,13.94085400390625,-1.5330967903137207,-2.9944963455200195,9.21513557434082
1702070562874844400,13.957844482421875,-1.639244794845581,-3.3308913707733154,9.080427169799805
1702070562891831800,13.974831787109375,-1.7078770399093628,-3.664020538330078,8.93835735321045
1702070562908827400,13.991827392578125,-1.7209733724594116,-3.99137282371521,8.79450511932373
1702070562925814500,14.008814453125,-1.6691781282424927,-4.3185648918151855,8.648696899414062
1702070562942804700,14.0258046875,-1.5691286325454712,-4.6413140296936035,8.498950958251953
1702070562959776800,14.04277685546875,-1.4470537900924683,-4.948384761810303,8.345996856689453
1702070562976776700,14.059776611328125,-1.3156895637512207,-5.2384443283081055,8.189249992370605
1702070562993764900,14.076764892578124,-1.1794185638427734,-5.516363620758057,8.025884628295898
1702070563010758700,14.093758544921876,-1.035519003868103,-5.792605876922607,7.8491740226745605
1702070563027746800,14.110746826171875,-0.8865748047828674,-6.06687593460083,7.657881259918213
1702070563044736000,14.127736083984376,-0.738112211227417,-6.325450897216797,7.461900234222412
1702070563061724700,14.144724609375,-0.5998653173446655,-6.546402454376221,7.281545639038086
1702070563078715100,14.161715087890625,-0.4789124131202698,-6.712446212768555,7.137916088104248
1702070563095715800,14.1787158203125,-0.3783780336380005,-6.821638107299805,7.039759159088135
1702070563112709000,14.195709228515625,-0.31079721450805664,-6.8785505294799805,6.987494468688965
1702070563129696000,14.212696044921875,-0.2913009822368622,-6.886199474334717,6.980796813964844
1702070563146686200,14.229686279296875,-0.3138093948364258,-6.849162578582764,7.016168594360352
1702070563163666000,14.246666015625,-0.3618863821029663,-6.769225597381592,7.091031551361084
1702070563180664000,14.2636640625,-0.41853055357933044,-6.643694877624512,7.2057108879089355
1702070563197659100,14.2806591796875,-0.4903431534767151,-6.47660493850708,7.351821422576904
1702070563214646800,14.297646728515625,-0.5850408673286438,-6.286196231842041,7.508501052856445
1702070563231637000,14.314636962890624,-0.694684624671936,-6.09385871887207,7.656266212463379
1702070563248627200,14.331627197265625,-0.7884997129440308,-5.927279472351074,7.777001857757568
1702070563265606400,14.3486064453125,-0.8326342105865479,-5.799907207489014,7.867905139923096
1702070563282590000,14.36558984375,-0.8569141626358032,-5.680736541748047,7.951796054840088
1702070563299597600,14.38259765625,-0.9393248558044434,-5.504149436950684,8.065862655639648
1702070563316587500,14.39958740234375,-1.1223268508911133,-5.242652893066406,8.215295791625977
1702070563333577200,14.4165771484375,-1.3525224924087524,-4.9324049949646,8.371272087097168
1702070563350567700,14.433567626953124,-1.547463297843933,-4.627482891082764,8.510457992553711
1702070563367561500,14.4505615234375,-1.6604105234146118,-4.353299140930176,8.632957458496094
1702070563384545000,14.467544921875,-1.7188054323196411,-4.091259002685547,8.748909950256348
1702070563401537800,14.484537841796875,-1.7921278476715088,-3.8040106296539307,8.863064765930176
1702070563418521900,14.50152197265625,-1.9073138236999512,-3.4823105335235596,8.970608711242676
1702070563435518200,14.518518310546876,-2.037377119064331,-3.130624294281006,9.071076393127441
1702070563452509000,14.535509033203125,-2.1442787647247314,-2.7575442790985107,9.167015075683594
1702070563469498600,14.55249853515625,-2.211613416671753,-2.377026319503784,9.257140159606934
1702070563486488600,14.569488525390625,-2.2608108520507812,-2.0069427490234375,9.332581520080566
1702070563503464000,14.5864638671875,-2.322031259536743,-1.6589899063110352,9.385735511779785
1702070563520473600,14.6034736328125,-2.4156947135925293,-1.3287816047668457,9.41461181640625
1702070563537456400,14.620456298828126,-2.54117488861084,-1.0172860622406006,9.420387268066406
1702070563554451500,14.637451416015624,-2.6836347579956055,-0.7412042021751404,9.40664005279541
1702070563571439400,14.654439453125,-2.8316609859466553,-0.5202264785766602,9.37801456451416
1702070563588429800,14.671429931640626,-2.9751617908477783,-0.35957014560699463,9.34105110168457
1702070563605419500,14.68841943359375,-3.108853578567505,-0.24948257207870483,9.301017761230469
1702070563622409700,14.70540966796875,-3.21492338180542,-0.18482230603694916,9.266402244567871
1702070563639400000,14.72239990234375,-3.266658306121826,-0.16724996268749237,9.248625755310059
1702070563656387300,14.73938720703125,-3.259260416030884,-0.19276107847690582,9.250740051269531
1702070563673382700,14.756382568359374,-3.20023512840271,-0.26602962613105774,9.269513130187988
1702070563690370300,14.773370361328125,-3.0968358516693115,-0.3865053653717041,9.300341606140137
1702070563707360500,14.790360595703126,-2.946798086166382,-0.5639215707778931,9.33994197845459
1702070563724351000,14.80735107421875,-2.747420310974121,-0.8333425521850586,9.380475997924805
1702070563741340400,14.82434033203125,-2.502753973007202,-1.2056968212127686,9.40843391418457
1702070563758330600,14.84133056640625,-2.229006052017212,-1.6241569519042969,9.414339065551758
1702070563775321000,14.858321044921874,-1.946590781211853,-2.007676124572754,9.402984619140625
1702070563792311600,14.8753115234375,-1.699102759361267,-2.322676658630371,9.378396034240723
1702070563809301000,14.892301025390625,-1.5183459520339966,-2.5928542613983154,9.338515281677246
1702070563826292000,14.9092919921875,-1.404868483543396,-2.870366334915161,9.274883270263672
1702070563843284200,14.9262841796875,-1.3389925956726074,-3.202749252319336,9.175273895263672
1702070563860271900,14.94327197265625,-1.2966090440750122,-3.5966427326202393,9.034329414367676
1702070563877257700,14.9602578125,-1.2570689916610718,-4.024935245513916,8.857528686523438
1702070563894242300,14.9772421875,-1.2033482789993286,-4.437220096588135,8.665975570678711
1702070563911244500,14.99424462890625,-1.1165884733200073,-4.795103073120117,8.485065460205078
1702070563928232400,15.011232421875,-0.9956741333007812,-5.094410419464111,8.324165344238281
1702070563945212200,15.028212158203125,-0.8519048690795898,-5.3572821617126465,8.173734664916992
1702070563962206500,15.04520654296875,-0.699611485004425,-5.606290817260742,8.01973819732666
1702070563979194000,15.062194091796876,-0.55594801902771,-5.8524088859558105,7.853428363800049
1702070563996183300,15.079183349609375,-0.43188151717185974,-6.086931228637695,7.681072235107422
1702070564013175800,15.09617578125,-0.3251350224018097,-6.285943984985352,7.524446964263916
1702070564030167600,15.11316748046875,-0.23917627334594727,-6.444808006286621,7.392116546630859
1702070564047159000,15.130158935546875,-0.17058725655078888,-6.570873260498047,7.28221321105957
1702070564064145700,15.147145751953126,-0.10892602801322937,-6.674314498901367,7.188726425170898
1702070564081132500,15.164132568359374,-0.04487854987382889,-6.759472846984863,7.109405994415283
1702070564098129700,15.181129638671875,0.009455532766878605,-6.8204216957092285,7.051090240478516
1702070564115119900,15.198119873046876,0.02336869016289711,-6.8434062004089355,7.028754234313965
1702070564132112600,15.215112548828126,-0.012948659248650074,-6.826047420501709,7.04564094543457
1702070564149099800,15.232099853515624,-0.07324310392141342,-6.7777509689331055,7.091742992401123
1702070564166093600,15.249093505859374,-0.12420100718736649,-6.700595378875732,7.163987636566162
1702070564183080200,15.266080078125,-0.15802539885044098,-6.58851957321167,7.266537666320801
1702070564200063500,15.2830634765625,-0.19183574616909027,-6.4408745765686035,7.3969197273254395
1702070564217059300,15.300059326171874,-0.2397250384092331,-6.280307292938232,7.5323567390441895
1702070564234049300,15.31704931640625,-0.29935669898986816,-6.141737937927246,7.643661975860596
1702070564251037400,15.334037353515624,-0.3432728052139282,-6.033336162567139,7.727687358856201
1702070564268028200,15.351028076171875,-0.3665388822555542,-5.921054363250732,7.81299352645874
1702070564285014500,15.3680146484375,-0.39876171946525574,-5.756272792816162,7.933624744415283
1702070564302010600,15.3850107421875,-0.4641294777393341,-5.508169651031494,8.10436725616455
1702070564318996200,15.401996337890624,-0.5519900321960449,-5.199158668518066,8.300613403320312
1702070564335983600,15.418983642578125,-0.6490561962127686,-4.863675594329834,8.494674682617188
1702070564352980200,15.435980224609375,-0.7496849894523621,-4.5196027755737305,8.674518585205078
1702070564369977600,15.4529775390625,-0.8580865263938904,-4.160693645477295,8.842421531677246
1702070564386965200,15.46996533203125,-0.9761178493499756,-3.767787218093872,9.004837989807129
1702070564403953200,15.486953125,-1.0924879312515259,-3.333702325820923,9.161277770996094
1702070564420948000,15.503947998046876,-1.1994411945343018,-2.866473436355591,9.304880142211914
1702070564437935600,15.520935546875,-1.2836872339248657,-2.382023572921753,9.429434776306152
1702070564454925600,15.537925537109375,-1.3246195316314697,-1.8978437185287476,9.53308391571045
1702070564471916000,15.554916015625,-1.3200610876083374,-1.430945873260498,9.61488151550293
1702070564488905700,15.57190576171875,-1.2904309034347534,-1.0031790733337402,9.672877311706543
1702070564505896200,15.588896240234375,-1.2675203084945679,-0.6218815445899963,9.707870483398438
1702070564522886400,15.605886474609376,-1.2780048847198486,-0.2738178074359894,9.722540855407715
1702070564539867100,15.6228671875,-1.326352596282959,0.05677763745188713,9.719757080078125
1702070564556866000,15.639865966796876,-1.4056397676467896,0.37072432041168213,9.70169448852539
1702070564573856500,15.6568564453125,-1.4939367771148682,0.6455335021018982,9.674065589904785
1702070564590846500,15.673846435546874,-1.5783389806747437,0.8576325178146362,9.644139289855957
1702070564607837200,15.690837158203125,-1.6608823537826538,0.9943640828132629,9.617111206054688
1702070564624826600,15.70782666015625,-1.7521345615386963,1.0585808753967285,9.594037055969238
1702070564641816800,15.72481689453125,-1.8641374111175537,1.0604329109191895,9.572700500488281
1702070564658797000,15.741797119140625,-1.9866793155670166,0.9980428814888,9.554744720458984
1702070564675795200,15.758795166015625,-2.1023406982421875,0.8524042367935181,9.544093132019043
1702070564692789800,15.775789794921875,-2.183332920074463,0.6127610206604004,9.544301986694336
1702070564709777200,15.792777099609374,-2.2127771377563477,0.2957831621170044,9.552605628967285
1702070564726767600,15.809767578125,-2.198561429977417,-0.0674382820725441,9.560226440429688
1702070564743758000,15.826758056640625,-2.130347728729248,-0.4554922580718994,9.565054893493652
1702070564760747500,15.84374755859375,-1.9919049739837646,-0.8594275712966919,9.567122459411621
1702070564777738200,15.86073828125,-1.768522024154663,-1.2849140167236328,9.563338279724121
1702070564794728000,15.87772802734375,-1.4804694652557373,-1.7374975681304932,9.540724754333496
1702070564811717600,15.894717529296875,-1.188270092010498,-2.2026736736297607,9.485377311706543
1702070564828707300,15.911707275390626,-0.9304084181785583,-2.656583786010742,9.397501945495605
1702070564845700400,15.928700439453126,-0.733475923538208,-3.093782901763916,9.28044319152832
1702070564862678500,15.945678466796876,-0.6055365204811096,-3.5189316272735596,9.137097358703613
1702070564879679000,15.962678955078125,-0.5414510369300842,-3.9449381828308105,8.965511322021484
1702070564896668700,15.979668701171875,-0.523284912109375,-4.38848876953125,8.758050918579102
1702070564913659000,15.996658935546876,-0.5301156044006348,-4.849318981170654,8.51112174987793
1702070564930636300,16.01363623046875,-0.5482606887817383,-5.309953689575195,8.230426788330078
1702070564947635200,16.03063525390625,-0.5689282417297363,-5.75239896774292,7.926054954528809
1702070564964628700,16.047628662109375,-0.5834758281707764,-6.160981178283691,7.611701488494873
1702070564981619200,16.064619140625,-0.5795652270317078,-6.529159069061279,7.298652648925781
1702070564998601000,16.08160107421875,-0.5565853714942932,-6.847676753997803,7.002547264099121
1702070565015602400,16.0986025390625,-0.5258617401123047,-7.1196794509887695,6.728281021118164
1702070565032587000,16.1155869140625,-0.49756503105163574,-7.351909637451172,6.475953578948975
1702070565049579800,16.132579833984376,-0.4731333255767822,-7.548289775848389,6.2478485107421875
1702070565066569700,16.14956982421875,-0.4438808560371399,-7.7120890617370605,6.046717643737793
1702070565083550200,16.16655029296875,-0.4143553674221039,-7.838244438171387,5.88441801071167
1702070565100550000,16.1835498046875,-0.4029196500778198,-7.922595024108887,5.771158218383789
1702070565117529900,16.20052978515625,-0.42895936965942383,-7.962167739868164,5.714544296264648
1702070565134520000,16.21752001953125,-0.4956585466861725,-7.963109493255615,5.707829475402832
1702070565151520800,16.234520751953124,-0.5787340402603149,-7.933382511138916,5.741308689117432
1702070565168510500,16.251510498046876,-0.657454788684845,-7.873794078826904,5.814401149749756
1702070565185502200,16.268502197265626,-0.7154589295387268,-7.784633159637451,5.9265265464782715
1702070565202489600,16.285489501953126,-0.7471490502357483,-7.668879985809326,6.071749210357666
1702070565219481300,16.3024814453125,-0.746439516544342,-7.5301690101623535,6.24303674697876
1702070565236462800,16.319462890625,-0.7107890248298645,-7.3717780113220215,6.433332443237305
1702070565253450500,16.336450439453124,-0.6474870443344116,-7.19620418548584,6.63562536239624
1702070565270451200,16.353451171875,-0.5770713686943054,-7.005343914031982,6.843118190765381
1702070565287441700,16.370441650390624,-0.5053538084030151,-6.813944339752197,7.039238929748535
1702070565304431600,16.387431640625,-0.4218699038028717,-6.638944625854492,7.209892749786377
1702070565321421300,16.40442138671875,-0.31490999460220337,-6.484079360961914,7.354841232299805
1702070565338417000,16.4214169921875,-0.17351612448692322,-6.337161064147949,7.486414432525635
1702070565355404500,16.438404541015625,-0.012822359800338745,-6.171761512756348,7.625305652618408
1702070565372392000,16.455391845703126,0.13511453568935394,-5.946852684020996,7.8008222579956055
1702070565389382000,16.4723818359375,0.23380063474178314,-5.625428676605225,8.033430099487305
1702070565406372000,16.4893720703125,0.27819475531578064,-5.210841178894043,8.306976318359375
1702070565423362800,16.50636279296875,0.2916901111602783,-4.739573001861572,8.58414077758789
1702070565440352300,16.523352294921875,0.3053296208381653,-4.25156307220459,8.83555793762207
1702070565457340200,16.540340087890623,0.3245070278644562,-3.764267683029175,9.053236961364746
1702070565474332700,16.557332763671877,0.3381415605545044,-3.2853124141693115,9.237343788146973
1702070565491325400,16.574325439453126,0.33748844265937805,-2.823319435119629,9.388880729675293
1702070565508311800,16.591311767578127,0.3196263611316681,-2.390270471572876,9.508973121643066
1702070565525303800,16.6083037109375,0.2892068028450012,-2.0033204555511475,9.598915100097656
1702070565542293200,16.625293212890625,0.25656062364578247,-1.678309440612793,9.661966323852539
1702070565559283500,16.642283447265626,0.22709475457668304,-1.4162225723266602,9.70457935333252
1702070565576270600,16.6592705078125,0.1805696338415146,-1.2134712934494019,9.732983589172363
1702070565593266200,16.67626611328125,0.09817241877317429,-1.0577079057693481,9.752320289611816
1702070565610253300,16.69325341796875,-0.019839603453874588,-0.922205924987793,9.766536712646484
1702070565627243800,16.710243896484375,-0.1630975604057312,-0.7939168214797974,9.776461601257324
1702070565644226300,16.727226318359374,-0.30919668078422546,-0.6773499846458435,9.781702995300293
1702070565661224200,16.74422412109375,-0.45778322219848633,-0.5781604051589966,9.782242774963379
1702070565678208500,16.76120849609375,-0.6229506731033325,-0.5008818507194519,9.77738094329834
1702070565695204400,16.778204345703124,-0.7936496138572693,-0.4598461091518402,9.7670259475708
1702070565712194000,16.795194091796876,-0.9495042562484741,-0.4606524407863617,9.753071784973145
1702070565729183500,16.81218359375,-1.0790984630584717,-0.5040028095245361,9.737434387207031
1702070565746173400,16.82917333984375,-1.1755692958831787,-0.5931433439254761,9.721230506896973
1702070565763166500,16.84616650390625,-1.2345718145370483,-0.7325684428215027,9.70439624786377
1702070565780154400,16.863154296875,-1.2634588479995728,-0.922102153301239,9.684499740600586
1702070565797144800,16.880144775390626,-1.2829762697219849,-1.1496555805206299,9.65755558013916
1702070565814132700,16.8971328125,-1.3095383644104004,-1.3994392156600952,9.620954513549805
1702070565831127300,16.914127197265625,-1.3410764932632446,-1.6643987894058228,9.574308395385742
1702070565848115200,16.931115234375,-1.3612961769104004,-1.9557467699050903,9.516200065612793
1702070565865105400,16.94810546875,-1.335067868232727,-2.307676076889038,9.44078254699707
1702070565882095600,16.965095703125,-1.223434567451477,-2.7162024974823,9.346741676330566
1702070565899085600,16.98208544921875,-1.0292210578918457,-3.122354745864868,9.242712020874023
1702070565916075500,16.999075439453126,-0.7958908677101135,-3.473212242126465,9.139993667602539
1702070565933064700,17.016064697265627,-0.5784364342689514,-3.7673723697662354,9.03927230834961
1702070565950056700,17.033056640625,-0.42815712094306946,-4.023979663848877,8.936463356018066
1702070565967046400,17.05004638671875,-0.37234896421432495,-4.274544715881348,8.821890830993652
1702070565984035800,17.067035888671874,-0.40030625462532043,-4.548067569732666,8.682795524597168
1702070566001026300,17.0840263671875,-0.4701214134693146,-4.847375392913818,8.515752792358398
1702070566018016000,17.10101611328125,-0.538393497467041,-5.150813579559326,8.331587791442871
1702070566035006500,17.11800634765625,-0.5678190588951111,-5.4275407791137695,8.152024269104004
1702070566051996400,17.134996337890627,-0.5487518310546875,-5.665246963500977,7.989992618560791
1702070566068986600,17.151986572265624,-0.4995364248752594,-5.873866558074951,7.841190338134766
1702070566085976800,17.168976806640625,-0.4527271091938019,-6.064980983734131,7.6972198486328125
1702070566102967000,17.185967041015626,-0.4250747561454773,-6.24738073348999,7.551534175872803
1702070566119948800,17.20294873046875,-0.4095182418823242,-6.4215192794799805,7.404897212982178
1702070566136947000,17.219947021484376,-0.39041686058044434,-6.580047607421875,7.265445232391357
1702070566153934300,17.236934326171873,-0.35134896636009216,-6.717238903045654,7.140825271606445
1702070566170929400,17.253929443359375,-0.29309988021850586,-6.829920768737793,7.035793304443359
1702070566187917600,17.27091748046875,-0.22582562267780304,-6.9199018478393555,6.949825763702393
1702070566204907300,17.2879072265625,-0.17199906706809998,-6.9866533279418945,6.884271144866943
1702070566221897500,17.3048974609375,-0.16202020645141602,-7.02356481552124,6.846853733062744
1702070566238888000,17.321887939453124,-0.21020595729351044,-7.027530193328857,6.841472625732422
1702070566255877600,17.338877685546876,-0.30571144819259644,-6.99940299987793,6.866661071777344
1702070566272867800,17.355867919921874,-0.40611693263053894,-6.945593357086182,6.915919780731201
1702070566289866500,17.372866455078125,-0.46793895959854126,-6.871323108673096,6.985848426818848
1702070566306848500,17.3898486328125,-0.4823032319545746,-6.771410942077637,7.08177375793457
1702070566323838000,17.406837890625,-0.4671986997127533,-6.635310173034668,7.210443019866943
1702070566340825900,17.423825927734374,-0.459119588136673,-6.469847202301025,7.359783172607422
1702070566357822200,17.440822265625,-0.463393896818161,-6.303835391998291,7.502203941345215
1702070566374807800,17.457807861328124,-0.44777220487594604,-6.158151149749756,7.623175144195557
1702070566391798300,17.47479833984375,-0.3856905400753021,-6.000542640686035,7.751183986663818
1702070566408788500,17.49178857421875,-0.31687086820602417,-5.766589164733887,7.92982816696167
1702070566425779000,17.508779052734376,-0.275716096162796,-5.4206438064575195,8.171703338623047
1702070566442769400,17.525769287109377,-0.2696104347705841,-4.987613201141357,8.443170547485352
1702070566459746300,17.542746337890627,-0.27854615449905396,-4.51352071762085,8.705554008483887
1702070566476746200,17.559746337890626,-0.2824673056602478,-4.035138130187988,8.937224388122559
1702070566493736000,17.57673583984375,-0.27637508511543274,-3.578260898590088,9.129938125610352
1702070566510722300,17.593722412109376,-0.2749735116958618,-3.1529574394226074,9.28543758392334
1702070566527714000,17.610714111328125,-0.2769855260848999,-2.760542154312134,9.409505844116211
1702070566544698400,17.627698486328125,-0.2671867907047272,-2.4059839248657227,9.50662899017334
1702070566561691000,17.64469091796875,-0.24103568494319916,-2.09081768989563,9.581570625305176
1702070566578677200,17.66167724609375,-0.20763464272022247,-1.8104363679885864,9.639259338378906
1702070566595677400,17.678677490234374,-0.18114791810512543,-1.5614770650863647,9.68323802947998
1702070566612684000,17.69568408203125,-0.17406752705574036,-1.3434349298477173,9.716017723083496
1702070566629662700,17.712662841796874,-0.19977013766765594,-1.1557139158248901,9.739636421203613
1702070566646648300,17.7296484375,-0.25717809796333313,-0.9961407780647278,9.755905151367188
1702070566663642000,17.74664208984375,-0.34356486797332764,-0.86287921667099,9.765936851501465
1702070566680620000,17.7636201171875,-0.4595256745815277,-0.7526752948760986,9.770284652709961
1702070566697620700,17.780620849609374,-0.5988192558288574,-0.6563444137573242,9.769684791564941
1702070566714611000,17.79761083984375,-0.7515063881874084,-0.5665744543075562,9.764749526977539
1702070566731600600,17.8146005859375,-0.9040912389755249,-0.4968622028827667,9.755608558654785
1702070566748591000,17.831591064453125,-1.0417914390563965,-0.4682775139808655,9.743280410766602
1702070566765578500,17.84857861328125,-1.1592673063278198,-0.4904176890850067,9.728911399841309
1702070566782574000,17.865573974609376,-1.2561439275741577,-0.5662151575088501,9.712756156921387
1702070566799561000,17.88256103515625,-1.3306474685668945,-0.6853542327880859,9.695140838623047
1702070566816546800,17.899546875,-1.3789010047912598,-0.8300900459289551,9.677072525024414
1702070566833546000,17.9165458984375,-1.3939476013183594,-1.0062719583511353,9.658180236816406
1702070566850531600,17.933531494140624,-1.380185604095459,-1.2236764430999756,9.635031700134277
1702070566867521500,17.950521484375,-1.3255943059921265,-1.499942421913147,9.603598594665527
1702070566884511700,17.96751171875,-1.2363154888153076,-1.8740520477294922,9.549638748168945
1702070566901501700,17.984501708984375,-1.1496351957321167,-2.3690571784973145,9.449975967407227
1702070566918482000,18.00148193359375,-1.0896379947662354,-2.958880662918091,9.289448738098145
1702070566935481600,18.018481689453125,-1.0240638256072998,-3.5729310512542725,9.078634262084961
1702070566952472300,18.035472412109375,-0.920124351978302,-4.140936374664307,8.845459938049316
1702070566969452000,18.0524521484375,-0.790623128414154,-4.618978500366211,8.618356704711914
1702070566986452500,18.069452392578125,-0.6827659606933594,-5.0106706619262695,8.406137466430664
1702070567003443200,18.086443115234374,-0.6234512329101562,-5.363789081573486,8.19006633758545
1702070567020433400,18.103433349609375,-0.6064118146896362,-5.7217841148376465,7.9454121589660645
1702070567037420500,18.120420654296876,-0.6114243865013123,-6.087882995605469,7.668113708496094
1702070567054412500,18.13741259765625,-0.606961190700531,-6.431125164031982,7.38297700881958
1702070567071396600,18.154396728515625,-0.5709443688392639,-6.711493968963623,7.132040023803711
1702070567088393000,18.17139306640625,-0.503939688205719,-6.919228553771973,6.935881614685059
1702070567105383200,18.188383056640625,-0.429404616355896,-7.072528839111328,6.78462028503418
1702070567122373600,18.20537353515625,-0.36560946702957153,-7.197509288787842,6.655696868896484
1702070567139354000,18.22235400390625,-0.32332006096839905,-7.30940580368042,6.534842491149902
1702070567156353500,18.239353515625,-0.29743385314941406,-7.409651756286621,6.422205924987793
1702070567173343200,18.25634326171875,-0.2681238055229187,-7.488580703735352,6.331301689147949
1702070567190333700,18.273333740234374,-0.22285142540931702,-7.541020393371582,6.270523548126221
1702070567207323400,18.290323486328123,-0.16908715665340424,-7.576757907867432,6.228983402252197
1702070567224313900,18.30731396484375,-0.10479789972305298,-7.5997748374938965,6.202300548553467
1702070567241303800,18.3243037109375,-0.018858440220355988,-7.611250400543213,6.1890740394592285
1702070567258291700,18.341291748046874,0.08524714410305023,-7.612843036651611,6.186556816101074
1702070567275286300,18.358286376953124,0.1838616132736206,-7.6050848960876465,6.193946838378906
1702070567292274200,18.375274169921877,0.26070424914360046,-7.587837219238281,6.212316036224365
1702070567309264400,18.392264404296874,0.3017292022705078,-7.564210414886475,6.239216327667236
1702070567326252000,18.409251953125,0.31069475412368774,-7.535009384155273,6.274011135101318
1702070567343247000,18.4262470703125,0.29388105869293213,-7.492239952087402,6.3258256912231445
1702070567360234800,18.44323486328125,0.25157004594802856,-7.427371501922607,6.403670310974121
1702070567377222400,18.460222412109374,0.16450820863246918,-7.345236301422119,6.5005035400390625
1702070567394204400,18.477204345703125,0.06437346339225769,-7.268014907836914,6.588470935821533
1702070567411198500,18.494198486328123,0.023828865960240364,-7.215871810913086,6.645806312561035
1702070567428195600,18.511195556640626,0.097781240940094,-7.1714019775390625,6.693098545074463
1702070567445174000,18.528174072265625,0.24298222362995148,-7.065672397613525,6.800983428955078
1702070567462163700,18.545163818359374,0.37462908029556274,-6.8453168869018555,7.016936779022217
1702070567479155000,18.562155029296875,0.43179088830947876,-6.509129524230957,7.32672643661499
1702070567496151800,18.57915185546875,0.41319409012794495,-6.088109970092773,7.6811652183532715
1702070567513135900,18.596135986328125,0.35271576046943665,-5.627434253692627,8.027682304382324
1702070567530128400,18.61312841796875,0.29364660382270813,-5.160549640655518,8.337780952453613
1702070567547121700,18.63012158203125,0.2649092972278595,-4.702455997467041,8.605396270751953
1702070567564112600,18.647112548828126,0.25895681977272034,-4.259825706481934,8.833059310913086
1702070567581096200,18.66409619140625,0.2581738829612732,-3.832382917404175,9.026755332946777
1702070567598086000,18.6810859375,0.24814473092556,-3.421391487121582,9.190680503845215
1702070567615080400,18.69808056640625,0.22443193197250366,-3.0345747470855713,9.326149940490723
1702070567632069400,18.7150693359375,0.19135774672031403,-2.681082010269165,9.434579849243164
1702070567649059000,18.73205908203125,0.15785612165927887,-2.3569319248199463,9.52134895324707
1702070567666055000,18.749054931640625,0.1261378973722458,-2.0552027225494385,9.591472625732422
1702070567683044000,18.766044189453126,0.09001262485980988,-1.7774741649627686,9.64720630645752
1702070567700024600,18.783024658203125,0.04081473499536514,-1.5223768949508667,9.691068649291992
1702070567717028400,18.8000283203125,-0.02510502189397812,-1.2897353172302246,9.724817276000977
1702070567734007800,18.8170078125,-0.11064101755619049,-1.0787826776504517,9.749878883361816
1702070567751005400,18.83400537109375,-0.21135170757770538,-0.8796162605285645,9.768199920654297
1702070567767997200,18.8509970703125,-0.3197421431541443,-0.6926535964012146,9.780293464660645
1702070567784977000,18.867976806640623,-0.42949262261390686,-0.5558196902275085,9.784819602966309
1702070567801977600,18.8849775390625,-0.5317960977554321,-0.5355815887451172,9.780923843383789
1702070567818966800,18.901966796875,-0.6026561856269836,-0.6463965773582458,9.770112037658691
1702070567835957500,18.91895751953125,-0.6438568234443665,-0.8412731289863586,9.752630233764648
1702070567852947500,18.935947509765626,-0.6926881074905396,-1.0711815357208252,9.726709365844727
1702070567869927200,18.95292724609375,-0.7790496945381165,-1.3151907920837402,9.69017505645752
1702070567886927400,18.96992724609375,-0.8858432769775391,-1.5719521045684814,9.642633438110352
1702070567903917600,18.98691748046875,-0.9496305584907532,-1.8593579530715942,9.58525276184082
1702070567920915000,19.0039150390625,-0.9182111024856567,-2.2060866355895996,9.5145263671875
1702070567937898500,19.0208984375,-0.8040880560874939,-2.6077487468719482,9.422801971435547
1702070567954887700,19.0378876953125,-0.6521990299224854,-3.039320230484009,9.30447769165039
1702070567971878400,19.05487841796875,-0.49534690380096436,-3.4549314975738525,9.168108940124512
1702070567988868400,19.071868408203127,-0.3663578927516937,-3.812206506729126,9.03155517578125
1702070568005859800,19.08885986328125,-0.3003077507019043,-4.104912281036377,8.90480899810791
1702070568022848500,19.1058486328125,-0.31921473145484924,-4.356206893920898,8.783944129943848
1702070568039829000,19.1228291015625,-0.40686917304992676,-4.610325336456299,8.6495943069458
1702070568056828200,19.139828125,-0.5313622355461121,-4.898585319519043,8.482784271240234
1702070568073819100,19.156819091796876,-0.6667346358299255,-5.209691524505615,8.285572052001953
1702070568090808800,19.173808837890626,-0.783992350101471,-5.51467752456665,8.0752592086792
1702070568107787500,19.19078759765625,-0.8598325252532959,-5.787776470184326,7.8739094734191895
1702070568124788200,19.207788330078124,-0.8873261213302612,-6.019129276275635,7.695378303527832
1702070568141777400,19.22477734375,-0.8755422234535217,-6.206448554992676,7.546491622924805
1702070568158769200,19.24176904296875,-0.8435760736465454,-6.3595452308654785,7.42163610458374
1702070568175757000,19.258757080078126,-0.8074122071266174,-6.491217613220215,7.31083345413208
1702070568192752000,19.275752197265625,-0.7697275280952454,-6.607481002807617,7.210051536560059
1702070568209739800,19.29273974609375,-0.7245694398880005,-6.700037956237793,7.128859043121338
1702070568226729200,19.309729248046875,-0.6792950630187988,-6.753617763519287,7.082608699798584
1702070568243720000,19.326719970703124,-0.6344960331916809,-6.768887042999268,7.072177410125732
1702070568260710000,19.3437099609375,-0.589992880821228,-6.761240005493164,7.083337783813477
1702070568277700400,19.360700439453126,-0.5509398579597473,-6.741547107696533,7.105217456817627
1702070568294687500,19.3776875,-0.5123617053031921,-6.71829891204834,7.13007926940918
1702070568311682800,19.394682861328125,-0.46638211607933044,-6.6891608238220215,7.160567283630371
1702070568328678000,19.411677978515623,-0.41616448760032654,-6.650852680206299,7.199242115020752
1702070568345661000,19.428660888671875,-0.3595704436302185,-6.619539737701416,7.231080532073975
1702070568362635000,19.445635009765624,-0.29485228657722473,-6.607954978942871,7.244592189788818
1702070568379640600,19.462640625,-0.25029534101486206,-6.604933261871338,7.2490234375
1702070568396630000,19.479630126953126,-0.23941074311733246,-6.602540969848633,7.251568794250488
1702070568413621800,19.496621826171875,-0.24124619364738464,-6.605868816375732,7.248476982116699
1702070568430610200,19.513610107421876,-0.2344055324792862,-6.615542888641357,7.239872455596924
1702070568447587800,19.530587890625,-0.21121196448802948,-6.632067680358887,7.225454330444336
1702070568464590800,19.5475908203125,-0.17940720915794373,-6.641577243804932,7.217574119567871
1702070568481581600,19.56458154296875,-0.16045871376991272,-6.618824005126953,7.238892555236816
1702070568498561000,19.58156103515625,-0.17859911918640137,-6.55534029006958,7.2960076332092285
1702070568515561200,19.598561279296874,-0.22989147901535034,-6.478703498840332,7.362721920013428
1702070568532551400,19.615551513671875,-0.2797483503818512,-6.4175124168396,7.414405345916748
1702070568549542000,19.6325419921875,-0.29112470149993896,-6.381953239440918,7.444599151611328
1702070568566531300,19.64953125,-0.2523927390575409,-6.353600025177002,7.470220565795898
1702070568583526400,19.6665263671875,-0.18695887923240662,-6.293582439422607,7.522765636444092
1702070568600512000,19.683511962890623,-0.1343924105167389,-6.174304962158203,7.622074127197266
1702070568617502000,19.700501953125,-0.11667709797620773,-5.991652488708496,7.766763210296631
1702070568634492000,19.717491943359374,-0.13291890919208527,-5.767450332641602,7.9344162940979
1702070568651481900,19.73448193359375,-0.17318108677864075,-5.5356645584106445,8.09706974029541
1702070568668472000,19.75147216796875,-0.23973292112350464,-5.322226047515869,8.237266540527344
1702070568685462500,19.768462646484377,-0.3403143882751465,-5.132731914520264,8.353165626525879
1702070568702452200,19.7854521484375,-0.4675235152244568,-4.954153537750244,8.4542236328125
1702070568719442700,19.802442626953123,-0.6047798991203308,-4.762534141540527,8.555034637451172
1702070568736432600,19.8194326171875,-0.7250167727470398,-4.542932987213135,8.664423942565918
1702070568753422800,19.8364228515625,-0.8109427690505981,-4.296132564544678,8.78189754486084
1702070568770412800,19.853412841796874,-0.8757369518280029,-4.031096458435059,8.900531768798828
1702070568787401000,19.87040087890625,-0.9310533404350281,-3.7570836544036865,9.014077186584473
1702070568804394800,19.887394775390625,-0.9809979200363159,-3.4781277179718018,9.120110511779785
1702070568821373000,19.904373046875,-1.0215343236923218,-3.2062571048736572,9.214798927307129
1702070568838359800,19.92135986328125,-1.061801791191101,-2.951582431793213,9.294991493225098
1702070568855363300,19.93836328125,-1.1100395917892456,-2.710090160369873,9.36265754699707
1702070568872353300,19.955353271484373,-1.1618973016738892,-2.4788763523101807,9.420259475708008
1702070568889343700,19.97234375,-1.2080411911010742,-2.260812759399414,9.469186782836914
1702070568906333200,19.989333251953123,-1.2436882257461548,-2.066102981567383,9.508971214294434
1702070568923324000,20.006323974609376,-1.2647615671157837,-1.9042258262634277,9.539937973022461
1702070568940313900,20.02331396484375,-1.2734546661376953,-1.7700707912445068,9.564584732055664
1702070568957304600,20.0403046875,-1.273551106452942,-1.6585361957550049,9.584543228149414
1702070568974290700,20.057290771484375,-1.2650737762451172,-1.5724036693572998,9.60016918182373
1702070568991286500,20.07428662109375,-1.2497669458389282,-1.515825629234314,9.611268997192383
1702070569008274000,20.09127392578125,-1.2285619974136353,-1.4895734786987305,9.618102073669434
1702070569025264400,20.108264404296875,-1.2042850255966187,-1.4983676671981812,9.6198091506958
1702070569042251500,20.12525146484375,-1.1796828508377075,-1.551264762878418,9.614470481872559
1702070569059247000,20.1422470703125,-1.1429909467697144,-1.6543383598327637,9.60171127319336
1702070569076237600,20.159237548828123,-1.094260811805725,-1.7993545532226562,9.581286430358887
1702070569093222100,20.17622216796875,-1.0455576181411743,-1.9652053117752075,9.554102897644043
1702070569110214700,20.193214599609377,-1.0126582384109497,-2.1466476917266846,9.518538475036621
1702070569127204600,20.21020458984375,-1.0085090398788452,-2.3584790229797363,9.468716621398926
1702070569144194800,20.22719482421875,-1.016140341758728,-2.609508991241455,9.401810646057129
1702070569161185300,20.244185302734376,-1.0147439241409302,-2.8821332454681396,9.322002410888672
1702070569178174700,20.2611748046875,-1.0028332471847534,-3.154705047607422,9.234623908996582
1702070569195154700,20.27815478515625,-0.9770569205284119,-3.425279140472412,9.140509605407715
1702070569212155400,20.2951552734375,-0.9338120818138123,-3.705704927444458,9.035036087036133
1702070569229145600,20.3121455078125,-0.8760456442832947,-4.007486820220947,8.91115665435791
1702070569246135000,20.329135009765626,-0.8054668307304382,-4.321559906005859,8.769918441772461
1702070569263125500,20.34612548828125,-0.7333326935768127,-4.616990089416504,8.624484062194824
1702070569280115700,20.36311572265625,-0.6890172362327576,-4.867454528808594,8.489360809326172
1702070569297095400,20.380095458984375,-0.6748809814453125,-5.068947792053223,8.371763229370117
1702070569314095400,20.397095458984374,-0.6697512269020081,-5.242092132568359,8.26486873626709
1702070569331086300,20.41408642578125,-0.6494941115379333,-5.41575813293457,8.153761863708496
1702070569348075000,20.431074951171876,-0.6087355017662048,-5.610142230987549,8.024454116821289
1702070569365067000,20.44806689453125,-0.5647439956665039,-5.813704967498779,7.881499767303467
1702070569382056000,20.465055908203126,-0.5274691581726074,-6.0047101974487305,7.739595890045166
1702070569399035600,20.48203564453125,-0.4938552677631378,-6.169485092163086,7.6111531257629395
1702070569416036600,20.49903662109375,-0.4605308175086975,-6.310559272766113,7.4967241287231445
1702070569433026600,20.516026611328126,-0.43164557218551636,-6.4304327964782715,7.395900249481201
1702070569450016000,20.53301611328125,-0.41293272376060486,-6.528339385986328,7.310702800750732
1702070569466996200,20.549996337890626,-0.4162299633026123,-6.594595909118652,7.2508063316345215
1702070569483994400,20.566994384765625,-0.4465717673301697,-6.618526935577393,7.227156162261963
1702070569500989400,20.583989501953123,-0.4973554015159607,-6.604162693023682,7.236974716186523
1702070569517976600,20.6009765625,-0.5585436224937439,-6.558307647705078,7.274113655090332
1702070569534979000,20.61797900390625,-0.6184617877006531,-6.487209320068359,7.332784175872803
1702070569551956700,20.634956787109374,-0.6737203001976013,-6.395683765411377,7.407931804656982
1702070569568947500,20.651947509765623,-0.7277708053588867,-6.287693500518799,7.494757652282715
1702070569585937200,20.668937255859376,-0.777113676071167,-6.174903392791748,7.583058834075928
1702070569602927400,20.68592724609375,-0.8224009871482849,-6.072671890258789,7.660447597503662
1702070569619907600,20.702907470703124,-0.8664907217025757,-5.989182949066162,7.721075057983398
1702070569636910300,20.719910400390624,-0.9136707782745361,-5.922152519226074,7.767201900482178
1702070569653897200,20.736897216796876,-0.9704460501670837,-5.860403537750244,7.807050704956055
1702070569670901500,20.753901611328125,-1.041806697845459,-5.78849983215332,7.8513712882995605
1702070569687878000,20.7708779296875,-1.126767873764038,-5.698631286621094,7.905195713043213
1702070569704868400,20.787868408203124,-1.2131446599960327,-5.6009368896484375,7.962027549743652
1702070569721857800,20.80485791015625,-1.2878960371017456,-5.519369125366211,8.007121086120605
1702070569738848300,20.82184814453125,-1.3463307619094849,-5.458832740783691,8.038946151733398
1702070569755835600,20.838835693359375,-1.3982020616531372,-5.391995429992676,8.075119018554688
1702070569772831000,20.8558310546875,-1.465072512626648,-5.286210536956787,8.132999420166016
1702070569789818000,20.872818115234374,-1.5625070333480835,-5.148828983306885,8.202698707580566
1702070569806808600,20.88980859375,-1.664955496788025,-5.006906032562256,8.270122528076172
1702070569823798800,20.906798828125,-1.7308881282806396,-4.8780646324157715,8.333344459533691
1702070569840786200,20.9237861328125,-1.7123156785964966,-4.7634477615356445,8.403194427490234
1702070569857778400,20.9407783203125,-1.6154314279556274,-4.6263275146484375,8.49844741821289
1702070569874771200,20.957771240234376,-1.5118017196655273,-4.401556015014648,8.635791778564453
1702070569891748600,20.97474853515625,-1.4568016529083252,-4.069588661193848,8.806376457214355
1702070569908745700,20.991745849609377,-1.4369802474975586,-3.689026355743408,8.9756498336792
1702070569925741800,21.008741943359375,-1.407389760017395,-3.3297717571258545,9.119648933410645
1702070569942726700,21.0257265625,-1.343072772026062,-3.019113063812256,9.236733436584473
1702070569959713800,21.0427138671875,-1.2550779581069946,-2.743201732635498,9.3346529006958
1702070569976706000,21.0597060546875,-1.1697747707366943,-2.4772143363952637,9.419720649719238
1702070569993698300,21.0766982421875,-1.1034982204437256,-2.2017481327056885,9.495826721191406
1702070570010677200,21.09367724609375,-1.0571246147155762,-1.9152263402938843,9.562976837158203
1702070570027678000,21.110677978515625,-1.01826810836792,-1.6279199123382568,9.620244979858398
1702070570044663600,21.12766357421875,-0.9808657765388489,-1.3578208684921265,9.665936470031738
1702070570061651700,21.144651611328126,-0.9479705095291138,-1.120272159576416,9.699610710144043
1702070570078652400,21.16165234375,-0.9265083074569702,-0.9161470532417297,9.7230863571167
1702070570095652000,21.178652099609376,-0.9126545190811157,-0.7319565415382385,9.739989280700684
1702070570112631800,21.1956318359375,-0.8981844186782837,-0.5509296655654907,9.753250122070312
1702070570129617400,21.212617431640624,-0.8763596415519714,-0.38129255175590515,9.763337135314941
1702070570146612700,21.22961279296875,-0.8370593786239624,-0.24640050530433655,9.771116256713867
1702070570163611000,21.24661083984375,-0.7742640376091003,-0.1632472574710846,9.778035163879395
1702070570180590600,21.263590576171875,-0.6840646266937256,-0.1371707171201706,9.78515911102295
1702070570197580300,21.280580322265624,-0.5808454751968384,-0.15111514925956726,9.791624069213867
1702070570214570500,21.297570556640625,-0.4839647114276886,-0.18789881467819214,9.796255111694336
1702070570231561000,21.31456103515625,-0.41076719760894775,-0.2581367492675781,9.79799747467041
1702070570248551200,21.33155126953125,-0.37123915553092957,-0.388944536447525,9.795254707336426
1702070570265540600,21.34854052734375,-0.3662494421005249,-0.5756019949913025,9.786249160766602
1702070570282531000,21.365531005859374,-0.3850640058517456,-0.7956879734992981,9.77009391784668
1702070570299521000,21.38252099609375,-0.40892505645751953,-1.0262418985366821,9.747601509094238
1702070570316518400,21.399518310546874,-0.4213986098766327,-1.271245002746582,9.71815299987793
1702070570333501000,21.4165009765625,-0.42571884393692017,-1.557213544845581,9.67625904083252
1702070570350491400,21.433491455078126,-0.435762882232666,-1.900087833404541,9.614359855651855
1702070570367481300,21.4504814453125,-0.470177561044693,-2.274507522583008,9.53109073638916
1702070570384471800,21.467471923828125,-0.5249139070510864,-2.6370928287506104,9.434316635131836
1702070570401461200,21.484461181640626,-0.5759478211402893,-2.947530746459961,9.338976860046387
1702070570418446800,21.50144677734375,-0.605279803276062,-3.1900360584259033,9.257073402404785
1702070570435451600,21.51845166015625,-0.6189219355583191,-3.387878179550171,9.1856050491333
1702070570452434400,21.535434326171874,-0.6307690143585205,-3.5786163806915283,9.112174987792969
1702070570469421800,21.552421875,-0.6478574872016907,-3.7892820835113525,9.02539348602295
1702070570486412000,21.569412109375,-0.6663230061531067,-4.015337944030762,8.925761222839355
1702070570503402200,21.58640234375,-0.6806153655052185,-4.223214626312256,8.828211784362793
1702070570520392400,21.603392333984374,-0.6872326135635376,-4.393146991729736,8.744375228881836
1702070570537382100,21.620382080078127,-0.687125027179718,-4.539361476898193,8.669382095336914
1702070570554374000,21.637373779296876,-0.6866800785064697,-4.685850143432617,8.5911226272583
1702070570571360800,21.65436083984375,-0.6851498484611511,-4.8477067947387695,8.500965118408203
1702070570588352800,21.671352783203126,-0.6757656931877136,-5.029501914978027,8.395450592041016
