time,seconds_elapsed,z,y,x
1701911087230852400,0.110852294921875,7.395452976226807,5.931173324584961,2.5228092670440674
1701911087247840300,0.12784033203125,7.302821159362793,5.960340976715088,2.716477394104004
1701911087264833800,0.144833740234375,7.165449619293213,5.998901844024658,2.984227180480957
1701911087281818000,0.161818115234375,6.947886943817139,6.065920352935791,3.3417935371398926
1701911087298816800,0.178816650390625,6.626189708709717,6.167411804199219,3.7805752754211426
1701911087315812900,0.195812744140625,6.2037458419799805,6.281306266784668,4.277246475219727
1701911087332803300,0.21280322265625,5.695572853088379,6.370820999145508,4.817592144012451
1701911087349798100,0.229798095703125,5.128498554229736,6.381377696990967,5.404871463775635
1701911087366785500,0.24678564453125,4.595143795013428,6.247054576873779,6.007917404174805
1701911087383781400,0.263781494140625,4.187558650970459,5.963312149047852,6.568056583404541
1701911087400771000,0.28077099609375,3.878958225250244,5.582393646240234,7.072954177856445
1701911087417763600,0.297763671875,3.5420265197753906,5.173705577850342,7.5447282791137695
1701911087434749000,0.3147490234375,3.105625867843628,4.801553726196289,7.970964431762695
1701911087451750000,0.33175,2.6478824615478516,4.452888011932373,8.330464363098145
1701911087468741000,0.3487412109375,2.246202230453491,4.037005424499512,8.65408992767334
1701911087485736000,0.36573583984375,1.9304629564285278,3.521890163421631,8.950179100036621
1701911087502717000,0.382717041015625,1.6465356349945068,2.945235013961792,9.211441040039062
1701911087519721000,0.399720947265625,1.2892673015594482,2.347813606262207,9.437250137329102
1701911087536710400,0.41671044921875,0.8591173887252808,1.7573392391204834,9.613000869750977
1701911087553705200,0.433705322265625,0.45392346382141113,1.1707020998001099,9.7293119430542
1701911087570696400,0.450696533203125,0.14886368811130524,0.5680912137031555,9.792407035827637
1701911087587687000,0.46768701171875,-0.026990748941898346,-0.02072954922914505,9.809942245483398
1701911087604680700,0.4846806640625,-0.11982816457748413,-0.5720585584640503,9.792574882507324
1701911087621665500,0.50166552734375,-0.18024218082427979,-1.0820392370224,9.7484769821167
1701911087638663000,0.518662841796875,-0.23083581030368805,-1.5559710264205933,9.683066368103027
1701911087655657000,0.535656982421875,-0.28516286611557007,-2.0252926349639893,9.594425201416016
1701911087672652800,0.55265283203125,-0.34026119112968445,-2.5136780738830566,9.476378440856934
1701911087689643300,0.569643310546875,-0.3924189507961273,-2.993272304534912,9.333939552307129
1701911087706632400,0.586632568359375,-0.43379440903663635,-3.436392307281494,9.178189277648926
1701911087723628300,0.603628173828125,-0.4492281377315521,-3.8302321434020996,9.02017879486084
1701911087740620800,0.620620849609375,-0.44106367230415344,-4.180979251861572,8.863466262817383
1701911087757603600,0.637603515625,-0.42363137006759644,-4.500680923461914,8.706351280212402
1701911087774604000,0.65460400390625,-0.4128912091255188,-4.797261714935303,8.547041893005371
1701911087791598800,0.671598876953125,-0.4155581295490265,-5.0720014572143555,8.386788368225098
1701911087808586200,0.688586181640625,-0.4239863157272339,-5.319319725036621,8.231718063354492
1701911087825582800,0.705582763671875,-0.4222552478313446,-5.529692649841309,8.091988563537598
1701911087842564900,0.72256494140625,-0.4012271761894226,-5.70169734954834,7.97281551361084
1701911087859569700,0.739569580078125,-0.365467369556427,-5.8397955894470215,7.873966217041016
1701911087876555800,0.7565556640625,-0.3179110884666443,-5.954413890838623,7.789738178253174
1701911087893551400,0.77355126953125,-0.26106971502304077,-6.055125713348389,7.713845252990723
1701911087910534100,0.7905341796875,-0.19625245034694672,-6.130002021789551,7.656415939331055
1701911087927533800,0.807533935546875,-0.1169147863984108,-6.147706031799316,7.6438307762146
1701911087944527400,0.82452734375,-0.032558176666498184,-6.090780735015869,7.690086364746094
1701911087961523000,0.84152294921875,0.04643157124519348,-5.971200466156006,7.783234119415283
1701911087978507000,0.858507080078125,0.11037468165159225,-5.809033393859863,7.90437126159668
1701911087995509000,0.875509033203125,0.1539212316274643,-5.621824264526367,8.037880897521973
1701911088012497400,0.892497314453125,0.1744239181280136,-5.421467304229736,8.173945426940918
1701911088029491500,0.909491455078125,0.1693377047777176,-5.208526134490967,8.311359405517578
1701911088046479000,0.92647900390625,0.13324576616287231,-4.972561359405518,8.455293655395508
1701911088063477500,0.9434775390625,0.0637861117720604,-4.705913066864014,8.607348442077637
1701911088080465400,0.96046533203125,-0.03981076925992966,-4.411847114562988,8.761857032775879
1701911088097447400,0.977447509765625,-0.16958504915237427,-4.100103378295898,8.91047191619873
1701911088114447600,0.994447509765625,-0.31117597222328186,-3.7772467136383057,9.048296928405762
1701911088131449300,1.011449462890625,-0.45879244804382324,-3.4542627334594727,9.17026138305664
1701911088148433200,1.02843310546875,-0.6039097905158997,-3.1431937217712402,9.273172378540039
1701911088165429000,1.045428955078125,-0.7346851229667664,-2.8425397872924805,9.360359191894531
1701911088182421000,1.0624208984375,-0.8542519211769104,-2.5426671504974365,9.436164855957031
1701911088199415300,1.079415283203125,-0.967410147190094,-2.2459986209869385,9.5003023147583
1701911088216402400,1.09640234375,-1.0753854513168335,-1.9665863513946533,9.550508499145508
1701911088233398300,1.113398193359375,-1.175154209136963,-1.7158159017562866,9.587027549743652
1701911088250391000,1.13039111328125,-1.2574530839920044,-1.4942092895507812,9.61365032196045
1701911088267380700,1.147380615234375,-1.318364143371582,-1.2864580154418945,9.635507583618164
1701911088284374300,1.164374267578125,-1.3614674806594849,-1.0889085531234741,9.653847694396973
1701911088301358800,1.18135888671875,-1.395514726638794,-0.9172065854072571,9.66681957244873
1701911088318354200,1.198354248046875,-1.4217002391815186,-0.7983952164649963,9.673543930053711
1701911088335350300,1.215350341796875,-1.4333555698394775,-0.7450469732284546,9.676078796386719
1701911088352344300,1.23234423828125,-1.4296612739562988,-0.7389009594917297,9.67709732055664
1701911088369339000,1.2493388671875,-1.416354775428772,-0.7547007203102112,9.677835464477539
1701911088386326000,1.266325927734375,-1.4015161991119385,-0.7758015990257263,9.678325653076172
1701911088403312400,1.2833125,-1.3914947509765625,-0.8149533867835999,9.676553726196289
1701911088420311300,1.300311279296875,-1.366617202758789,-0.9134634733200073,9.67130184173584
1701911088437304300,1.31730419921875,-1.3019142150878906,-1.0999475717544556,9.660811424255371
1701911088454309000,1.33430908203125,-1.1946336030960083,-1.3526759147644043,9.642573356628418
1701911088471285200,1.35128515625,-1.0538069009780884,-1.6188602447509766,9.617947578430176
1701911088488281600,1.368281494140625,-0.905174732208252,-1.8500980138778687,9.591344833374023
1701911088505273900,1.38527392578125,-0.7894589304924011,-2.0302417278289795,9.565093040466309
1701911088522275000,1.402275146484375,-0.7318732142448425,-2.1899001598358154,9.534400939941406
1701911088539281000,1.419281005859375,-0.7314288020133972,-2.371083974838257,9.490999221801758
1701911088556249600,1.43624951171875,-0.7658963799476624,-2.6093809604644775,9.425533294677734
1701911088573245200,1.4532451171875,-0.8211689591407776,-2.910794258117676,9.3321533203125
1701911088590238000,1.470238037109375,-0.8878447413444519,-3.247609853744507,9.214167594909668
1701911088607227400,1.487227294921875,-0.9462572932243347,-3.574794292449951,9.086338996887207
1701911088624221200,1.50422119140625,-0.9748191833496094,-3.864807367324829,8.963768005371094
1701911088641216300,1.52121630859375,-0.9670944213867188,-4.120890140533447,8.849809646606445
1701911088658203400,1.538203369140625,-0.929167628288269,-4.362670421600342,8.737269401550293
1701911088675199200,1.55519921875,-0.882043182849884,-4.609811782836914,8.614392280578613
1701911088692191500,1.57219140625,-0.8410202860832214,-4.866801738739014,8.476027488708496
1701911088709185800,1.589185791015625,-0.8099148273468018,-5.118814945220947,8.329339981079102
1701911088726168000,1.60616796875,-0.7902389764785767,-5.351406097412109,8.183769226074219
1701911088743169000,1.6231689453125,-0.7767260074615479,-5.572176933288574,8.036395072937012
1701911088760161500,1.64016162109375,-0.7629438638687134,-5.793415069580078,7.8797454833984375
1701911088777148200,1.657148193359375,-0.7422379851341248,-6.017792701721191,7.711766719818115
1701911088794136300,1.67413623046875,-0.7145265936851501,-6.24099063873291,7.53495979309082
1701911088811136300,1.69113623046875,-0.6821993589401245,-6.44188928604126,7.36700439453125
1701911088828127000,1.708126953125,-0.6464681625366211,-6.599080562591553,7.229822158813477
1701911088845123600,1.72512353515625,-0.618838906288147,-6.712666034698486,7.126939296722412
1701911088862114000,1.742114013671875,-0.6015676856040955,-6.793628215789795,7.0513014793396
1701911088879108600,1.759108642578125,-0.5853238701820374,-6.852100849151611,6.995872974395752
1701911088896096500,1.776096435546875,-0.5690665245056152,-6.883108139038086,6.966712951660156
1701911088913092000,1.793092041015625,-0.5563517808914185,-6.875218391418457,6.975524425506592
1701911088930084900,1.8100849609375,-0.5453134179115295,-6.828146457672119,7.022477626800537
1701911088947074300,1.82707421875,-0.529675304889679,-6.751951694488525,7.096950054168701
1701911088964070000,1.84406982421875,-0.5150800943374634,-6.65590238571167,7.188170433044434
1701911088981060600,1.861060546875,-0.5056669116020203,-6.545305252075195,7.28967809677124
1701911088998051600,1.878051513671875,-0.48537272214889526,-6.409818649291992,7.4104485511779785
1701911089015042300,1.895042236328125,-0.43767988681793213,-6.221417427062988,7.572220802307129
1701911089032039400,1.912039306640625,-0.36838775873184204,-5.956049919128418,7.786263942718506
1701911089049051400,1.929051513671875,-0.29969555139541626,-5.616807460784912,8.037273406982422
1701911089066023200,1.946023193359375,-0.2566787302494049,-5.226475238800049,8.29784107208252
1701911089083015700,1.963015625,-0.25051459670066833,-4.8155107498168945,8.543081283569336
1701911089100008200,1.98000830078125,-0.2726568579673767,-4.4082932472229,8.759492874145508
1701911089116996400,1.996996337890625,-0.3169945180416107,-4.006483554840088,8.948949813842773
1701911089133990000,2.013989990234375,-0.37285882234573364,-3.6087000370025635,9.11451530456543
1701911089150983400,2.0309833984375,-0.4235740602016449,-3.2193188667297363,9.257033348083496
1701911089167974400,2.047974365234375,-0.4641098976135254,-2.8439340591430664,9.377246856689453
1701911089184967000,2.064966796875,-0.501304030418396,-2.483924150466919,9.477073669433594
1701911089201964500,2.081964599609375,-0.5447781085968018,-2.138319253921509,9.558605194091797
1701911089218953000,2.098952880859375,-0.6029689908027649,-1.8105313777923584,9.622605323791504
1701911089235947000,2.115947021484375,-0.6821256875991821,-1.5065436363220215,9.669600486755371
1701911089252938800,2.132938720703125,-0.7848571538925171,-1.2299308776855469,9.700898170471191
1701911089269931800,2.149931884765625,-0.9071534276008606,-0.9761701822280884,9.719067573547363
1701911089286921000,2.1669208984375,-1.0419154167175293,-0.7451013922691345,9.726014137268066
1701911089303914800,2.183914794921875,-1.1851558685302734,-0.5395664572715759,9.723189353942871
1701911089320906500,2.200906494140625,-1.3319127559661865,-0.36514636874198914,9.712301254272461
1701911089337897200,2.217897216796875,-1.474845051765442,-0.22783121466636658,9.69582748413086
1701911089354893800,2.234893798828125,-1.596760630607605,-0.13487392663955688,9.678238868713379
1701911089371884000,2.251884033203125,-1.686869740486145,-0.0889463871717453,9.663470268249512
1701911089388868900,2.268868896484375,-1.7561790943145752,-0.08686653524637222,9.651135444641113
1701911089405869000,2.285869140625,-1.8121142387390137,-0.12729506194591522,9.640338897705078
1701911089422863000,2.302863037109375,-1.8630452156066895,-0.21500271558761597,9.629068374633789
1701911089439855000,2.319855224609375,-1.9019649028778076,-0.3556019365787506,9.617287635803223
1701911089456836900,2.3368369140625,-1.9275463819503784,-0.5409496426582336,9.603543281555176
1701911089473838600,2.353838623046875,-1.9384046792984009,-0.7496113181114197,9.587324142456055
1701911089490833200,2.370833251953125,-1.9167033433914185,-0.9769607186317444,9.571203231811523
1701911089507820300,2.3878203125,-1.8219913244247437,-1.2290476560592651,9.56064224243164
1701911089524817700,2.404817626953125,-1.6506930589675903,-1.507356882095337,9.551922798156738
1701911089541807900,2.421807861328125,-1.4484307765960693,-1.7935417890548706,9.535270690917969
1701911089558798800,2.438798828125,-1.2732499837875366,-2.059218168258667,9.506553649902344
1701911089575794700,2.455794677734375,-1.1542918682098389,-2.288943290710449,9.469132423400879
1701911089592791300,2.472791259765625,-1.0937058925628662,-2.4870359897613525,9.42626953125
1701911089609778700,2.48977880859375,-1.070816993713379,-2.6766483783721924,9.37683391571045
1701911089626768000,2.506767822265625,-1.0485782623291016,-2.886768102645874,9.316822052001953
1701911089643744800,2.523744873046875,-1.0151492357254028,-3.1365342140197754,9.239466667175293
1701911089660755700,2.540755615234375,-0.9809423685073853,-3.4279561042785645,9.139091491699219
1701911089677744600,2.55774462890625,-0.956072986125946,-3.7402544021606445,9.018454551696777
1701911089694730000,2.57472998046875,-0.9316684603691101,-4.063278675079346,8.880195617675781
1701911089711731700,2.591731689453125,-0.89939945936203,-4.390739440917969,8.726317405700684
1701911089728722000,2.608721923828125,-0.8606242537498474,-4.716808795928955,8.558456420898438
1701911089745716700,2.625716796875,-0.8230167031288147,-5.035614013671875,8.37862491607666
1701911089762699300,2.64269921875,-0.7950208187103271,-5.342438220977783,8.189166069030762
1701911089779702000,2.659701904296875,-0.7813330292701721,-5.629324436187744,7.996020793914795
1701911089796691500,2.67669140625,-0.7761395573616028,-5.8954997062683105,7.8023576736450195
1701911089813678600,2.6936787109375,-0.7725850343704224,-6.144562244415283,7.608127117156982
1701911089830675500,2.710675537109375,-0.7725180983543396,-6.369858741760254,7.420527458190918
1701911089847669000,2.7276689453125,-0.7776539921760559,-6.569136142730713,7.2441582679748535
1701911089864663000,2.7446630859375,-0.7785410284996033,-6.7437567710876465,7.081791400909424
1701911089881656000,2.761656005859375,-0.7738816738128662,-6.8885273933410645,6.9415717124938965
1701911089898645200,2.778645263671875,-0.7691199779510498,-6.999300479888916,6.830399513244629
1701911089915639800,2.795639892578125,-0.7707028388977051,-7.0729169845581055,6.753961086273193
1701911089932632600,2.812632568359375,-0.7735781669616699,-7.110800266265869,6.713733673095703
1701911089949625000,2.829625,-0.7660256028175354,-7.117641448974609,6.707346439361572
1701911089966607400,2.846607421875,-0.7459743618965149,-7.09867000579834,6.729674816131592
1701911089983608600,2.863608642578125,-0.7103557586669922,-7.061819076538086,6.772164821624756
1701911090000603400,2.880603271484375,-0.6503127217292786,-7.006569862365723,6.835289478302002
1701911090017590000,2.897590087890625,-0.5619350075721741,-6.9213056564331055,6.929347515106201
1701911090034584800,2.914584716796875,-0.44609785079956055,-6.791905403137207,7.064497470855713
1701911090051569000,2.93156884765625,-0.3203122317790985,-6.607140064239502,7.244253158569336
1701911090068564200,2.948564208984375,-0.20794454216957092,-6.368897914886475,7.458554267883301
1701911090085561000,2.96556103515625,-0.12510205805301666,-6.085534572601318,7.69329309463501
1701911090102568400,2.982568359375,-0.07969930768013,-5.7723164558410645,7.9315900802612305
1701911090119542300,2.999542236328125,-0.06995199620723724,-5.44538688659668,8.15959358215332
1701911090136534000,3.016533935546875,-0.08794096112251282,-5.110058784484863,8.373510360717773
1701911090153532000,3.033531982421875,-0.12683488428592682,-4.772042751312256,8.570159912109375
1701911090170527000,3.05052685546875,-0.17648360133171082,-4.437505722045898,8.747199058532715
1701911090187514000,3.06751416015625,-0.23406580090522766,-4.108204364776611,8.905279159545898
1701911090204509700,3.084509765625,-0.2915831208229065,-3.788118600845337,9.044404983520508
1701911090221505000,3.101505126953125,-0.3480987846851349,-3.4763400554656982,9.166788101196289
1701911090238489000,3.118489013671875,-0.4067884683609009,-3.1744461059570312,9.273269653320312
1701911090255487000,3.135487060546875,-0.4757920503616333,-2.8816893100738525,9.365127563476562
1701911090272481800,3.152481689453125,-0.5617490410804749,-2.5981338024139404,9.443002700805664
1701911090289464000,3.169464111328125,-0.6670831441879272,-2.3281617164611816,9.506356239318848
1701911090306465000,3.186465087890625,-0.7816190123558044,-2.0771946907043457,9.55565071105957
1701911090323456300,3.203456298828125,-0.9019090533256531,-1.848663330078125,9.59192943572998
1701911090340446500,3.220446533203125,-1.0268441438674927,-1.6433526277542114,9.61670970916748
1701911090357441000,3.23744091796875,-1.1552000045776367,-1.4666603803634644,9.630707740783691
1701911090374421500,3.25442138671875,-1.2813243865966797,-1.3274288177490234,9.634949684143066
1701911090391415600,3.27141552734375,-1.4021483659744263,-1.2311569452285767,9.63090705871582
1701911090408417500,3.28841748046875,-1.5266039371490479,-1.1790285110473633,9.618497848510742
1701911090425410300,3.305410400390625,-1.6563969850540161,-1.1786524057388306,9.597044944763184
1701911090442403600,3.322403564453125,-1.7697429656982422,-1.2323265075683594,9.570030212402344
1701911090459382800,3.3393828125,-1.8555654287338257,-1.3127987384796143,9.543037414550781
1701911090476388000,3.35638818359375,-1.9217108488082886,-1.3925899267196655,9.518606185913086
1701911090493379600,3.373379638671875,-1.978885531425476,-1.4752540588378906,9.494406700134277
1701911090510366000,3.390365966796875,-2.0066733360290527,-1.5854154825210571,9.47078800201416
1701911090527364600,3.407364501953125,-1.9666842222213745,-1.7406976222991943,9.451891899108887
1701911090544357600,3.424357666015625,-1.828282356262207,-1.9336575269699097,9.442166328430176
1701911090561336300,3.44133642578125,-1.6192151308059692,-2.1273348331451416,9.438679695129395
1701911090578339800,3.45833984375,-1.3925325870513916,-2.282853126525879,9.438514709472656
1701911090595335700,3.475335693359375,-1.2025518417358398,-2.394111394882202,9.437065124511719
1701911090612328000,3.492327880859375,-1.0748838186264038,-2.480668544769287,9.430113792419434
1701911090629318400,3.509318359375,-1.010463833808899,-2.5646893978118896,9.414746284484863
1701911090646311700,3.526311767578125,-0.9834537506103516,-2.669879674911499,9.388327598571777
1701911090663300600,3.543300537109375,-0.9578248262405396,-2.8146414756774902,9.348607063293457
1701911090680286000,3.560285888671875,-0.9176346063613892,-2.9920475482940674,9.297405242919922
1701911090697281800,3.57728173828125,-0.8572269678115845,-3.1867589950561523,9.238280296325684
1701911090714273300,3.594273193359375,-0.7847530841827393,-3.3991410732269287,9.168758392333984
1701911090731262500,3.611262451171875,-0.7144467234611511,-3.6326169967651367,9.084589958190918
1701911090748255000,3.6282548828125,-0.6620498299598694,-3.885136365890503,8.983512878417969
1701911090765249500,3.64524951171875,-0.6375243067741394,-4.151325225830078,8.865448951721191
1701911090782239700,3.66223974609375,-0.6387901902198792,-4.424087047576904,8.732439994812012
1701911090799233000,3.67923291015625,-0.6578187942504883,-4.696344375610352,8.587651252746582
1701911090816226600,3.6962265625,-0.6764910221099854,-4.961524486541748,8.435742378234863
1701911090833218300,3.71321826171875,-0.6887078881263733,-5.221487045288086,8.276344299316406
1701911090850211300,3.73021142578125,-0.6919387578964233,-5.4794793128967285,8.107568740844727
1701911090867202300,3.747202392578125,-0.6961060762405396,-5.733964920043945,7.929262638092041
1701911090884194300,3.7641943359375,-0.7054107785224915,-5.980280876159668,7.74433708190918
1701911090901185300,3.781185302734375,-0.7201433777809143,-6.202888011932373,7.56582498550415
1701911090918187800,3.798187744140625,-0.7285054922103882,-6.385140895843506,7.411838054656982
1701911090935178500,3.815178466796875,-0.7181784510612488,-6.511577129364014,7.302033424377441
1701911090952175900,3.83217578125,-0.6905637979507446,-6.569276332855225,7.252851486206055
1701911090969165300,3.849165283203125,-0.6407688856124878,-6.566210746765137,7.260193824768066
1701911090986155800,3.86615576171875,-0.579308807849884,-6.530190467834473,7.297748565673828
1701911091003149800,3.88314990234375,-0.5231655836105347,-6.484927654266357,7.342217445373535
1701911091020143400,3.900143310546875,-0.47909191250801086,-6.44761323928833,7.377999305725098
1701911091037131800,3.9171318359375,-0.433066725730896,-6.420521259307861,7.404423713684082
1701911091054130200,3.934130126953125,-0.355415403842926,-6.39323616027832,7.432115077972412
1701911091071119600,3.95111962890625,-0.23123867809772491,-6.346545696258545,7.4768967628479
1701911091088112600,3.968112548828125,-0.0814230665564537,-6.258731365203857,7.553659439086914
1701911091105092400,3.98509228515625,0.05005713924765587,-6.117277145385742,7.668932914733887
1701911091122093300,4.00209326171875,0.1307797133922577,-5.9261040687561035,7.816668510437012
1701911091139093000,4.019093017578125,0.15943603217601776,-5.701716899871826,7.981298923492432
1701911091156085500,4.03608544921875,0.15207701921463013,-5.460259914398193,8.148530006408691
1701911091173071400,4.0530712890625,0.12353237718343735,-5.211309909820557,8.310420989990234
1701911091190068700,4.07006884765625,0.08702352643013,-4.953202724456787,8.467248916625977
1701911091207047200,4.087047119140625,0.04620879143476486,-4.685369491577148,8.618660926818848
1701911091224051200,4.10405126953125,-0.006703833118081093,-4.413053512573242,8.761336326599121
1701911091241042700,4.121042724609375,-0.07507824897766113,-4.148164749145508,8.889500617980957
1701911091258036000,4.138035888671875,-0.17094102501869202,-3.9026904106140137,8.99866008758545
1701911091275027000,4.15502685546875,-0.29459092020988464,-3.6807901859283447,9.088516235351562
1701911091292020000,4.17202001953125,-0.44131219387054443,-3.4760751724243164,9.162874221801758
1701911091309012700,4.1890126953125,-0.5996583104133606,-3.2817471027374268,9.22532844543457
1701911091326002200,4.206002197265625,-0.761970579624176,-3.0965373516082764,9.277229309082031
1701911091342999600,4.22299951171875,-0.9179450869560242,-2.9225308895111084,9.319458961486816
1701911091359990300,4.239990234375,-1.0627765655517578,-2.7586779594421387,9.353947639465332
1701911091376981000,4.25698095703125,-1.1984219551086426,-2.605794906616211,9.38135051727295
1701911091393974500,4.273974609375,-1.3260462284088135,-2.4646663665771484,9.40229606628418
1701911091410966300,4.29096630859375,-1.459630012512207,-2.3286712169647217,9.417159080505371
1701911091427956000,4.3079560546875,-1.5991591215133667,-2.191176414489746,9.427488327026367
1701911091444950500,4.324950439453125,-1.7328739166259766,-2.0689032077789307,9.431485176086426
1701911091461943600,4.341943603515625,-1.8451257944107056,-1.983917236328125,9.428452491760254
1701911091478935800,4.358935791015625,-1.9344724416732788,-1.947748064994812,9.418078422546387
1701911091495927800,4.375927734375,-2.0060231685638428,-1.9703377485275269,9.398390769958496
1701911091512920600,4.392920654296875,-2.067843437194824,-2.0415568351745605,9.369749069213867
1701911091529913300,4.409913330078125,-2.1337087154388428,-2.136622190475464,9.333717346191406
1701911091546901500,4.426901611328125,-2.1939916610717773,-2.2294483184814453,9.297962188720703
1701911091563901200,4.443901123046875,-2.212815046310425,-2.3031044006347656,9.275521278381348
1701911091580885800,4.4608857421875,-2.153823137283325,-2.372795343399048,9.27184009552002
1701911091597880300,4.47788037109375,-1.9854742288589478,-2.4770090579986572,9.282156944274902
1701911091614875600,4.494875732421875,-1.7238434553146362,-2.6312131881713867,9.291996002197266
1701911091631867400,4.511867431640625,-1.4300296306610107,-2.808495044708252,9.289966583251953
1701911091648859000,4.52885888671875,-1.1659951210021973,-2.9809319972991943,9.273112297058105
1701911091665849300,4.545849365234375,-0.9818919897079468,-3.134467124938965,9.243760108947754
1701911091682857000,4.56285693359375,-0.8857941627502441,-3.274888277053833,9.204706192016602
1701911091699837700,4.579837646484375,-0.8421990871429443,-3.4237990379333496,9.154475212097168
1701911091716824000,4.596823974609375,-0.8091529607772827,-3.608844041824341,9.086124420166016
1701911091733825500,4.613825439453125,-0.7684773802757263,-3.8414385318756104,8.993825912475586
1701911091750813200,4.630813232421875,-0.7187275290489197,-4.110836982727051,8.878093719482422
1701911091767805700,4.6478056640625,-0.6674216985702515,-4.39298152923584,8.745991706848145
1701911091784797000,4.664796875,-0.6098359823226929,-4.665780067443848,8.607827186584473
1701911091801773000,4.68177294921875,-0.547028660774231,-4.928045749664307,8.464705467224121
1701911091818779000,4.69877880859375,-0.480850487947464,-5.191985130310059,8.309524536132812
1701911091835775200,4.715775146484375,-0.4162539541721344,-5.460965156555176,8.138840675354004
1701911091852766500,4.732766357421875,-0.35793206095695496,-5.728312969207764,7.955780506134033
1701911091869759700,4.749759765625,-0.31955474615097046,-5.983699321746826,7.767197608947754
1701911091886733600,4.766733642578125,-0.29415473341941833,-6.224287509918213,7.576796054840088
1701911091903744800,4.783744873046875,-0.27283576130867004,-6.452146530151367,7.384541988372803
1701911091920735700,4.80073583984375,-0.2574298083782196,-6.667435169219971,7.1913251876831055
1701911091937726200,4.817726318359375,-0.25301721692085266,-6.8739190101623535,6.994377613067627
1701911091954720800,4.834720703125,-0.2551453113555908,-7.073310852050781,6.7925920486450195
1701911091971714300,4.85171435546875,-0.25675269961357117,-7.249418258666992,6.604250907897949
1701911091988703000,4.868702880859375,-0.256620854139328,-7.381703853607178,6.456059455871582
1701911092005700400,4.885700439453125,-0.26758408546447754,-7.462869644165039,6.361612796783447
1701911092022672600,4.902672607421875,-0.28712987899780273,-7.506402969360352,6.309326171875
1701911092039683600,4.91968359375,-0.2988532483577728,-7.536812782287598,6.272420406341553
1701911092056674600,4.936674560546875,-0.2853064239025116,-7.571690082550049,6.230908393859863
1701911092073667800,4.953667724609375,-0.22935499250888824,-7.604363441467285,6.19331693649292
1701911092090656500,4.970656494140625,-0.12221529334783554,-7.608706474304199,6.191023826599121
1701911092107654400,4.987654296875,0.028394665569067,-7.554287433624268,6.258439540863037
1701911092124642600,5.004642578125,0.17867308855056763,-7.4218292236328125,6.412539005279541
1701911092141637400,5.021637451171875,0.28235796093940735,-7.218227386474609,6.637287139892578
1701911092158628600,5.038628662109375,0.3226768672466278,-6.964118480682373,6.901670455932617
1701911092175612200,5.055612060546875,0.297057569026947,-6.674917221069336,7.1828508377075195
1701911092192607200,5.072607177734375,0.21785031259059906,-6.358145713806152,7.467439651489258
1701911092209607700,5.089607666015625,0.11185665428638458,-6.017549991607666,7.746786117553711
1701911092226598100,5.10659814453125,0.0028861856553703547,-5.656819820404053,8.014766693115234
1701911092243591400,5.12359130859375,-0.11234138906002045,-5.2739057540893555,8.270997047424316
1701911092260572200,5.140572265625,-0.24268284440040588,-4.869717597961426,8.512524604797363
1701911092277576200,5.157576171875,-0.38164135813713074,-4.447427272796631,8.735608100891113
1701911092294567200,5.174567138671875,-0.5135767459869385,-4.011470317840576,8.937585830688477
1701911092311560400,5.191560546875,-0.6269741654396057,-3.559574604034424,9.119893074035645
1701911092328548600,5.208548583984375,-0.7197542786598206,-3.1000471115112305,9.27942943572998
1701911092345545500,5.22554541015625,-0.7940255999565125,-2.645537853240967,9.413117408752441
1701911092362534100,5.2425341796875,-0.8634384870529175,-2.207890510559082,9.519232749938965
1701911092379530200,5.2595302734375,-0.9404246807098389,-1.7976943254470825,9.597916603088379
1701911092396521500,5.276521484375,-1.0319640636444092,-1.421566367149353,9.651439666748047
1701911092413514500,5.293514404296875,-1.1327863931655884,-1.0886116027832031,9.683381080627441
1701911092430506200,5.31050634765625,-1.2406312227249146,-0.8112027049064636,9.697366714477539
1701911092447499500,5.32749951171875,-1.3638139963150024,-0.6083586812019348,9.695671081542969
1701911092464501000,5.3445009765625,-1.503871202468872,-0.4853876233100891,9.681884765625
1701911092481473800,5.361473876953125,-1.6775673627853394,-0.4148339629173279,9.65659236907959
1701911092498472700,5.37847265625,-1.895865559577942,-0.3735444247722626,9.617812156677246
1701911092515470300,5.39547021484375,-2.1285479068756104,-0.3809908330440521,9.568714141845703
1701911092532461000,5.4124609375,-2.3505005836486816,-0.4570979177951813,9.513270378112793
1701911092549453600,5.42945361328125,-2.5515787601470947,-0.5829712152481079,9.454402923583984
1701911092566444500,5.446444580078125,-2.718478202819824,-0.7318334579467773,9.397363662719727
1701911092583438000,5.46343798828125,-2.8270013332366943,-0.9017102718353271,9.350462913513184
1701911092600429000,5.480428955078125,-2.843221664428711,-1.103785514831543,9.323833465576172
1701911092617429500,5.497429443359375,-2.7335166931152344,-1.3507519960403442,9.32413387298584
1701911092634405600,5.514405517578125,-2.5207359790802,-1.6215565204620361,9.340909004211426
1701911092651407600,5.53140771484375,-2.2616655826568604,-1.8837217092514038,9.35802173614502
1701911092668398000,5.548398193359375,-2.0057997703552246,-2.114628553390503,9.367029190063477
1701911092685392400,5.565392333984375,-1.791975736618042,-2.3202295303344727,9.361702919006348
1701911092702382600,5.582382568359375,-1.6218388080596924,-2.5316781997680664,9.337900161743164
1701911092719377700,5.599377685546875,-1.4786591529846191,-2.779075860977173,9.2912015914917
1701911092736368000,5.6163681640625,-1.34279203414917,-3.0779004096984863,9.217350959777832
1701911092753361400,5.633361328125,-1.2036950588226318,-3.4168949127197266,9.116580963134766
1701911092770352600,5.6503525390625,-1.0596563816070557,-3.767374277114868,8.995561599731445
1701911092787346200,5.66734619140625,-0.9180362820625305,-4.1136884689331055,8.858380317687988
1701911092804337400,5.68433740234375,-0.7910359501838684,-4.458028316497803,8.702664375305176
1701911092821324800,5.70132470703125,-0.682197630405426,-4.807643413543701,8.523924827575684
1701911092838317600,5.718317626953125,-0.5875183343887329,-5.165028095245361,8.319458961486816
1701911092855299600,5.735299560546875,-0.5050743222236633,-5.522994041442871,8.09182071685791
1701911092872306700,5.752306640625,-0.4336061477661133,-5.870815277099609,7.847396373748779
1701911092889300000,5.769300048828125,-0.36105477809906006,-6.191022872924805,7.6011176109313965
1701911092906281000,5.786281005859375,-0.28367096185684204,-6.468654632568359,7.3696794509887695
1701911092923284700,5.80328466796875,-0.20695753395557404,-6.706183433532715,7.15684175491333
1701911092940276000,5.82027587890625,-0.14168593287467957,-6.916764736175537,6.95517110824585
1701911092957278500,5.837278564453125,-0.10167957842350006,-7.11078405380249,6.757407188415527
1701911092974260500,5.854260498046875,-0.088936448097229,-7.286096572875977,6.568182945251465
1701911092991254300,5.871254150390625,-0.08307607471942902,-7.429012298583984,6.406167507171631
1701911093008245200,5.888245361328125,-0.06817707419395447,-7.529592037200928,6.287823677062988
1701911093025238000,5.905238037109375,-0.04388481751084328,-7.591108798980713,6.213636875152588
1701911093042230800,5.922230712890625,-0.009207903407514095,-7.628145217895508,6.1682586669921875
1701911093059220700,5.939220703125,0.03800719603896141,-7.659900188446045,6.128671169281006
1701911093076217000,5.956217041015625,0.09095899760723114,-7.693394660949707,6.086012840270996
1701911093093207300,5.973207275390625,0.15410776436328888,-7.709960460662842,6.063735008239746
1701911093110199800,5.99019970703125,0.24153299629688263,-7.670103073120117,6.1112446784973145
1701911093127192800,6.00719287109375,0.35095837712287903,-7.547891616821289,6.2563796043396
1701911093144184000,6.02418408203125,0.4430686831474304,-7.341039657592773,6.492221832275391
1701911093161177000,6.041177001953125,0.4778096377849579,-7.066774845123291,6.787379741668701
1701911093178168800,6.0581689453125,0.4431815445423126,-6.75220251083374,7.1026387214660645
1701911093195161900,6.075161865234375,0.35461318492889404,-6.418696880340576,7.4101738929748535
1701911093212152300,6.09215234375,0.23273789882659912,-6.079952716827393,7.6952009201049805
1701911093229147400,6.1091474609375,0.09977806359529495,-5.742340087890625,7.9530930519104
1701911093246134800,6.126134765625,-0.03140539675951004,-5.406973838806152,8.185338973999023
1701911093263131400,6.14313134765625,-0.15715737640857697,-5.07551383972168,8.393485069274902
1701911093280123000,6.160122802734375,-0.27471330761909485,-4.745664119720459,8.581335067749023
1701911093297113600,6.177113525390625,-0.3794673681259155,-4.416806697845459,8.751225471496582
1701911093314109700,6.194109619140625,-0.4722398817539215,-4.094935417175293,8.90194320678711
1701911093331100400,6.211100341796875,-0.5703602433204651,-3.7919411659240723,9.02950668334961
1701911093348082200,6.228082275390625,-0.6861795783042908,-3.514251232147217,9.133198738098145
1701911093365085200,6.245085205078125,-0.816605806350708,-3.2606215476989746,9.216160774230957
1701911093382074000,6.26207421875,-0.9582967162132263,-3.0206596851348877,9.284041404724121
1701911093399072500,6.279072509765625,-1.1017307043075562,-2.789102792739868,9.340405464172363
1701911093416060700,6.296060791015625,-1.2450511455535889,-2.561836004257202,9.387382507324219
1701911093433055700,6.3130556640625,-1.3872864246368408,-2.336570978164673,9.426133155822754
1701911093450046200,6.330046142578125,-1.5121642351150513,-2.1259303092956543,9.45673942565918
1701911093467039200,6.347039306640625,-1.6027283668518066,-1.9503353834152222,9.47964096069336
1701911093484030700,6.36403076171875,-1.660921573638916,-1.8169329166412354,9.496114730834961
1701911093501021400,6.381021484375,-1.7063193321228027,-1.7231109142303467,9.505550384521484
1701911093518018000,6.39801806640625,-1.7593681812286377,-1.665040373802185,9.50622844696045
1701911093535006200,6.415006103515625,-1.8158318996429443,-1.64325749874115,9.499398231506348
1701911093551992600,6.43199267578125,-1.8461613655090332,-1.6661516427993774,9.489561080932617
1701911093568983000,6.448983154296875,-1.839102029800415,-1.7132474184036255,9.482542037963867
1701911093585974800,6.465974853515625,-1.7946468591690063,-1.7649714946746826,9.481574058532715
1701911093602979000,6.48297900390625,-1.7265700101852417,-1.8232100009918213,9.483195304870605
1701911093619967500,6.499967529296875,-1.6337635517120361,-1.9154014587402344,9.481466293334961
1701911093636954400,6.516954345703125,-1.4996875524520874,-2.0774433612823486,9.469491958618164
1701911093653944300,6.5339443359375,-1.33370840549469,-2.3054585456848145,9.441515922546387
1701911093670945300,6.5509453125,-1.1727416515350342,-2.5563039779663086,9.39819622039795
1701911093687943200,6.567943115234375,-1.0536484718322754,-2.7848503589630127,9.347220420837402
1701911093704921300,6.58492138671875,-0.9871953725814819,-2.971628189086914,9.29682731628418
1701911093721922800,6.6019228515625,-0.9507654905319214,-3.1196999549865723,9.252006530761719
1701911093738911700,6.618911865234375,-0.9121978282928467,-3.2535641193389893,9.209688186645508
1701911093755910000,6.635909912109375,-0.8509956002235413,-3.4043099880218506,9.160928726196289
1701911093772891000,6.652890869140625,-0.774569571018219,-3.5928242206573486,9.095480918884277
1701911093789892600,6.669892578125,-0.7074435353279114,-3.8187973499298096,9.008464813232422
1701911093806886000,6.686885986328125,-0.6623217463493347,-4.06623649597168,8.902985572814941
1701911093823877400,6.70387744140625,-0.6319951415061951,-4.326413631439209,8.781733512878418
1701911093840870700,6.72087060546875,-0.61818927526474,-4.591228485107422,8.647231101989746
1701911093857858600,6.737858642578125,-0.6251808404922485,-4.861741542816162,8.497572898864746
1701911093874855200,6.754855224609375,-0.6486398577690125,-5.1383280754089355,8.331445693969727
1701911093891846700,6.7718466796875,-0.6658119559288025,-5.412173748016357,8.154824256896973
1701911093908840000,6.78883984375,-0.6402090191841125,-5.675868988037109,7.9756364822387695
1701911093925830400,6.805830322265625,-0.5797584652900696,-5.9226298332214355,7.798874855041504
1701911093942815000,6.82281494140625,-0.5548624992370605,-6.145512580871582,7.626328945159912
1701911093959816000,6.83981591796875,-0.6280825138092041,-6.34887170791626,7.452077865600586
1701911093976806700,6.856806640625,-0.7633774280548096,-6.548986911773682,7.263892650604248
1701911093993796400,6.87379638671875,-0.8787128925323486,-6.756439685821533,7.0579376220703125
1701911094010791400,6.89079150390625,-0.9126942753791809,-6.948894023895264,6.864106178283691
1701911094027788000,6.9077880859375,-0.8709442615509033,-7.0912275314331055,6.722505569458008
1701911094044778800,6.92477880859375,-0.810006320476532,-7.1779680252075195,6.6375274658203125
1701911094061770000,6.94177001953125,-0.7708098292350769,-7.233737468719482,6.581413269042969
1701911094078763500,6.958763427734375,-0.7419967651367188,-7.287660598754883,6.524995803833008
1701911094095754800,6.975754638671875,-0.7022339701652527,-7.352309226989746,6.456511497497559
1701911094112747000,6.9927470703125,-0.6276670694351196,-7.419101715087891,6.387417316436768
1701911094129740000,7.009739990234375,-0.4908626675605774,-7.466850280761719,6.343605995178223
1701911094146732300,7.026732177734375,-0.2888132929801941,-7.469372272491455,6.353044509887695
1701911094163723800,7.043723876953125,-0.06063796952366829,-7.408279895782471,6.430380821228027
1701911094180705800,7.060705810546875,0.13628719747066498,-7.2824578285217285,6.571403980255127
1701911094197699800,7.077699951171875,0.26907220482826233,-7.108709812164307,6.754995822906494
1701911094214693400,7.094693359375,0.33546677231788635,-6.9083123207092285,6.956924915313721
1701911094231686700,7.111686767578125,0.3560808300971985,-6.693947792053223,7.162430763244629
1701911094248676000,7.128676025390625,0.3495725989341736,-6.470996856689453,7.364789009094238
1701911094265669400,7.14566943359375,0.33353397250175476,-6.240728378295898,7.561624050140381
1701911094282662000,7.162661865234375,0.3178306818008423,-6.003064155578613,7.7523112297058105
1701911094299656200,7.17965625,0.29845476150512695,-5.753509044647217,7.940036773681641
1701911094316646000,7.19664599609375,0.2591778337955475,-5.488656520843506,8.12672233581543
1701911094333640200,7.21364013671875,0.19157759845256805,-5.213766574859619,8.307591438293457
1701911094350632700,7.2306328125,0.0901576355099678,-4.933119297027588,8.478935241699219
1701911094367625000,7.247625,-0.045291364192962646,-4.648484230041504,8.638614654541016
1701911094384615200,7.264615234375,-0.20075714588165283,-4.364384174346924,8.783390998840332
1701911094401605600,7.281605712890625,-0.35889625549316406,-4.088703155517578,8.910096168518066
1701911094418611500,7.298611572265625,-0.5091486573219299,-3.8232643604278564,9.019953727722168
1701911094435601200,7.31560107421875,-0.6494286060333252,-3.566148042678833,9.115753173828125
1701911094452595500,7.332595458984375,-0.7862535119056702,-3.3148274421691895,9.199447631835938
1701911094469589200,7.34958935546875,-0.9238466620445251,-3.0697977542877197,9.271406173706055
1701911094486575600,7.36657568359375,-1.0565977096557617,-2.8350255489349365,9.331792831420898
1701911094503570400,7.3835703125,-1.1690280437469482,-2.6167495250701904,9.382009506225586
1701911094520564000,7.40056396484375,-1.2518357038497925,-2.4220762252807617,9.423510551452637
1701911094537555200,7.41755517578125,-1.305434226989746,-2.2576687335968018,9.457003593444824
1701911094554548500,7.434548583984375,-1.3575738668441772,-2.114739418029785,9.482666015625
1701911094571540000,7.4515400390625,-1.414563775062561,-1.9879484176635742,9.501747131347656
1701911094588533000,7.468532958984375,-1.4700491428375244,-1.8768397569656372,9.515911102294922
1701911094605524500,7.4855244140625,-1.5220706462860107,-1.7784068584442139,9.526630401611328
1701911094622517000,7.50251708984375,-1.5485965013504028,-1.7066926956176758,9.535470008850098
1701911094639509800,7.519509765625,-1.5247340202331543,-1.685704231262207,9.543046951293945
1701911094656490000,7.536489990234375,-1.4333584308624268,-1.7304548025131226,9.549195289611816
1701911094673493800,7.55349365234375,-1.2795521020889282,-1.8219105005264282,9.554031372070312
1701911094690487300,7.5704873046875,-1.093734622001648,-1.9231435060501099,9.557270050048828
1701911094707477500,7.5874775390625,-0.917534589767456,-2.014237403869629,9.55704402923584
1701911094724472800,7.604472900390625,-0.784791111946106,-2.102116584777832,9.549939155578613
1701911094741452500,7.62145263671875,-0.7060723900794983,-2.199857711791992,9.534053802490234
1701911094758450400,7.638450439453125,-0.6667574644088745,-2.3223633766174316,9.507796287536621
1701911094775450000,7.6554501953125,-0.6418839693069458,-2.48757266998291,9.467633247375488
1701911094792440800,7.67244091796875,-0.626927375793457,-2.7006373405456543,9.410080909729004
1701911094809432000,7.68943212890625,-0.6348720192909241,-2.942089319229126,9.336872100830078
1701911094826425600,7.706425537109375,-0.6487158536911011,-3.2028818130493164,9.249692916870117
1701911094843417000,7.7234169921875,-0.6404198408126831,-3.480742931365967,9.149340629577637
1701911094860410600,7.74041064453125,-0.5980035662651062,-3.775756597518921,9.034499168395996
1701911094877401600,7.757401611328125,-0.536306619644165,-4.083796501159668,8.90343189239502
1701911094894395000,7.774394775390625,-0.4900692105293274,-4.389691352844238,8.759371757507324
1701911094911386400,7.791386474609375,-0.4782811999320984,-4.687479019165039,8.604354858398438
1701911094928380000,7.8083798828125,-0.4984055757522583,-4.984134674072266,8.434816360473633
1701911094945370400,7.825370361328125,-0.5229445695877075,-5.2852301597595215,8.247968673706055
1701911094962365200,7.842365234375,-0.5199636816978455,-5.587339878082275,8.046577453613281
1701911094979355600,7.859355712890625,-0.47830402851104736,-5.884583473205566,7.834474563598633
1701911094996349000,7.876348876953125,-0.40555235743522644,-6.159431457519531,7.624504089355469
1701911095013339600,7.893339599609375,-0.3157338798046112,-6.398029327392578,7.429782867431641
1701911095030334500,7.91033447265625,-0.23280280828475952,-6.596635341644287,7.257157325744629
1701911095047325000,7.927324951171875,-0.17796644568443298,-6.764102458953857,7.102911472320557
1701911095064318200,7.944318115234375,-0.1574491560459137,-6.9093217849731445,6.962227821350098
1701911095081305900,7.961305908203125,-0.1532958745956421,-7.035587310791016,6.834700584411621
1701911095098299000,7.978298828125,-0.1392502784729004,-7.139822483062744,6.726043701171875
1701911095115298600,7.995298583984375,-0.10186785459518433,-7.217668056488037,6.643117427825928
1701911095132286700,8.01228662109375,-0.050442762672901154,-7.268993377685547,6.587512493133545
1701911095149275600,8.029275634765625,-0.005595785565674305,-7.304808139801025,6.547968864440918
1701911095166261800,8.04626171875,0.023509901016950607,-7.343785762786865,6.504181385040283
1701911095183263500,8.063263427734375,0.04695548117160797,-7.388354301452637,6.4533820152282715
1701911095200257000,8.080257080078125,0.07818371057510376,-7.418953895568848,6.417877197265625
1701911095217245700,8.09724560546875,0.12073156237602234,-7.4108452796936035,6.426578521728516
1701911095234233300,8.1142333984375,0.16095104813575745,-7.348278522491455,6.4971537590026855
1701911095251232800,8.131232666015626,0.17576964199543,-7.228764533996582,6.629495143890381
1701911095268227000,8.14822705078125,0.16107209026813507,-7.066260814666748,6.802803993225098
1701911095285217300,8.16521728515625,0.1299537867307663,-6.8847856521606445,6.987058162689209
1701911095302210800,8.1822109375,0.10319634526968002,-6.699484825134277,7.165359020233154
1701911095319202300,8.199202392578124,0.08320178836584091,-6.505511283874512,7.342175483703613
1701911095336191700,8.216191650390625,0.06053388863801956,-6.287563323974609,7.529874324798584
1701911095353185300,8.233185302734375,0.020860526710748672,-6.033286094665527,7.735318183898926
1701911095370182700,8.2501826171875,-0.04126204922795296,-5.742130756378174,7.953762054443359
1701911095387171600,8.267171630859375,-0.11548660695552826,-5.431419372558594,8.168383598327637
1701911095404164900,8.284164794921875,-0.18227994441986084,-5.121130466461182,8.36522102355957
1701911095421154600,8.301154541015626,-0.23319339752197266,-4.81908655166626,8.541553497314453
1701911095438148900,8.31814892578125,-0.2695396840572357,-4.522546768188477,8.701150894165039
1701911095455139600,8.3351396484375,-0.299202024936676,-4.220171928405762,8.850804328918457
1701911095472136400,8.352136474609376,-0.3394554555416107,-3.9053232669830322,8.992738723754883
1701911095489109000,8.36910888671875,-0.3971744775772095,-3.5815677642822266,9.124183654785156
1701911095506116600,8.38611669921875,-0.46107402443885803,-3.2647294998168945,9.239323616027832
1701911095523112000,8.40311181640625,-0.5131832361221313,-2.967550754547119,9.336296081542969
1701911095540091100,8.420091064453125,-0.5443646907806396,-2.6846401691436768,9.419793128967285
1701911095557091300,8.43709130859375,-0.5618759393692017,-2.41270112991333,9.492066383361816
1701911095574091300,8.45409130859375,-0.5870914459228516,-2.1501574516296387,9.553443908691406
1701911095591079700,8.47107958984375,-0.6182489395141602,-1.903991460800171,9.603577613830566
1701911095608072700,8.48807275390625,-0.6465640664100647,-1.6861313581466675,9.642356872558594
1701911095625064200,8.505064208984376,-0.651443600654602,-1.5158756971359253,9.670257568359375
1701911095642059300,8.522059326171876,-0.6196616291999817,-1.3999648094177246,9.689801216125488
1701911095659040000,8.5390400390625,-0.553691565990448,-1.335435390472412,9.70289421081543
1701911095676031500,8.556031494140624,-0.47912144660949707,-1.3175277709960938,9.709307670593262
1701911095693033500,8.573033447265624,-0.41789349913597107,-1.3373368978500366,9.709429740905762
1701911095710024400,8.5900244140625,-0.37555965781211853,-1.388533115386963,9.703970909118652
1701911095727020800,8.607020751953126,-0.33762234449386597,-1.4816616773605347,9.691584587097168
1701911095744011300,8.62401123046875,-0.28925007581710815,-1.628650426864624,9.669536590576172
1701911095761002800,8.641002685546875,-0.19763824343681335,-1.8218562602996826,9.637317657470703
1701911095777993000,8.657992919921876,-0.052982207387685776,-2.0451271533966064,9.594307899475098
1701911095794987500,8.674987548828126,0.09003426134586334,-2.313790798187256,9.532805442810059
1701911095811980500,8.69198046875,0.18452118337154388,-2.6239635944366455,9.450761795043945
1701911095828972300,8.70897216796875,0.21923726797103882,-2.949894666671753,9.353404998779297
1701911095845964800,8.72596484375,0.21685335040092468,-3.2653748989105225,9.248048782348633
1701911095862956300,8.742956298828124,0.19583086669445038,-3.556189775466919,9.140640258789062
1701911095879950000,8.7599501953125,0.15487638115882874,-3.8259871006011963,9.031830787658691
1701911095896942300,8.7769423828125,0.0869726613163948,-4.083388805389404,8.919332504272461
1701911095913934600,8.7939345703125,-0.015132594853639603,-4.340290546417236,8.797600746154785
1701911095930925800,8.81092578125,-0.14860524237155914,-4.609355449676514,8.658400535583496
1701911095947919400,8.82791943359375,-0.2988845407962799,-4.890498638153076,8.498811721801758
1701911095964910800,8.844910888671874,-0.4411572515964508,-5.173471450805664,8.323263168334961
1701911095981903000,8.861903076171876,-0.5523771047592163,-5.43267297744751,8.149664878845215
1701911095998896000,8.878896240234376,-0.6164427399635315,-5.656801223754883,7.991039276123047
1701911096015889000,8.895888916015625,-0.6258298754692078,-5.849180698394775,7.850576877593994
1701911096032879400,8.91287939453125,-0.5844286680221558,-6.0157694816589355,7.7269062995910645
1701911096049874000,8.9298740234375,-0.515782356262207,-6.169650077819824,7.609566688537598
1701911096066860500,8.946860595703125,-0.4478815495967865,-6.313933849334717,7.4946489334106445
1701911096083858000,8.96385791015625,-0.3906279504299164,-6.439258098602295,7.390498638153076
1701911096100849400,8.980849365234375,-0.34326139092445374,-6.5428619384765625,7.301319122314453
1701911096117842400,8.997842529296875,-0.29335540533065796,-6.623996257781982,7.229990482330322
1701911096134847500,9.014847412109376,-0.23937976360321045,-6.6838250160217285,7.176719665527344
1701911096151827500,9.031827392578125,-0.18241091072559357,-6.72190523147583,7.142747402191162
1701911096168815400,9.0488154296875,-0.12746170163154602,-6.73530387878418,7.1313090324401855
1701911096185811700,9.065811767578126,-0.07570565491914749,-6.725403308868408,7.141382694244385
1701911096202793200,9.082793212890625,-0.025152383372187614,-6.6988372802734375,7.166664123535156
1701911096219796700,9.099796630859375,0.028463661670684814,-6.662191390991211,7.200730800628662
1701911096236788000,9.1167880859375,0.08611779659986496,-6.617478847503662,7.241386890411377
1701911096253781500,9.133781494140624,0.1455986052751541,-6.560274600982666,7.292306423187256
1701911096270772500,9.1507724609375,0.20410701632499695,-6.48837947845459,7.354955673217773
1701911096287766000,9.16776611328125,0.260376513004303,-6.4045610427856445,7.426299095153809
1701911096304746500,9.18474658203125,0.316264808177948,-6.310335159301758,7.5043840408325195
1701911096321750500,9.20175048828125,0.3707181513309479,-6.205806732177734,7.588588237762451
1701911096338732500,9.218732666015624,0.42325130105018616,-6.094014644622803,7.675933361053467
1701911096355734300,9.235734375,0.4781104624271393,-5.979978561401367,7.761918544769287
1701911096372729600,9.2527294921875,0.534455418586731,-5.866730213165283,7.844229698181152
1701911096389717800,9.2697177734375,0.5850625038146973,-5.765614032745361,7.915270805358887
1701911096406700800,9.28670068359375,0.6226226687431335,-5.689374923706055,7.96740198135376
1701911096423704600,9.30370458984375,0.6476662755012512,-5.61665678024292,8.016844749450684
1701911096440695600,9.320695556640626,0.6563774943351746,-5.510465145111084,8.089502334594727
1701911096457689300,9.337689453125,0.6399163603782654,-5.364768028259277,8.188155174255371
1701911096474680300,9.354680419921875,0.6067667603492737,-5.205475807189941,8.292827606201172
1701911096491674000,9.371674072265625,0.5722243189811707,-5.053151607513428,8.388941764831543
1701911096508668000,9.38866796875,0.5453674793243408,-4.91442346572876,8.472728729248047
1701911096525655600,9.405655517578126,0.5258612036705017,-4.7921977043151855,8.54367733001709
1701911096542639000,9.42263916015625,0.5037896633148193,-4.681031703948975,8.60640811920166
1701911096559643000,9.439642822265625,0.45804575085639954,-4.575515270233154,8.665505409240723
1701911096576635600,9.4566357421875,0.37812718749046326,-4.467808723449707,8.72535514831543
1701911096593627600,9.473627685546875,0.272946298122406,-4.3545355796813965,8.786333084106445
1701911096610616800,9.490616943359376,0.15678080916404724,-4.234994888305664,8.847393035888672
1701911096627614500,9.507614501953125,0.04383073002099991,-4.106717109680176,8.908931732177734
1701911096644603600,9.524603759765625,-0.06142500415444374,-3.967162847518921,8.971842765808105
1701911096661586400,9.54158642578125,-0.15542426705360413,-3.815450668334961,9.036276817321777
1701911096678582800,9.558582763671875,-0.24298164248466492,-3.6433987617492676,9.10509204864502
1701911096695584000,9.575583984375,-0.32679036259651184,-3.4422607421875,9.180423736572266
1701911096712573000,9.592572998046874,-0.4193143844604492,-3.2181966304779053,9.25761890411377
1701911096729564000,9.60956396484375,-0.5301723480224609,-2.980930805206299,9.33108139038086
1701911096746557700,9.6265576171875,-0.6482229232788086,-2.7376370429992676,9.397939682006836
1701911096763539500,9.64353955078125,-0.755005955696106,-2.493734121322632,9.457662582397461
1701911096780543000,9.66054296875,-0.8384410738945007,-2.253217935562134,9.510843276977539
1701911096797535700,9.67753564453125,-0.9051530957221985,-2.0252223014831543,9.55590534210205
1701911096814527000,9.69452685546875,-0.9685614705085754,-1.8127436637878418,9.592287063598633
1701911096831520000,9.71152001953125,-1.0371171236038208,-1.6208710670471191,9.61942195892334
1701911096848511700,9.72851171875,-1.1092185974121094,-1.4659104347229004,9.636225700378418
1701911096865504300,9.745504150390625,-1.1716207265853882,-1.3651962280273438,9.643632888793945
1701911096882497000,9.7624970703125,-1.204654574394226,-1.3185983896255493,9.646047592163086
1701911096899489300,9.7794892578125,-1.2072893381118774,-1.302686333656311,9.647878646850586
1701911096916480500,9.79648046875,-1.199908971786499,-1.2951334714889526,9.649815559387207
1701911096933473500,9.8134736328125,-1.1943576335906982,-1.2874459028244019,9.651535034179688
1701911096950455600,9.83045556640625,-1.1855727434158325,-1.2841815948486328,9.653051376342773
1701911096967459000,9.847458984375,-1.1586164236068726,-1.2968955039978027,9.654626846313477
1701911096984450000,9.864449951171874,-1.0984392166137695,-1.3461171388626099,9.654921531677246
1701911097001433000,9.88143310546875,-1.0064098834991455,-1.4405198097229004,9.651329040527344
1701911097018420200,9.898420166015624,-0.9139631390571594,-1.5598503351211548,9.641974449157715
1701911097035432200,9.91543212890625,-0.8366453647613525,-1.6785582304000854,9.629048347473145
1701911097052406800,9.93240673828125,-0.7790152430534363,-1.7899839878082275,9.613802909851074
1701911097069404400,9.949404296875,-0.722366213798523,-1.9104187488555908,9.595029830932617
1701911097086406100,9.96640625,-0.6459980607032776,-2.0520191192626953,9.571207046508789
1701911097103397400,9.9833974609375,-0.5619706511497498,-2.2124850749969482,9.540712356567383
1701911097120386300,10.00038623046875,-0.5067606568336487,-2.373495101928711,9.505043029785156
1701911097137378300,10.01737841796875,-0.5033096075057983,-2.535015106201172,9.463428497314453
1701911097154372900,10.034372802734374,-0.529511570930481,-2.7057950496673584,9.414584159851074
1701911097171361000,10.051361083984375,-0.5310686826705933,-2.8748016357421875,9.364272117614746
1701911097188355600,10.06835546875,-0.4895142912864685,-3.031458854675293,9.31701374053955
1701911097205339600,10.085339599609375,-0.42240989208221436,-3.1818323135375977,9.270040512084961
1701911097222342700,10.1023427734375,-0.35599544644355774,-3.3380672931671143,9.217737197875977
1701911097239325400,10.119325439453124,-0.30689170956611633,-3.512453317642212,9.154486656188965
1701911097256323000,10.136322998046875,-0.2793700397014618,-3.7170205116271973,9.074240684509277
1701911097273321200,10.1533212890625,-0.25634661316871643,-3.9480466842651367,8.976821899414062
1701911097290312200,10.170312255859375,-0.2299739271402359,-4.1863226890563965,8.868931770324707
1701911097307305500,10.187305419921875,-0.19488069415092468,-4.408980369567871,8.761222839355469
1701911097324296700,10.204296630859375,-0.1543530523777008,-4.599944114685059,8.663301467895508
1701911097341289200,10.221289306640625,-0.10835768282413483,-4.763191223144531,8.575336456298828
1701911097358281200,10.23828125,-0.0596199668943882,-4.90609884262085,8.494865417480469
1701911097375274800,10.255274658203126,-0.0012682611122727394,-5.040486812591553,8.416031837463379
1701911097392265500,10.272265380859375,0.07328256964683533,-5.1697540283203125,8.336930274963379
1701911097409259000,10.289259033203125,0.16186262667179108,-5.282473564147949,8.264707565307617
1701911097426250800,10.306250732421875,0.24882535636425018,-5.375061988830566,8.202616691589355
1701911097443241500,10.323241455078126,0.3201923668384552,-5.4474992752075195,8.152198791503906
1701911097460238000,10.340238037109375,0.37160518765449524,-5.5068464279174805,8.11003589630127
1701911097477225700,10.357225830078125,0.40100616216659546,-5.5532660484313965,8.076913833618164
1701911097494222300,10.374222412109376,0.40799418091773987,-5.58728551864624,8.053068161010742
1701911097511213600,10.391213623046875,0.39736801385879517,-5.615912914276123,8.033661842346191
1701911097528203500,10.40820361328125,0.38040584325790405,-5.622979640960693,8.029539108276367
1701911097545198800,10.42519873046875,0.3569263517856598,-5.584136962890625,8.0576753616333
1701911097562189300,10.442189208984376,0.3002919554710388,-5.49114990234375,8.123620986938477
1701911097579179300,10.45917919921875,0.1962074190378189,-5.366238117218018,8.209817886352539
1701911097596171500,10.476171630859374,0.07326386123895645,-5.2400736808776855,8.2929105758667
1701911097613167000,10.4931669921875,-0.01822577230632305,-5.123612403869629,8.365666389465332
1701911097630148000,10.510148193359376,-0.051106419414281845,-5.003293037414551,8.438042640686035
1701911097647148300,10.527148193359375,-0.03411967307329178,-4.851837158203125,8.526115417480469
1701911097664132000,10.544132080078125,0.013880121521651745,-4.6582841873168945,8.633441925048828
1701911097681126400,10.56112646484375,0.07021629065275192,-4.4501261711120605,8.74228572845459
1701911097698124000,10.5781240234375,0.13301831483840942,-4.265030384063721,8.833343505859375
1701911097715111000,10.59511083984375,0.19826067984104156,-4.1177449226379395,8.901741027832031
1701911097732109600,10.612109619140625,0.2546079456806183,-4.001918315887451,8.952984809875488
1701911097749102800,10.629102783203125,0.29061159491539,-3.894399881362915,8.999183654785156
1701911097766086400,10.64608642578125,0.2980656325817108,-3.7454442977905273,9.06195068359375
1701911097783081500,10.66308154296875,0.25871357321739197,-3.532592535018921,9.148221969604492
1701911097800075500,10.680075439453125,0.17783956229686737,-3.277815818786621,9.24448013305664
1701911097817067300,10.6970673828125,0.08469779789447784,-3.012565851211548,9.33559799194336
1701911097834059000,10.71405908203125,-0.003868517931550741,-2.755689859390259,9.415003776550293
1701911097851053800,10.7310537109375,-0.08601868897676468,-2.507807493209839,9.483651161193848
1701911097868043000,10.74804296875,-0.14505071938037872,-2.247795820236206,9.547904968261719
1701911097885036500,10.76503662109375,-0.17585910856723785,-1.9512118101119995,9.612385749816895
1701911097902025700,10.782025634765626,-0.2048250436782837,-1.630288004875183,9.671419143676758
1701911097919022000,10.79902197265625,-0.2637684941291809,-1.3157036304473877,9.717790603637695
1701911097936011300,10.81601123046875,-0.34149569272994995,-1.028388500213623,9.749970436096191
1701911097953004000,10.833004150390625,-0.40943652391433716,-0.7742117047309875,9.770829200744629
1701911097969996000,10.84999609375,-0.46594956517219543,-0.5511468648910522,9.783415794372559
1701911097987000300,10.867000244140625,-0.5314036011695862,-0.3502429723739624,9.789334297180176
1701911098003985400,10.8839853515625,-0.6323331594467163,-0.15608587861061096,9.788354873657227
1701911098020982800,10.900982666015626,-0.7737932205200195,0.030384181067347527,9.779387474060059
1701911098037974300,10.917974365234375,-0.9432122111320496,0.19239503145217896,9.76265811920166
1701911098054967800,10.9349677734375,-1.1124191284179688,0.3139045834541321,9.741669654846191
1701911098071948500,10.951948486328124,-1.2561219930648804,0.3928650915622711,9.721314430236816
1701911098088949000,10.968948974609376,-1.3695847988128662,0.44234392046928406,9.703849792480469
1701911098105943600,10.985943603515626,-1.4606728553771973,0.48447954654693604,9.6885404586792
1701911098122934300,11.002934326171875,-1.542027473449707,0.5162851810455322,9.67428207397461
1701911098139929000,11.01992919921875,-1.6198296546936035,0.5168965458869934,9.661528587341309
1701911098156920300,11.03692041015625,-1.6920706033706665,0.47707873582839966,9.6511869430542
1701911098173912800,11.053912841796874,-1.7576037645339966,0.40015217661857605,9.642967224121094
1701911098190906000,11.070906005859374,-1.811530351638794,0.2973701059818268,9.636701583862305
1701911098207897300,11.0878974609375,-1.8411442041397095,0.17635700106620789,9.634066581726074
1701911098224891000,11.104890869140625,-1.8428890705108643,0.0393315888941288,9.635266304016113
1701911098241881000,11.121881103515625,-1.8141446113586426,-0.11054921895265579,9.640164375305176
1701911098258876000,11.1388759765625,-1.7586346864700317,-0.2703165113925934,9.647293090820312
1701911098275865600,11.155865478515626,-1.6977622509002686,-0.44383350014686584,9.651773452758789
1701911098292861000,11.17286083984375,-1.6387931108474731,-0.646985650062561,9.650486946105957
1701911098309849300,11.189849365234375,-1.562774419784546,-0.8887873291969299,9.643855094909668
1701911098326847000,11.206846923828126,-1.436477780342102,-1.1581224203109741,9.634905815124512
1701911098343836000,11.2238359375,-1.2444610595703125,-1.4405981302261353,9.623518943786621
1701911098360829400,11.240829345703125,-1.0249552726745605,-1.7131232023239136,9.604727745056152
1701911098377820700,11.257820556640626,-0.8406715989112854,-1.9629778861999512,9.574764251708984
1701911098394814000,11.27481396484375,-0.7220025062561035,-2.196972131729126,9.533527374267578
1701911098411798500,11.291798583984376,-0.6519870758056641,-2.4322760105133057,9.481301307678223
1701911098428798700,11.308798828125,-0.6051932573318481,-2.679964065551758,9.417412757873535
1701911098445790000,11.3257900390625,-0.5601779222488403,-2.9347643852233887,9.343955039978027
1701911098462771700,11.342771728515626,-0.5068346261978149,-3.183833599090576,9.265120506286621
1701911098479775200,11.359775146484376,-0.4340856075286865,-3.4319539070129395,9.179835319519043
1701911098496768000,11.37676806640625,-0.338717520236969,-3.6875226497650146,9.084248542785645
1701911098513759000,11.393759033203125,-0.23401464521884918,-3.9530224800109863,8.97524356842041
1701911098530752300,11.410752197265625,-0.13779929280281067,-4.22906494140625,8.850543975830078
1701911098547733000,11.42773291015625,-0.056330908089876175,-4.509938716888428,8.711682319641113
1701911098564726800,11.444726806640626,0.02366982214152813,-4.781813144683838,8.565618515014648
1701911098581728000,11.46172802734375,0.10515691339969635,-5.034885406494141,8.418728828430176
1701911098598711300,11.478711181640625,0.18505357205867767,-5.267477512359619,8.273788452148438
1701911098615713000,11.495713134765625,0.25203314423561096,-5.478334426879883,8.133907318115234
1701911098632706600,11.51270654296875,0.30110880732536316,-5.664331912994385,8.003800392150879
1701911098649697500,11.529697509765626,0.3458411991596222,-5.828458786010742,7.883247375488281
1701911098666691000,11.546691162109376,0.3933159112930298,-5.974512577056885,7.7708821296691895
1701911098683682300,11.563682373046875,0.4398980438709259,-6.09696102142334,7.672657012939453
1701911098700675600,11.580675537109375,0.4809566140174866,-6.189298629760742,7.595879077911377
1701911098717666800,11.597666748046874,0.5133376121520996,-6.236917018890381,7.554698944091797
1701911098734672400,11.61467236328125,0.5280749201774597,-6.225709915161133,7.562921047210693
1701911098751651600,11.631651611328126,0.5229673981666565,-6.161053657531738,7.616039276123047
1701911098768645000,11.64864501953125,0.5111486911773682,-6.065117835998535,7.693450450897217
1701911098785635300,11.66563525390625,0.5015507936477661,-5.963931560516357,7.77277946472168
1701911098802624800,11.682624755859376,0.5039274096488953,-5.8623223304748535,7.849545955657959
1701911098819621000,11.69962109375,0.5184085965156555,-5.734764575958252,7.942282199859619
1701911098836614400,11.716614501953124,0.5346857905387878,-5.555158615112305,8.067865371704102
1701911098853604900,11.73360498046875,0.5268063545227051,-5.3092427253723145,8.232285499572754
1701911098870597600,11.75059765625,0.4771910011768341,-5.002297401428223,8.425285339355469
1701911098887592700,11.7675927734375,0.39594948291778564,-4.653893947601318,8.626737594604492
1701911098904583700,11.784583740234375,0.2972823977470398,-4.285771369934082,8.819293022155762
1701911098921557000,11.801556884765626,0.19807590544223785,-3.9190123081207275,8.991007804870605
1701911098938565600,11.818565673828125,0.11061207205057144,-3.5600171089172363,9.140578269958496
1701911098955562000,11.83556201171875,0.02894371934235096,-3.2172586917877197,9.267391204833984
1701911098972552200,11.85255224609375,-0.06393667310476303,-2.8942923545837402,9.3731050491333
1701911098989545000,11.869544921875,-0.1811315417289734,-2.5908925533294678,9.45994758605957
1701911099006521300,11.886521240234375,-0.3170188069343567,-2.3104562759399414,9.528768539428711
1701911099023528700,11.90352880859375,-0.4611985683441162,-2.0518362522125244,9.581930160522461
1701911099040522000,11.92052197265625,-0.6039602756500244,-1.8139808177947998,9.621892929077148
1701911099057513500,11.937513427734375,-0.742466926574707,-1.5984470844268799,9.650381088256836
1701911099074506800,11.9545068359375,-0.87066650390625,-1.4094706773757935,9.669097900390625
1701911099091498200,11.971498291015624,-0.9894242286682129,-1.2544137239456177,9.67902946472168
1701911099108488400,11.988488525390625,-1.1068212985992432,-1.136778473854065,9.680849075317383
1701911099125482800,12.005482666015626,-1.2279049158096313,-1.057268738746643,9.67525577545166
1701911099142476300,12.022476318359375,-1.3597959280014038,-1.0059623718261719,9.663081169128418
1701911099159467300,12.03946728515625,-1.5021065473556519,-0.9628424644470215,9.646383285522461
1701911099176456700,12.056456787109376,-1.6427390575408936,-0.9182873964309692,9.62778377532959
1701911099193452800,12.073452880859374,-1.77077317237854,-0.8778281807899475,9.608846664428711
1701911099210445300,12.0904453125,-1.8728623390197754,-0.8491030335426331,9.592056274414062
1701911099227436800,12.107436767578125,-1.9565495252609253,-0.8226442337036133,9.577644348144531
1701911099244419300,12.12441943359375,-2.0221118927001953,-0.791106104850769,9.566678047180176
1701911099261412400,12.141412353515625,-2.0477991104125977,-0.7683124542236328,9.563072204589844
1701911099278414600,12.15841455078125,-2.002031087875366,-0.7566097378730774,9.573689460754395
1701911099295404000,12.175404052734375,-1.8861955404281616,-0.7445936799049377,9.598122596740723
1701911099312400000,12.19239990234375,-1.7570061683654785,-0.7331951260566711,9.62348747253418
1701911099329401900,12.20940185546875,-1.6467571258544922,-0.7411922216415405,9.642352104187012
1701911099346384000,12.2263837890625,-1.541218638420105,-0.8066912889480591,9.654534339904785
1701911099363374300,12.243374267578124,-1.4227021932601929,-0.9441879391670227,9.660255432128906
1701911099380369400,12.260369384765625,-1.293276071548462,-1.137665033340454,9.657602310180664
1701911099397349600,12.277349609375,-1.1580235958099365,-1.3629887104034424,9.645587921142578
1701911099414353200,12.294353271484376,-1.0265015363693237,-1.598010778427124,9.624383926391602
1701911099431341800,12.311341796875,-0.896924614906311,-1.8519433736801147,9.591765403747559
1701911099448340500,12.328340576171875,-0.76351398229599,-2.1548337936401367,9.539908409118652
1701911099465318400,12.345318359375,-0.6284716129302979,-2.5119521617889404,9.4620943069458
1701911099482322400,12.362322509765624,-0.5015475749969482,-2.907923936843872,9.355669021606445
1701911099499310600,12.379310546875,-0.3889734745025635,-3.3241353034973145,9.221439361572266
1701911099516307200,12.39630712890625,-0.2705775797367096,-3.7365176677703857,9.066496849060059
1701911099533298200,12.413298095703125,-0.13919764757156372,-4.12892484664917,8.89768123626709
1701911099550291700,12.430291748046875,-0.000981162884272635,-4.4988861083984375,8.717576026916504
1701911099567283000,12.447282958984376,0.12613613903522491,-4.8568549156188965,8.522394180297852
1701911099584275700,12.464275634765626,0.2318105399608612,-5.200762748718262,8.314712524414062
1701911099601262000,12.481261962890626,0.3216366469860077,-5.505168437957764,8.113309860229492
1701911099618258000,12.4982578125,0.40582191944122314,-5.750009536743164,7.937809467315674
1701911099635252500,12.51525244140625,0.4929068386554718,-5.9406538009643555,7.791134357452393
1701911099652241400,12.532241455078125,0.5824417471885681,-6.104787349700928,7.656919956207275
1701911099669241300,12.549241455078125,0.6542017459869385,-6.2511515617370605,7.532013893127441
1701911099686226400,12.566226318359375,0.6981996893882751,-6.3699750900268555,7.427789688110352
1701911099703222300,12.58322216796875,0.7224814295768738,-6.452667236328125,7.353721618652344
1701911099720204500,12.60020458984375,0.7426928877830505,-6.502397537231445,7.307760238647461
1701911099737203500,12.617203369140626,0.754062831401825,-6.530405044555664,7.28157377243042
1701911099754202400,12.634202392578125,0.7539744973182678,-6.540921211242676,7.2721381187438965
1701911099771191000,12.65119091796875,0.7416889071464539,-6.5333757400512695,7.280179500579834
1701911099788182300,12.668182373046875,0.7076143026351929,-6.508786201477051,7.305552005767822
1701911099805177600,12.685177490234375,0.6587759852409363,-6.471908092498779,7.3427886962890625
1701911099822168800,12.7021689453125,0.6101593375205994,-6.426957607269287,7.386341094970703
1701911099839159800,12.719159912109374,0.5766226053237915,-6.382767677307129,7.42724084854126
1701911099856150500,12.736150634765625,0.5789492130279541,-6.340242385864258,7.463392734527588
1701911099873143800,12.753143798828125,0.6266046166419983,-6.277864456176758,7.512117862701416
1701911099890139000,12.770138916015625,0.7108132839202881,-6.156435489654541,7.604549884796143
1701911099907129300,12.78712939453125,0.7938744425773621,-5.955645561218262,7.754752159118652
1701911099924124400,12.80412451171875,0.8383092284202576,-5.693607807159424,7.944570541381836
1701911099941099300,12.821099365234375,0.8219946026802063,-5.396905899047852,8.15069580078125
1701911099958096600,12.8380966796875,0.7495642304420471,-5.090470314025879,8.352327346801758
1701911099975101000,12.855100830078126,0.6512073874473572,-4.789406776428223,8.536605834960938
1701911099992078000,12.872078125,0.5520374178886414,-4.497698783874512,8.700695037841797
1701911100009085200,12.889085205078125,0.46284428238868713,-4.212046146392822,8.847631454467773
1701911100026076700,12.90607666015625,0.38556861877441406,-3.932356834411621,8.97908878326416
1701911100043068000,12.92306787109375,0.3246777653694153,-3.66153621673584,9.095266342163086
1701911100060061200,12.940061279296875,0.28624987602233887,-3.4049432277679443,9.19568157196045
1701911100077049000,12.957049072265624,0.25267544388771057,-3.163674831390381,9.282425880432129
1701911100094049000,12.974049072265625,0.2020791918039322,-2.9324488639831543,9.359275817871094
1701911100111046100,12.991046142578124,0.12324556708335876,-2.69779896736145,9.430950164794922
1701911100128030500,13.008030517578124,0.021803537383675575,-2.447854995727539,9.499666213989258
1701911100145011500,13.025011474609375,-0.08456594496965408,-2.191923141479492,9.561613082885742
1701911100162012200,13.04201220703125,-0.1954064965248108,-1.95354425907135,9.61153507232666
1701911100179001000,13.0590009765625,-0.30353832244873047,-1.7525596618652344,9.64741039276123
1701911100196001500,13.07600146484375,-0.4015248119831085,-1.587147831916809,9.672428131103516
1701911100212991700,13.09299169921875,-0.4830690622329712,-1.4533430337905884,9.689715385437012
1701911100229984300,13.109984375,-0.5309336185455322,-1.344245433807373,9.702950477600098
1701911100246975700,13.126975830078125,-0.5330962538719177,-1.2530101537704468,9.715034484863281
1701911100263965200,13.143965087890624,-0.5101168155670166,-1.1657801866531372,9.727120399475098
1701911100280964600,13.160964599609375,-0.5131401419639587,-1.0666736364364624,9.73832893371582
1701911100297953500,13.17795361328125,-0.566863477230072,-0.9621853828430176,9.746231079101562
1701911100314945000,13.194945068359376,-0.6708279848098755,-0.8688398599624634,9.748396873474121
1701911100331937800,13.211937744140625,-0.7927550077438354,-0.810779333114624,9.744241714477539
1701911100348930000,13.228929931640625,-0.8794456720352173,-0.7970626354217529,9.737933158874512
1701911100365922800,13.2459228515625,-0.9027265310287476,-0.834315836429596,9.732682228088379
1701911100382913500,13.26291357421875,-0.8606547713279724,-0.9425609707832336,9.726612091064453
1701911100399908400,13.279908447265624,-0.7652818560600281,-1.1303861141204834,9.714557647705078
1701911100416896300,13.296896240234375,-0.6459229588508606,-1.390481948852539,9.689452171325684
1701911100433890600,13.313890625,-0.5313825607299805,-1.6919947862625122,9.648362159729004
1701911100450888000,13.330887939453126,-0.42913156747817993,-1.996213436126709,9.595160484313965
1701911100467876900,13.347876953125,-0.3326013386249542,-2.266085624694824,9.538886070251465
1701911100484867800,13.364867919921876,-0.2342543751001358,-2.4950015544891357,9.484525680541992
1701911100501862100,13.381862060546876,-0.1266910433769226,-2.7121174335479736,9.426796913146973
1701911100518849000,13.39884912109375,-0.011714897118508816,-2.947439432144165,9.356740951538086
1701911100535835400,13.41583544921875,0.10327908396720886,-3.2145519256591797,9.267799377441406
1701911100552834800,13.432834716796876,0.20830443501472473,-3.5135791301727295,9.156827926635742
1701911100569820700,13.449820556640624,0.29348024725914,-3.828047752380371,9.027515411376953
1701911100586814700,13.466814697265624,0.35792386531829834,-4.13873815536499,8.887004852294922
1701911100603815400,13.4838154296875,0.4017423093318939,-4.436264514923096,8.740382194519043
1701911100620804000,13.50080419921875,0.44120606780052185,-4.728921413421631,8.583634376525879
1701911100637796900,13.517796875,0.48936226963996887,-5.023866653442383,8.411741256713867
1701911100654787000,13.534787109375,0.5435741543769836,-5.321756839752197,8.223109245300293
1701911100671778300,13.5517783203125,0.5945569276809692,-5.612188816070557,8.024085998535156
1701911100688775700,13.568775634765625,0.6296355128288269,-5.878672122955322,7.828211784362793
1701911100705760800,13.5857607421875,0.6445561647415161,-6.109982967376709,7.647794723510742
1701911100722750700,13.602750732421875,0.641489565372467,-6.305457592010498,7.487712383270264
1701911100739751200,13.619751220703124,0.6327798366546631,-6.476729393005371,7.340822696685791
1701911100756747500,13.63674755859375,0.6230787634849548,-6.63466215133667,7.199247360229492
1701911100773737500,13.653737548828126,0.6153592467308044,-6.780378818511963,7.062854290008545
1701911100790730800,13.670730712890625,0.6058902740478516,-6.895668029785156,6.951170921325684
1701911100807723300,13.68772314453125,0.5829522013664246,-6.972164630889893,6.876423358917236
1701911100824714500,13.704714599609375,0.549549400806427,-7.0104241371154785,6.840181827545166
1701911100841707800,13.721707763671875,0.5184779167175293,-7.022596836090088,6.830111026763916
1701911100858699000,13.738698974609376,0.5101268887519836,-7.024317264556885,6.828972816467285
1701911100875692300,13.7556923828125,0.5238363146781921,-7.023103713989258,6.829182147979736
1701911100892683000,13.77268310546875,0.551118791103363,-7.015425682067871,6.834924221038818
1701911100909677800,13.789677734375,0.5902372598648071,-6.980323791503906,6.867518901824951
1701911100926668300,13.806668212890624,0.6425107717514038,-6.896114826202393,6.947439670562744
1701911100943661600,13.82366162109375,0.7032066583633423,-6.750468730926514,7.083277225494385
1701911100960653000,13.840653076171876,0.7579470872879028,-6.547012805938721,7.266241550445557
1701911100977646300,13.857646240234375,0.7879588007926941,-6.301926612854004,7.4766950607299805
1701911100994637300,13.87463720703125,0.7814421057701111,-6.028830528259277,7.699263572692871
1701911101011630600,13.891630615234375,0.7409893274307251,-5.739776134490967,7.920986652374268
1701911101028619000,13.908618896484375,0.6779963970184326,-5.438044548034668,8.136591911315918
1701911101045615600,13.92561572265625,0.605599045753479,-5.129081726074219,8.340377807617188
1701911101062616000,13.942615966796875,0.532891571521759,-4.818005084991455,8.528714179992676
1701911101079597800,13.959597900390625,0.45092734694480896,-4.50391960144043,8.7033052444458
1701911101096589800,13.97658984375,0.35200268030166626,-4.192632675170898,8.861944198608398
1701911101113583000,13.9935830078125,0.23890408873558044,-3.889496088027954,9.002824783325195
1701911101130578700,14.01057861328125,0.1223146915435791,-3.599039077758789,9.125134468078613
1701911101147569400,14.0275693359375,0.008136839605867863,-3.326679229736328,9.228719711303711
1701911101164551000,14.044551025390625,-0.10349996387958527,-3.0764968395233154,9.314536094665527
1701911101181544200,14.061544189453125,-0.22094173729419708,-2.8433713912963867,9.386296272277832
1701911101198538000,14.0785380859375,-0.3543585240840912,-2.6198062896728516,9.44707202911377
1701911101215530800,14.09553076171875,-0.5108880400657654,-2.4065866470336914,9.49649715423584
1701911101232522200,14.112522216796876,-0.6900676488876343,-2.2097065448760986,9.532950401306152
1701911101249516500,14.1295166015625,-0.8811754584312439,-2.0261242389678955,9.557954788208008
1701911101266506800,14.1465068359375,-1.0478947162628174,-1.8558193445205688,9.575698852539062
1701911101283497200,14.163497314453124,-1.169988751411438,-1.7092440128326416,9.588835716247559
1701911101300488200,14.18048828125,-1.2544841766357422,-1.5935636758804321,9.59807014465332
1701911101317484800,14.19748486328125,-1.3207281827926636,-1.5174146890640259,9.601522445678711
1701911101334477300,14.214477294921876,-1.3840633630752563,-1.4903664588928223,9.596837997436523
1701911101351468800,14.23146875,-1.4611729383468628,-1.5067843198776245,9.58283519744873
1701911101368461300,14.24846142578125,-1.5610946416854858,-1.5512608289718628,9.559952735900879
1701911101385453000,14.265453125,-1.6709495782852173,-1.6125028133392334,9.531205177307129
1701911101402443800,14.28244384765625,-1.7553675174713135,-1.6863901615142822,9.503205299377441
1701911101419438800,14.29943896484375,-1.7629797458648682,-1.7910826206207275,9.482619285583496
1701911101436430600,14.3164306640625,-1.6628804206848145,-1.936505675315857,9.472111701965332
1701911101453433600,14.33343359375,-1.4885993003845215,-2.1084225177764893,9.46439266204834
1701911101470422500,14.350422607421875,-1.2995158433914185,-2.295335531234741,9.448745727539062
1701911101487415300,14.367415283203124,-1.156506896018982,-2.4894015789031982,9.418147087097168
1701911101504396500,14.384396484375,-1.0753697156906128,-2.6770083904266357,9.37621021270752
1701911101521400000,14.401400146484375,-1.0318719148635864,-2.8507821559906006,9.32975959777832
1701911101538392000,14.41839208984375,-0.9982522130012512,-3.0177855491638184,9.28076457977295
1701911101555383600,14.435383544921875,-0.9588097929954529,-3.1968114376068115,9.224812507629395
1701911101572376000,14.4523759765625,-0.905849814414978,-3.397522449493408,9.158188819885254
1701911101589358800,14.46935888671875,-0.8307721614837646,-3.6282782554626465,9.076428413391113
1701911101606356700,14.486356689453125,-0.7384454607963562,-3.895780324935913,8.972944259643555
1701911101623355000,14.50335498046875,-0.6350813508033752,-4.188882827758789,8.847940444946289
1701911101640345300,14.520345458984375,-0.5292408466339111,-4.485830783843994,8.708233833312988
1701911101657339000,14.5373388671875,-0.43428266048431396,-4.778228282928467,8.556636810302734
1701911101674330000,14.554330078125,-0.35335925221443176,-5.073577880859375,8.388687133789062
1701911101691320800,14.57132080078125,-0.28587448596954346,-5.376482963562012,8.20047664642334
1701911101708317400,14.5883173828125,-0.22454185783863068,-5.680592060089111,7.994784355163574
1701911101725308700,14.60530859375,-0.1611551195383072,-5.966172695159912,7.785558223724365
1701911101742299100,14.622299072265625,-0.08423499017953873,-6.216301918029785,7.588583469390869
1701911101759293000,14.63929296875,0.0012536430731415749,-6.432514190673828,7.406678199768066
1701911101776282600,14.65628271484375,0.07457071542739868,-6.629439353942871,7.23056697845459
1701911101793277700,14.673277587890626,0.12337274849414825,-6.810757160186768,7.059354782104492
1701911101810269200,14.690269287109375,0.14484314620494843,-6.971207141876221,6.900538444519043
1701911101827262000,14.707261962890625,0.13732419908046722,-7.09958553314209,6.76854133605957
1701911101844253200,14.724253173828124,0.10290105640888214,-7.1898393630981445,6.673211574554443
1701911101861229300,14.741229248046874,0.051597002893686295,-7.244431495666504,6.614504337310791
1701911101878238000,14.758238037109376,-0.003899508388713002,-7.27113151550293,6.585342884063721
1701911101895231200,14.775231201171875,-0.04474874213337898,-7.277197360992432,6.578489303588867
1701911101912222200,14.79222216796875,-0.05168120190501213,-7.272322177886963,6.583827495574951
1701911101929205200,14.809205322265624,-0.021777955815196037,-7.2659783363342285,6.590996265411377
1701911101946207000,14.82620703125,0.037547897547483444,-7.262781620025635,6.594446182250977
1701911101963200500,14.843200439453126,0.12939362227916718,-7.2606306076049805,6.595653533935547
1701911101980191700,14.860191650390625,0.25687462091445923,-7.24108362197876,6.61338472366333
1701911101997182500,14.877182373046875,0.41387939453125,-7.179816722869873,6.671960830688477
1701911102014179000,14.894178955078125,0.5712034106254578,-7.057163238525391,6.790160179138184
1701911102031169500,14.91116943359375,0.6894171833992004,-6.870150566101074,6.968631267547607
1701911102048150500,14.928150634765625,0.7485722899436951,-6.6411566734313965,7.181280612945557
1701911102065154300,14.945154296875,0.7523905038833618,-6.397870063781738,7.398467063903809
1701911102082145500,14.9621455078125,0.7170262336730957,-6.156604766845703,7.603829383850098
1701911102099139000,14.97913916015625,0.6584561467170715,-5.90786075592041,7.803828716278076
1701911102116126200,14.996126220703125,0.5816342830657959,-5.637575149536133,8.007219314575195
1701911102133124000,15.0131240234375,0.4813007116317749,-5.344133377075195,8.212472915649414
1701911102150127600,15.030127685546875,0.36262619495391846,-5.042464256286621,8.40703010559082
1701911102167094500,15.047094482421874,0.24344883859157562,-4.753008842468262,8.578214645385742
1701911102184096800,15.0640966796875,0.1388789862394333,-4.483653545379639,8.724315643310547
1701911102201095700,15.081095703125,0.04458063468337059,-4.23112678527832,8.850519180297852
1701911102218084000,15.098083984375,-0.04994881898164749,-3.987075090408325,8.963082313537598
1701911102235067000,15.11506689453125,-0.15694044530391693,-3.7474212646484375,9.064675331115723
1701911102252066300,15.13206640625,-0.27593493461608887,-3.5153348445892334,9.154365539550781
1701911102269064700,15.149064697265626,-0.40055227279663086,-3.3043479919433594,9.228055000305176
1701911102286053400,15.166053466796875,-0.5215469598770142,-3.125901699066162,9.284010887145996
1701911102303046000,15.1830458984375,-0.644443154335022,-2.9829049110412598,9.32325553894043
1701911102320038700,15.20003857421875,-0.764693021774292,-2.872293472290039,9.34886646270752
1701911102337028000,15.217028076171875,-0.8827765583992004,-2.7805871963500977,9.366172790527344
1701911102354025700,15.234025634765626,-0.98701411485672,-2.701669216156006,9.378853797912598
1701911102371016000,15.251015869140625,-1.0671464204788208,-2.6461844444274902,9.385895729064941
1701911102388007200,15.268007080078124,-1.1203689575195312,-2.6224892139434814,9.386343955993652
1701911102405000700,15.285000732421874,-1.1485536098480225,-2.6287245750427246,9.381190299987793
1701911102421991700,15.30199169921875,-1.165356159210205,-2.6466550827026367,9.374075889587402
1701911102438982000,15.31898193359375,-1.1865769624710083,-2.645819902420044,9.371648788452148
1701911102455976400,15.3359765625,-1.2068960666656494,-2.6132991313934326,9.37817668914795
1701911102472969700,15.3529697265625,-1.197468638420105,-2.5832836627960205,9.387697219848633
1701911102489961200,15.369961181640624,-1.1139034032821655,-2.5982272624969482,9.393858909606934
1701911102506954500,15.38695458984375,-0.9491380453109741,-2.6716086864471436,9.391366958618164
1701911102523945700,15.40394580078125,-0.7453753352165222,-2.8011345863342285,9.371990203857422
1701911102540939000,15.42093896484375,-0.5510967373847961,-2.982114553451538,9.329490661621094
1701911102557928400,15.437928466796874,-0.4013625383377075,-3.200286626815796,9.264619827270508
1701911102574925300,15.45492529296875,-0.31875717639923096,-3.424675703048706,9.187278747558594
1701911102591914000,15.4719140625,-0.3046010732650757,-3.6336658000946045,9.107131004333496
1701911102608909000,15.488908935546876,-0.3334752023220062,-3.829113721847534,9.025675773620605
1701911102625898800,15.505898681640625,-0.3783482015132904,-4.033769607543945,8.934297561645508
1701911102642890800,15.522890869140625,-0.4184858202934265,-4.266745090484619,8.823596954345703
1701911102659887000,15.53988720703125,-0.44722577929496765,-4.530282020568848,8.689800262451172
1701911102676874500,15.55687451171875,-0.4658134877681732,-4.806544780731201,8.539102554321289
1701911102693870300,15.573870361328124,-0.4711797535419464,-5.069751739501953,8.385209083557129
1701911102710862800,15.59086279296875,-0.4578355550765991,-5.304996967315674,8.239144325256348
1701911102727853300,15.607853271484375,-0.4185709059238434,-5.520135402679443,8.098705291748047
1701911102744859400,15.624859375,-0.3674548268318176,-5.721269130706787,7.960413932800293
1701911102761837800,15.641837890625,-0.32447895407676697,-5.909579753875732,7.823536396026611
1701911102778831400,15.658831298828124,-0.30073341727256775,-6.083449363708496,7.690080642700195
1701911102795818000,15.67581787109375,-0.2981787621974945,-6.241909027099609,7.562129974365234
1701911102812809200,15.692809326171876,-0.3036155104637146,-6.374142646789551,7.4507904052734375
1701911102829820000,15.70981982421875,-0.29676082730293274,-6.477080345153809,7.361758708953857
1701911102846800600,15.726800537109375,-0.2682948112487793,-6.5648884773254395,7.284666061401367
1701911102863793200,15.743793212890624,-0.21777956187725067,-6.648151397705078,7.2104644775390625
1701911102880783600,15.76078369140625,-0.1624777615070343,-6.731358051300049,7.134322166442871
1701911102897776000,15.777776123046875,-0.12156829982995987,-6.81099796295166,7.059152126312256
1701911102914770000,15.79477001953125,-0.10379042476415634,-6.878838062286377,6.993349075317383
1701911102931761000,15.811760986328125,-0.09550432860851288,-6.931668281555176,6.941107749938965
1701911102948751400,15.82875146484375,-0.07413158565759659,-6.972743034362793,6.900108814239502
1701911102965745400,15.845745361328126,-0.025157062336802483,-6.999488353729248,6.873328685760498
1701911102982725000,15.86272509765625,0.04518260806798935,-7.010145664215088,6.862355709075928
1701911102999733800,15.879733642578126,0.11750097572803497,-7.0082597732543945,6.863425254821777
1701911103016720400,15.896720458984374,0.18979068100452423,-7.001593112945557,6.868610382080078
1701911103033715000,15.91371484375,0.2877444326877594,-6.990769863128662,6.876225471496582
1701911103050708200,15.930708251953124,0.43344971537590027,-6.968502521514893,6.89116907119751
1701911103067699700,15.94769970703125,0.6118579506874084,-6.915694713592529,6.930721759796143
1701911103084692700,15.964692626953125,0.7779188752174377,-6.814399719238281,7.013909816741943
1701911103101673500,15.981673583984374,0.8936920166015625,-6.665703296661377,7.1418375968933105
1701911103118677500,15.998677490234375,0.9467952251434326,-6.48252010345459,7.30182409286499
1701911103135664600,16.01566455078125,0.9434953331947327,-6.275798320770264,7.480660915374756
1701911103152664300,16.032664306640626,0.9011451601982117,-6.0514702796936035,7.668362140655518
1701911103169653200,16.0496533203125,0.8423212766647339,-5.810906410217285,7.85875129699707
1701911103186646800,16.066646728515625,0.7873170971870422,-5.550583839416504,8.05029582977295
1701911103203638300,16.08363818359375,0.7477068901062012,-5.273225784301758,8.238332748413086
1701911103220632600,16.100632568359377,0.7212071418762207,-4.987807273864746,8.416516304016113
1701911103237620700,16.117620849609374,0.7002561688423157,-4.704799175262451,8.579663276672363
1701911103254616000,16.134615966796876,0.6734150648117065,-4.428757190704346,8.727470397949219
1701911103271607600,16.151607666015625,0.6385776400566101,-4.154482841491699,8.86389446258545
1701911103288600800,16.168600830078127,0.5959644913673401,-3.869206190109253,8.995010375976562
1701911103305591800,16.185591796875,0.5479280352592468,-3.568500518798828,9.121496200561523
1701911103322574800,16.202574951171876,0.49025052785873413,-3.2662174701690674,9.23729419708252
1701911103339570700,16.21957080078125,0.4158439040184021,-2.9853720664978027,9.335455894470215
1701911103356572400,16.236572509765626,0.332497775554657,-2.753544807434082,9.409760475158691
1701911103373560800,16.253560791015627,0.2575553059577942,-2.5752370357513428,9.46245002746582
1701911103390554600,16.2705546875,0.19119949638843536,-2.431234121322632,9.502035140991211
1701911103407545900,16.2875458984375,0.11988835781812668,-2.2978930473327637,9.536323547363281
1701911103424539100,16.3045390625,0.036278173327445984,-2.166719913482666,9.567660331726074
1701911103441530400,16.3215302734375,-0.047209031879901886,-2.0513103008270264,9.593019485473633
1701911103458517800,16.338517822265626,-0.10933032631874084,-1.9708493947982788,9.609366416931152
1701911103475506700,16.355506591796875,-0.14709973335266113,-1.9438165426254272,9.614368438720703
1701911103492499700,16.372499755859376,-0.16646187007427216,-1.9737398624420166,9.607953071594238
1701911103509499600,16.389499755859376,-0.18390630185604095,-2.0387847423553467,9.594043731689453
1701911103526487600,16.406487548828125,-0.2231270968914032,-2.1052026748657227,9.578855514526367
1701911103543485000,16.42348486328125,-0.28706610202789307,-2.161189317703247,9.56467342376709
1701911103560477700,16.440477783203125,-0.3559908866882324,-2.233297348022461,9.545772552490234
1701911103577469000,16.457468994140626,-0.3781954050064087,-2.35768723487854,9.5149564743042
1701911103594462000,16.4744619140625,-0.3113071024417877,-2.556295156478882,9.465970039367676
1701911103611453200,16.491453125,-0.16927021741867065,-2.812199831008911,9.39675521850586
1701911103628436200,16.508436279296873,0.0006978652090765536,-3.0741629600524902,9.315881729125977
1701911103645434000,16.52543408203125,0.14841827750205994,-3.300933361053467,9.236770629882812
1701911103662431200,16.54243115234375,0.23531630635261536,-3.4832794666290283,9.167743682861328
1701911103679422500,16.55942236328125,0.259138822555542,-3.63067364692688,9.109729766845703
1701911103696416000,16.576416015625,0.2364467978477478,-3.75777530670166,9.058661460876465
1701911103713406200,16.59340625,0.18166480958461761,-3.882406234741211,9.007223129272461
1701911103730401300,16.6104013671875,0.10918959230184555,-4.018080234527588,8.948698997497559
1701911103747391700,16.627391845703126,0.03885255753993988,-4.1646223068237305,8.882033348083496
1701911103764385300,16.64438525390625,-0.016847729682922363,-4.318563938140869,8.808281898498535
1701911103781365800,16.66136572265625,-0.045373592525720596,-4.468353748321533,8.733148574829102
1701911103798369000,16.678369140625,-0.043771892786026,-4.6099138259887695,8.659266471862793
1701911103815361500,16.695361572265625,-0.016695627942681313,-4.7476725578308105,8.58460521697998
1701911103832354600,16.7123544921875,0.03236507251858711,-4.887025356292725,8.506000518798828
1701911103849342700,16.7293427734375,0.09520363807678223,-5.030968189239502,8.421189308166504
1701911103866328300,16.746328369140624,0.1661609262228012,-5.175909996032715,8.331774711608887
1701911103883330300,16.763330322265624,0.23616231977939606,-5.3128557205200195,8.243415832519531
1701911103900313600,16.780313720703123,0.29169246554374695,-5.439508438110352,8.15860366821289
1701911103917315000,16.797315185546875,0.3256181478500366,-5.560050010681152,8.075638771057129
1701911103934308400,16.814308349609377,0.3424774408340454,-5.678554058074951,7.992049694061279
1701911103951299600,16.831299560546874,0.35335221886634827,-5.79676628112793,7.906248569488525
1701911103968292900,16.84829296875,0.37092602252960205,-5.911950588226318,7.819680690765381
1701911103985284400,16.865284423828125,0.40189170837402344,-6.011408805847168,7.7419352531433105
1701911104002277400,16.88227734375,0.44341719150543213,-6.094166278839111,7.674675464630127
1701911104019268600,16.8992685546875,0.48489221930503845,-6.171000957489014,7.610501766204834
1701911104036258300,16.91625830078125,0.5154924392700195,-6.248654365539551,7.544846057891846
1701911104053254000,16.93325390625,0.5303555130958557,-6.324956893920898,7.4799580574035645
1701911104070233900,16.95023388671875,0.539172887802124,-6.387499809265137,7.425985336303711
1701911104087225900,16.967225830078124,0.5546854734420776,-6.419561386108398,7.397140979766846
1701911104104231200,16.984231201171873,0.5759150981903076,-6.420380592346191,7.394806861877441
1701911104121218300,17.00121826171875,0.6039981245994568,-6.399386405944824,7.410746097564697
1701911104138207700,17.018207763671874,0.6376368999481201,-6.362634181976318,7.439517021179199
1701911104155199200,17.03519921875,0.664880633354187,-6.311792373657227,7.4803290367126465
1701911104172189400,17.052189453125,0.6701262593269348,-6.244290828704834,7.536303997039795
1701911104189194200,17.0691943359375,0.6472204923629761,-6.162839412689209,7.605041027069092
1701911104206182700,17.0861826171875,0.6090396046638489,-6.072794437408447,7.680257797241211
1701911104223175700,17.10317578125,0.5666669011116028,-5.975417137145996,7.759471416473389
1701911104240170500,17.12017041015625,0.5271453857421875,-5.876449108123779,7.837447166442871
1701911104257158100,17.137158203125,0.5068251490592957,-5.790345191955566,7.902605056762695
1701911104274157000,17.154156982421874,0.5095828771591187,-5.7218732833862305,7.952145576477051
1701911104291145500,17.1711455078125,0.519260048866272,-5.6647114753723145,7.992342948913574
1701911104308139000,17.188138916015625,0.5164793133735657,-5.610907077789307,8.030385971069336
1701911104325130200,17.205130126953126,0.4928010106086731,-5.5568366050720215,8.069376945495605
1701911104342123500,17.22212353515625,0.456651508808136,-5.510928630828857,8.10291576385498
1701911104359111700,17.239111572265625,0.4173131287097931,-5.478451728820801,8.127026557922363
1701911104376110600,17.256110595703124,0.3876086473464966,-5.4623122215271,8.139349937438965
1701911104393099300,17.273099365234376,0.36903366446495056,-5.462622165679932,8.140006065368652
1701911104410093000,17.290093017578126,0.3517628312110901,-5.4788498878479,8.12985897064209
1701911104427084300,17.307084228515624,0.3305833637714386,-5.512648582458496,8.107867240905762
1701911104444077300,17.324077392578126,0.3210941553115845,-5.554285049438477,8.07978630065918
1701911104461055500,17.341055419921876,0.32959139347076416,-5.585292339324951,8.058038711547852
1701911104478056200,17.35805615234375,0.32898378372192383,-5.599102020263672,8.04847526550293
1701911104495053300,17.37505322265625,0.3081331253051758,-5.597282409667969,8.050565719604492
1701911104512046800,17.392046875,0.25865522027015686,-5.582921981811523,8.062270164489746
1701911104529037800,17.409037841796874,0.17670293152332306,-5.560079097747803,8.080248832702637
1701911104546030600,17.426030517578123,0.06329934298992157,-5.528844833374023,8.10333251953125
1701911104563023400,17.4430234375,-0.070036381483078,-5.490964412689209,8.128993034362793
1701911104580016000,17.46001611328125,-0.20443938672542572,-5.463525295257568,8.145195960998535
1701911104597004300,17.47700439453125,-0.3195173144340515,-5.466893196105957,8.139230728149414
1701911104613992000,17.493991943359376,-0.4183943271636963,-5.5021562576293945,8.110940933227539
1701911104630992400,17.510992431640624,-0.5296922922134399,-5.557245254516602,8.066757202148438
1701911104647972400,17.527972412109374,-0.6767346858978271,-5.610814571380615,8.018534660339355
1701911104664967000,17.544966796875,-0.8579280972480774,-5.654141426086426,7.970620155334473
1701911104681959200,17.561959228515626,-1.0489490032196045,-5.682747840881348,7.927307605743408
1701911104698952700,17.57895263671875,-1.226563572883606,-5.6837158203125,7.901076793670654
1701911104715943700,17.595943603515625,-1.357627511024475,-5.649094581604004,7.904472351074219
1701911104732937700,17.612937744140623,-1.4120900630950928,-5.573548793792725,7.948439121246338
1701911104749930500,17.629930419921877,-1.3862775564193726,-5.462801456451416,8.02945613861084
1701911104766921000,17.6469208984375,-1.3016507625579834,-5.3308892250061035,8.131633758544922
1701911104783912700,17.66391259765625,-1.1836947202682495,-5.188212871551514,8.241202354431152
1701911104800907000,17.680906982421874,-1.0510796308517456,-5.044498443603516,8.347719192504883
1701911104817898500,17.6978984375,-0.9249302744865417,-4.903217315673828,8.446248054504395
1701911104834892500,17.714892578125,-0.8194456696510315,-4.764253616333008,8.536190032958984
1701911104851883500,17.731883544921875,-0.7346066236495972,-4.629665851593018,8.61758041381836
1701911104868876300,17.748876220703124,-0.659608006477356,-4.504642009735107,8.689606666564941
1701911104885870300,17.765870361328126,-0.5921076536178589,-4.3913350105285645,8.752239227294922
1701911104902857200,17.782857177734375,-0.5412473678588867,-4.290473461151123,8.805397033691406
1701911104919850800,17.799850830078125,-0.5082124471664429,-4.212599277496338,8.844877243041992
1701911104936842800,17.8168427734375,-0.4918614327907562,-4.175841808319092,8.863211631774902
1701911104953849300,17.833849365234375,-0.4799826145172119,-4.1907958984375,8.856803894042969
1701911104970837800,17.850837646484376,-0.4657990038394928,-4.255120277404785,8.8268404006958
1701911104987820800,17.86782080078125,-0.4602239727973938,-4.346404075622559,8.782544136047363
1701911105004822500,17.884822509765623,-0.4709346294403076,-4.441735744476318,8.734147071838379
1701911105021814800,17.901814697265625,-0.49125611782073975,-4.530860900878906,8.687122344970703
1701911105038808000,17.91880810546875,-0.5100406408309937,-4.616281509399414,8.64094352722168
1701911105055799600,17.935799560546876,-0.5160941481590271,-4.708361625671387,8.590757369995117
1701911105072792600,17.95279248046875,-0.5071573853492737,-4.813077926635742,8.533063888549805
1701911105089785000,17.96978515625,-0.49652716517448425,-4.924882888793945,8.469656944274902
1701911105106776300,17.9867763671875,-0.49500322341918945,-5.03367280960083,8.405548095703125
1701911105123768800,18.003768798828126,-0.5033353567123413,-5.13413143157959,8.34406852722168
1701911105140761900,18.020761962890624,-0.5188743472099304,-5.223251819610596,8.287611961364746
1701911105157754000,18.037754150390626,-0.5371357798576355,-5.306042671203613,8.23367977142334
1701911105174745300,18.054745361328123,-0.5486193895339966,-5.3929829597473145,8.176237106323242
1701911105191736600,18.071736572265625,-0.548775851726532,-5.493879795074463,8.108777046203613
1701911105208732700,18.088732666015623,-0.5331422686576843,-5.601861000061035,8.035609245300293
1701911105225723400,18.105723388671876,-0.5027526617050171,-5.701663970947266,7.967080593109131
1701911105242704400,18.122704345703124,-0.459465891122818,-5.786353588104248,7.908419609069824
1701911105259704800,18.139704833984375,-0.4119538962841034,-5.850292682647705,7.863872528076172
1701911105276699400,18.156699462890625,-0.3756049871444702,-5.887468338012695,7.83790397644043
1701911105293693200,18.173693115234375,-0.356237530708313,-5.903099536895752,7.827044486999512
1701911105310670000,18.190670166015625,-0.3415426015853882,-5.909578800201416,7.82280969619751
1701911105327677200,18.20767724609375,-0.31047487258911133,-5.913444995880127,7.821183204650879
1701911105344668700,18.224668701171876,-0.23013019561767578,-5.911858558654785,7.825155735015869
1701911105361662000,18.241661865234374,-0.09823191165924072,-5.890146732330322,7.844274997711182
1701911105378649900,18.25864990234375,0.03215910121798515,-5.8287177085876465,7.890573024749756
1701911105395646500,18.275646484375,0.10819045454263687,-5.726963996887207,7.964062213897705
1701911105412637700,18.2926376953125,0.12955881655216217,-5.612287998199463,8.044971466064453
1701911105429631000,18.309630859375,0.12865015864372253,-5.506595134735107,8.117695808410645
1701911105446619100,18.326619140625,0.12198549509048462,-5.408339500427246,8.183587074279785
1701911105463625500,18.34362548828125,0.11591199040412903,-5.307106018066406,8.249686241149902
1701911105480607000,18.36060693359375,0.10645119845867157,-5.189774990081787,8.324122428894043
1701911105497600500,18.3776005859375,0.08737611770629883,-5.046730995178223,8.411835670471191
1701911105514591500,18.394591552734376,0.04886488988995552,-4.878355026245117,8.51089859008789
1701911105531585000,18.4115849609375,-0.012927609495818615,-4.689011096954346,8.616793632507324
1701911105548576000,18.428575927734375,-0.09848933666944504,-4.488473415374756,8.722386360168457
1701911105565569300,18.4455693359375,-0.20561383664608002,-4.281327247619629,8.82406234741211
1701911105582565600,18.462565673828124,-0.3343648612499237,-4.065712928771973,8.921563148498535
1701911105599554300,18.47955419921875,-0.48230937123298645,-3.8406405448913574,9.014042854309082
1701911105616545300,18.496545166015625,-0.637146532535553,-3.6186530590057373,9.095907211303711
1701911105633525500,18.513525390625,-0.7811862826347351,-3.423516035079956,9.159988403320312
1701911105650522000,18.530522216796875,-0.9012314081192017,-3.285977840423584,9.199252128601074
1701911105667523300,18.5475234375,-0.9915989637374878,-3.2134597301483154,9.215558052062988
1701911105684514800,18.564514892578124,-1.0721156597137451,-3.174539804458618,9.22003173828125
1701911105701497300,18.581497314453124,-1.1624031066894531,-3.134559154510498,9.222768783569336
1701911105718496500,18.59849658203125,-1.2634131908416748,-3.0925889015197754,9.223654747009277
1701911105735495200,18.6154951171875,-1.3567534685134888,-3.0668067932128906,9.219003677368164
1701911105752483800,18.63248388671875,-1.4198297262191772,-3.0697216987609863,9.208528518676758
1701911105769474000,18.64947412109375,-1.439537763595581,-3.1054341793060303,9.193482398986816
1701911105786468400,18.66646826171875,-1.4238327741622925,-3.153956174850464,9.179398536682129
1701911105803461600,18.683461669921876,-1.386908769607544,-3.178941249847412,9.176433563232422
1701911105820451000,18.700451171875,-1.3472306728363037,-3.167588949203491,9.186266899108887
1701911105837448200,18.7174482421875,-1.3160322904586792,-3.1408963203430176,9.199943542480469
1701911105854427000,18.734427001953126,-1.2769068479537964,-3.1495795249938965,9.202488899230957
1701911105871431200,18.75143115234375,-1.2115548849105835,-3.228180170059204,9.18406867980957
1701911105888422400,18.76842236328125,-1.120510220527649,-3.3813140392303467,9.140420913696289
1701911105905416000,18.785416015625,-1.011966586112976,-3.572162389755249,9.080292701721191
1701911105922404600,18.802404541015626,-0.8983563184738159,-3.744518518447876,9.022619247436523
1701911105939402800,18.81940283203125,-0.7836087942123413,-3.862426996231079,8.983525276184082
1701911105956387300,18.83638720703125,-0.6801493167877197,-3.9327991008758545,8.961395263671875
1701911105973385700,18.8533857421875,-0.6065755486488342,-3.9830117225646973,8.944482803344727
1701911105990376200,18.870376220703125,-0.5706058144569397,-4.034045219421387,8.923957824707031
1701911106007369500,18.887369384765623,-0.5647317171096802,-4.109203338623047,8.889974594116211
1701911106024360700,18.904360595703125,-0.5745643973350525,-4.213786602020264,8.840250015258789
1701911106041348400,18.921348388671873,-0.5915452837944031,-4.324918746948242,8.785286903381348
1701911106058337000,18.9383369140625,-0.6069018244743347,-4.419776439666748,8.736897468566895
1701911106075341600,18.955341552734374,-0.6059680581092834,-4.5007524490356445,8.695524215698242
1701911106092336600,18.972336669921877,-0.5875428915023804,-4.586568832397461,8.651837348937988
1701911106109323300,18.9893232421875,-0.5547007918357849,-4.694332122802734,8.596026420593262
1701911106126314500,19.006314453125,-0.5147643089294434,-4.827998638153076,8.524174690246582
1701911106143307000,19.02330712890625,-0.47621479630470276,-4.976858615875244,8.44039249420166
1701911106160300000,19.040300048828126,-0.4453882873058319,-5.121658802032471,8.355020523071289
1701911106177292500,19.05729248046875,-0.4170433282852173,-5.254049777984619,8.273885726928711
1701911106194283500,19.074283447265625,-0.3843521177768707,-5.376901149749756,8.196178436279297
1701911106211277000,19.091277099609375,-0.347552090883255,-5.491199493408203,8.121703147888184
1701911106228268500,19.1082685546875,-0.30474403500556946,-5.596966743469238,8.050914764404297
1701911106245261800,19.12526171875,-0.260202556848526,-5.691773414611816,7.98574686050415
1701911106262253000,19.142253173828124,-0.22034034132957458,-5.760130882263184,7.937786102294922
1701911106279243000,19.159242919921876,-0.18996143341064453,-5.788537502288818,7.917882919311523
1701911106296237300,19.1762373046875,-0.1687360256910324,-5.784690856933594,7.921174049377441
1701911106313218000,19.193218017578126,-0.15686151385307312,-5.753661632537842,7.94398307800293
1701911106330214100,19.210214111328124,-0.1523147076368332,-5.707093238830566,7.977592945098877
1701911106347215400,19.22721533203125,-0.15837885439395905,-5.654555797576904,8.014800071716309
1701911106364206800,19.244206787109373,-0.1758754849433899,-5.59561824798584,8.055695533752441
1701911106381200000,19.261199951171875,-0.19685646891593933,-5.520198822021484,8.107080459594727
1701911106398191400,19.27819140625,-0.2038944661617279,-5.431504726409912,8.166597366333008
1701911106415185000,19.295184814453126,-0.17519047856330872,-5.3482279777526855,8.222037315368652
1701911106432161000,19.3121611328125,-0.11060330271720886,-5.283598899841309,8.264833450317383
1701911106449170000,19.329169921875,-0.04923297464847565,-5.246161460876465,8.289238929748535
1701911106466156800,19.34615673828125,-0.016261400654911995,-5.239881992340088,8.293341636657715
1701911106483149800,19.36314990234375,-0.009543533436954021,-5.239101886749268,8.293844223022461
1701911106500142800,19.380142822265626,-0.005820611026138067,-5.213626861572266,8.309885025024414
1701911106517138400,19.397138427734376,0.014132428914308548,-5.138335704803467,8.35663890838623
1701911106534131500,19.41413134765625,0.05596575140953064,-5.011860370635986,8.432927131652832
1701911106551124200,19.431124267578124,0.12108765542507172,-4.861538887023926,8.519795417785645
1701911106568114400,19.448114501953125,0.18841776251792908,-4.703511714935303,8.60683536529541
1701911106585108000,19.46510791015625,0.2349545806646347,-4.5417304039001465,8.692158699035645
1701911106602099000,19.482098876953124,0.24993924796581268,-4.363629341125488,8.782504081726074
1701911106619092500,19.499092529296874,0.23721803724765778,-4.154749870300293,8.883575439453125
1701911106636083500,19.51608349609375,0.21751350164413452,-3.918269395828247,8.990882873535156
1701911106653076200,19.533076171875,0.2056576907634735,-3.6707968711853027,9.095003128051758
1701911106670068200,19.550068115234374,0.2046016901731491,-3.425647020339966,9.190168380737305
1701911106687062500,19.5670625,0.20687156915664673,-3.188866376876831,9.27493667602539
1701911106704042800,19.584042724609375,0.20728321373462677,-2.966526985168457,9.348414421081543
1701911106721046000,19.6010458984375,0.20126000046730042,-2.764914035797119,9.410146713256836
1701911106738035200,19.61803515625,0.18414461612701416,-2.5881028175354004,9.460653305053711
1701911106755032800,19.63503271484375,0.15404023230075836,-2.4409496784210205,9.500219345092773
1701911106772022000,19.65202197265625,0.10820799320936203,-2.323995590209961,9.530134201049805
1701911106789012500,19.669012451171874,0.04993347078561783,-2.2314348220825195,9.552714347839355
1701911106806006800,19.6860068359375,-0.007438243366777897,-2.1487159729003906,9.571785926818848
1701911106823000000,19.703,-0.06264180690050125,-2.0767693519592285,9.587450981140137
1701911106839991600,19.719991455078127,-0.11577487736940384,-2.0388858318328857,9.595086097717285
1701911106856973000,19.73697314453125,-0.17380790412425995,-2.044182062149048,9.593082427978516
1701911106873977000,19.75397705078125,-0.24006153643131256,-2.0884222984313965,9.582117080688477
1701911106890969600,19.770969482421876,-0.31829026341438293,-2.1601738929748535,9.563913345336914
1701911106907950600,19.78795068359375,-0.41067394614219666,-2.2479665279388428,9.540132522583008
1701911106924951300,19.804951416015626,-0.5095427632331848,-2.3385322093963623,9.513555526733398
1701911106941947400,19.821947509765625,-0.6128139495849609,-2.426131010055542,9.485487937927246
1701911106958939000,19.83893896484375,-0.7194958329200745,-2.5417909622192383,9.447629928588867
1701911106975928800,19.8559287109375,-0.8089126348495483,-2.718682289123535,9.39098072052002
1701911106992924000,19.872923828125,-0.8560312390327454,-2.940574884414673,9.319673538208008
1701911107009914400,19.889914306640627,-0.8550372123718262,-3.1737723350524902,9.24295425415039
1701911107026907600,19.90690771484375,-0.8121034502983093,-3.3860840797424316,9.171204566955566
1701911107043898000,19.923898193359374,-0.7572208642959595,-3.559091567993164,9.110191345214844
1701911107060893200,19.94089306640625,-0.7241566181182861,-3.717324733734131,9.049487113952637
1701911107077883600,19.957883544921874,-0.7309820652008057,-3.879567861557007,8.980575561523438
1701911107094877000,19.974876953125,-0.7733334898948669,-4.060948848724365,8.896446228027344
1701911107111866400,19.991866455078124,-0.8359630107879639,-4.273029804229736,8.79081916809082
1701911107128863000,20.008863037109375,-0.9017283916473389,-4.511043071746826,8.664497375488281
1701911107145851600,20.0258515625,-0.9447644948959351,-4.758491039276123,8.526448249816895
1701911107162853600,20.042853515625,-0.9481003284454346,-5.000785827636719,8.386260032653809
1701911107179834400,20.05983447265625,-0.9143455028533936,-5.238008975982666,8.243988990783691
1701911107196826000,20.076826171875,-0.8598710894584656,-5.47587251663208,8.093921661376953
1701911107213826800,20.093826904296876,-0.8013556599617004,-5.712086200714111,7.935112476348877
1701911107230815200,20.110815185546876,-0.748161792755127,-5.938351631164551,7.772538185119629
1701911107247806500,20.127806396484374,-0.697884202003479,-6.144463062286377,7.615422248840332
1701911107264800300,20.14480029296875,-0.6359683275222778,-6.323197364807129,7.473207473754883
1701911107281791200,20.161791259765625,-0.5571113228797913,-6.480632305145264,7.343510627746582
1701911107298781400,20.178781494140626,-0.4651147425174713,-6.626744270324707,7.218453407287598
1701911107315775700,20.195775634765624,-0.3580247461795807,-6.765610694885254,7.094677925109863
1701911107332765400,20.212765380859373,-0.23494727909564972,-6.885204315185547,6.983902454376221
1701911107349760500,20.229760498046875,-0.10707714408636093,-6.976741790771484,6.895630836486816
1701911107366751000,20.2467509765625,0.008633414283394814,-7.046601295471191,6.825060844421387
1701911107383745300,20.263745361328127,0.10986918956041336,-7.107736587524414,6.760484218597412
1701911107400746000,20.28074609375,0.19847701489925385,-7.160727500915527,6.702291011810303
1701911107417729800,20.297729736328126,0.2605466842651367,-7.192737102508545,6.665791988372803
1701911107434723000,20.31472314453125,0.29116562008857727,-7.189066410064697,6.668482303619385
1701911107451711700,20.331711669921877,0.2937243580818176,-7.146888732910156,6.713555812835693
1701911107468710100,20.348710205078124,0.27026328444480896,-7.070652961730957,6.794773578643799
1701911107485699000,20.365698974609376,0.23291829228401184,-6.9690752029418945,6.900280952453613
1701911107502687700,20.382687744140625,0.21374556422233582,-6.859014987945557,7.0103020668029785
1701911107519683600,20.39968359375,0.23789748549461365,-6.749807357788086,7.114745616912842
1701911107536676600,20.416676513671874,0.30089011788368225,-6.621658802032471,7.231821060180664
1701911107553667300,20.433667236328127,0.3621204197406769,-6.4394025802612305,7.391824245452881
1701911107570652400,20.45065234375,0.37723955512046814,-6.186529636383057,7.6039886474609375
1701911107587645200,20.467645263671876,0.31806281208992004,-5.864421844482422,7.857702255249023
1701911107604635400,20.484635498046874,0.20218035578727722,-5.505683898925781,8.116813659667969
1701911107621638100,20.50163818359375,0.06718216836452484,-5.141885757446289,8.354198455810547
1701911107638621000,20.518620849609373,-0.0400487519800663,-4.790380954742432,8.560770988464355
1701911107655613400,20.535613525390627,-0.11167480796575546,-4.434942722320557,8.749567031860352
1701911107672609300,20.552609375,-0.1552821695804596,-4.069293975830078,8.924845695495605
1701911107689603300,20.569603271484375,-0.18182384967803955,-3.697049617767334,9.084870338439941
1701911107706602200,20.586602294921875,-0.1988842785358429,-3.3302087783813477,9.225306510925293
1701911107723591000,20.6035908203125,-0.20684467256069183,-2.9852843284606934,9.342452049255371
1701911107740584700,20.620584716796873,-0.20126526057720184,-2.670938014984131,9.437248229980469
1701911107757563100,20.637563232421876,-0.19378726184368134,-2.391197443008423,9.51213550567627
1701911107774571000,20.654571044921877,-0.20393100380897522,-2.1372148990631104,9.572192192077637
1701911107791572000,20.671572021484376,-0.25341716408729553,-1.9054876565933228,9.619824409484863
1701911107808554000,20.688553955078124,-0.34691882133483887,-1.7078776359558105,9.653960227966309
1701911107825540600,20.70554052734375,-0.47785261273384094,-1.5547709465026855,9.674214363098145
1701911107842536200,20.7225361328125,-0.630606472492218,-1.4471404552459717,9.682161331176758
1701911107859531000,20.739531005859376,-0.7870399355888367,-1.3774546384811401,9.680874824523926
1701911107876520000,20.75652001953125,-0.9412176012992859,-1.3331308364868164,9.67331314086914
1701911107893514000,20.773513916015624,-1.091725468635559,-1.3099348545074463,9.660658836364746
1701911107910507500,20.790507568359374,-1.2207192182540894,-1.3178865909576416,9.644124031066895
1701911107927498800,20.807498779296875,-1.3094898462295532,-1.3712947368621826,9.625015258789062
1701911107944492300,20.8244921875,-1.360236644744873,-1.470841884613037,9.603253364562988
1701911107961473000,20.84147314453125,-1.396380066871643,-1.620911955833435,9.573864936828613
1701911107978474200,20.85847412109375,-1.4352043867111206,-1.8239386081695557,9.531503677368164
1701911107995470600,20.875470703125,-1.4895806312561035,-2.063530921936035,9.474128723144531
1701911108012461600,20.892461669921875,-1.5595155954360962,-2.3061907291412354,9.406671524047852
1701911108029452500,20.90945263671875,-1.6326415538787842,-2.529663562774658,9.336562156677246
1701911108046446000,20.926446044921875,-1.6636393070220947,-2.7387213706970215,9.27188491821289
1701911108063436500,20.9434365234375,-1.6083089113235474,-2.9596378803253174,9.213578224182129
1701911108080431600,20.960431640625,-1.4537266492843628,-3.22206974029541,9.15101432800293
1701911108097424100,20.977424072265624,-1.2505054473876953,-3.516981601715088,9.072111129760742
1701911108114413000,20.9944130859375,-1.0580016374588013,-3.8102660179138184,8.977673530578613
1701911108131406600,21.011406494140626,-0.9038842916488647,-4.070451736450195,8.879781723022461
1701911108148390400,21.028390380859374,-0.7886467576026917,-4.2793097496032715,8.792137145996094
1701911108165386000,21.045385986328125,-0.7059881687164307,-4.451488494873047,8.713319778442383
1701911108182373400,21.062373291015625,-0.6436574459075928,-4.616231918334961,8.63204574584961
1701911108199368700,21.07936865234375,-0.5873311758041382,-4.797144412994385,8.536893844604492
1701911108216361700,21.09636181640625,-0.5256038904190063,-5.005092620849609,8.420743942260742
1701911108233349000,21.11334912109375,-0.4538790285587311,-5.232133388519287,8.285825729370117
1701911108250346800,21.1303466796875,-0.37365347146987915,-5.450784206390381,8.147727966308594
1701911108267337700,21.147337646484374,-0.29383721947669983,-5.649662971496582,8.014429092407227
1701911108284329500,21.16432958984375,-0.21931152045726776,-5.837673187255859,7.880964279174805
1701911108301321500,21.181321533203125,-0.14973023533821106,-6.022671699523926,7.742166042327881
1701911108318313500,21.1983134765625,-0.08844352513551712,-6.208277225494385,7.595104694366455
1701911108335307300,21.215307373046876,-0.03261343017220497,-6.391384124755859,7.442127704620361
1701911108352300800,21.23230078125,0.02245360054075718,-6.561804294586182,7.292348384857178
1701911108369287700,21.24928759765625,0.07250635325908661,-6.703742980957031,7.161753177642822
1701911108386283300,21.266283203125,0.11572546511888504,-6.822144031524658,7.048480033874512
1701911108403272400,21.2832724609375,0.15663404762744904,-6.930827617645264,6.940837860107422
1701911108420266800,21.300266845703124,0.19386737048625946,-7.036069393157959,6.83317232131958
1701911108437261000,21.317260986328126,0.22351275384426117,-7.136240005493164,6.727573871612549
1701911108454255600,21.334255615234376,0.23559515178203583,-7.221421718597412,6.635636329650879
1701911108471255000,21.351255126953124,0.23052795231342316,-7.285746097564697,6.565125465393066
1701911108488246000,21.36824609375,0.21281994879245758,-7.331678867340088,6.514393329620361
1701911108505237200,21.3852373046875,0.1926669329404831,-7.3680853843688965,6.473818778991699
1701911108522230500,21.40223046875,0.17674700915813446,-7.393204689025879,6.445572853088379
1701911108539221800,21.4192216796875,0.16945290565490723,-7.399831295013428,6.438158988952637
1701911108556215000,21.436215087890623,0.16859102249145508,-7.389158248901367,6.450430393218994
1701911108573205800,21.453205810546876,0.16602028906345367,-7.367156982421875,6.475613117218018
1701911108590200600,21.47020068359375,0.16501984000205994,-7.33930778503418,6.507184028625488
1701911108607191000,21.48719091796875,0.1824471652507782,-7.303438663482666,6.54695463180542
1701911108624181800,21.504181640625,0.23826059699058533,-7.245895862579346,6.608808994293213
1701911108641167600,21.521167724609374,0.34320351481437683,-7.149651527404785,6.70826530456543
1701911108658168800,21.5381689453125,0.4830542802810669,-7.0043745040893555,6.851386547088623
1701911108675160300,21.555160400390626,0.6163620352745056,-6.813419342041016,7.030899524688721
1701911108692152300,21.57215234375,0.7079022526741028,-6.586669445037842,7.2353835105896
1701911108709142000,21.58914208984375,0.7367106080055237,-6.330722332000732,7.4575676918029785
1701911108726135000,21.606135009765627,0.7018722891807556,-6.047361850738525,7.692392826080322
1701911108743129300,21.62312939453125,0.6281085014343262,-5.744141101837158,7.927574634552002
1701911108760123100,21.640123046875,0.5460095405578613,-5.427626132965088,8.153456687927246
