time,seconds_elapsed,z,y,x
1702139558031236600,0.009236572265625,-0.007788531947880983,-0.03787364438176155,-0.019547687843441963
1702139558048222000,0.026221923828125,-0.00427605677396059,-0.013897184282541275,-0.009621127508580685
1702139558068459500,0.04645947265625,0.00045814894838258624,-0.015118914656341076,-0.014355333521962166
1702139558085441800,0.06344189453125,-0.0012217304902151227,-0.0025961773935705423,-0.011301007121801376
1702139558102437400,0.080437255859375,-0.003817907767370343,-0.014966198243200779,-0.015577063895761967
1702139558119434500,0.0974345703125,-0.01618792861700058,-0.011301007121801376,-0.006872233934700489
1702139558136427000,0.114427001953125,-0.027183502912521362,-0.0007635815418325365,-0.00733038317412138
1702139558153418200,0.131418212890625,-0.0377209298312664,-0.00015271631127689034,0.0010690141934901476
1702139558170406400,0.148406494140625,-0.04795292019844055,-0.0012217304902151227,-0.003054326167330146
1702139558187391700,0.165391845703125,-0.05849034711718559,0.0024434609804302454,0.0019853119738399982
1702139558204391000,0.182390869140625,-0.06841690838336945,-0.0029016099870204926,-0.001679879380390048
1702139558221379000,0.199379150390625,-0.07987063378095627,0.001679879380390048,-0.004428773187100887
1702139558238367000,0.216366943359375,-0.09239336848258972,-0.004886921960860491,-0.006108652334660292
1702139558255358700,0.233358642578125,-0.10522153973579407,-0.005650503560900688,-0.006719517521560192
1702139558272352300,0.250352294921875,-0.11804971098899841,0.001832595793530345,-0.00045814894838258624
1702139558289336600,0.267336669921875,-0.12858712673187256,-0.006261368747800589,-0.0012217304902151227
1702139558306332000,0.284331787109375,-0.13637566566467285,-0.0009162978967651725,0.005039638374000788
1702139558323320300,0.3013203125,-0.14095716178417206,-0.003359758760780096,0.0013744467869400978
1702139558340313900,0.31831396484375,-0.13927727937698364,0.0012217304902151227,0.0065668015740811825
1702139558357299200,0.33529931640625,-0.12980885803699493,0.0029016099870204926,0.006261368747800589
1702139558374288600,0.35228857421875,-0.11010845750570297,-0.0009162978967651725,0.009773843921720982
1702139558391290000,0.3692900390625,-0.08246681094169617,-0.004734205547720194,0.00733038317412138
1702139558408264400,0.386264404296875,-0.04993823543190956,-0.009468411095440388,0.008246680721640587
1702139558425262600,0.4032626953125,-0.014049900695681572,0.001832595793530345,0.007177666760981083
1702139558442257000,0.4202568359375,0.02474004216492176,-0.0064140851609408855,0.001527163083665073
1702139558459245300,0.437245361328125,0.059864792972803116,0.013591751456260681,0.01191187184303999
1702139558476237300,0.4542373046875,0.09911288321018219,0.004428773187100887,-0.006108652334660292
1702139558493225500,0.4712255859375,0.13820825517177582,0.020616702735424042,0.001679879380390048
1702139558510218500,0.488218505859375,0.1774563491344452,-0.01038470957428217,-0.0013744467869400978
1702139558527196700,0.50519677734375,0.21441370248794556,0.018936822190880775,0.001832595793530345
1702139558544197600,0.52219775390625,0.2506074607372284,-0.011453723534941673,0.005345070734620094
1702139558561186300,0.539186279296875,0.28435778617858887,0.02275473065674305,0
1702139558578179000,0.556178955078125,0.3196352422237396,-0.0006108652451075613,0.008399397134780884
1702139558595168300,0.573168212890625,0.35781431198120117,0.02168571576476097,0.012522737495601177
1702139558612158500,0.590158447265625,0.4001167416572571,0.0024434609804302454,0.00045814894838258624
1702139558629149200,0.607149169921875,0.4395175576210022,0.01725694350898266,0.0025961773935705423
1702139558646131000,0.624130859375,0.47479501366615295,-0.00855211354792118,-0.010231993161141872
1702139558663130000,0.641130126953125,0.502436637878418,0.02535090781748295,0.0013744467869400978
1702139558680123400,0.658123291015625,0.5285511612892151,-0.0027488935738801956,-0.005803219974040985
1702139558697109000,0.67510888671875,0.5502368807792664,0.04398229718208313,0.0065668015740811825
1702139558714102500,0.6921025390625,0.570853590965271,0.0003054326225537807,0.0006108652451075613
1702139558731091000,0.709091064453125,0.5913175344467163,0.03756821155548096,0.008399397134780884
1702139558748083700,0.726083740234375,0.6111706495285034,-0.005345070734620094,-0.0032070425804704428
1702139558765078300,0.743078369140625,0.6285803318023682,0.029626963660120964,0.0065668015740811825
1702139558782066200,0.760066162109375,0.6459900140762329,0.001679879380390048,-0.0032070425804704428
1702139558799051500,0.777051513671875,0.6609562039375305,0.028557950630784035,0.0039706239476799965
1702139558816045800,0.7940458984375,0.675616979598999,0.010231993161141872,-0.00045814894838258624
1702139558833033700,0.81103369140625,0.6902777552604675,0.027641652151942253,0.004581489134579897
1702139558850028000,0.828028076171875,0.7066183686256409,0.022143865004181862,0.00366519158706069
1702139558867023400,0.8450234375,0.7215845584869385,0.02474004216492176,0.004886921960860491
1702139558884008200,0.86200830078125,0.7383833527565002,0.022907447069883347,0.003054326167330146
1702139558900999200,0.878999267578125,0.7531968355178833,0.02076941914856434,0.00045814894838258624
1702139558917985000,0.895985107421875,0.7675521969795227,0.02122756652534008,0.0012217304902151227
1702139558934978000,0.91297802734375,0.7799221873283386,0.018325956538319588,0.0003054326225537807
1702139558951966500,0.929966552734375,0.7916813492774963,0.02321287989616394,0.0029016099870204926
1702139558968959500,0.94695947265625,0.8014551997184753,0.01970040425658226,0.0019853119738399982
1702139558985948400,0.963948486328125,0.8113817572593689,0.025656340643763542,0.005039638374000788
1702139559002937900,0.980937744140625,0.8208501935005188,0.021532999351620674,0.003359758760780096
1702139559019931600,0.997931640625,0.8286387324333191,0.02519819140434265,0.0032070425804704428
1702139559036911000,1.0149111328125,0.8371908068656921,0.02382374368607998,0.0009162978967651725
1702139559053912000,1.031912109375,0.8426886200904846,0.025045474991202354,0
1702139559070903300,1.0489033203125,0.8463537693023682,0.024587325751781464,0.0003054326225537807
1702139559087890700,1.065890625,0.8474228382110596,0.023365596309304237,0.0012217304902151227
1702139559104882400,1.08288232421875,0.8483390808105469,0.024587325751781464,0.0010690141934901476
1702139559121875700,1.099875732421875,0.8439103364944458,0.025961773470044136,0.001679879380390048
1702139559138861300,1.116861328125,0.8352054953575134,0.00931569468230009,-0.0006108652451075613
1702139559155853300,1.133853271484375,0.8245153427124023,0.02275473065674305,-0.00045814894838258624
1702139559172847000,1.15084716796875,0.8086328506469727,0.013439035043120384,-0.0003054326225537807
1702139559189834500,1.16783447265625,0.7887797355651855,0.01725694350898266,0.00045814894838258624
1702139559206826500,1.184826416015625,0.7687739133834839,0.023060163483023643,0.008704829961061478
1702139559223815200,1.201815185546875,0.7489207983016968,0.02229658141732216,0.0010690141934901476
1702139559240811300,1.218811279296875,0.7344127297401428,0.032528575509786606,0.005039638374000788
1702139559257785300,1.235785400390625,0.7254024744033813,0.026572637259960175,0.004734205547720194
1702139559274790700,1.252790771484375,0.7228062748908997,0.027641652151942253,0.00809396430850029
1702139559291780900,1.26978076171875,0.7284567952156067,0.017409659922122955,0.013744467869400978
1702139559308766000,1.286765869140625,0.7363980412483215,0.018478672951459885,0.007177666760981083
1702139559325764600,1.3037646484375,0.7490735054016113,0.012064588256180286,0.0025961773935705423
1702139559342746400,1.320746337890625,0.7611380815505981,0.014049900695681572,-0.0003054326225537807
1702139559359738600,1.337738525390625,0.775340735912323,0.022602014243602753,0.002138028386980295
1702139559376735000,1.35473486328125,0.7884743213653564,0.02367102913558483,0.0027488935738801956
1702139559393718500,1.371718505859375,0.802524209022522,0.03039054572582245,0.006872233934700489
1702139559410712300,1.38871240234375,0.8177958726882935,0.02871066704392433,0.004734205547720194
1702139559427700200,1.4057001953125,0.8345946669578552,0.02474004216492176,0.006719517521560192
1702139559444693200,1.422693359375,0.8506298661231995,0.019089538604021072,0.00366519158706069
1702139559461675500,1.439675537109375,0.8665123581886292,0.01542434748262167,0.0024434609804302454
1702139559478670300,1.45667041015625,0.8808676600456238,0.010995574295520782,0.00015271631127689034
1702139559495665000,1.473664794921875,0.8938485980033875,0.017562376335263252,-0.0007635815418325365
1702139559512655400,1.4906552734375,0.9071348905563354,0.025045474991202354,0.003817907767370343
1702139559529643800,1.507643798828125,0.9221010804176331,0.029626963660120964,0.00809396430850029
1702139559546636000,1.524635986328125,0.9404270648956299,0.03985895588994026,0.005039638374000788
1702139559563626800,1.541626708984375,0.9599747061729431,0.03329215571284294,0.007788531947880983
1702139559580618000,1.558617919921875,0.9804387092590332,0.03405573591589928,0.0025961773935705423
1702139559597593300,1.57559326171875,0.9990701079368591,0.02015855349600315,-0.003512475173920393
1702139559614590200,1.592590087890625,1.013272762298584,0.02687807008624077,-0.0010690141934901476
1702139559631579400,1.609579345703125,1.0279334783554077,0.012980886735022068,-0.001679879380390048
1702139559648575700,1.62657568359375,1.0392345190048218,0.027641652151942253,0.006719517521560192
1702139559665569800,1.64356982421875,1.052673578262329,0.019394971430301666,0.001832595793530345
1702139559682550300,1.66055029296875,1.061989188194275,0.039706241339445114,0.009468411095440388
1702139559699541500,1.67754150390625,1.0743592977523804,0.022907447069883347,0.005192354787141085
1702139559716541200,1.694541259765625,1.0873401165008545,0.03420845419168472,0.003817907767370343
1702139559733528300,1.7115283203125,1.1030699014663696,0.028557950630784035,0.001832595793530345
1702139559750526200,1.728526123046875,1.1183415651321411,0.021532999351620674,0.0022907445672899485
1702139559767510300,1.74551025390625,1.1336132287979126,0.032528575509786606,0.005345070734620094
1702139559784502000,1.762501953125,1.1468994617462158,0.013744467869400978,0.0019853119738399982
1702139559801495300,1.779495361328125,1.1591167449951172,0.036651913076639175,0.007024950347840786
1702139559818481000,1.79648095703125,1.1711814403533936,0.022143865004181862,0.0007635815418325365
1702139559835464400,1.81346435546875,1.182176947593689,0.04214970022439957,0.0074830991216003895
1702139559852465700,1.830465576171875,1.1921035051345825,0.03130684420466423,0.0013744467869400978
1702139559869450800,1.84745068359375,1.2008084058761597,0.03955352306365967,0.00733038317412138
1702139559886448400,1.864448486328125,1.2111930847167969,0.02687807008624077,0.002138028386980295
1702139559903436800,1.881436767578125,1.2205088138580322,0.036041051149368286,0.00809396430850029
1702139559920425500,1.898425537109375,1.231046199798584,0.03039054572582245,0.00045814894838258624
1702139559937417500,1.91541748046875,1.2389874458312988,0.03527746722102165,0.006108652334660292
1702139559954407000,1.932406982421875,1.2483031749725342,0.03420845419168472,0.003817907767370343
1702139559971400200,1.949400146484375,1.2560917139053345,0.03481931984424591,0.003817907767370343
1702139559988383000,1.966383056640625,1.263269305229187,0.03726277872920036,0.005650503560900688
1702139560005373000,1.983373046875,1.268614411354065,0.030695978552103043,0.0024434609804302454
1702139560022363400,2.00036328125,1.2744176387786865,0.038026362657547,0.00809396430850029
1702139560039352000,2.01735205078125,1.281595230102539,0.027488935738801956,0.004886921960860491
1702139560056345000,2.034344970703125,1.286634922027588,0.03741549700498581,0.008857546374201775
1702139560073341700,2.051341796875,1.2928962707519531,0.029168816283345222,0.004581489134579897
1702139560090332700,2.068332763671875,1.2976305484771729,0.03573561832308769,0.0065668015740811825
1702139560107320300,2.0853203125,1.3017538785934448,0.03481931984424591,0.004734205547720194
1702139560124312000,2.10231201171875,1.3063353300094604,0.03726277872920036,0.005192354787141085
1702139560141305300,2.119305419921875,1.3092368841171265,0.03894266113638878,0.005192354787141085
1702139560158291200,2.136291259765625,1.3096951246261597,0.032681290060281754,0.003817907767370343
1702139560175288600,2.15328857421875,1.3115277290344238,0.03695734590291977,0.005192354787141085
1702139560192265500,2.170265380859375,1.3139711618423462,0.03344487398862839,0.0064140851609408855
1702139560209263400,2.187263427734375,1.3151928186416626,0.03894266113638878,0.005497787147760391
1702139560226256000,2.204255859375,1.3168727159500122,0.03436116874217987,0.0065668015740811825
1702139560243251700,2.221251708984375,1.3190107345581055,0.03741549700498581,0.0065668015740811825
1702139560260237000,2.238237060546875,1.320690631866455,0.03451388701796532,0.006719517521560192
1702139560277227000,2.25522705078125,1.324813961982727,0.03695734590291977,0.008857546374201775
1702139560294206000,2.2722060546875,1.330464482307434,0.03145955875515938,0.0064140851609408855
1702139560311210200,2.289210205078125,1.3356568813323975,0.03878994286060333,0.00733038317412138
1702139560328195800,2.30619580078125,1.3405437469482422,0.03451388701796532,0.004734205547720194
1702139560345189600,2.323189697265625,1.3435981273651123,0.037110064178705215,0.003512475173920393
1702139560362180600,2.3401806640625,1.3460415601730347,0.03833179548382759,0.0010690141934901476
1702139560379165700,2.357165771484375,1.3475687503814697,0.036651913076639175,0.001679879380390048
1702139560396163600,2.37416357421875,1.3463469743728638,0.040622539818286896,0.003359758760780096
1702139560413151700,2.39115185546875,1.344361662864685,0.03497203439474106,0.005192354787141085
1702139560430142700,2.408142822265625,1.3419182300567627,0.03680463135242462,0.00855211354792118
1702139560447132400,2.42513232421875,1.335809588432312,0.02825251780450344,0.006108652334660292
1702139560464124400,2.44212451171875,1.326035737991333,0.03145955875515938,0.00855211354792118
1702139560481098000,2.459097900390625,1.3130548000335693,0.02519819140434265,0.0074830991216003895
1702139560498101000,2.47610107421875,1.2996158599853516,0.030543262138962746,0.009621127508580685
1702139560515094800,2.4930947265625,1.2890783548355103,0.025961773470044136,0.009010262787342072
1702139560532085800,2.510085693359375,1.2797627449035645,0.032528575509786606,0.006108652334660292
1702139560549073200,2.5270732421875,1.270447015762329,0.03741549700498581,0.008704829961061478
1702139560566066000,2.54406591796875,1.262963891029358,0.03420845419168472,0.006719517521560192
1702139560583056600,2.561056640625,1.2567025423049927,0.04092797264456749,0.005955935921519995
1702139560600052200,2.57805224609375,1.2487612962722778,0.030543262138962746,0.00366519158706069
1702139560617031000,2.595031005859375,1.2377656698226929,0.03741549700498581,0.007635815534740686
1702139560634024000,2.61202392578125,1.2247848510742188,0.03405573591589928,0.00366519158706069
1702139560651021800,2.629021728515625,1.2087496519088745,0.04489859566092491,0.004581489134579897
1702139560668006400,2.64600634765625,1.191950798034668,0.038637228310108185,0
1702139560685000200,2.663000244140625,1.1756101846694946,0.034666601568460464,0.003512475173920393
1702139560701990100,2.679990234375,1.1603385210037231,0.03176499158143997,0.004123340360820293
1702139560718978000,2.69697802734375,1.143081545829773,0.022449297830462456,0.004581489134579897
1702139560735969300,2.71396923828125,1.1267409324645996,0.025503624230623245,0.008399397134780884
1702139560752959200,2.730959228515625,1.1114692687988281,0.022449297830462456,0.004581489134579897
1702139560769947000,2.74794677734375,1.0942124128341675,0.03084869496524334,0.009162978269159794
1702139560786941200,2.764941162109375,1.0778716802597046,0.029474247246980667,0.0065668015740811825
1702139560803935000,2.78193505859375,1.0627528429031372,0.03344487398862839,0.006719517521560192
1702139560820926200,2.79892626953125,1.0476338863372803,0.03237585723400116,0.005039638374000788
1702139560837915600,2.81591552734375,1.0329731702804565,0.028099801391363144,0.005039638374000788
1702139560854903000,2.832903076171875,1.0169379711151123,0.02977968007326126,0.001679879380390048
1702139560871897300,2.8498974609375,1.0010554790496826,0.025961773470044136,0.0022907445672899485
1702139560888883500,2.866883544921875,0.9830349087715149,0.02626720629632473,0.0012217304902151227
1702139560905865700,2.88386572265625,0.9656252264976501,0.024129176512360573,0
1702139560922867000,2.900866943359375,0.9485210180282593,0.021991148591041565,0.0064140851609408855
1702139560939854600,2.9178544921875,0.9356928467750549,0.02168571576476097,0.01038470957428217
1702139560956835000,2.9348349609375,0.9277516007423401,0.016951510682702065,0.016340645030140877
1702139560973837600,2.951837646484375,0.9245445728302002,0.01970040425658226,0.017409659922122955
1702139560990830000,2.968830078125,0.9231700897216797,0.020616702735424042,0.016340645030140877
1702139561007816000,2.98581591796875,0.9263771176338196,0.021838432177901268,0.01618792861700058
1702139561024810000,3.00281005859375,0.9370672702789307,0.023976460099220276,0.00015271631127689034
1702139561041801200,3.01980126953125,0.9538660645484924,0.02580905705690384,0.012675453908741474
1702139561058788600,3.03678857421875,0.9712757468223572,0.029474247246980667,0.01664607785642147
1702139561075781000,3.053781005859375,0.9934195876121521,0.034666601568460464,-0.02825251780450344
1702139561092770000,3.07077001953125,1.020603060722351,-0.00366519158706069,0.008704829961061478
1702139561109761500,3.087761474609375,1.041067123413086,0.029932396486401558,0.011759156361222267
1702139561126753800,3.10475390625,1.0610729455947876,0.029168816283345222,-0.026114489883184433
1702139561143736800,3.12173681640625,1.0809260606765747,0.03649919852614403,0.023518312722444534
1702139561160725500,3.1387255859375,1.0990992784500122,0.020922135561704636,0.0003054326225537807
1702139561177718300,3.15571826171875,1.1171197891235352,0.05711590126156807,-0.0032070425804704428
1702139561194716400,3.17271630859375,1.1372783184051514,0.013897184282541275,0.02580905705690384
1702139561211705300,3.189705322265625,1.155604362487793,0.035124752670526505,-0.0006108652451075613
1702139561228696800,3.20669677734375,1.1728612184524536,0.027183502912521362,0.007024950347840786
1702139561245686500,3.2236865234375,1.1879801750183105,0.02275473065674305,0.005497787147760391
1702139561262675500,3.240675537109375,1.2023354768753052,0.035124752670526505,-0.0012217304902151227
1702139561279663900,3.257663818359375,1.214094638824463,0.03451388701796532,0.009468411095440388
1702139561296651000,3.274651123046875,1.2267701625823975,0.038637228310108185,0.0039706239476799965
1702139561313645800,3.291645751953125,1.238223910331726,0.04260785132646561,0.007941247895359993
1702139561330640100,3.30864013671875,1.2495248317718506,0.03298672288656235,0.012217304669320583
1702139561347632000,3.325632080078125,1.2623530626296997,0.036041051149368286,0.009926560334861279
1702139561364618500,3.342618408203125,1.2779301404953003,0.025503624230623245,0.013744467869400978
1702139561381613300,3.35961328125,1.2924381494522095,0.03145955875515938,0.010995574295520782
1702139561398602200,3.376602294921875,1.3063353300094604,0.03375030308961868,0.013744467869400978
1702139561415591700,3.393591796875,1.3205379247665405,0.03237585723400116,0.007635815534740686
1702139561432579000,3.4105791015625,1.3306171894073486,0.03833179548382759,0.012675453908741474
1702139561449577000,3.427576904296875,1.3400856256484985,0.02825251780450344,0.012522737495601177
1702139561466564400,3.444564453125,1.348179578781128,0.03955352306365967,0.016798794269561768
1702139561483553500,3.461553466796875,1.3570371866226196,0.03405573591589928,0.02122756652534008
1702139561500526800,3.47852685546875,1.36482572555542,0.040164388716220856,0.02580905705690384
1702139561517534700,3.49553466796875,1.3764320611953735,0.032528575509786606,0.030237829312682152
1702139561534526200,3.512526123046875,1.3895657062530518,0.036651913076639175,0.022143865004181862
1702139561551515600,3.529515625,1.4069753885269165,0.02626720629632473,0.011759156361222267
1702139561568504800,3.5465048828125,1.4237741231918335,0.044287730008363724,0.005650503560900688
1702139561585490700,3.56349072265625,1.4398094415664673,0.02871066704392433,-0.0065668015740811825
1702139561602481700,3.580481689453125,1.4540120363235474,0.0403171069920063,0.006719517521560192
1702139561619468300,3.59746826171875,1.4669928550720215,0.036041051149368286,0.00427605677396059
1702139561636464000,3.614464111328125,1.4776830673217773,0.04963280260562897,0.00855211354792118
1702139561653450000,3.631449951171875,1.4897476434707642,0.043676864355802536,0.01160643994808197
1702139561670445000,3.648445068359375,1.500285029411316,0.04398229718208313,0.005345070734620094
1702139561687431200,3.66543115234375,1.5070046186447144,0.04444044828414917,0.0010690141934901476
1702139561704421000,3.682421142578125,1.5114333629608154,0.038179077208042145,-0.00366519158706069
1702139561721414100,3.6994140625,1.510058879852295,0.04489859566092491,-0.0019853119738399982
1702139561738402300,3.71640234375,1.5065463781356812,0.046731192618608475,0.001679879380390048
1702139561755391700,3.733391845703125,1.5034921169281006,0.05054909735918045,0.013744467869400978
1702139561772396000,3.75039599609375,1.5019649267196655,0.036651913076639175,0.01572977937757969
1702139561789382700,3.767382568359375,1.5034921169281006,0.04153883829712868,0.018478672951459885
1702139561806371600,3.78437158203125,1.5066990852355957,0.027641652151942253,0.0065668015740811825
1702139561823360800,3.80136083984375,1.5091426372528076,0.0377209298312664,0.006719517521560192
1702139561840359000,3.81835888671875,1.5097534656524658,0.038026362657547,0.004734205547720194
1702139561857346800,3.835346923828125,1.5106697082519531,0.04535674303770065,0.00855211354792118
1702139561874336500,3.85233642578125,1.5128077268600464,0.04184427112340927,0.01160643994808197
1702139561891322600,3.869322509765625,1.5170838832855225,0.043676864355802536,0.005192354787141085
1702139561908311800,3.886311767578125,1.5204435586929321,0.04337143152952194,-0.0006108652451075613
1702139561925309700,3.903309814453125,1.5230398178100586,0.0377209298312664,-0.0013744467869400978
1702139561942296000,3.920296142578125,1.5221234560012817,0.0403171069920063,0.004886921960860491
1702139561959280400,3.9372802734375,1.5209017992019653,0.03680463135242462,0.009162978269159794
1702139561976273000,3.95427294921875,1.5207489728927612,0.04138612002134323,0.013439035043120384
1702139561993269200,3.971269287109375,1.5219707489013672,0.03680463135242462,0.008246680721640587
1702139562010260700,3.9882607421875,1.5238033533096313,0.043218716979026794,0.004734205547720194
1702139562027242000,4.005241943359375,1.525483250617981,0.039248090237379074,0.0019853119738399982
1702139562044242000,4.022241943359375,1.5233452320098877,0.04153883829712868,0.0022907445672899485
1702139562061231600,4.039231689453125,1.5209017992019653,0.041233405470848083,0.005345070734620094
1702139562078222000,4.05622216796875,1.5178474187850952,0.041233405470848083,0.007024950347840786
1702139562095213600,4.073213623046875,1.514182209968567,0.03894266113638878,0.00855211354792118
1702139562112204000,4.0902041015625,1.5105170011520386,0.03955352306365967,0.009621127508580685
1702139562129193500,4.107193359375,1.5086843967437744,0.038026362657547,0.01114829070866108
1702139562146185000,4.12418505859375,1.508837103843689,0.038026362657547,0.009162978269159794
1702139562163174700,4.141174560546875,1.5085316896438599,0.03588833287358284,0.008399397134780884
1702139562180166100,4.158166259765625,1.5097534656524658,0.039095375686883926,0.006261368747800589
1702139562197155800,4.17515576171875,1.5096007585525513,0.038026362657547,0.007177666760981083
1702139562214144800,4.192144775390625,1.5097534656524658,0.04230241850018501,0.007177666760981083
1702139562231139300,4.209139404296875,1.5086843967437744,0.0429132841527462,0.0065668015740811825
1702139562248128300,4.226128173828125,1.510058879852295,0.044287730008363724,0.00855211354792118
1702139562265117400,4.243117431640625,1.5097534656524658,0.04245513305068016,0.007635815534740686
1702139562282098400,4.260098388671875,1.5109752416610718,0.04199698567390442,0.0065668015740811825
1702139562299099000,4.277098876953125,1.5132659673690796,0.04046982154250145,0.0065668015740811825
1702139562316090400,4.29409033203125,1.515709400177002,0.039095375686883926,0.006108652334660292
1702139562333079800,4.311079833984375,1.5176947116851807,0.040164388716220856,0.007177666760981083
1702139562350071600,4.328071533203125,1.5199854373931885,0.0377209298312664,0.007788531947880983
1702139562367061000,4.34506103515625,1.5225815773010254,0.04184427112340927,0.009162978269159794
1702139562384052500,4.362052490234375,1.5253305435180664,0.040164388716220856,0.007635815534740686
1702139562401042000,4.3790419921875,1.528690218925476,0.04230241850018501,0.008857546374201775
1702139562418033700,4.39603369140625,1.5322027206420898,0.042760565876960754,0.0064140851609408855
1702139562435023000,4.413023193359375,1.5351043939590454,0.04352414980530739,0.0064140851609408855
1702139562452004000,4.430004150390625,1.538464069366455,0.04077525436878204,0.0074830991216003895
1702139562469004000,4.447004150390625,1.5421292781829834,0.04306599870324135,0.00733038317412138
1702139562485995800,4.463995849609375,1.5459471940994263,0.04306599870324135,0.006261368747800589
1702139562502985200,4.480985107421875,1.5496124029159546,0.043218716979026794,0.0074830991216003895
1702139562519966700,4.497966796875,1.5541938543319702,0.04153883829712868,0.00809396430850029
1702139562536956000,4.514955810546875,1.558011770248413,0.04306599870324135,0.00733038317412138
1702139562553958000,4.5319580078125,1.561829686164856,0.04444044828414917,0.0065668015740811825
1702139562570947300,4.548947265625,1.5656476020812988,0.04230241850018501,0.007635815534740686
1702139562587938800,4.565938720703125,1.5697709321975708,0.041691552847623825,0.007177666760981083
1702139562604928300,4.58292822265625,1.5725198984146118,0.04108068719506264,0.007177666760981083
1702139562621919200,4.599919189453125,1.5749633312225342,0.04382958263158798,0.007177666760981083
1702139562638909700,4.61690966796875,1.5778648853302002,0.043218716979026794,0.007635815534740686
1702139562655901000,4.63390087890625,1.581377387046814,0.04337143152952194,0.008399397134780884
1702139562672890600,4.650890625,1.5850425958633423,0.043218716979026794,0.008399397134780884
1702139562689882000,4.667882080078125,1.5897767543792725,0.044745877385139465,0.00733038317412138
1702139562706869000,4.684868896484375,1.5954272747039795,0.047189339995384216,0.008246680721640587
1702139562723853300,4.701853271484375,1.6000088453292847,0.04337143152952194,0.00809396430850029
1702139562740845800,4.718845703125,1.6052011251449585,0.044135015457868576,0.00931569468230009
1702139562757834200,4.735834228515625,1.6114624738693237,0.044745877385139465,0.008246680721640587
1702139562774824700,4.75282470703125,1.6175711154937744,0.046731192618608475,0.008857546374201775
1702139562791816000,4.76981591796875,1.6226108074188232,0.04642575979232788,0.009468411095440388
1702139562808804600,4.7868046875,1.6284140348434448,0.04230241850018501,0.009010262787342072
1702139562825807000,4.80380712890625,1.6342172622680664,0.04917465150356293,0.007941247895359993
1702139562842797600,4.820797607421875,1.6395623683929443,0.04260785132646561,0.009010262787342072
1702139562859786500,4.837786376953125,1.644449234008789,0.04795292019844055,0.010995574295520782
1702139562876777200,4.854777099609375,1.650099754333496,0.04352414980530739,0.009773843921720982
1702139562893768400,4.8717685546875,1.6560556888580322,0.047189339995384216,0.009773843921720982
1702139562910758000,4.8887578125,1.6615535020828247,0.046731192618608475,0.010842857882380486
1702139562927750700,4.905750732421875,1.6662876605987549,0.04703662544488907,0.011301007121801376
1702139562944738300,4.92273828125,1.6713273525238037,0.04382958263158798,0.01237002108246088
1702139562961730800,4.939730712890625,1.6762142181396484,0.043676864355802536,0.012522737495601177
1702139562978720500,4.956720458984375,1.6803375482559204,0.04108068719506264,0.012522737495601177
1702139562995711700,4.973711669921875,1.6838500499725342,0.04199698567390442,0.012522737495601177
1702139563012698600,4.99069873046875,1.6865988969802856,0.04260785132646561,0.009010262787342072
1702139563029695500,5.007695556640625,1.6875152587890625,0.04459316283464432,0.00931569468230009
1702139563046682400,5.024682373046875,1.6865988969802856,0.04382958263158798,0.006261368747800589
1702139563063673900,5.041673828125,1.6847662925720215,0.04703662544488907,0.006872233934700489
1702139563080663800,5.058663818359375,1.6811012029647827,0.04489859566092491,0.008704829961061478
1702139563097644500,5.07564453125,1.6774359941482544,0.04688390716910362,0.010690141469240189
1702139563114644700,5.092644775390625,1.6723963022232056,0.04612032696604729,0.012828170321881771
1702139563131636000,5.109635986328125,1.6679675579071045,0.04337143152952194,0.014355333521962166
1702139563148625700,5.126625732421875,1.6638442277908325,0.045204028487205505,0.013744467869400978
1702139563165617200,5.1436171875,1.6604844331741333,0.043676864355802536,0.012675453908741474
1702139563182606600,5.160606689453125,1.6569719314575195,0.04596760869026184,0.013744467869400978
1702139563199598300,5.177598388671875,1.6543757915496826,0.04535674303770065,0.009926560334861279
1702139563216587800,5.194587890625,1.6493362188339233,0.0455094613134861,0.01038470957428217
1702139563233566200,5.211566162109375,1.6447546482086182,0.04382958263158798,0.009162978269159794
1702139563250573300,5.2285732421875,1.6398677825927734,0.04444044828414917,0.010231993161141872
1702139563267558700,5.24555859375,1.6349807977676392,0.04398229718208313,0.008857546374201775
1702139563284550100,5.262550048828125,1.6288721561431885,0.0455094613134861,0.01038470957428217
1702139563301542000,5.2795419921875,1.621999979019165,0.04230241850018501,0.008704829961061478
1702139563318518000,5.29651806640625,1.6168075799942017,0.04459316283464432,0.009621127508580685
1702139563335522800,5.313522705078125,1.6102408170700073,0.04108068719506264,0.007788531947880983
1702139563352512300,5.33051220703125,1.6033685207366943,0.04581489413976669,0.008246680721640587
1702139563369503700,5.347503662109375,1.596496343612671,0.04184427112340927,0.007177666760981083
1702139563386493200,5.3644931640625,1.5906931161880493,0.045204028487205505,0.008857546374201775
1702139563403485000,5.38148486328125,1.5836681127548218,0.0429132841527462,0.009010262787342072
1702139563420474400,5.398474365234375,1.5766432285308838,0.04382958263158798,0.008857546374201775
1702139563437465900,5.4154658203125,1.5717562437057495,0.04337143152952194,0.009926560334861279
1702139563454445000,5.432445068359375,1.567785620689392,0.0403171069920063,0.009621127508580685
1702139563471447000,5.449447021484375,1.5651894807815552,0.04398229718208313,0.011759156361222267
1702139563488436500,5.4664365234375,1.5628987550735474,0.04108068719506264,0.009773843921720982
1702139563505428200,5.48342822265625,1.5615242719650269,0.044135015457868576,0.010842857882380486
1702139563522417700,5.500417724609375,1.5610661506652832,0.04184427112340927,0.00855211354792118
1702139563539409400,5.517409423828125,1.5609134435653687,0.04398229718208313,0.00855211354792118
1702139563556398600,5.534398681640625,1.5599970817565918,0.04260785132646561,0.007788531947880983
1702139563573387800,5.5513876953125,1.5601497888565063,0.041233405470848083,0.008704829961061478
1702139563590382600,5.568382568359375,1.5598443746566772,0.04138612002134323,0.008704829961061478
1702139563607371500,5.58537158203125,1.5598443746566772,0.040164388716220856,0.007635815534740686
1702139563624361000,5.60236083984375,1.558011770248413,0.03894266113638878,0.007788531947880983
1702139563641342200,5.61934228515625,1.5567901134490967,0.03878994286060333,0.007635815534740686
1702139563658342100,5.636342041015625,1.5554156303405762,0.04077525436878204,0.007788531947880983
1702139563675334400,5.65333447265625,1.5541938543319702,0.041691552847623825,0.00855211354792118
1702139563692322600,5.670322509765625,1.5515977144241333,0.04352414980530739,0.00855211354792118
1702139563709324300,5.68732421875,1.5503759384155273,0.04245513305068016,0.007635815534740686
1702139563726304500,5.704304443359375,1.5480852127075195,0.04230241850018501,0.008246680721640587
1702139563743295700,5.721295654296875,1.5447255373001099,0.04108068719506264,0.00733038317412138
1702139563760285400,5.738285400390625,1.5433510541915894,0.04199698567390442,0.0065668015740811825
1702139563777277000,5.75527685546875,1.5401439666748047,0.04092797264456749,0.005497787147760391
1702139563794266600,5.7722666015625,1.5361733436584473,0.042760565876960754,0.005039638374000788
1702139563811257900,5.7892578125,1.5328136682510376,0.04398229718208313,0.005803219974040985
1702139563828253200,5.806253173828125,1.5276212692260742,0.04199698567390442,0.00733038317412138
1702139563845239000,5.823239013671875,1.5247195959091187,0.038179077208042145,0.00855211354792118
1702139563862228700,5.840228759765625,1.5196800231933594,0.03726277872920036,0.00855211354792118
1702139563879220500,5.857220458984375,1.5150985717773438,0.03833179548382759,0.008399397134780884
1702139563896200000,5.874199951171875,1.5112806558609009,0.03955352306365967,0.008399397134780884
1702139563913201400,5.891201416015625,1.5068517923355103,0.04108068719506264,0.007788531947880983
1702139563930190800,5.90819091796875,1.5019649267196655,0.040622539818286896,0.0065668015740811825
1702139563947182300,5.925182373046875,1.4958562850952148,0.04001167416572571,0.006872233934700489
1702139563964172000,5.942172119140625,1.4899003505706787,0.03695734590291977,0.005803219974040985
1702139563981163500,5.95916357421875,1.4840971231460571,0.04077525436878204,0.00733038317412138
1702139563998153200,5.9761533203125,1.4776830673217773,0.03741549700498581,0.005650503560900688
1702139564015144700,5.993144775390625,1.471421718597412,0.04214970022439957,0.006719517521560192
1702139564032134400,6.010134521484375,1.4634803533554077,0.03741549700498581,0.005650503560900688
1702139564049126000,6.0271259765625,1.455997347831726,0.03985895588994026,0.006872233934700489
1702139564066115000,6.044114990234375,1.4477506875991821,0.03787364438176155,0.00427605677396059
1702139564083106800,6.06110693359375,1.4388930797576904,0.03848451003432274,0.004428773187100887
1702139564100094200,6.07809423828125,1.4288138151168823,0.03787364438176155,0.004581489134579897
1702139564117090600,6.095090576171875,1.4196507930755615,0.037110064178705215,0.0064140851609408855
1702139564134077700,6.11207763671875,1.4118622541427612,0.03695734590291977,0.008246680721640587
1702139564151058700,6.12905859375,1.4023939371109009,0.03573561832308769,0.00733038317412138
1702139564168058600,6.14605859375,1.395827054977417,0.03695734590291977,0.008704829961061478
1702139564185050400,6.16305029296875,1.3886494636535645,0.03527746722102165,0.00855211354792118
1702139564202037200,6.180037353515625,1.3825408220291138,0.03573561832308769,0.005497787147760391
1702139564219022300,6.197022216796875,1.3776538372039795,0.036193765699863434,0.007177666760981083
1702139564236013300,6.214013427734375,1.3715451955795288,0.03588833287358284,0.006108652334660292
1702139564253015000,6.23101513671875,1.3663527965545654,0.03573561832308769,0.005650503560900688
1702139564270002200,6.248002197265625,1.3614659309387207,0.04184427112340927,0.00733038317412138
1702139564286993200,6.2649931640625,1.3588697910308838,0.03680463135242462,0.0074830991216003895
1702139564303983600,6.281983642578125,1.3573426008224487,0.040164388716220856,0.00855211354792118
1702139564320964600,6.298964599609375,1.3581061363220215,0.03741549700498581,0.007177666760981083
1702139564337963800,6.3159638671875,1.359480619430542,0.035124752670526505,0.005955935921519995
1702139564354954000,6.3329541015625,1.3605495691299438,0.035124752670526505,0.0065668015740811825
1702139564371935700,6.349935791015625,1.3611605167388916,0.032070424407720566,0.004581489134579897
1702139564388931600,6.366931640625,1.362076759338379,0.03695734590291977,0.005955935921519995
1702139564405918000,6.38391796875,1.362076759338379,0.036041051149368286,0.006261368747800589
1702139564422908200,6.400908203125,1.3643674850463867,0.03695734590291977,0.00733038317412138
1702139564439903700,6.41790380859375,1.3697125911712646,0.040622539818286896,0.008704829961061478
1702139564456898000,6.43489794921875,1.374599575996399,0.03955352306365967,0.009010262787342072
1702139564473884700,6.451884765625,1.3807082176208496,0.035582900047302246,0.00733038317412138
1702139564490862600,6.468862548828125,1.3865114450454712,0.036041051149368286,0.006719517521560192
1702139564507861800,6.48586181640625,1.391398310661316,0.030237829312682152,0.005497787147760391
1702139564524855000,6.50285498046875,1.3965907096862793,0.036193765699863434,0.006108652334660292
1702139564541853700,6.519853759765625,1.40269935131073,0.03497203439474106,0.005955935921519995
1702139564558843100,6.536843017578125,1.4088079929351807,0.04214970022439957,0.00809396430850029
1702139564575832000,6.55383203125,1.4158328771591187,0.04092797264456749,0.008857546374201775
1702139564592823600,6.570823486328125,1.4240796566009521,0.0429132841527462,0.008399397134780884
1702139564609813200,6.587813232421875,1.4338533878326416,0.03955352306365967,0.007024950347840786
1702139564626804700,6.6048046875,1.4425582885742188,0.03878994286060333,0.004886921960860491
1702139564643792000,6.6217919921875,1.4497359991073608,0.03756821155548096,0.0032070425804704428
1702139564660788700,6.638788818359375,1.4552336931228638,0.03527746722102165,0.002138028386980295
1702139564677762300,6.65576220703125,1.4575244188308716,0.03527746722102165,0.0039706239476799965
1702139564694770000,6.67277001953125,1.4593570232391357,0.03527746722102165,0.005345070734620094
1702139564711756500,6.689756591796875,1.4605787992477417,0.03848451003432274,0.009773843921720982
1702139564728748300,6.706748291015625,1.4625641107559204,0.03894266113638878,0.009621127508580685
1702139564745728000,6.72372802734375,1.4633276462554932,0.04108068719506264,0.008704829961061478
1702139564762729500,6.7407294921875,1.4656184911727905,0.04077525436878204,0.005955935921519995
1702139564779719200,6.75771923828125,1.467145562171936,0.039706241339445114,0.004734205547720194
1702139564796710400,6.77471044921875,1.4679092168807983,0.03848451003432274,0.0019853119738399982
1702139564813697500,6.791697509765625,1.4662293195724487,0.03848451003432274,0.0029016099870204926
1702139564830694400,6.8086943359375,1.462716817855835,0.036041051149368286,0.005650503560900688
1702139564847681300,6.825681396484375,1.4581353664398193,0.03405573591589928,0.009926560334861279
1702139564864672800,6.8426728515625,1.4543174505233765,0.033597588539123535,0.012675453908741474
1702139564881662200,6.859662109375,1.4521794319152832,0.0354301854968071,0.009010262787342072
1702139564898654000,6.876654052734375,1.4512630701065063,0.04184427112340927,0.010537425056099892
1702139564915643400,6.893643310546875,1.4489723443984985,0.03894266113638878,0.00809396430850029
1702139564932632600,6.910632568359375,1.449125051498413,0.04260785132646561,0.006261368747800589
1702139564949627100,6.927627197265625,1.4509576559066772,0.04734205827116966,0.005497787147760391
1702139564966616000,6.944615966796875,1.4540120363235474,0.04398229718208313,0.00045814894838258624
1702139564983605800,6.961605712890625,1.4576772451400757,0.047800205647945404,0.005803219974040985
1702139565000597200,6.97859716796875,1.4625641107559204,0.0429132841527462,0.009162978269159794
1702139565017587000,6.9955869140625,1.4703526496887207,0.03695734590291977,0.011301007121801376
1702139565034578400,7.012578369140625,1.479362964630127,0.037110064178705215,0.01710422709584236
1702139565051567900,7.02956787109375,1.4911220073699951,0.035124752670526505,0.012828170321881771
1702139565068557000,7.04655712890625,1.5031867027282715,0.040622539818286896,0.010537425056099892
1702139565085551900,7.0635517578125,1.516014814376831,0.03848451003432274,0.00809396430850029
1702139565102540800,7.080540771484375,1.5253305435180664,0.04230241850018501,0.0039706239476799965
1702139565119530500,7.097530517578125,1.5331190824508667,0.04092797264456749,0.001679879380390048
1702139565136521700,7.114521728515625,1.540602207183838,0.04230241850018501,0.00366519158706069
1702139565153510000,7.131510009765625,1.545336365699768,0.041691552847623825,0.003359758760780096
1702139565170491400,7.148491455078125,1.5471689701080322,0.041691552847623825,0.004428773187100887
1702139565187495200,7.1654951171875,1.54640531539917,0.038637228310108185,0.004886921960860491
1702139565204484400,7.182484375,1.543503761291504,0.038179077208042145,0.007024950347840786
1702139565221473800,7.199473876953125,1.540602207183838,0.038026362657547,0.0074830991216003895
1702139565238465500,7.216465576171875,1.5358679294586182,0.03741549700498581,0.009468411095440388
1702139565255455000,7.233455078125,1.532508134841919,0.040164388716220856,0.009621127508580685
1702139565272449000,7.250448974609375,1.5285375118255615,0.04199698567390442,0.009010262787342072
1702139565289433600,7.26743359375,1.523956060409546,0.044135015457868576,0.007635815534740686
1702139565306417200,7.284417236328125,1.5210545063018799,0.04138612002134323,0.00931569468230009
1702139565323417000,7.3014169921875,1.5196800231933594,0.043676864355802536,0.009926560334861279
1702139565340409000,7.3184091796875,1.5183055400848389,0.036193765699863434,0.012064588256180286
1702139565357398500,7.3353984375,1.5192219018936157,0.038637228310108185,0.01618792861700058
1702139565374390000,7.35239013671875,1.5209017992019653,0.03191770985722542,0.018936822190880775
1702139565391379500,7.36937939453125,1.5260940790176392,0.04092797264456749,0.020616702735424042
1702139565408371000,7.386370849609375,1.5318973064422607,0.03436116874217987,0.021380282938480377
1702139565425358000,7.403358154296875,1.5390750169754028,0.041233405470848083,0.019089538604021072
1702139565442355200,7.420355224609375,1.5477797985076904,0.038179077208042145,0.015577063895761967
1702139565459341800,7.437341796875,1.5593862533569336,0.04581489413976669,0.01191187184303999
1702139565476333600,7.45433349609375,1.5703818798065186,0.03848451003432274,0.007177666760981083
1702139565493322800,7.47132275390625,1.5801557302474976,0.04917465150356293,0.005955935921519995
1702139565510314500,7.488314453125,1.5920675992965698,0.03940080851316452,0.004734205547720194
1702139565527293700,7.505293701171875,1.6033685207366943,0.04657847434282303,0.0064140851609408855
1702139565544295700,7.522295654296875,1.6120734214782715,0.043676864355802536,0.0029016099870204926
1702139565561285400,7.539285400390625,1.6209309101104736,0.045204028487205505,0.003054326167330146
1702139565578274300,7.5562744140625,1.629024863243103,0.04795292019844055,0.0024434609804302454
1702139565595268900,7.573268798828125,1.6349807977676392,0.0455094613134861,0.004123340360820293
1702139565612258000,7.590258056640625,1.6421585083007812,0.045204028487205505,0.0065668015740811825
1702139565629247500,7.60724755859375,1.6479617357254028,0.0455094613134861,0.003817907767370343
1702139565646239200,7.6242392578125,1.6517796516418457,0.04566217586398125,0.0022907445672899485
1702139565663228700,7.641228759765625,1.655444860458374,0.047189339995384216,0.0025961773935705423
1702139565680220400,7.658220458984375,1.6591099500656128,0.03894266113638878,0.005650503560900688
1702139565697209900,7.6752099609375,1.6604844331741333,0.04948008432984352,0.005955935921519995
1702139565714201600,7.69220166015625,1.6644550561904907,0.03084869496524334,0.010842857882380486
1702139565731188500,7.7091884765625,1.6688838005065918,0.04581489413976669,0.015118914656341076
1702139565748173000,7.726173095703125,1.6742289066314697,0.029932396486401558,0.021532999351620674
1702139565765165600,7.74316552734375,1.6815593242645264,0.03787364438176155,0.023518312722444534
1702139565782152200,7.760152099609375,1.6901113986968994,0.03848451003432274,0.021380282938480377
1702139565799144200,7.777144287109375,1.6998852491378784,0.04612032696604729,0.014355333521962166
1702139565816134100,7.794134033203125,1.7107281684875488,0.04596760869026184,0.011453723534941673
1702139565833125600,7.811125732421875,1.7232508659362793,0.05345070734620094,0.003817907767370343
1702139565850114000,7.828114013671875,1.733788251876831,0.05100724846124649,0.0006108652451075613
1702139565867108000,7.845108154296875,1.7440202236175537,0.04703662544488907,0.001527163083665073
1702139565884100600,7.8621005859375,1.7521142959594727,0.04932736977934837,0.0022907445672899485
1702139565901086700,7.879086669921875,1.757459282875061,0.04001167416572571,0.006719517521560192
1702139565918091000,7.896091064453125,1.764026165008545,0.04214970022439957,0.00809396430850029
1702139565935078400,7.913078369140625,1.7686076164245605,0.03756821155548096,0.009621127508580685
1702139565952065800,7.930065673828125,1.7705929279327393,0.04703662544488907,0.010231993161141872
1702139565969063000,7.94706298828125,1.7716618776321411,0.04138612002134323,0.01114829070866108
1702139565986050600,7.964050537109375,1.774105429649353,0.05054909735918045,0.008704829961061478
1702139566003035400,7.981035400390625,1.7774651050567627,0.048716504126787186,0.006261368747800589
1702139566020031000,7.998031005859375,1.7791450023651123,0.05207626149058342,0.007024950347840786
1702139566037012000,8.015011962890625,1.7829629182815552,0.05009094998240471,0.007024950347840786
1702139566054013000,8.032012939453125,1.7872389554977417,0.045204028487205505,0.0074830991216003895
1702139566071002600,8.049002685546874,1.792125940322876,0.04199698567390442,0.01191187184303999
1702139566087994000,8.065994140625,1.796249270439148,0.04184427112340927,0.009621127508580685
1702139566104985900,8.08298583984375,1.8011361360549927,0.04489859566092491,0.010995574295520782
1702139566121973500,8.099973388671875,1.8055649995803833,0.04459316283464432,0.01038470957428217
1702139566138965000,8.116965087890625,1.8099937438964844,0.04886921867728233,0.009010262787342072
1702139566155956500,8.13395654296875,1.814880609512329,0.051312681287527084,0.00733038317412138
1702139566172946200,8.1509462890625,1.8180876970291138,0.054367005825042725,0.0013744467869400978
1702139566189938000,8.16793798828125,1.8209892511367798,0.05115996301174164,0.0039706239476799965
1702139566206927000,8.184927001953126,1.8225164413452148,0.04153883829712868,0.006719517521560192
1702139566223911400,8.201911376953126,1.8220583200454712,0.0455094613134861,0.00855211354792118
1702139566240908800,8.21890869140625,1.8226691484451294,0.03878994286060333,0.012217304669320583
1702139566257891600,8.2358916015625,1.8219056129455566,0.043676864355802536,0.014966198243200779
1702139566274889500,8.252889404296875,1.82404363155365,0.04795292019844055,0.013439035043120384
1702139566291881200,8.269881103515624,1.8289304971694946,0.048105638474226,0.013286318629980087
1702139566308870700,8.28687060546875,1.8335120677947998,0.0529925599694252,0.008857546374201775
1702139566325862400,8.3038623046875,1.8399261236190796,0.04932736977934837,0.005345070734620094
1702139566342851800,8.320851806640626,1.8455766439437866,0.05161811411380768,0.00809396430850029
1702139566359843600,8.337843505859375,1.8515325784683228,0.04703662544488907,0.004428773187100887
1702139566376836000,8.354836181640625,1.856572151184082,0.050243668258190155,0.007788531947880983
1702139566393824500,8.371824462890626,1.8626807928085327,0.04703662544488907,0.009468411095440388
1702139566410814200,8.388814208984375,1.8684840202331543,0.05100724846124649,0.01160643994808197
1702139566427806000,8.405805908203124,1.8768835067749023,0.053297992795705795,0.01038470957428217
1702139566444795400,8.42279541015625,1.884519338607788,0.04948008432984352,0.008399397134780884
1702139566461787100,8.439787109375,1.892765998840332,0.04993823543190956,0.0074830991216003895
1702139566478776800,8.45677685546875,1.8991800546646118,0.04657847434282303,0.0065668015740811825
1702139566495768300,8.473768310546875,1.9033033847808838,0.04703662544488907,0.007177666760981083
1702139566512755700,8.490755615234375,1.9058995246887207,0.047800205647945404,0.0074830991216003895
1702139566529751800,8.507751708984374,1.9060522317886353,0.0503963828086853,0.007635815534740686
1702139566546739000,8.524739013671875,1.9065104722976685,0.04993823543190956,0.010842857882380486
1702139566563737600,8.541737548828126,1.9074267148971558,0.052228979766368866,0.01191187184303999
1702139566580720400,8.558720458984375,1.9101755619049072,0.04963280260562897,0.012064588256180286
1702139566597703400,8.575703369140625,1.9138407707214355,0.05161811411380768,0.013133603148162365
1702139566614701300,8.592701416015625,1.9196439981460571,0.04963280260562897,0.010995574295520782
1702139566631693000,8.609693115234375,1.9257526397705078,0.05604688450694084,0.00855211354792118
1702139566648682500,8.6266826171875,1.9300287961959839,0.04795292019844055,0.007788531947880983
1702139566665674200,8.64367431640625,1.9356791973114014,0.05054909735918045,0.010079276748001575
1702139566682663700,8.66066357421875,1.9396498203277588,0.04734205827116966,0.009162978269159794
1702139566699655400,8.677655517578126,1.942704200744629,0.05421429127454758,0.010995574295520782
1702139566716638000,8.694637939453125,1.9472856521606445,0.0455094613134861,0.01572977937757969
1702139566733636600,8.71163671875,1.9520199298858643,0.05726861581206322,0.013897184282541275
1702139566750628600,8.728628662109376,1.9575176239013672,0.05100724846124649,0.01191187184303999
1702139566767617800,8.74561767578125,1.9619464874267578,0.06001751124858856,0.013286318629980087
1702139566784610000,8.762610107421875,1.9665279388427734,0.05100724846124649,0.009926560334861279
1702139566801585400,8.77958544921875,1.9701931476593018,0.05803219974040985,0.011301007121801376
1702139566818592300,8.79659228515625,1.9734001159667969,0.04703662544488907,0.009468411095440388
1702139566835574300,8.81357421875,1.9756909608840942,0.052381694316864014,0.013744467869400978
1702139566852570000,8.830570068359375,1.977981686592102,0.045204028487205505,0.012522737495601177
1702139566869553200,8.84755322265625,1.979050636291504,0.05513058975338936,0.014355333521962166
1702139566886548200,8.86454833984375,1.9799669981002808,0.052228979766368866,0.015271631069481373
1702139566903545000,8.881545166015625,1.982105016708374,0.05513058975338936,0.016951510682702065
1702139566920532200,8.8985322265625,1.9831739664077759,0.05314527451992035,0.01572977937757969
1702139566937523700,8.915523681640625,1.9851592779159546,0.0555887371301651,0.01725694350898266
1702139566954513200,8.93251318359375,1.986533761024475,0.052839845418930054,0.01572977937757969
1702139566971505000,8.9495048828125,1.985922932624817,0.051312681287527084,0.014966198243200779
1702139566988494600,8.96649462890625,1.9856175184249878,0.05314527451992035,0.012217304669320583
1702139567005485600,8.983485595703126,1.986533761024475,0.05268712714314461,0.01191187184303999
1702139567022475800,9.000475830078125,1.9848538637161255,0.05421429127454758,0.010537425056099892
1702139567039467300,9.01746728515625,1.9822577238082886,0.05390885844826698,0.010231993161141872
1702139567056456700,9.034456787109375,1.9778289794921875,0.05100724846124649,0.012217304669320583
1702139567073446700,9.05144677734375,1.9737056493759155,0.05375614017248154,0.012828170321881771
1702139567090439700,9.068439697265624,1.969276785850525,0.049785517156124115,0.013591751456260681
1702139567107429600,9.0854296875,1.9643899202346802,0.05742133408784866,0.015271631069481373
1702139567124419000,9.102419189453125,1.9608774185180664,0.04795292019844055,0.01237002108246088
1702139567141410800,9.119410888671876,1.9558378458023071,0.05696318298578262,0.01466076634824276
1702139567158400500,9.136400390625,1.9514089822769165,0.05009094998240471,0.010231993161141872
1702139567175392000,9.15339208984375,1.948354721069336,0.056352317333221436,0.012217304669320583
1702139567192384500,9.170384521484374,1.9446895122528076,0.05009094998240471,0.006719517521560192
1702139567209357300,9.187357421875,1.9390389919281006,0.05406157299876213,0.009621127508580685
1702139567226362600,9.204362548828126,1.933235764503479,0.04764748737215996,0.009621127508580685
1702139567243356700,9.221356689453126,1.9263635873794556,0.050854530185461044,0.011453723534941673
1702139567260341500,9.238341552734376,1.9199494123458862,0.0507018156349659,0.012217304669320583
1702139567277335600,9.25533544921875,1.9142990112304688,0.052228979766368866,0.012828170321881771
1702139567294325200,9.2723251953125,1.9072740077972412,0.05360342562198639,0.013591751456260681
1702139567311316700,9.289316650390624,1.9011653661727905,0.04948008432984352,0.013286318629980087
1702139567328306200,9.30630615234375,1.895362138748169,0.05115996301174164,0.012675453908741474
1702139567345287400,9.323287353515624,1.8910861015319824,0.04459316283464432,0.012217304669320583
1702139567362287600,9.34028759765625,1.8863518238067627,0.05192354694008827,0.010079276748001575
1702139567379279000,9.357279052734375,1.8803958892822266,0.05009094998240471,0.009773843921720982
1702139567396268500,9.3742685546875,1.8733710050582886,0.05161811411380768,0.008704829961061478
1702139567413260300,9.39126025390625,1.867567777633667,0.04841107130050659,0.00931569468230009
1702139567430250200,9.408250244140625,1.8599319458007812,0.04795292019844055,0.009468411095440388
1702139567447241500,9.425241455078124,1.8527542352676392,0.04642575979232788,0.010690141469240189
1702139567464231200,9.442231201171875,1.845423936843872,0.04841107130050659,0.010995574295520782
1702139567481222700,9.45922265625,1.8390097618103027,0.04902193695306778,0.011301007121801376
1702139567498212600,9.476212646484376,1.8330538272857666,0.04993823543190956,0.011453723534941673
1702139567515216600,9.493216552734374,1.825570821762085,0.04963280260562897,0.010231993161141872
1702139567532193300,9.510193359375,1.8182404041290283,0.04886921867728233,0.009162978269159794
1702139567549185000,9.52718505859375,1.8107572793960571,0.047800205647945404,0.00733038317412138
1702139567566174500,9.544174560546875,1.8015943765640259,0.04657847434282303,0.0065668015740811825
1702139567583166200,9.561166259765624,1.79090416431427,0.04948008432984352,0.005803219974040985
1702139567600156000,9.578156005859375,1.7791450023651123,0.0455094613134861,0.006261368747800589
1702139567617147600,9.595147705078125,1.7661641836166382,0.0507018156349659,0.00809396430850029
1702139567634134300,9.61213427734375,1.7544050216674805,0.04459316283464432,0.007788531947880983
1702139567651128800,9.62912890625,1.7397441864013672,0.04749477282166481,0.009468411095440388
1702139567668121000,9.64612109375,1.7269160747528076,0.04199698567390442,0.009773843921720982
1702139567685110000,9.663110107421875,1.7133243083953857,0.04581489413976669,0.010537425056099892
1702139567702099500,9.680099365234375,1.7018705606460571,0.04245513305068016,0.008857546374201775
1702139567719086600,9.697086669921875,1.6898059844970703,0.044745877385139465,0.010690141469240189
1702139567736085200,9.714085205078124,1.6785049438476562,0.044287730008363724,0.008246680721640587
1702139567753072400,9.731072265625,1.6664403676986694,0.04382958263158798,0.007941247895359993
1702139567770061800,9.748061767578125,1.6531540155410767,0.044745877385139465,0.0064140851609408855
1702139567787053600,9.765053466796875,1.6394095420837402,0.04459316283464432,0.00733038317412138
1702139567804043000,9.78204296875,1.6256651878356934,0.04352414980530739,0.007941247895359993
1702139567821034800,9.79903466796875,1.6113097667694092,0.041233405470848083,0.007635815534740686
1702139567838024400,9.8160244140625,1.5966490507125854,0.04214970022439957,0.0074830991216003895
1702139567855013400,9.833013427734375,1.5824464559555054,0.038637228310108185,0.007177666760981083
1702139567871999500,9.84999951171875,1.5664112567901611,0.04153883829712868,0.008704829961061478
1702139567888990000,9.866989990234375,1.5512923002243042,0.038637228310108185,0.008399397134780884
1702139567905979100,9.883979248046876,1.5354098081588745,0.04001167416572571,0.00855211354792118
1702139567922969300,9.90096923828125,1.5195273160934448,0.03878994286060333,0.008246680721640587
1702139567939961900,9.9179619140625,1.5037975311279297,0.038637228310108185,0.008399397134780884
1702139567956949200,9.93494921875,1.4889839887619019,0.03741549700498581,0.007788531947880983
1702139567973948200,9.9519482421875,1.4732542037963867,0.040164388716220856,0.00809396430850029
1702139567990943500,9.968943603515624,1.458898901939392,0.03634648025035858,0.0064140851609408855
1702139568007930400,9.985930419921875,1.4425582885742188,0.038637228310108185,0.007635815534740686
1702139568024921900,10.002921875,1.4253013134002686,0.0354301854968071,0.0065668015740811825
1702139568041911600,10.01991162109375,1.4089607000350952,0.03726277872920036,0.0074830991216003895
1702139568058892000,10.03689208984375,1.3936890363693237,0.035124752670526505,0.008246680721640587
1702139568075881000,10.053880859375,1.378722906112671,0.03955352306365967,0.00809396430850029
1702139568092884200,10.07088427734375,1.3643674850463867,0.037110064178705215,0.009162978269159794
1702139568109874000,10.0878740234375,1.3516920804977417,0.035582900047302246,0.008246680721640587
1702139568126865700,10.10486572265625,1.338405728340149,0.035582900047302246,0.006719517521560192
1702139568143855000,10.121855224609375,1.3232868909835815,0.02932153269648552,0.005192354787141085
1702139568160846800,10.138846923828124,1.3084733486175537,0.032528575509786606,0.00427605677396059
1702139568177827000,10.1558271484375,1.292285442352295,0.034666601568460464,0.005955935921519995
1702139568194828300,10.172828369140625,1.2764029502868652,0.034666601568460464,0.005650503560900688
1702139568211817500,10.1898173828125,1.2618948221206665,0.03588833287358284,0.008857546374201775
1702139568228809200,10.206809326171875,1.2463178634643555,0.031612277030944824,0.007177666760981083
1702139568245800700,10.22380078125,1.2330315113067627,0.03176499158143997,0.009468411095440388
1702139568262798300,10.24079833984375,1.2211196422576904,0.028405234217643738,0.007635815534740686
1702139568279769300,10.257769287109374,1.2081387042999268,0.031001411378383636,0.005650503560900688
1702139568296771600,10.274771484375,1.1948524713516235,0.02779436856508255,0.0022907445672899485
1702139568313756700,10.291756591796876,1.1801916360855103,0.03176499158143997,0.004734205547720194
1702139568330757600,10.308757568359376,1.1632401943206787,0.03191770985722542,0.0039706239476799965
1702139568347737600,10.325737548828124,1.1478158235549927,0.03390302136540413,0.005955935921519995
1702139568364734200,10.342734130859375,1.131933331489563,0.030237829312682152,0.005345070734620094
1702139568381713200,10.359713134765625,1.1148290634155273,0.04459316283464432,-0.004581489134579897
1702139568398712800,10.376712890625,1.1018482446670532,0.025045474991202354,0.002138028386980295
1702139568415707400,10.393707275390625,1.0911580324172974,0.041233405470848083,0.01038470957428217
1702139568432693800,10.41069384765625,1.0832167863845825,0.02275473065674305,0.004581489134579897
1702139568449675800,10.42767578125,1.0781772136688232,0.03848451003432274,0.009926560334861279
1702139568466670000,10.444670166015625,1.0749701261520386,0.028099801391363144,0.0006108652451075613
1702139568483656000,10.461656005859375,1.070694088935852,0.03344487398862839,-0.0007635815418325365
1702139568500651800,10.47865185546875,1.0680978298187256,0.033597588539123535,-0.0019853119738399982
1702139568517638100,10.49563818359375,1.0668761730194092,0.029474247246980667,0.0010690141934901476
1702139568534640000,10.51264013671875,1.0668761730194092,0.03375030308961868,0.010231993161141872
1702139568551619000,10.529619140625,1.0693196058273315,0.009468411095440388,0.012675453908741474
1702139568568621300,10.546621337890626,1.073595643043518,0.032681290060281754,0.020311269909143448
1702139568585611000,10.563611083984375,1.0824532508850098,0.017409659922122955,0.010690141469240189
1702139568602602500,10.5806025390625,1.0934487581253052,0.024129176512360573,0.01572977937757969
1702139568619585300,10.597585205078126,1.1073459386825562,0.038637228310108185,0.0024434609804302454
1702139568636576500,10.614576416015625,1.1226176023483276,0.03329215571284294,-0.0019853119738399982
1702139568653570800,10.63157080078125,1.1343767642974854,0.037110064178705215,0.001679879380390048
1702139568670567700,10.648567626953126,1.147204875946045,0.036041051149368286,-0.003817907767370343
1702139568687554600,10.665554443359374,1.1580477952957153,0.027641652151942253,0.010231993161141872
1702139568704543500,10.68254345703125,1.1699596643447876,0.02382374368607998,0.0065668015740811825
1702139568721538600,10.69953857421875,1.1791226863861084,0.030237829312682152,0.00733038317412138
1702139568738527700,10.71652783203125,1.1887437105178833,0.012980886735022068,0.01114829070866108
1702139568755517000,10.733516845703125,1.197295904159546,0.029474247246980667,0.0074830991216003895
1702139568772507400,10.75050732421875,1.2049317359924316,0.02626720629632473,0.005192354787141085
1702139568789498400,10.767498291015626,1.2122620344161987,0.032528575509786606,0.008857546374201775
1702139568806489900,10.78448974609375,1.21974515914917,0.025961773470044136,0.00733038317412138
1702139568823479600,10.8014794921875,1.2258538007736206,0.036651913076639175,0.007177666760981083
1702139568840462000,10.818462158203126,1.2331842184066772,0.021380282938480377,0.011453723534941673
1702139568857460700,10.835460693359375,1.242347240447998,0.03420845419168472,0.012980886735022068
1702139568874452500,10.852452392578124,1.2527319192886353,0.031612277030944824,0.005955935921519995
1702139568891442000,10.86944189453125,1.2625057697296143,0.03940080851316452,0.005650503560900688
1702139568908433700,10.88643359375,1.272737741470337,0.025503624230623245,0.005650503560900688
1702139568925411600,10.90341162109375,1.2832751274108887,0.03680463135242462,0.005345070734620094
1702139568942406400,10.920406494140625,1.2945761680603027,0.012064588256180286,0.0039706239476799965
1702139568959395000,10.93739501953125,1.3041973114013672,0.03833179548382759,0.003359758760780096
1702139568976390700,10.954390625,1.315040111541748,0.01878410577774048,0.0032070425804704428
1702139568993378300,10.97137841796875,1.3240504264831543,0.03436116874217987,0.011301007121801376
1702139569010367000,10.988366943359376,1.3315335512161255,0.023518312722444534,0.0032070425804704428
1702139569027357200,11.005357177734375,1.339932918548584,0.030237829312682152,0.011759156361222267
1702139569044354000,11.02235400390625,1.3489432334899902,0.01710422709584236,0.00931569468230009
1702139569061341200,11.039341064453126,1.3588697910308838,0.027641652151942253,0.010842857882380486
1702139569078331400,11.056331298828125,1.3700180053710938,0.021991148591041565,0.009773843921720982
1702139569095321600,11.073321533203124,1.3823879957199097,0.028405234217643738,0.007788531947880983
1702139569112310300,11.090310302734375,1.394299864768982,0.04108068719506264,0.01160643994808197
1702139569129302800,11.107302734375,1.4057536125183105,0.009010262787342072,0.007788531947880983
1702139569146294500,11.12429443359375,1.4176654815673828,0.029168816283345222,0.014355333521962166
1702139569163280600,11.14128076171875,1.4350751638412476,-0.00015271631127689034,0.010690141469240189
1702139569180274400,11.1582744140625,1.4489723443984985,0.026572637259960175,0.006872233934700489
1702139569197263600,11.175263671875,1.463022232055664,0.02321287989616394,0.005650503560900688
1702139569214256400,11.19225634765625,1.4731014966964722,0.02825251780450344,-0.0019853119738399982
1702139569231257000,11.209257080078125,1.4828753471374512,0.02580905705690384,0.021380282938480377
1702139569248245800,11.226245849609375,1.4924964904785156,0.03084869496524334,0.019547687843441963
1702139569265235500,11.2432353515625,1.5051720142364502,0.028405234217643738,0.01237002108246088
1702139569282227200,11.260227294921876,1.520138144493103,-0.004886921960860491,0.008704829961061478
1702139569299212500,11.277212646484376,1.5323554277420044,0.08292495459318161,0.010537425056099892
1702139569316212500,11.29421240234375,1.5483906269073486,0.020616702735424042,-0.0065668015740811825
1702139569333197800,11.31119775390625,1.5541938543319702,0.08704829961061478,0.022907447069883347
1702139569350189800,11.32818994140625,1.5693128108978271,-0.01970040425658226,-0.012522737495601177
1702139569367179300,11.34517919921875,1.5789339542388916,0.09758572280406952,0.01817324012517929
1702139569384170800,11.362170654296875,1.5894713401794434,-0.03940080851316452,-0.0025961773935705423
1702139569401156400,11.37915625,1.5937473773956299,0.09560041129589081,0.01038470957428217
1702139569418152200,11.396152099609376,1.5998560190200806,0.0012217304902151227,0.006108652334660292
1702139569435141600,11.4131416015625,1.6041321754455566,0.0529925599694252,0.021991148591041565
1702139569452133000,11.430133056640624,1.6140587329864502,0.03237585723400116,0.0025961773935705423
1702139569469122800,11.447122802734375,1.6227635145187378,0.028099801391363144,-0.0003054326225537807
1702139569486114600,11.464114501953125,1.6255123615264893,0.043676864355802536,-0.005192354787141085
1702139569503101400,11.481101318359375,1.6226108074188232,0.021074850112199783,0.004123340360820293
1702139569520098600,11.4980986328125,1.6165021657943726,0.04795292019844055,0.019089538604021072
1702139569537085400,11.51508544921875,1.616654872894287,0.02321287989616394,0.022602014243602753
1702139569554077000,11.532076904296876,1.6186401844024658,0.04337143152952194,0.022143865004181862
1702139569571074000,11.549073974609374,1.6209309101104736,0.044745877385139465,0.018936822190880775
1702139569588059000,11.566058837890624,1.6278032064437866,0.033597588539123535,0.03191770985722542
1702139569605047300,11.58304736328125,1.6352862119674683,0.04948008432984352,0.009926560334861279
1702139569622039600,11.60003955078125,1.6438384056091309,0.04092797264456749,0.00855211354792118
1702139569639029200,11.617029296875,1.6520850658416748,0.04046982154250145,0.01160643994808197
1702139569656020700,11.634020751953125,1.6607898473739624,0.034666601568460464,0.003359758760780096
1702139569673010200,11.65101025390625,1.6662876605987549,0.04489859566092491,0.005192354787141085
1702139569690002200,11.668002197265626,1.6714800596237183,0.03145955875515938,0.01191187184303999
1702139569706991400,11.684991455078125,1.6760615110397339,0.0529925599694252,0.00931569468230009
1702139569723983400,11.7019833984375,1.681712031364441,0.04138612002134323,0.01114829070866108
1702139569740971500,11.718971435546875,1.6870571374893188,0.056352317333221436,0.008246680721640587
1702139569757965800,11.7359658203125,1.6925548315048218,0.0403171069920063,0.0074830991216003895
1702139569774951400,11.752951416015625,1.6991217136383057,0.05513058975338936,0.00855211354792118
1702139569791948300,11.7699482421875,1.7052303552627563,0.034666601568460464,0.004428773187100887
1702139569808935200,11.78693505859375,1.7102699279785156,0.04856378585100174,0.01237002108246088
1702139569825927000,11.803927001953125,1.715462327003479,0.030085112899541855,0.007635815534740686
1702139569842916600,11.82091650390625,1.7200437784194946,0.0503963828086853,0.01191187184303999
1702139569859908400,11.837908447265624,1.7250834703445435,0.0354301854968071,0.009468411095440388
1702139569876880000,11.8548798828125,1.7275269031524658,0.05497787147760391,0.013744467869400978
1702139569893887000,11.871886962890626,1.7327193021774292,0.03848451003432274,0.004734205547720194
1702139569910881500,11.888881591796874,1.7353154420852661,0.055283304303884506,0.016798794269561768
1702139569927870700,11.90587060546875,1.7392860651016235,0.030085112899541855,0.0024434609804302454
1702139569944860200,11.922860107421876,1.7405078411102295,0.04764748737215996,0.015118914656341076
1702139569961852200,11.93985205078125,1.7427985668182373,0.032070424407720566,0.004581489134579897
1702139569978841600,11.956841552734375,1.7415767908096313,0.05345070734620094,0.008246680721640587
1702139569995833000,11.9738330078125,1.7402023077011108,0.04489859566092491,0.005497787147760391
1702139570012822800,11.99082275390625,1.7369953393936157,0.050854530185461044,0.010079276748001575
1702139570029814300,12.007814208984374,1.733788251876831,0.04108068719506264,0.012522737495601177
1702139570046804000,12.024803955078125,1.7340936660766602,0.04535674303770065,0.007941247895359993
1702139570063795700,12.041795654296875,1.7343991994857788,0.054825156927108765,0.009926560334861279
1702139570080785400,12.058785400390626,1.7353154420852661,0.048258353024721146,0.004886921960860491
1702139570097766400,12.075766357421875,1.7360789775848389,0.057879481464624405,0.007177666760981083
1702139570114766600,12.0927666015625,1.7359262704849243,0.037110064178705215,0.0065668015740811825
1702139570131758000,12.109758056640626,1.737606167793274,0.04581489413976669,0.009162978269159794
1702139570148747800,12.126747802734375,1.7386752367019653,0.05543602257966995,0.005497787147760391
1702139570165738500,12.143738525390624,1.740660548210144,0.038179077208042145,0.011453723534941673
1702139570182729000,12.16072900390625,1.7398968935012817,0.05726861581206322,0.010995574295520782
1702139570199710200,12.177710205078125,1.7415767908096313,0.03176499158143997,0.006872233934700489
1702139570216710100,12.194710205078126,1.7397441864013672,0.05849034711718559,0.014355333521962166
1702139570233699000,12.211698974609375,1.7395914793014526,0.025503624230623245,0.0064140851609408855
1702139570250691600,12.228691650390624,1.7362316846847534,0.057879481464624405,0.013897184282541275
1702139570267683000,12.24568310546875,1.7330247163772583,0.02871066704392433,0.006872233934700489
1702139570284670000,12.262669921875,1.727832317352295,0.0503963828086853,0.017409659922122955
1702139570301656800,12.27965673828125,1.7238616943359375,0.027641652151942253,0.013439035043120384
1702139570318654200,12.296654296875,1.71989107131958,0.05696318298578262,0.014202617108821869
1702139570335645700,12.313645751953125,1.7176003456115723,0.030695978552103043,0.01710422709584236
1702139570352633600,12.330633544921875,1.7127134799957275,0.04948008432984352,0.008246680721640587
1702139570369628700,12.347628662109376,1.7078264951705933,0.04581489413976669,0.01191187184303999
1702139570386616600,12.364616455078124,1.7024813890457153,0.03436116874217987,0.007024950347840786
1702139570403592200,12.38159228515625,1.6951510906219482,0.058184914290905,0.00809396430850029
1702139570420598000,12.398597900390625,1.688889741897583,0.04260785132646561,0.005650503560900688
1702139570437587000,12.4155869140625,1.6849191188812256,0.05390885844826698,0.01542434748262167
1702139570454581800,12.432581787109376,1.6827809810638428,0.0507018156349659,0.003817907767370343
1702139570471570700,12.44957080078125,1.6818647384643555,0.056810468435287476,0.01237002108246088
1702139570488560400,12.466560302734376,1.6836973428726196,0.050243668258190155,0.006261368747800589
1702139570505552000,12.4835517578125,1.686140775680542,0.04856378585100174,0.006872233934700489
1702139570522538800,12.500538818359376,1.690569519996643,0.048105638474226,0.007635815534740686
1702139570539536100,12.5175361328125,1.6957619190216064,0.04230241850018501,0.009926560334861279
1702139570556522800,12.534522705078125,1.7017178535461426,0.04734205827116966,0.014049900695681572
1702139570573522200,12.551522216796876,1.7099645137786865,0.036041051149368286,0.011759156361222267
1702139570590506000,12.568506103515626,1.7185167074203491,0.052381694316864014,0.009010262787342072
1702139570607495700,12.58549560546875,1.7270687818527222,0.05009094998240471,0.013591751456260681
1702139570624485400,12.6024853515625,1.7377588748931885,0.043218716979026794,0.015577063895761967
1702139570641476900,12.619476806640625,1.7487545013427734,0.05146539583802223,0.016798794269561768
1702139570658456300,12.636456298828126,1.7594445943832397,0.04596760869026184,0.009926560334861279
1702139570675458300,12.653458251953126,1.7704402208328247,0.05100724846124649,0.01542434748262167
1702139570692449500,12.670449462890625,1.7789922952651978,0.04795292019844055,0.0022907445672899485
1702139570709437700,12.687437744140626,1.7866281270980835,0.05696318298578262,0.007635815534740686
1702139570726429000,12.704428955078125,1.7944166660308838,0.03436116874217987,0.0074830991216003895
1702139570743420700,12.721420654296875,1.80037260055542,0.055894169956445694,0.012522737495601177
1702139570760408000,12.738407958984375,1.8061758279800415,0.04902193695306778,0.009010262787342072
1702139570777404700,12.75540478515625,1.8125898838043213,0.05115996301174164,0.01970040425658226
1702139570794391600,12.7723916015625,1.818698525428772,0.04932736977934837,0.014202617108821869
1702139570811380700,12.789380615234375,1.8251125812530518,0.050243668258190155,0.016951510682702065
1702139570828364500,12.806364501953125,1.8303049802780151,0.04886921867728233,0.016493361443281174
1702139570845354500,12.8233544921875,1.8350391387939453,0.046731192618608475,0.011759156361222267
1702139570862354200,12.840354248046875,1.8379408121109009,0.04963280260562897,0.012828170321881771
1702139570879341800,12.857341796875,1.8402315378189087,0.03985895588994026,0.009010262787342072
1702139570896338700,12.874338623046874,1.8403842449188232,0.050854530185461044,0.01191187184303999
1702139570913327900,12.891327880859375,1.838551640510559,0.043676864355802536,0.011453723534941673
1702139570930316800,12.90831689453125,1.8368717432022095,0.04948008432984352,0.01618792861700058
1702139570947308300,12.925308349609375,1.8327484130859375,0.04948008432984352,0.01191187184303999
1702139570964295400,12.94229541015625,1.825876235961914,0.04948008432984352,0.012675453908741474
1702139570981281500,12.959281494140624,1.8170186281204224,0.04902193695306778,0.011453723534941673
1702139570998279200,12.976279052734375,1.8081611394882202,0.04734205827116966,0.007024950347840786
1702139571015271000,12.99327099609375,1.7971655130386353,0.05161811411380768,0.00733038317412138
1702139571032258000,13.010258056640625,1.7870862483978271,0.04764748737215996,0.009010262787342072
1702139571049254700,13.027254638671875,1.7763961553573608,0.05146539583802223,0.012828170321881771
1702139571066241800,13.04424169921875,1.7692184448242188,0.04841107130050659,0.015577063895761967
1702139571083233300,13.0612333984375,1.7644842863082886,0.052839845418930054,0.01572977937757969
1702139571100223200,13.07822314453125,1.7606663703918457,0.05345070734620094,0.014355333521962166
1702139571117214700,13.095214599609376,1.7600555419921875,0.05192354694008827,0.01038470957428217
1702139571134204200,13.1122041015625,1.758986473083496,0.04886921867728233,0.00931569468230009
1702139571151193600,13.129193603515626,1.7595973014831543,0.04566217586398125,0.009773843921720982
1702139571168188000,13.14618798828125,1.7600555419921875,0.04352414980530739,0.009010262787342072
1702139571185174500,13.163174560546874,1.761277198791504,0.04657847434282303,0.009773843921720982
1702139571202169600,13.180169677734375,1.7624989748001099,0.04642575979232788,0.009010262787342072
1702139571219158500,13.197158447265625,1.7635679244995117,0.05054909735918045,0.009010262787342072
1702139571236148000,13.21414794921875,1.7652478218078613,0.046731192618608475,0.009926560334861279
1702139571253139700,13.2311396484375,1.7679967880249023,0.0507018156349659,0.009468411095440388
1702139571270129400,13.24812939453125,1.7704402208328247,0.04917465150356293,0.009468411095440388
1702139571287121000,13.265120849609374,1.7721201181411743,0.04749477282166481,0.00931569468230009
1702139571304110600,13.282110595703125,1.7722728252410889,0.044745877385139465,0.008704829961061478
1702139571321102300,13.299102294921875,1.7721201181411743,0.04581489413976669,0.00931569468230009
1702139571338081800,13.316081787109376,1.7704402208328247,0.04703662544488907,0.0065668015740811825
1702139571355083500,13.33308349609375,1.768149495124817,0.048716504126787186,0.008857546374201775
1702139571372073200,13.3500732421875,1.7637206315994263,0.047189339995384216,0.006872233934700489
1702139571389062700,13.367062744140625,1.7595973014831543,0.05100724846124649,0.008399397134780884
1702139571406056700,13.384056640625,1.7536413669586182,0.04612032696604729,0.010231993161141872
1702139571423046100,13.401046142578124,1.7498234510421753,0.04444044828414917,0.012522737495601177
1702139571440029700,13.41802978515625,1.7469218969345093,0.044287730008363724,0.011301007121801376
1702139571457016800,13.435016845703124,1.747380018234253,0.046273041516542435,0.011301007121801376
1702139571474016800,13.452016845703126,1.7466164827346802,0.04734205827116966,0.010842857882380486
1702139571491008800,13.4690087890625,1.747685432434082,0.04948008432984352,0.008704829961061478
1702139571507998200,13.485998291015624,1.7466164827346802,0.04581489413976669,0.007788531947880983
1702139571524977200,13.50297705078125,1.7455474138259888,0.044287730008363724,0.007177666760981083
1702139571541980000,13.51997998046875,1.74356210231781,0.04596760869026184,0.007024950347840786
1702139571558971400,13.536971435546874,1.7434093952178955,0.04749477282166481,0.00855211354792118
1702139571575963400,13.55396337890625,1.7429512739181519,0.049785517156124115,0.01038470957428217
1702139571592952300,13.570952392578125,1.7452419996261597,0.04932736977934837,0.010995574295520782
1702139571609941800,13.587941650390626,1.7472273111343384,0.044745877385139465,0.009010262787342072
1702139571626933800,13.604933837890625,1.7516560554504395,0.049785517156124115,0.005192354787141085
1702139571643922400,13.62192236328125,1.7548631429672241,0.049785517156124115,0.006872233934700489
1702139571660915700,13.638915771484376,1.7594445943832397,0.044135015457868576,0.006872233934700489
1702139571677894100,13.65589404296875,1.7629570960998535,0.048258353024721146,0.007941247895359993
1702139571694896400,13.672896484375,1.7667750120162964,0.044287730008363724,0.009926560334861279
1702139571711886000,13.689885986328125,1.7692184448242188,0.04703662544488907,0.011453723534941673
1702139571728877600,13.706877685546875,1.7708983421325684,0.04108068719506264,0.008857546374201775
1702139571745867300,13.7238671875,1.7693711519241333,0.039248090237379074,0.003054326167330146
1702139571762859000,13.74085888671875,1.7661641836166382,0.04230241850018501,0.007024950347840786
1702139571779848400,13.757848388671874,1.7608190774917603,0.0429132841527462,0.004123340360820293
1702139571796835800,13.7748359375,1.7536413669586182,0.05451972410082817,0.007941247895359993
1702139571813827300,13.791827392578124,1.7460055351257324,0.04749477282166481,0.009773843921720982
1702139571830823700,13.80882373046875,1.7402023077011108,0.0455094613134861,0.009621127508580685
1702139571847811000,13.82581103515625,1.736537218093872,0.04352414980530739,0.011759156361222267
1702139571864802600,13.842802490234375,1.7325665950775146,0.042760565876960754,0.007024950347840786
1702139571881792300,13.859792236328126,1.7290540933609009,0.04917465150356293,0.008857546374201775
1702139571898771700,13.876771728515624,1.725236177444458,0.04306599870324135,0.007941247895359993
1702139571915766300,13.893766357421875,1.7220290899276733,0.04734205827116966,0.0064140851609408855
1702139571932758500,13.910758544921874,1.7191275358200073,0.04245513305068016,0.005345070734620094
1702139571949748700,13.927748779296875,1.7137824296951294,0.04642575979232788,0.007635815534740686
1702139571966736600,13.944736572265626,1.7096590995788574,0.044135015457868576,0.00733038317412138
1702139571983727900,13.961727783203125,1.7047722339630127,0.046273041516542435,0.008857546374201775
1702139572000718600,13.978718505859375,1.6998852491378784,0.044287730008363724,0.006108652334660292
1702139572017706500,13.99570654296875,1.693013072013855,0.04596760869026184,0.006719517521560192
1702139572034701300,14.012701416015625,1.6865988969802856,0.04214970022439957,0.0064140851609408855
1702139572051689200,14.029689208984376,1.679115891456604,0.04214970022439957,0.007177666760981083
1702139572068683500,14.04668359375,1.672243595123291,0.041691552847623825,0.010079276748001575
1702139572085674000,14.063674072265625,1.666898488998413,0.04459316283464432,0.010079276748001575
1702139572102663400,14.080663330078124,1.6653714179992676,0.04886921867728233,0.009621127508580685
1702139572119651800,14.09765185546875,1.6670511960983276,0.04932736977934837,0.006108652334660292
1702139572136642000,14.11464208984375,1.671021819114685,0.05100724846124649,0.007635815534740686
1702139572153637400,14.131637451171875,1.6743816137313843,0.04260785132646561,0.004581489134579897
1702139572170628600,14.148628662109376,1.6751452684402466,0.03878994286060333,0.005192354787141085
1702139572187614700,14.16561474609375,1.6740761995315552,0.03573561832308769,0.004428773187100887
1702139572204609300,14.182609375,1.6716327667236328,0.04138612002134323,0.008246680721640587
1702139572221605400,14.19960546875,1.6711746454238892,0.04948008432984352,0.01114829070866108
1702139572238596900,14.216596923828124,1.6717854738235474,0.050243668258190155,0.012064588256180286
1702139572255583700,14.233583740234375,1.6752979755401611,0.04886921867728233,0.011453723534941673
1702139572272583700,14.250583740234376,1.6797267198562622,0.04092797264456749,0.00809396430850029
1702139572289564700,14.267564697265625,1.6836973428726196,0.040622539818286896,0.005803219974040985
1702139572306559200,14.284559326171875,1.6882787942886353,0.03955352306365967,0.004123340360820293
1702139572323549000,14.301548828125,1.6882787942886353,0.04245513305068016,0.007024950347840786
1702139572340538000,14.3185380859375,1.6881260871887207,0.04764748737215996,0.010995574295520782
1702139572357533000,14.335532958984375,1.688889741897583,0.048716504126787186,0.013286318629980087
1702139572374521900,14.35252197265625,1.6922494173049927,0.05161811411380768,0.013744467869400978
1702139572391511600,14.369511474609375,1.697136402130127,0.04245513305068016,0.010842857882380486
1702139572408503300,14.38650341796875,1.7040085792541504,0.03955352306365967,0.009926560334861279
1702139572425493000,14.403492919921876,1.7073683738708496,0.03130684420466423,0.008704829961061478
1702139572442484500,14.420484375,1.7111862897872925,0.04046982154250145,0.00855211354792118
1702139572459474200,14.43747412109375,1.7105754613876343,0.04306599870324135,0.004581489134579897
1702139572476466000,14.4544658203125,1.7018705606460571,0.044745877385139465,0.003512475173920393
1702139572493451800,14.47145166015625,1.690264105796814,0.047189339995384216,0.003359758760780096
1702139572510450700,14.48845068359375,1.679421305656433,0.04398229718208313,0.006872233934700489
1702139572527436500,14.5054365234375,1.6688838005065918,0.04993823543190956,0.012675453908741474
1702139572544428500,14.522428466796875,1.6630805730819702,0.043218716979026794,0.01038470957428217
1702139572561418200,14.539418212890626,1.654223084449768,0.04566217586398125,0.010690141469240189
1702139572578409700,14.55640966796875,1.6475036144256592,0.039095375686883926,0.004581489134579897
1702139572595399400,14.5733994140625,1.6439911127090454,0.04489859566092491,0.00427605677396059
1702139572612392200,14.59039208984375,1.6430747509002686,0.049785517156124115,0.005497787147760391
1702139572629379800,14.6073798828125,1.6436856985092163,0.04596760869026184,0.011453723534941673
1702139572646364200,14.6243642578125,1.6430747509002686,0.038179077208042145,0.014966198243200779
1702139572663362000,14.641362060546875,1.6449073553085327,0.0377209298312664,0.012828170321881771
1702139572680350700,14.658350830078126,1.648572564125061,0.04199698567390442,0.010231993161141872
1702139572697327600,14.67532763671875,1.6528486013412476,0.04153883829712868,0.0074830991216003895
1702139572714335000,14.6923349609375,1.6575828790664673,0.047189339995384216,0.008857546374201775
1702139572731324400,14.709324462890624,1.6647604703903198,0.04535674303770065,0.009010262787342072
1702139572748312600,14.7263125,1.6723963022232056,0.04749477282166481,0.01466076634824276
1702139572765305900,14.743305908203125,1.6803375482559204,0.04214970022439957,0.00733038317412138
1702139572782297300,14.76029736328125,1.6890424489974976,0.048105638474226,0.01664607785642147
1702139572799276500,14.777276611328125,1.7008016109466553,0.03481931984424591,0.01160643994808197
1702139572816278800,14.79427880859375,1.710117220878601,0.04184427112340927,0.015882495790719986
1702139572833268500,14.8112685546875,1.7197383642196655,0.03436116874217987,0.016493361443281174
1702139572850263800,14.828263916015626,1.7307339906692505,0.038026362657547,0.02321287989616394
1702139572867254000,14.84525390625,1.7380642890930176,0.04214970022439957,0.02321287989616394
1702139572884237000,14.862237060546875,1.7475327253341675,0.041691552847623825,0.019853120669722557
1702139572901233700,14.879233642578125,1.7562376260757446,0.04642575979232788,0.02015855349600315
1702139572918218000,14.896218017578125,1.7660114765167236,0.05314527451992035,0.006719517521560192
1702139572935212300,14.91321240234375,1.7747162580490112,0.059864792972803116,-0.0003054326225537807
1702139572952201200,14.930201171875,1.7771596908569336,0.0507018156349659,-0.014508049935102463
1702139572969196000,14.947196044921874,1.7730363607406616,0.04993823543190956,-0.013133603148162365
1702139572986185200,14.964185302734375,1.7624989748001099,0.04092797264456749,-0.013897184282541275
1702139573003175000,14.9811748046875,1.7467691898345947,0.036193765699863434,-0.005955935921519995
1702139573020166700,14.998166748046875,1.7229454517364502,0.045204028487205505,0.0013744467869400978
1702139573037156400,15.01515625,1.6972891092300415,0.02886338345706463,0.020922135561704636
1702139573054147800,15.03214794921875,1.6704109907150269,0.03481931984424591,0.027030786499381065
1702139573071137300,15.04913720703125,1.6473509073257446,0.02580905705690384,0.036041051149368286
1702139573088129300,15.06612939453125,1.627497673034668,0.035124752670526505,0.03329215571284294
1702139573105118700,15.08311865234375,1.6117680072784424,0.035124752670526505,0.03145955875515938
1702139573122110500,15.1001103515625,1.5987870693206787,0.041233405470848083,0.007177666760981083
1702139573139099600,15.117099609375,1.5850425958633423,0.05192354694008827,0.004428773187100887
1702139573156092200,15.134092041015625,1.5673274993896484,0.04642575979232788,-0.009621127508580685
1702139573173071000,15.151071044921874,1.5480852127075195,0.047800205647945404,-0.01160643994808197
1702139573190073000,15.168072998046876,1.5225815773010254,0.04077525436878204,-0.005803219974040985
1702139573207062800,15.185062744140625,1.4917329549789429,0.02474004216492176,0.0003054326225537807
1702139573224054300,15.20205419921875,1.4587461948394775,0.03741549700498581,0.010537425056099892
1702139573241044000,15.2190439453125,1.4253013134002686,0.02932153269648552,0.008857546374201775
1702139573258035700,15.23603564453125,1.3918564319610596,0.05390885844826698,0.015271631069481373
1702139573275025400,15.253025390625,1.3657419681549072,0.047189339995384216,0.014355333521962166
1702139573292014300,15.270014404296875,1.3486377000808716,0.058337632566690445,0.015882495790719986
1702139573309009200,15.287009033203125,1.339932918548584,0.030237829312682152,0.016951510682702065
1702139573325998000,15.303998046875,1.3377948999404907,0.020463986322283745,0.024129176512360573
1702139573342978300,15.320978271484375,1.3432927131652832,0.005345070734620094,0.02977968007326126
1702139573359979800,15.337979736328125,1.3544409275054932,0.017867809161543846,0.020463986322283745
1702139573376956000,15.354955810546874,1.3747522830963135,0.00809396430850029,0.022907447069883347
1702139573393953300,15.371953369140625,1.3947581052780151,0.05955936014652252,0.0065668015740811825
1702139573410950400,15.388950439453126,1.420719861984253,0.032681290060281754,0.005955935921519995
1702139573427929900,15.405929931640625,1.4442381858825684,0.06062837690114975,0.00733038317412138
1702139573444931600,15.422931640625,1.4685200452804565,0.038637228310108185,0.0027488935738801956
1702139573461923600,15.439923583984376,1.4906638860702515,0.04108068719506264,0.01191187184303999
1702139573478913300,15.456913330078125,1.5140295028686523,0.02122756652534008,0.011759156361222267
1702139573495904800,15.47390478515625,1.536784291267395,0.035124752670526505,0.007941247895359993
1702139573512894500,15.49089453125,1.5569428205490112,0.039095375686883926,0.006872233934700489
1702139573529884200,15.50788427734375,1.5754214525222778,0.04764748737215996,0.0039706239476799965
1702139573546875600,15.524875732421876,1.591456651687622,0.052228979766368866,0.004123340360820293
1702139573563867400,15.541867431640625,1.6058119535446167,0.04077525436878204,0.007177666760981083
1702139573580857000,15.558857177734374,1.6187928915023804,0.046273041516542435,0.010690141469240189
1702139573597838300,15.57583837890625,1.634369969367981,0.0377209298312664,0.009926560334861279
1702139573614838300,15.59283837890625,1.649488925933838,0.036651913076639175,0.011759156361222267
1702139573631827200,15.6098271484375,1.6627751588821411,0.0429132841527462,0.0074830991216003895
1702139573648822300,15.626822265625,1.6752979755401611,0.0455094613134861,0.00366519158706069
1702139573665811200,15.643811279296875,1.6844608783721924,0.05054909735918045,0.005039638374000788
1702139573682801000,15.66080078125,1.6916385889053345,0.047189339995384216,0.006872233934700489
1702139573699801000,15.677801025390625,1.700343370437622,0.0555887371301651,0.009926560334861279
1702139573716776400,15.6947763671875,1.711338996887207,0.04214970022439957,0.014813481830060482
1702139573733769000,15.71176904296875,1.722640037536621,0.04153883829712868,0.012980886735022068
1702139573750763500,15.728763427734375,1.7351627349853516,0.04566217586398125,0.00733038317412138
1702139573767755300,15.74575537109375,1.7472273111343384,0.0507018156349659,0.00733038317412138
1702139573784745000,15.762744873046875,1.7606663703918457,0.044287730008363724,0.008246680721640587
1702139573801736400,15.779736328125,1.7707456350326538,0.04505131021142006,0.00855211354792118
1702139573818726400,15.796726318359376,1.7820466756820679,0.04382958263158798,0.007635815534740686
1702139573835707400,15.813707275390625,1.790598750114441,0.0403171069920063,0.012522737495601177
1702139573852704800,15.830704833984376,1.799456238746643,0.042760565876960754,0.01038470957428217
1702139573869699000,15.847698974609376,1.8057177066802979,0.04337143152952194,0.00809396430850029
1702139573886678500,15.864678466796875,1.8125898838043213,0.05421429127454758,0.011453723534941673
1702139573903674400,15.88167431640625,1.8188512325286865,0.05757404863834381,0.008399397134780884
1702139573920661800,15.898661865234375,1.8270978927612305,0.04932736977934837,0.010690141469240189
1702139573937654800,15.91565478515625,1.8342756032943726,0.05146539583802223,0.010690141469240189
1702139573954649300,15.9326494140625,1.8428276777267456,0.03894266113638878,0.00931569468230009
1702139573971643100,15.94964306640625,1.8507689237594604,0.046273041516542435,0.010537425056099892
1702139573988632600,15.966632568359374,1.856266736984253,0.037110064178705215,0.0074830991216003895
1702139574005624600,15.98362451171875,1.8605427742004395,0.059406645596027374,0.011759156361222267
1702139574022614000,16.000614013671875,1.8654297590255737,0.04612032696604729,0.010842857882380486
1702139574039606000,16.01760595703125,1.8710802793502808,0.058948494493961334,0.013439035043120384
1702139574056595200,16.03459521484375,1.8759671449661255,0.048716504126787186,0.010537425056099892
1702139574073584400,16.05158447265625,1.8823812007904053,0.042760565876960754,0.011759156361222267
1702139574090579200,16.0685791015625,1.88864266872406,0.04108068719506264,0.007941247895359993
1702139574107568400,16.085568359375,1.8923077583312988,0.047800205647945404,0.00931569468230009
1702139574124558000,16.10255810546875,1.8949040174484253,0.055741455405950546,0.011301007121801376
1702139574141549800,16.1195498046875,1.896583914756775,0.05604688450694084,0.010995574295520782
1702139574158537000,16.136536865234376,1.89979088306427,0.04902193695306778,0.012522737495601177
1702139574175533800,16.153533935546875,1.9026925563812256,0.05009094998240471,0.010995574295520782
1702139574192520400,16.1705205078125,1.905135989189148,0.05375614017248154,0.00931569468230009
1702139574209512200,16.18751220703125,1.9086484909057617,0.048105638474226,0.01191187184303999
1702139574226502000,16.204501953125,1.9120081663131714,0.05192354694008827,0.01191187184303999
1702139574243493600,16.22149365234375,1.9144517183303833,0.04917465150356293,0.010842857882380486
1702139574260483300,16.2384833984375,1.9172005653381348,0.05253441259264946,0.012675453908741474
1702139574277475300,16.255475341796874,1.9207130670547485,0.052381694316864014,0.010079276748001575
1702139574294464300,16.27246435546875,1.923156499862671,0.05390885844826698,0.012064588256180286
1702139574311456300,16.289456298828124,1.9266690015792847,0.04917465150356293,0.012980886735022068
1702139574328445700,16.30644580078125,1.9301815032958984,0.0455094613134861,0.012064588256180286
1702139574345437400,16.3234375,1.9330830574035645,0.05115996301174164,0.015118914656341076
1702139574362423000,16.340423095703127,1.9364428520202637,0.04688390716910362,0.013591751456260681
1702139574379419000,16.3574189453125,1.9379700422286987,0.055741455405950546,0.015271631069481373
1702139574396408600,16.37440869140625,1.9405661821365356,0.05161811411380768,0.013286318629980087
1702139574413397500,16.3913974609375,1.941482424736023,0.051770828664302826,0.01237002108246088
1702139574430392600,16.408392578125,1.9422460794448853,0.05009094998240471,0.012828170321881771
1702139574447381500,16.425381591796874,1.9419406652450562,0.054825156927108765,0.010995574295520782
1702139574464371000,16.442370849609375,1.9422460794448853,0.05345070734620094,0.015577063895761967
1702139574481363200,16.45936328125,1.9411770105361938,0.05161811411380768,0.013897184282541275
1702139574498350000,16.47635009765625,1.9387335777282715,0.044287730008363724,0.013744467869400978
1702139574515335700,16.493335693359374,1.9361374378204346,0.04459316283464432,0.014049900695681572
1702139574532317400,16.5103173828125,1.931708574295044,0.04886921867728233,0.010690141469240189
1702139574549315000,16.527315185546875,1.9257526397705078,0.05375614017248154,0.01237002108246088
1702139574566306300,16.544306396484377,1.9185750484466553,0.05390885844826698,0.014355333521962166
1702139574583298000,16.561298095703126,1.91231369972229,0.05421429127454758,0.015882495790719986
1702139574600289000,16.5782890625,1.9077321290969849,0.044135015457868576,0.018936822190880775
1702139574617277200,16.595277099609376,1.9037615060806274,0.052381694316864014,0.02122756652534008
1702139574634269700,16.612269775390626,1.9007072448730469,0.05009094998240471,0.01817324012517929
1702139574651263200,16.62926318359375,1.8981109857559204,0.05253441259264946,0.014202617108821869
1702139574668249300,16.646249267578124,1.8950567245483398,0.04505131021142006,0.01038470957428217
1702139574685243000,16.663242919921874,1.8901697397232056,0.05146539583802223,0.007024950347840786
1702139574702232800,16.68023291015625,1.8822284936904907,0.055741455405950546,0.006872233934700489
1702139574719224000,16.69722412109375,1.8748981952667236,0.051312681287527084,0.01191187184303999
1702139574736224300,16.714224365234376,1.866346001625061,0.054825156927108765,0.013591751456260681
1702139574753213400,16.73121337890625,1.8587101697921753,0.04459316283464432,0.014813481830060482
1702139574770203100,16.748203125,1.8515325784683228,0.05146539583802223,0.01970040425658226
1702139574787193000,16.765193115234375,1.8486309051513672,0.046273041516542435,0.014508049935102463
1702139574804186000,16.78218603515625,1.8448129892349243,0.05513058975338936,0.01542434748262167
1702139574821176300,16.79917626953125,1.8443548679351807,0.048716504126787186,0.00809396430850029
1702139574838166000,16.816166015625,1.8429805040359497,0.054367005825042725,0.008857546374201775
1702139574855157200,16.8331572265625,1.840842366218567,0.04749477282166481,0.009926560334861279
1702139574872147000,16.85014697265625,1.839468002319336,0.050854530185461044,0.008399397134780884
1702139574889138700,16.867138671875,1.8351919651031494,0.04841107130050659,0.013439035043120384
1702139574906128400,16.88412841796875,1.8335120677947998,0.04444044828414917,0.01237002108246088
1702139574923120000,16.9011201171875,1.8295414447784424,0.04214970022439957,0.012064588256180286
1702139574940109800,16.91810986328125,1.8252654075622559,0.04138612002134323,0.011301007121801376
1702139574957101600,16.9351015625,1.8209892511367798,0.051770828664302826,0.008704829961061478
1702139574974091000,16.952091064453125,1.814880609512329,0.04581489413976669,0.00855211354792118
1702139574991082800,16.969082763671874,1.806328535079956,0.052839845418930054,0.008704829961061478
1702139575008069600,16.986069580078127,1.7956384420394897,0.04642575979232788,0.0065668015740811825
1702139575025066500,17.00306640625,1.7837265729904175,0.04046982154250145,0.010995574295520782
1702139575042053600,17.0200537109375,1.7701348066329956,0.04138612002134323,0.010231993161141872
1702139575059045400,17.03704541015625,1.7551685571670532,0.04932736977934837,0.008857546374201775
1702139575076035000,17.05403515625,1.740660548210144,0.05100724846124649,0.012675453908741474
1702139575093015000,17.07101513671875,1.7266106605529785,0.048716504126787186,0.01114829070866108
1702139575110018600,17.0880185546875,1.7134770154953003,0.046731192618608475,0.009010262787342072
1702139575127008000,17.105008056640624,1.6994271278381348,0.04001167416572571,0.010231993161141872
1702139575143997700,17.121997802734374,1.6875152587890625,0.041233405470848083,0.010995574295520782
1702139575160979200,17.138979248046876,1.6757560968399048,0.04566217586398125,0.011301007121801376
1702139575177979100,17.155979248046876,1.6653714179992676,0.048258353024721146,0.01038470957428217
1702139575194968000,17.172968017578125,1.6543757915496826,0.045204028487205505,0.01114829070866108
1702139575211960300,17.189960205078126,1.645671010017395,0.043218716979026794,0.010231993161141872
1702139575228954600,17.20695458984375,1.6374242305755615,0.0429132841527462,0.00855211354792118
1702139575245931500,17.223931640625,1.6285667419433594,0.04230241850018501,0.008246680721640587
1702139575262933200,17.240933349609374,1.6198619604110718,0.04382958263158798,0.008857546374201775
1702139575279923000,17.2579228515625,1.6103935241699219,0.04398229718208313,0.008399397134780884
1702139575296904000,17.274904052734374,1.6026049852371216,0.04214970022439957,0.009010262787342072
1702139575313904400,17.291904296875,1.5961909294128418,0.04214970022439957,0.010231993161141872
1702139575330896100,17.308896240234375,1.5908458232879639,0.043676864355802536,0.010079276748001575
1702139575347885800,17.3258857421875,1.5861116647720337,0.04352414980530739,0.010690141469240189
1702139575364877300,17.342877197265626,1.581377387046814,0.040164388716220856,0.006719517521560192
1702139575381867000,17.359866943359375,1.5754214525222778,0.039706241339445114,0.007024950347840786
1702139575398858800,17.376858642578124,1.5676329135894775,0.0377209298312664,0.0064140851609408855
1702139575415848200,17.39384814453125,1.5624406337738037,0.04245513305068016,0.008399397134780884
1702139575432840000,17.41083984375,1.5572482347488403,0.04337143152952194,0.011301007121801376
1702139575449829600,17.42782958984375,1.5522085428237915,0.043218716979026794,0.010079276748001575
1702139575466821400,17.4448212890625,1.5493069887161255,0.039706241339445114,0.00855211354792118
1702139575483810800,17.461810791015626,1.5448782444000244,0.038637228310108185,0.00809396430850029
1702139575500802800,17.478802734375,1.5407549142837524,0.03787364438176155,0.004734205547720194
1702139575517781800,17.49578173828125,1.5351043939590454,0.0403171069920063,0.007024950347840786
1702139575534781200,17.51278125,1.528384804725647,0.04001167416572571,0.008246680721640587
1702139575551776300,17.5297763671875,1.521665334701538,0.04153883829712868,0.009468411095440388
1702139575568765200,17.54676513671875,1.5175420045852661,0.04108068719506264,0.010231993161141872
1702139575585755000,17.5637548828125,1.5120441913604736,0.04230241850018501,0.01038470957428217
1702139575602747000,17.580746826171875,1.508989930152893,0.04001167416572571,0.007941247895359993
1702139575619736300,17.597736328125,1.5053247213363647,0.038637228310108185,0.005955935921519995
1702139575636725200,17.614725341796873,1.4998269081115723,0.03695734590291977,0.0074830991216003895
1702139575653709800,17.631709716796873,1.4937182664871216,0.03649919852614403,0.0074830991216003895
1702139575670709500,17.64870947265625,1.486693263053894,0.03527746722102165,0.007024950347840786
1702139575687694300,17.6656943359375,1.47844660282135,0.03680463135242462,0.007788531947880983
1702139575704695300,17.6826953125,1.4688254594802856,0.03848451003432274,0.007941247895359993
1702139575721680400,17.699680419921876,1.460120677947998,0.039248090237379074,0.00809396430850029
1702139575738672000,17.716672119140625,1.4524848461151123,0.04077525436878204,0.009162978269159794
1702139575755651600,17.733651611328124,1.444390892982483,0.04077525436878204,0.009010262787342072
1702139575772648400,17.7506484375,1.4388930797576904,0.03833179548382759,0.009468411095440388
1702139575789647600,17.767647705078126,1.4343116283416748,0.03695734590291977,0.009468411095440388
1702139575806634800,17.784634765625,1.4314099550247192,0.03634648025035858,0.00809396430850029
1702139575823624200,17.801624267578124,1.427744746208191,0.038179077208042145,0.007788531947880983
1702139575840616200,17.8186162109375,1.4259121417999268,0.03878994286060333,0.008857546374201775
1702139575857597200,17.83559716796875,1.4268285036087036,0.04214970022439957,0.010690141469240189
1702139575874595300,17.85259521484375,1.4300355911254883,0.04001167416572571,0.011759156361222267
1702139575891589000,17.869589111328125,1.4340062141418457,0.037110064178705215,0.009773843921720982
1702139575908578600,17.88657861328125,1.4376713037490845,0.03375030308961868,0.0064140851609408855
1702139575925568300,17.903568359375,1.4391984939575195,0.032070424407720566,0.003817907767370343
1702139575942560000,17.92056005859375,1.4362969398498535,0.03145955875515938,0.001832595793530345
1702139575959549700,17.9375498046875,1.4306464195251465,0.03573561832308769,0.0032070425804704428
1702139575976539000,17.954538818359374,1.424843192100525,0.0403171069920063,0.0074830991216003895
1702139575993531100,17.97153125,1.4191926717758179,0.046731192618608475,0.01466076634824276
1702139576010525400,17.988525390625,1.4187345504760742,0.04092797264456749,0.013591751456260681
1702139576027512300,18.00551220703125,1.4217888116836548,0.03649919852614403,0.01542434748262167
1702139576044504000,18.022504150390624,1.4274393320083618,0.030237829312682152,0.009621127508580685
1702139576061491200,18.0394912109375,1.434617042541504,0.036041051149368286,0.006108652334660292
1702139576078488300,18.05648828125,1.4414892196655273,0.03436116874217987,0.003054326167330146
1702139576095475000,18.073474853515624,1.444696307182312,0.040622539818286896,0.004428773187100887
1702139576112466700,18.090466796875,1.4471397399902344,0.04184427112340927,0.0064140851609408855
1702139576129456400,18.107456298828126,1.45004141330719,0.044135015457868576,0.01038470957428217
1702139576146448000,18.12444775390625,1.4543174505233765,0.03756821155548096,0.011759156361222267
1702139576163437800,18.141437744140624,1.4587461948394775,0.03985895588994026,0.011759156361222267
1702139576180419000,18.158419189453124,1.4631749391555786,0.032070424407720566,0.009621127508580685
1702139576197410800,18.175410888671873,1.4700472354888916,0.041691552847623825,0.007941247895359993
1702139576214408200,18.192408203125,1.4743232727050781,0.03329215571284294,0.006261368747800589
1702139576231399700,18.209399658203125,1.477835774421692,0.044745877385139465,0.006719517521560192
1702139576248395500,18.2263955078125,1.4808900356292725,0.03741549700498581,0.006108652334660292
1702139576265382000,18.2433818359375,1.4833335876464844,0.04657847434282303,0.009926560334861279
1702139576282376000,18.2603759765625,1.4873042106628418,0.03405573591589928,0.009926560334861279
1702139576299363300,18.27736328125,1.4911220073699951,0.03878994286060333,0.013439035043120384
1702139576316354800,18.294354736328124,1.4960089921951294,0.0328340083360672,0.01114829070866108
1702139576333344500,18.311344482421877,1.5025757551193237,0.042760565876960754,0.01191187184303999
1702139576350336000,18.3283359375,1.5091426372528076,0.03436116874217987,0.01160643994808197
1702139576367325700,18.34532568359375,1.5150985717773438,0.04077525436878204,0.010842857882380486
1702139576384317400,18.3623173828125,1.5221234560012817,0.04077525436878204,0.008857546374201775
1702139576401307100,18.37930712890625,1.5282320976257324,0.04306599870324135,0.010537425056099892
1702139576418299000,18.396298828125,1.5334244966506958,0.044745877385139465,0.008857546374201775
1702139576435278000,18.413278076171874,1.539685845375061,0.0403171069920063,0.012064588256180286
1702139576452270000,18.43027001953125,1.546558141708374,0.0354301854968071,0.012828170321881771
1702139576469269800,18.447269775390627,1.5538884401321411,0.03848451003432274,0.012675453908741474
1702139576486261500,18.464261474609376,1.560302495956421,0.04108068719506264,0.012217304669320583
1702139576503251200,18.481251220703125,1.5664112567901611,0.044135015457868576,0.009773843921720982
1702139576520242700,18.49824267578125,1.5723671913146973,0.04596760869026184,0.007788531947880983
1702139576537233000,18.51523291015625,1.5752687454223633,0.045204028487205505,0.007177666760981083
1702139576554224000,18.53222412109375,1.5781704187393188,0.04337143152952194,0.008246680721640587
1702139576571213800,18.5492138671875,1.5795447826385498,0.0403171069920063,0.007941247895359993
1702139576588205600,18.56620556640625,1.578781247138977,0.040622539818286896,0.009468411095440388
1702139576605195000,18.583195068359377,1.578475832939148,0.03588833287358284,0.010690141469240189
1702139576622186800,18.600186767578126,1.5764905214309692,0.0403171069920063,0.012980886735022068
1702139576639173600,18.617173583984375,1.5763378143310547,0.038637228310108185,0.01191187184303999
1702139576656171500,18.634171630859374,1.574352502822876,0.04963280260562897,0.01466076634824276
1702139576673154800,18.65115478515625,1.5735888481140137,0.04245513305068016,0.012217304669320583
1702139576690149600,18.668149658203124,1.5726726055145264,0.049785517156124115,0.012522737495601177
1702139576707139300,18.685139404296876,1.5714508295059204,0.037110064178705215,0.007635815534740686
1702139576724130800,18.702130859375,1.5697709321975708,0.03940080851316452,0.007941247895359993
1702139576741120800,18.719120849609375,1.5664112567901611,0.038179077208042145,0.004428773187100887
1702139576758112500,18.736112548828125,1.563051462173462,0.041691552847623825,0.007635815534740686
1702139576775102000,18.75310205078125,1.560302495956421,0.04337143152952194,0.009621127508580685
1702139576792093700,18.77009375,1.5578590631484985,0.04153883829712868,0.011453723534941673
1702139576809083100,18.787083251953124,1.5560264587402344,0.042760565876960754,0.014508049935102463
1702139576826075000,18.804074951171874,1.5575536489486694,0.037110064178705215,0.012217304669320583
1702139576843064600,18.821064697265626,1.5584700107574463,0.04138612002134323,0.012064588256180286
1702139576860056300,18.838056396484376,1.560455322265625,0.0403171069920063,0.010231993161141872
1702139576877059800,18.855059814453124,1.562135100364685,0.044745877385139465,0.01038470957428217
1702139576894044700,18.872044677734376,1.5644259452819824,0.04230241850018501,0.011301007121801376
1702139576911027200,18.889027099609375,1.5671747922897339,0.038179077208042145,0.012675453908741474
1702139576928013800,18.906013916015624,1.5700763463974,0.039095375686883926,0.01114829070866108
1702139576945009200,18.923009033203126,1.5740469694137573,0.03940080851316452,0.011301007121801376
1702139576962000400,18.94000048828125,1.578781247138977,0.04337143152952194,0.01191187184303999
1702139576978990000,18.956989990234376,1.5836681127548218,0.044287730008363724,0.009621127508580685
1702139576995981800,18.97398193359375,1.5888605117797852,0.04199698567390442,0.010079276748001575
1702139577012969700,18.9909697265625,1.5948164463043213,0.0377209298312664,0.010079276748001575
1702139577029964800,19.00796484375,1.6006196737289429,0.04245513305068016,0.009010262787342072
1702139577046952700,19.02495263671875,1.606575608253479,0.03878994286060333,0.00809396430850029
1702139577063936300,19.041936279296873,1.6116151809692383,0.04489859566092491,0.01160643994808197
1702139577080921900,19.058921875,1.616044044494629,0.04108068719506264,0.006719517521560192
1702139577097915100,19.0759150390625,1.6210836172103882,0.04306599870324135,0.009621127508580685
1702139577114905600,19.092905517578124,1.6270395517349243,0.04245513305068016,0.00809396430850029
1702139577131907000,19.109906982421876,1.6303993463516235,0.03848451003432274,0.00733038317412138
1702139577148897000,19.12689697265625,1.6340645551681519,0.04489859566092491,0.00855211354792118
1702139577165888500,19.143888427734375,1.6378824710845947,0.03848451003432274,0.009468411095440388
1702139577182878200,19.160878173828124,1.6423112154006958,0.04398229718208313,0.00931569468230009
1702139577199870000,19.177869873046873,1.6459764242172241,0.04108068719506264,0.01160643994808197
1702139577216852500,19.1948525390625,1.6496416330337524,0.041691552847623825,0.009468411095440388
1702139577233851400,19.211851318359376,1.6533068418502808,0.04199698567390442,0.009926560334861279
1702139577250840800,19.2288408203125,1.6566665172576904,0.04260785132646561,0.008399397134780884
1702139577267832600,19.24583251953125,1.6601790189743042,0.049785517156124115,0.007635815534740686
1702139577284822300,19.262822265625,1.6641496419906616,0.04077525436878204,0.010995574295520782
1702139577301814000,19.27981396484375,1.66781485080719,0.04917465150356293,0.00855211354792118
1702139577318801400,19.296801513671873,1.670716404914856,0.039248090237379074,0.009468411095440388
1702139577335797800,19.3137978515625,1.6759088039398193,0.0429132841527462,0.010690141469240189
1702139577352782300,19.3307822265625,1.6801848411560059,0.0377209298312664,0.009162978269159794
1702139577369768700,19.347768798828124,1.6823228597640991,0.04566217586398125,0.006108652334660292
1702139577386757400,19.36475732421875,1.6855299472808838,0.04489859566092491,0.009162978269159794
1702139577403751000,19.3817509765625,1.6878206729888916,0.04657847434282303,0.005650503560900688
1702139577420740600,19.39874072265625,1.6893478631973267,0.050243668258190155,0.011301007121801376
1702139577437723400,19.415723388671875,1.6934711933135986,0.0403171069920063,0.010690141469240189
1702139577454719000,19.432718994140625,1.6991217136383057,0.047800205647945404,0.013591751456260681
1702139577471710700,19.449710693359375,1.7055357694625854,0.03481931984424591,0.008399397134780884
1702139577488701700,19.46670166015625,1.7104226350784302,0.04932736977934837,0.008704829961061478
1702139577505692700,19.483692626953125,1.7133243083953857,0.04077525436878204,0.0029016099870204926
1702139577522681300,19.500681396484374,1.716989517211914,0.05207626149058342,0.009621127508580685
1702139577539673900,19.517673828125,1.719585657119751,0.039095375686883926,0.009926560334861279
1702139577556662800,19.534662841796877,1.7232508659362793,0.04566217586398125,0.013591751456260681
1702139577573656000,19.551656005859375,1.7266106605529785,0.03741549700498581,0.010537425056099892
1702139577590647300,19.568647216796876,1.7313448190689087,0.04306599870324135,0.010690141469240189
1702139577607638000,19.585637939453125,1.736537218093872,0.0403171069920063,0.009468411095440388
1702139577624638000,19.602637939453125,1.7386752367019653,0.05100724846124649,0.003054326167330146
1702139577641627600,19.619627685546874,1.7400496006011963,0.048105638474226,0.01114829070866108
1702139577658617000,19.6366171875,1.7412713766098022,0.047800205647945404,0.009926560334861279
1702139577675608800,19.65360888671875,1.744783878326416,0.0429132841527462,0.008246680721640587
1702139577692598500,19.6705986328125,1.7450892925262451,0.03985895588994026,0.014508049935102463
1702139577709590300,19.68759033203125,1.7449365854263306,0.04092797264456749,0.007024950347840786
1702139577726579700,19.704579833984376,1.7466164827346802,0.04596760869026184,0.010231993161141872
1702139577743571700,19.72157177734375,1.7469218969345093,0.04184427112340927,0.009773843921720982
1702139577760561400,19.7385615234375,1.7458528280258179,0.05543602257966995,0.008704829961061478
1702139577777551000,19.755551025390623,1.7453947067260742,0.052839845418930054,0.010537425056099892
1702139577794542000,19.7725419921875,1.746311068534851,0.05054909735918045,0.009621127508580685
1702139577811537000,19.789536865234375,1.7466164827346802,0.048258353024721146,0.009162978269159794
1702139577828524000,19.80652392578125,1.7470746040344238,0.04001167416572571,0.011301007121801376
1702139577845515800,19.823515869140625,1.748907208442688,0.04092797264456749,0.010079276748001575
1702139577862505200,19.840505126953126,1.7481436729431152,0.039095375686883926,0.009621127508580685
1702139577879497200,19.857497314453123,1.748907208442688,0.049785517156124115,0.012828170321881771
1702139577896486700,19.874486572265624,1.7498234510421753,0.04902193695306778,0.009468411095440388
1702139577913480200,19.891480224609374,1.7524197101593018,0.051770828664302826,0.012980886735022068
1702139577930466300,19.90846630859375,1.7557793855667114,0.04642575979232788,0.01038470957428217
1702139577947459800,19.9254599609375,1.7592918872833252,0.04948008432984352,0.008857546374201775
1702139577964440800,19.94244091796875,1.763109803199768,0.04902193695306778,0.009010262787342072
1702139577981441300,19.959441162109375,1.7667750120162964,0.0503963828086853,0.00809396430850029
1702139577998431000,19.976430908203124,1.7712037563323975,0.049785517156124115,0.008857546374201775
1702139578015422500,19.99342236328125,1.7748689651489258,0.048105638474226,0.01114829070866108
1702139578032409600,20.01040966796875,1.7800613641738892,0.04856378585100174,0.01160643994808197
1702139578049406500,20.027406494140624,1.783879280090332,0.040164388716220856,0.011759156361222267
1702139578066393600,20.0443935546875,1.7881553173065186,0.04993823543190956,0.008704829961061478
1702139578083385300,20.06138525390625,1.7925840616226196,0.04505131021142006,0.01038470957428217
1702139578100374800,20.078374755859375,1.7960965633392334,0.04153883829712868,0.01191187184303999
1702139578117357300,20.095357421875,1.7970128059387207,0.05375614017248154,0.008704829961061478
1702139578134356200,20.112356201171874,1.7983872890472412,0.04841107130050659,0.010690141469240189
1702139578151347700,20.12934765625,1.8008307218551636,0.05100724846124649,0.015882495790719986
1702139578168337400,20.14633740234375,1.8035796880722046,0.04505131021142006,0.012064588256180286
1702139578185329400,20.163329345703126,1.8052594661712646,0.04596760869026184,0.01572977937757969
1702139578202319000,20.180319091796875,1.8095356225967407,0.04153883829712868,0.01466076634824276
1702139578219310800,20.197310791015624,1.8132007122039795,0.04382958263158798,0.012980886735022068
1702139578236300300,20.21430029296875,1.814880609512329,0.0503963828086853,0.013286318629980087
1702139578253281500,20.231281494140624,1.8167132139205933,0.049785517156124115,0.010079276748001575
1702139578270281700,20.24828173828125,1.818698525428772,0.05451972410082817,0.015271631069481373
1702139578287263000,20.265262939453127,1.822821855545044,0.04795292019844055,0.013591751456260681
1702139578304262000,20.282261962890626,1.8251125812530518,0.04199698567390442,0.01817324012517929
1702139578321256200,20.299256103515624,1.8270978927612305,0.06062837690114975,0.012064588256180286
1702139578338244600,20.31624462890625,1.831221342086792,0.033139441162347794,0.016340645030140877
1702139578355225900,20.333225830078124,1.8332066535949707,0.04153883829712868,0.017409659922122955
1702139578372225800,20.350225830078124,1.8362609148025513,0.053297992795705795,0.008399397134780884
1702139578389215000,20.367215087890624,1.8376353979110718,0.04260785132646561,0.014508049935102463
1702139578406209800,20.384209716796875,1.8380935192108154,0.05619960278272629,0.015882495790719986
1702139578423199000,20.401198974609375,1.838551640510559,0.04459316283464432,0.006872233934700489
1702139578440188700,20.418188720703125,1.838551640510559,0.05360342562198639,0.018325956538319588
1702139578457180200,20.43518017578125,1.8405369520187378,0.04230241850018501,0.01237002108246088
1702139578474170000,20.452170166015627,1.840842366218567,0.05054909735918045,0.01710422709584236
1702139578491158800,20.46915869140625,1.8417587280273438,0.051770828664302826,0.011759156361222267
1702139578508154400,20.486154296875,1.8417587280273438,0.05146539583802223,0.010231993161141872
1702139578525143000,20.50314306640625,1.8409950733184814,0.04657847434282303,0.013133603148162365
1702139578542132700,20.5201328125,1.8387043476104736,0.04764748737215996,0.005650503560900688
1702139578559124500,20.53712451171875,1.834122896194458,0.0503963828086853,0.00855211354792118
1702139578576114200,20.5541142578125,1.8295414447784424,0.044287730008363724,0.010995574295520782
1702139578593106000,20.57110595703125,1.8241963386535645,0.04963280260562897,0.009162978269159794
1702139578610095400,20.588095458984377,1.8182404041290283,0.04734205827116966,0.01191187184303999
1702139578627084500,20.60508447265625,1.8133535385131836,0.04795292019844055,0.013744467869400978
1702139578644079600,20.62207958984375,1.8072447776794434,0.04856378585100174,0.010079276748001575
1702139578661068500,20.639068603515625,1.8043432235717773,0.04795292019844055,0.01160643994808197
1702139578678058000,20.65605810546875,1.7989981174468994,0.046273041516542435,0.00809396430850029
1702139578695050000,20.673050048828124,1.7939585447311401,0.047189339995384216,0.009773843921720982
1702139578712037000,20.690037109375,1.7878499031066895,0.043676864355802536,0.010079276748001575
1702139578729033700,20.70703369140625,1.7815884351730347,0.04581489413976669,0.010995574295520782
1702139578746020900,20.724020751953127,1.775479793548584,0.044745877385139465,0.012980886735022068
1702139578763012600,20.7410126953125,1.7695238590240479,0.04642575979232788,0.012675453908741474
1702139578780002300,20.758002197265625,1.7635679244995117,0.04734205827116966,0.011301007121801376
1702139578796979200,20.774979248046876,1.7599027156829834,0.04856378585100174,0.01160643994808197
1702139578813981400,20.7919814453125,1.7554739713668823,0.04993823543190956,0.010537425056099892
1702139578830975000,20.80897509765625,1.7513506412506104,0.036651913076639175,0.011453723534941673
1702139578847967700,20.8259677734375,1.746311068534851,0.05619960278272629,0.008857546374201775
1702139578864956700,20.842956787109376,1.7426458597183228,0.03451388701796532,0.006108652334660292
1702139578881946400,20.8599462890625,1.7362316846847534,0.04260785132646561,0.017409659922122955
