time,seconds_elapsed,z,y,x
1700871056284067000,0.052067138671875,0.07727445662021637,-0.00045814894838258624,0.00809396430850029
1700871056301117000,0.069116943359375,0.10155634582042694,-0.005345070734620094,0.004581489134579897
1700871056318115000,0.086114990234375,0.1359175145626068,-0.00366519158706069,0.007177666760981083
1700871056335100400,0.103100341796875,0.1745547503232956,-0.005039638374000788,0.005345070734620094
1700871056352095700,0.120095703125,0.21365012228488922,-0.001832595793530345,0.009926560334861279
1700871056369089000,0.137089111328125,0.25503623485565186,-0.0013744467869400978,0.012675453908741474
1700871056386077400,0.154077392578125,0.29764407873153687,0.003359758760780096,0.017409659922122955
1700871056403072000,0.171072021484375,0.3433062732219696,0.0029016099870204926,0.02122756652534008
1700871056420064000,0.18806396484375,0.39354994893074036,0.00809396430850029,0.026572637259960175
1700871056437057000,0.20505712890625,0.451123982667923,0.01038470957428217,0.031001411378383636
1700871056454034700,0.22203466796875,0.5145012736320496,0.016798794269561768,0.03680463135242462
1700871056471039000,0.2390390625,0.5842925906181335,0.008399397134780884,0.04153883829712868
1700871056488034000,0.256033935546875,0.6582072973251343,0.009468411095440388,0.046731192618608475
1700871056505021400,0.273021484375,0.7373143434524536,0.007024950347840786,0.04932736977934837
1700871056522016500,0.2900166015625,0.82207190990448,0.003054326167330146,0.05192354694008827
1700871056539009500,0.307009521484375,0.907898485660553,0.0013744467869400978,0.04963280260562897
1700871056555991000,0.323990966796875,0.9926560521125793,0.0027488935738801956,0.047189339995384216
1700871056572982800,0.340982666015625,1.0737483501434326,-0.0010690141934901476,0.04841107130050659
1700871056589985000,0.357985107421875,1.1513283252716064,-0.0019853119738399982,0.051312681287527084
1700871056606978000,0.37497802734375,1.2272282838821411,0.002138028386980295,0.055741455405950546
1700871056623966700,0.391966796875,1.2986994981765747,0.00366519158706069,0.06444628536701202
1700871056640960800,0.408960693359375,1.36955988407135,0.004734205547720194,0.07391469180583954
1700871056657956600,0.42595654296875,1.4370604753494263,0.001527163083665073,0.07406741380691528
1700871056674938000,0.442938232421875,1.5037975311279297,0.003512475173920393,0.07681630551815033
1700871056691947300,0.459947265625,1.5693128108978271,0.0039706239476799965,0.07666359096765518
1700871056708923100,0.476923095703125,1.6348280906677246,0.004581489134579897,0.07635815441608429
1700871056725919700,0.493919677734375,1.6949983835220337,0.0074830991216003895,0.08002334833145142
1700871056742907100,0.5109072265625,1.7469218969345093,0.005650503560900688,0.08139779418706894
1700871056759906800,0.52790673828125,1.7938058376312256,0.0013744467869400978,0.08368854224681854
1700871056776901000,0.544901123046875,1.8336647748947144,-0.00045814894838258624,0.08689557760953903
1700871056793888000,0.561887939453125,1.8686367273330688,0.005192354787141085,0.08827003091573715
1700871056810881500,0.578881591796875,1.8959729671478271,-0.0039706239476799965,0.09544769674539566
1700871056827876400,0.59587646484375,1.9109392166137695,-0.009468411095440388,0.09911288321018219
1700871056844863500,0.612863525390625,1.9167424440383911,-0.018020525574684143,0.09239336848258972
1700871056861858300,0.6298583984375,1.911091923713684,-0.04260785132646561,0.09666942805051804
1700871056878851600,0.6468515625,1.899485468864441,-0.019853120669722557,0.10231992602348328
1700871056895846000,0.663845947265625,1.884366512298584,0.00045814894838258624,0.0988074541091919
1700871056912831700,0.680831787109375,1.8637498617172241,0.00809396430850029,0.10690141469240189
1700871056929830100,0.697830078125,1.8387043476104736,0.0009162978967651725,0.1082758679986
1700871056946820000,0.714820068359375,1.815796971321106,-0.00733038317412138,0.09575312584638596
1700871056963809000,0.73180908203125,1.7925840616226196,0.02367102913558483,0.09040805697441101
1700871056980802800,0.748802734375,1.7860172986984253,-0.012828170321881771,0.10445795953273773
1700871056997797000,0.765797119140625,1.7910568714141846,-0.007941247895359993,0.12064588814973831
1700871057014784000,0.782783935546875,1.8043432235717773,0.01572977937757969,0.1235474944114685
1700871057031779600,0.799779541015625,1.8330538272857666,0.006261368747800589,0.11774427443742752
1700871057048772600,0.816772705078125,1.862222671508789,0.020463986322283745,0.1241583600640297
1700871057065761300,0.83376123046875,1.9017761945724487,-0.001679879380390048,0.10965031385421753
1700871057082756000,0.850756103515625,1.9520199298858643,0.007024950347840786,0.10354165732860565
1700871057099746600,0.86774658203125,2.0050125122070312,0.004581489134579897,0.10965031385421753
1700871057116742400,0.884742431640625,2.056936025619507,-0.019853120669722557,0.10445795953273773
1700871057133729500,0.9017294921875,2.102292776107788,0.0013744467869400978,0.10781771689653397
1700871057150723600,0.9187236328125,2.1453588008880615,-0.001832595793530345,0.10659598559141159
1700871057167700200,0.9357001953125,2.18048357963562,-0.0029016099870204926,0.11178833991289139
1700871057184703000,0.952702880859375,2.2125539779663086,0.006872233934700489,0.12308934330940247
1700871057201702700,0.96970263671875,2.244166135787964,0.005803219974040985,0.11927144229412079
1700871057218694400,0.9866943359375,2.2737932205200195,-0.0022907445672899485,0.12171489745378494
1700871057235678500,1.003678466796875,2.3049473762512207,0.0025961773935705423,0.1287398487329483
1700871057252679000,1.020678955078125,2.33671236038208,0.0027488935738801956,0.12400564551353455
1700871057269670000,1.037669921875,2.3684773445129395,0.009926560334861279,0.12522737681865692
1700871057286659300,1.054659423828125,2.3964242935180664,0.00855211354792118,0.12461651116609573
1700871057303648800,1.071648681640625,2.4193317890167236,0.007177666760981083,0.12263119965791702
1700871057320652800,1.08865283203125,2.439795732498169,0.007024950347840786,0.1258382350206375
1700871057337636600,1.10563671875,2.4578163623809814,0.0022907445672899485,0.1241583600640297
1700871057354626800,1.122626708984375,2.473851442337036,0.006261368747800589,0.13209961354732513
1700871057371616300,1.1396162109375,2.4915666580200195,0.0012217304902151227,0.1359175145626068
1700871057388614400,1.156614501953125,2.510045289993286,-0.0012217304902151227,0.13759739696979523
1700871057405605400,1.17360546875,2.528982162475586,0.00809396430850029,0.13729196786880493
1700871057422599400,1.190599365234375,2.5477662086486816,0.012675453908741474,0.13240504264831543
1700871057439581000,1.207580810546875,2.567772150039673,0.015577063895761967,0.13118331134319305
1700871057456579300,1.224579345703125,2.587777853012085,0.013439035043120384,0.13408492505550385
1700871057473574700,1.24157470703125,2.607325553894043,0.00931569468230009,0.13561208546161652
1700871057490565400,1.2585654296875,2.624277114868164,0.005955935921519995,0.1368338167667389
1700871057507559700,1.2755595703125,2.6390905380249023,-0.00366519158706069,0.13668109476566315
1700871057524547300,1.29254736328125,2.6511552333831787,-0.004734205547720194,0.13729196786880493
1700871057541542400,1.30954248046875,2.6623034477233887,-0.0003054326225537807,0.1371392458677292
1700871057558536000,1.326535888671875,2.674368143081665,0.008704829961061478,0.13897185027599335
1700871057575523300,1.3435234375,2.688112497329712,0.02168571576476097,0.14294247329235077
1700871057592525800,1.36052587890625,2.699566125869751,0.014049900695681572,0.14340060949325562
1700871057609509000,1.377509033203125,2.7091872692108154,0.012980886735022068,0.13759739696979523
1700871057626507300,1.39450732421875,2.7128524780273438,-0.0007635815418325365,0.1310305893421173
1700871057643495700,1.41149560546875,2.7062857151031494,-0.013133603148162365,0.12660181522369385
1700871057660486400,1.428486328125,2.6875016689300537,-0.01618792861700058,0.1264491081237793
1700871057677480700,1.445480712890625,2.6560420989990234,-0.010995574295520782,0.13041973114013672
1700871057694468000,1.462468017578125,2.6224443912506104,-0.006261368747800589,0.1362229436635971
1700871057711463400,1.47946337890625,2.5972464084625244,-0.005039638374000788,0.14233160018920898
1700871057728454400,1.496454345703125,2.5747969150543213,0.014355333521962166,0.1443169116973877
1700871057745447200,1.513447265625,2.5645649433135986,0,0.126143679022789
1700871057762442500,1.5304423828125,2.5550966262817383,0.028405234217643738,0.14217889308929443
1700871057779427800,1.547427734375,2.55143141746521,0.006872233934700489,0.11468994617462158
1700871057796416800,1.564416748046875,2.5477662086486816,0.0039706239476799965,0.11423180252313614
1700871057813420500,1.581420654296875,2.542879343032837,-0.0006108652451075613,0.12461651116609573
1700871057830407400,1.598407470703125,2.5392141342163086,-0.02076941914856434,0.12767083942890167
1700871057847402000,1.615402099609375,2.540283203125,-0.011301007121801376,0.13637566566467285
1700871057864381700,1.632381591796875,2.5451700687408447,-0.015271631069481373,0.14065171778202057
1700871057881384700,1.649384765625,2.5497515201568604,-0.005955935921519995,0.13958270847797394
1700871057898376400,1.66637646484375,2.5558602809906006,-0.002138028386980295,0.1417207419872284
1700871057915350500,1.6833505859375,2.5642595291137695,0.01038470957428217,0.14492778480052948
1700871057932359000,1.70035888671875,2.571437358856201,0.001679879380390048,0.13805554807186127
1700871057949356500,1.7173564453125,2.5786149501800537,0.010690141469240189,0.13927727937698364
1700871057966341000,1.734341064453125,2.585334539413452,-0.0010690141934901476,0.13897185027599335
1700871057983334700,1.751334716796875,2.5865561962127686,-0.007024950347840786,0.13561208546161652
1700871058000331000,1.7683310546875,2.5728116035461426,-0.007177666760981083,0.14569136500358582
1700871058017322500,1.785322509765625,2.5552492141723633,-0.009468411095440388,0.152105450630188
1700871058034310000,1.802309814453125,2.543337345123291,0.005955935921519995,0.14676037430763245
1700871058051303000,1.819302978515625,2.5300512313842773,0.0039706239476799965,0.14508049190044403
1700871058068301300,1.83630126953125,2.509739875793457,-0.008857546374201775,0.1492038369178772
1700871058085284000,1.8532841796875,2.4833199977874756,0.0027488935738801956,0.15317445993423462
1700871058102281000,1.870281005859375,2.4605650901794434,-0.006872233934700489,0.13805554807186127
1700871058119275300,1.887275146484375,2.4387266635894775,0.002138028386980295,0.14446963369846344
1700871058136262700,1.9042626953125,2.414902925491333,0.009773843921720982,0.13118331134319305
1700871058153258500,1.921258544921875,2.39214825630188,-0.002138028386980295,0.11820242553949356
1700871058170249200,1.938249267578125,2.366950035095215,0.010995574295520782,0.1281289905309677
1700871058187243500,1.955243408203125,2.3402247428894043,-0.005039638374000788,0.11728613078594208
1700871058204231000,1.97223095703125,2.310903310775757,0.005345070734620094,0.12171489745378494
1700871058221225200,1.98922509765625,2.283108949661255,0.001679879380390048,0.1235474944114685
1700871058238219500,2.006219482421875,2.2568416595458984,-0.00366519158706069,0.12476922571659088
1700871058255206400,2.023206298828125,2.2319488525390625,0.005192354787141085,0.1258382350206375
1700871058272203300,2.040203369140625,2.211332082748413,0.0007635815418325365,0.13011430203914642
1700871058289196000,2.057196044921875,2.1920900344848633,0.01114829070866108,0.10216721147298813
1700871058306183700,2.07418359375,2.180330753326416,-0.00855211354792118,0.09529497474431992
1700871058323169300,2.091169189453125,2.169029712677002,0.013897184282541275,0.13316862285137177
1700871058340170200,2.108170166015625,2.157270669937134,-0.014202617108821869,0.08002334833145142
1700871058357164300,2.125164306640625,2.146733283996582,0.026114489883184433,0.10980302840471268
1700871058374152000,2.14215185546875,2.1363484859466553,-0.023365596309304237,0.12370020896196365
1700871058391137300,2.15913720703125,2.1262691020965576,-0.005955935921519995,0.10995574295520782
1700871058408140300,2.176140380859375,2.11588454246521,0.023976460099220276,0.12171489745378494
1700871058425128700,2.193128662109375,2.105499744415283,-0.02779436856508255,0.12308934330940247
1700871058442121000,2.210120849609375,2.0926716327667236,0.0010690141934901476,0.12263119965791702
1700871058459116500,2.227116455078125,2.0812180042266846,0.006719517521560192,0.11789698898792267
1700871058476107000,2.24410693359375,2.07159686088562,-0.01237002108246088,0.11163562536239624
1700871058493097200,2.26109716796875,2.0618228912353516,0.004123340360820293,0.11499538272619247
1700871058510091500,2.278091552734375,2.051896333694458,0.0009162978967651725,0.10399980843067169
1700871058527085300,2.295085205078125,2.0422751903533936,-0.00045814894838258624,0.10522153973579407
1700871058544073000,2.312072998046875,2.0280725955963135,0.00045814894838258624,0.10873401165008545
1700871058561068000,2.329068115234375,2.012495517730713,-0.0012217304902151227,0.10995574295520782
1700871058578061000,2.34606103515625,1.9996674060821533,-0.0032070425804704428,0.11499538272619247
1700871058595049700,2.3630498046875,1.9898935556411743,-0.005345070734620094,0.11194105446338654
1700871058612043800,2.380043701171875,1.977981686592102,-0.003817907767370343,0.11178833991289139
1700871058629038300,2.397038330078125,1.9634735584259033,0.00045814894838258624,0.10934487730264664
1700871058646025500,2.414025390625,1.9506454467773438,0.005650503560900688,0.1033889427781105
1700871058663021300,2.431021240234375,1.9375118017196655,0.007177666760981083,0.09651670604944229
1700871058680012000,2.448011962890625,1.9191858768463135,0.007177666760981083,0.09575312584638596
1700871058697003800,2.465003662109375,1.8961256742477417,0.007177666760981083,0.09941831976175308
1700871058713997300,2.481997314453125,1.8686367273330688,-0.0025961773935705423,0.1010981947183609
1700871058730988300,2.49898828125,1.8440494537353516,-0.0022907445672899485,0.10491610318422318
1700871058747982300,2.515982421875,1.821447491645813,-0.006872233934700489,0.10186178237199783
1700871058764970800,2.532970703125,1.811979055404663,0.0064140851609408855,0.09300423413515091
1700871058781964800,2.54996484375,1.7918205261230469,-0.036651913076639175,0.09010262042284012
1700871058798959000,2.566958984375,1.7756325006484985,0.07040221989154816,0.0555887371301651
1700871058815949800,2.58394970703125,1.7357735633850098,-0.06444628536701202,0.12736541032791138
1700871058832944400,2.6009443359375,1.7273741960525513,0.05619960278272629,0.0780380368232727
1700871058849922800,2.6179228515625,1.7205020189285278,-0.021532999351620674,0.11988230794668198
1700871058866923300,2.63492333984375,1.7479908466339111,0.004734205547720194,0.0780380368232727
1700871058883916300,2.651916259765625,1.7727309465408325,0.030085112899541855,0.08109235763549805
1700871058900913700,2.66891357421875,1.7960965633392334,-0.002138028386980295,0.07254024595022202
1700871058917906000,2.685906005859375,1.8141170740127563,0.009162978269159794,0.08796459436416626
1700871058934891800,2.702891845703125,1.8322902917861938,0.0029016099870204926,0.09896016865968704
1700871058951885600,2.719885498046875,1.8628336191177368,-0.0024434609804302454,0.08231408894062042
1700871058968870000,2.736869873046875,1.897194743156433,0.0064140851609408855,0.10201449692249298
1700871058985868300,2.753868408203125,1.9394971132278442,-0.007024950347840786,0.09392052888870239
1700871059002863400,2.77086328125,1.976759910583496,0.009621127508580685,0.10277807712554932
1700871059019854000,2.78785400390625,2.01814603805542,-0.0013744467869400978,0.10583240538835526
1700871059036848600,2.8048486328125,2.060601234436035,-0.005345070734620094,0.10506882518529892
1700871059053836800,2.8218369140625,2.0987801551818848,0.0029016099870204926,0.11270463466644287
1700871059070830800,2.838830810546875,2.13314151763916,-0.015577063895761967,0.11010845750570297
1700871059087824100,2.85582421875,2.1627683639526367,-0.008704829961061478,0.10949759185314178
1700871059104810200,2.872810302734375,2.1838431358337402,-0.00427605677396059,0.11484266817569733
1700871059121809400,2.889809326171875,2.196824073791504,-0.013439035043120384,0.11285735666751862
1700871059138801000,2.90680078125,2.1897990703582764,-0.018325956538319588,0.12965615093708038
1700871059155788500,2.92378857421875,2.1563544273376465,-0.027030786499381065,0.13545936346054077
1700871059172784600,2.94078466796875,2.1088595390319824,-0.0354301854968071,0.1394299864768982
1700871059189775000,2.957775146484375,2.0650298595428467,-0.03741549700498581,0.1293507218360901
1700871059206769400,2.974769287109375,2.018604278564453,0.001679879380390048,0.10308351367712021
1700871059223756800,2.9917568359375,1.9718730449676514,0.032528575509786606,0.09147707372903824
1700871059240751900,3.008751953125,1.9181169271469116,0.010079276748001575,0.10537425428628922
1700871059257745400,3.025745361328125,1.8710802793502808,0.055741455405950546,0.11301007121801376
1700871059274733600,3.042733642578125,1.8393152952194214,-0.02076941914856434,0.12431107461452484
1700871059291728000,3.059727783203125,1.8301522731781006,0.032681290060281754,0.12370020896196365
1700871059308722200,3.07672216796875,1.839468002319336,-0.011759156361222267,0.11285735666751862
1700871059325697300,3.093697265625,1.8857409954071045,0.02015855349600315,0.07971791177988052
1700871059342703000,3.110703125,1.9365955591201782,0.027641652151942253,0.07712173461914062
1700871059359696600,3.127696533203125,1.9828685522079468,0.01924225501716137,0.06475171446800232
1700871059376692200,3.144692138671875,2.0286834239959717,0.025045474991202354,0.08384125679731369
1700871059393665800,3.161665771484375,2.077247381210327,-0.0032070425804704428,0.09682214260101318
1700871059410663700,3.17866357421875,2.1349740028381348,0.007788531947880983,0.10644327104091644
1700871059427665700,3.195665771484375,2.1867449283599854,-0.006872233934700489,0.11514809727668762
1700871059444658000,3.212657958984375,2.2258403301239014,-0.02977968007326126,0.12308934330940247
1700871059461649700,3.229649658203125,2.2539401054382324,-0.016035212203860283,0.13087788224220276
1700871059478642200,3.24664208984375,2.275473117828369,-0.01771509274840355,0.12324206531047821
1700871059495634000,3.263634033203125,2.2967007160186768,-0.0003054326225537807,0.1336267739534378
1700871059512618800,3.28061865234375,2.319607973098755,0.016493361443281174,0.12339477986097336
1700871059529609000,3.29760888671875,2.3431262969970703,0.01618792861700058,0.12751811742782593
1700871059546611000,3.31461083984375,2.3765711784362793,0.005345070734620094,0.13148874044418335
1700871059563591700,3.331591796875,2.4181101322174072,-0.00427605677396059,0.12522737681865692
1700871059580595000,3.348594970703125,2.462092399597168,-0.010995574295520782,0.12110403180122375
1700871059597586400,3.36558642578125,2.4995079040527344,-0.0022907445672899485,0.12751811742782593
1700871059614579000,3.382578857421875,2.5332581996917725,-0.00366519158706069,0.1319468915462494
1700871059631570700,3.39957080078125,2.5616633892059326,-0.0065668015740811825,0.13698652386665344
1700871059648563200,3.416563232421875,2.5810582637786865,-0.0010690141934901476,0.14385876059532166
1700871059665555000,3.433554931640625,2.5981626510620117,-0.003054326167330146,0.15225815773010254
1700871059682547500,3.45054736328125,2.613128900527954,-0.004428773187100887,0.15393804013729095
1700871059699539000,3.4675390625,2.6247353553771973,-0.001527163083665073,0.1569923609495163
1700871059716531700,3.48453173828125,2.6332874298095703,-0.005345070734620094,0.16233743727207184
1700871059733523200,3.501523193359375,2.6374106407165527,-0.0065668015740811825,0.15745051205158234
1700871059750515700,3.518515625,2.6397013664245605,-0.0009162978967651725,0.1485929638147354
1700871059767507500,3.535507568359375,2.6371052265167236,0.009010262787342072,0.14065171778202057
1700871059784500000,3.5525,2.6253461837768555,0.0010690141934901476,0.13148874044418335
1700871059801491500,3.569491455078125,2.6053402423858643,0.005497787147760391,0.12263119965791702
1700871059818484200,3.586484130859375,2.579989433288574,0.012064588256180286,0.11972958594560623
1700871059835476000,3.60347607421875,2.5470025539398193,-0.011301007121801376,0.12049316614866257
1700871059852468500,3.620468505859375,2.4975225925445557,0.007024950347840786,0.1258382350206375
1700871059869460000,3.6374599609375,2.4529294967651367,-0.00366519158706069,0.1319468915462494
1700871059886452700,3.65445263671875,2.414597511291504,0.0039706239476799965,0.13698652386665344
1700871059903444200,3.6714443359375,2.3834433555603027,0.0065668015740811825,0.14828753471374512
1700871059920436700,3.688436767578125,2.3574817180633545,0.008246680721640587,0.1336267739534378
1700871059937428500,3.705428466796875,2.337017774581909,-0.00366519158706069,0.1316414624452591
1700871059954421800,3.722421875,2.3157901763916016,-0.003512475173920393,0.1186605766415596
1700871059971412700,3.739412841796875,2.2928826808929443,0.004886921960860491,0.12232576310634613
1700871059988405200,3.7564052734375,2.2687535285949707,-0.005803219974040985,0.11850785464048386
1700871060005392600,3.773392578125,2.2452352046966553,0.004428773187100887,0.11881329119205475
1700871060022379000,3.79037890625,2.2206478118896484,0.007024950347840786,0.11560624837875366
1700871060039383600,3.807383544921875,2.1986567974090576,0.0010690141934901476,0.1316414624452591
1700871060056373800,3.824373779296875,2.197740316390991,-0.046273041516542435,0.12782354652881622
1700871060073365200,3.841365234375,2.196824073791504,0.006108652334660292,0.11804971098899841
1700871060090357800,3.858357666015625,2.1957550048828125,-0.009162978269159794,0.11530081182718277
1700871060107349500,3.875349609375,2.196518659591675,0,0.1160643994808197
1700871060124342000,3.892342041015625,2.191020965576172,0.014202617108821869,0.10033461451530457
1700871060141333800,3.909333740234375,2.1876611709594727,0.006261368747800589,0.11026117950677872
1700871060158326300,3.926326171875,2.1870503425598145,0.0024434609804302454,0.10751228034496307
1700871060175307800,3.943307861328125,2.1850650310516357,-0.003359758760780096,0.10659598559141159
1700871060192310300,3.960310302734375,2.1843013763427734,-0.011759156361222267,0.12064588814973831
1700871060209304800,3.977304931640625,2.1841487884521484,-0.020311269909143448,0.1267545372247696
1700871060226292200,3.994292236328125,2.1893410682678223,-0.00931569468230009,0.12889257073402405
1700871060243275800,4.01127587890625,2.1991147994995117,-0.001832595793530345,0.1310305893421173
1700871060260279000,4.028279052734375,2.216524600982666,0.0027488935738801956,0.1287398487329483
1700871060277270300,4.045270263671875,2.2401955127716064,0.008857546374201775,0.12553280591964722
1700871060294263000,4.062262939453125,2.2676844596862793,0.006872233934700489,0.11911872029304504
1700871060311254500,4.079254638671875,2.2939517498016357,0.0022907445672899485,0.11698069423437119
1700871060328247300,4.096247314453125,2.314262866973877,-0.002138028386980295,0.11591167747974396
1700871060345238800,4.11323876953125,2.320066213607788,-0.0010690141934901476,0.11423180252313614
1700871060362231600,4.1302314453125,2.3133466243743896,0.007941247895359993,0.1186605766415596
1700871060379215400,4.14721533203125,2.2982277870178223,0.01237002108246088,0.12553280591964722
1700871060396215800,4.1642158203125,2.2771530151367188,0.01771509274840355,0.12980885803699493
1700871060413203200,4.181203125,2.25791072845459,0.017409659922122955,0.13041973114013672
1700871060430203600,4.19820361328125,2.2403483390808105,0.016035212203860283,0.126143679022789
1700871060447191600,4.215191650390625,2.222327709197998,0.00809396430850029,0.12049316614866257
1700871060464184000,4.23218408203125,2.1933116912841797,0.015271631069481373,0.10002918541431427
1700871060481175600,4.249175537109375,2.1618521213531494,-0.010079276748001575,0.12599095702171326
1700871060498169600,4.266169677734375,2.1397082805633545,0.048716504126787186,0.11850785464048386
1700871060515158500,4.283158447265625,2.1224513053894043,-0.02535090781748295,0.10980302840471268
1700871060532152300,4.30015234375,2.1038198471069336,-0.010537425056099892,0.12370020896196365
1700871060549144000,4.31714404296875,2.0902280807495117,-0.017562376335263252,0.08994990587234497
1700871060566136600,4.334136474609375,2.070833206176758,-0.005497787147760391,0.10552696883678436
1700871060583128000,4.351128173828125,2.0453295707702637,-0.027641652151942253,0.09636399149894714
1700871060600120800,4.368120849609375,2.0143282413482666,0.020922135561704636,0.09498954564332962
1700871060617112600,4.385112548828125,1.9830212593078613,0.01863138936460018,0.10934487730264664
1700871060634100500,4.4021005859375,1.9585866928100586,0.00015271631127689034,0.11850785464048386
1700871060651096600,4.4190966796875,1.9489655494689941,0.001679879380390048,0.11621711403131485
1700871060668089300,4.43608935546875,1.9434677362442017,0.01114829070866108,0.11728613078594208
1700871060685078300,4.453078369140625,1.9431623220443726,-0.03573561832308769,0.1160643994808197
1700871060702076000,4.470075927734375,1.945758581161499,0.01191187184303999,0.10476338863372803
1700871060719065000,4.487065185546875,1.9472856521606445,0.007024950347840786,0.09086620807647705
1700871060736057600,4.5040576171875,1.9494236707687378,0.00733038317412138,0.11133018881082535
1700871060753049000,4.521049072265625,1.9520199298858643,0.0019853119738399982,0.09926560521125793
1700871060770031000,4.538031005859375,1.9576704502105713,0.00427605677396059,0.11041389405727386
1700871060787033300,4.555033447265625,1.9646953344345093,-0.012064588256180286,0.11407908797264099
1700871060804026000,4.572026123046875,1.972025752067566,-0.01114829070866108,0.1082758679986
1700871060821017600,4.589017578125,1.974927306175232,0.0019853119738399982,0.09865473955869675
1700871060838010000,4.606010009765625,1.9715676307678223,0.005955935921519995,0.09804387390613556
1700871060854999800,4.622999755859375,1.9642372131347656,0.010537425056099892,0.10155634582042694
1700871060871996700,4.63999658203125,1.9570595026016235,0.014966198243200779,0.11148291081190109
1700871060888996900,4.656996826171875,1.9538525342941284,0.0024434609804302454,0.11759155988693237
1700871060905978600,4.673978515625,1.952783465385437,-0.0064140851609408855,0.1215621829032898
1700871060922969300,4.69096923828125,1.9544633626937866,-0.00809396430850029,0.11636982858181
1700871060939964000,4.7079638671875,1.9536998271942139,-0.002138028386980295,0.10567969083786011
1700871060956954400,4.724954345703125,1.9506454467773438,0.00427605677396059,0.0981965884566307
1700871060973947000,4.74194677734375,1.9449949264526367,0.00733038317412138,0.09285151958465576
1700871060990938600,4.758938720703125,1.934762954711914,0.00855211354792118,0.09010262042284012
1700871061007931600,4.775931640625,1.920560359954834,0.0064140851609408855,0.09773843735456467
1700871061024923000,4.7929228515625,1.9037615060806274,0.0009162978967651725,0.10491610318422318
1700871061041915400,4.809915283203125,1.88864266872406,0.003512475173920393,0.11163562536239624
1700871061058907100,4.8269072265625,1.8730655908584595,-0.001679879380390048,0.1111774742603302
1700871061075899600,4.843899658203125,1.8617645502090454,-0.003359758760780096,0.10965031385421753
1700871061092891100,4.86089111328125,1.8538233041763306,-0.005955935921519995,0.10002918541431427
1700871061109883600,4.877883544921875,1.8463401794433594,0.014355333521962166,0.1014036312699318
1700871061126872600,4.89487255859375,1.8391625881195068,-0.0074830991216003895,0.09529497474431992
1700871061143871000,4.91187109375,1.8303049802780151,0.004123340360820293,0.09636399149894714
1700871061160849200,4.92884912109375,1.8216001987457275,0.004123340360820293,0.09315694868564606
1700871061177852200,4.94585205078125,1.8150333166122437,-0.002138028386980295,0.1033889427781105
1700871061194844000,4.962843994140625,1.811673641204834,-0.009621127508580685,0.10506882518529892
1700871061211836700,4.979836669921875,1.8125898838043213,-0.005345070734620094,0.10613783448934555
1700871061228828200,4.996828125,1.8144224882125854,-0.0019853119738399982,0.10674870014190674
1700871061245820700,5.013820556640625,1.818698525428772,0.001679879380390048,0.10399980843067169
1700871061262809600,5.0308095703125,1.8235855102539062,0.008704829961061478,0.10216721147298813
1700871061279807500,5.047807373046875,1.8292360305786133,0.010690141469240189,0.09972374886274338
1700871061296796400,5.06479638671875,1.8342756032943726,0.008399397134780884,0.0988074541091919
1700871061313789200,5.0817890625,1.839468002319336,0.0010690141934901476,0.09911288321018219
1700871061330780700,5.09878076171875,1.8443548679351807,-0.005650503560900688,0.0981965884566307
1700871061347773000,5.11577294921875,1.8490891456604004,-0.00733038317412138,0.10048733651638031
1700871061364765200,5.13276513671875,1.8539760112762451,-0.00809396430850029,0.10293079167604446
1700871061381770800,5.149770751953125,1.8588629961013794,-0.0027488935738801956,0.1033889427781105
1700871061398749200,5.166749267578125,1.8648189306259155,0.00015271631127689034,0.1014036312699318
1700871061415741700,5.18374169921875,1.8700112104415894,0.003512475173920393,0.10018189996480942
1700871061432733200,5.200733154296875,1.8750509023666382,0.002138028386980295,0.09773843735456467
1700871061449726000,5.217725830078125,1.878868818283081,0.005039638374000788,0.09941831976175308
1700871061466717400,5.234717529296875,1.881464958190918,0.0025961773935705423,0.1010981947183609
1700871061483710000,5.2517099609375,1.882686734199524,0.0029016099870204926,0.10674870014190674
1700871061500701200,5.268701171875,1.8866573572158813,0.0025961773935705423,0.11163562536239624
1700871061517695000,5.285695068359375,1.8929187059402466,0.0013744467869400978,0.11224649101495743
1700871061534686000,5.30268603515625,1.9043724536895752,0.0025961773935705423,0.10934487730264664
1700871061551678500,5.319678466796875,1.916131615638733,0.0009162978967651725,0.10674870014190674
1700871061568670200,5.336670166015625,1.9304869174957275,0.0003054326225537807,0.10155634582042694
1700871061585662700,5.353662841796875,1.943009614944458,-0.0003054326225537807,0.09926560521125793
1700871061602654200,5.370654296875,1.9532415866851807,-0.0022907445672899485,0.09926560521125793
1700871061619636700,5.38763671875,1.9601138830184937,-0.0010690141934901476,0.10384709388017654
1700871061636638500,5.404638427734375,1.9688186645507812,-0.0007635815418325365,0.10797043144702911
1700871061653632300,5.42163232421875,1.976759910583496,-0.00045814894838258624,0.11148291081190109
1700871061670621700,5.43862158203125,1.986533761024475,-0.0019853119738399982,0.11178833991289139
1700871061687615500,5.455615478515625,1.9990564584732056,-0.0003054326225537807,0.10903944820165634
1700871061704607700,5.472607666015625,2.0092885494232178,0.0019853119738399982,0.10506882518529892
1700871061721598500,5.489598388671875,2.017993450164795,0.004428773187100887,0.10644327104091644
1700871061738591000,5.506591064453125,2.0247128009796143,0.00366519158706069,0.10766500234603882
1700871061755583700,5.523583740234375,2.0332648754119873,0.00366519158706069,0.11194105446338654
1700871061772563000,5.54056298828125,2.041053533554077,0.0010690141934901476,0.11255192011594772
1700871061789567700,5.557567626953125,2.0503692626953125,-0.0006108652451075613,0.11255192011594772
1700871061806541600,5.57454150390625,2.0595321655273438,0.00015271631127689034,0.11239920556545258
1700871061823552300,5.59155224609375,2.0693061351776123,0.00045814894838258624,0.11209376901388168
1700871061840543700,5.608543701171875,2.0790798664093018,0.003817907767370343,0.1111774742603302
1700871061857536300,5.625536376953125,2.088701009750366,0.004123340360820293,0.11102475970983505
1700871061874528000,5.642528076171875,2.096642255783081,0.001832595793530345,0.11209376901388168
1700871061891520500,5.6595205078125,2.1041252613067627,0.0006108652451075613,0.11239920556545258
1700871061908512300,5.67651220703125,2.1125247478485107,0.00015271631127689034,0.11255192011594772
1700871061925504800,5.6935048828125,2.1197023391723633,-0.0009162978967651725,0.11453723162412643
1700871061942496300,5.710496337890625,2.127185583114624,0.0003054326225537807,0.11514809727668762
1700871061959488800,5.72748876953125,2.132988691329956,0.003054326167330146,0.11591167747974396
1700871061976480500,5.74448046875,2.1394028663635254,0.001527163083665073,0.11621711403131485
1700871061993470500,5.761470458984375,2.1459696292877197,0.001527163083665073,0.11667526513338089
1700871062010467300,5.77846728515625,2.1517727375030518,0.0022907445672899485,0.11545353382825851
1700871062027457500,5.79545751953125,2.154979944229126,0.001679879380390048,0.11453723162412643
1700871062044448800,5.81244873046875,2.1565070152282715,0.0032070425804704428,0.11499538272619247
1700871062061441500,5.829441650390625,2.1597139835357666,0.0019853119738399982,0.11636982858181
1700871062078433300,5.846433349609375,2.160783052444458,0.0012217304902151227,0.11652254313230515
1700871062095423000,5.863423095703125,2.163073778152466,0.002138028386980295,0.11621711403131485
1700871062112419800,5.880419921875,2.1647536754608154,0.0007635815418325365,0.11835514008998871
1700871062129410000,5.89741015625,2.1670444011688232,0.00045814894838258624,0.11682797968387604
1700871062146401500,5.914401611328125,2.1673498153686523,0.0039706239476799965,0.11575896292924881
1700871062163394000,5.93139404296875,2.1655173301696777,0.005803219974040985,0.11301007121801376
1700871062180385800,5.9483857421875,2.1618521213531494,0.006261368747800589,0.11514809727668762
1700871062197365800,5.96536572265625,2.1589505672454834,0.007024950347840786,0.11835514008998871
1700871062214369800,5.982369873046875,2.157576084136963,0.0032070425804704428,0.11682797968387604
1700871062231362800,5.99936279296875,2.1563544273376465,0.0012217304902151227,0.11682797968387604
1700871062248354000,6.01635400390625,2.1545217037200928,-0.001832595793530345,0.11423180252313614
1700871062265336000,6.033336181640625,2.1516201496124268,-0.00015271631127689034,0.1134682223200798
1700871062282335700,6.050335693359375,2.1473441123962402,-0.0003054326225537807,0.11301007121801376
1700871062299333600,6.067333740234375,2.1401662826538086,0.001832595793530345,0.11530081182718277
1700871062316322600,6.084322509765625,2.1339049339294434,0.0029016099870204926,0.11652254313230515
1700871062333315000,6.101315185546875,2.129934310913086,0.0009162978967651725,0.11759155988693237
1700871062350306800,6.118306884765625,2.1261165142059326,0.004123340360820293,0.1189660057425499
1700871062367299300,6.13529931640625,2.12397837638855,0.005497787147760391,0.11698069423437119
1700871062384290800,6.152290771484375,2.1222984790802,0.0032070425804704428,0.11423180252313614
1700871062401285400,6.169285400390625,2.1180224418640137,0.0006108652451075613,0.11194105446338654
1700871062418272500,6.1862724609375,2.1119139194488525,0.004734205547720194,0.10980302840471268
1700871062435269400,6.203269287109375,2.105041742324829,0.007788531947880983,0.11010845750570297
1700871062452260400,6.22026025390625,2.0946569442749023,0.0022907445672899485,0.11163562536239624
1700871062469251800,6.237251953125,2.0857994556427,0.00366519158706069,0.11178833991289139
1700871062486243600,6.25424365234375,2.0761783123016357,0.0007635815418325365,0.11301007121801376
1700871062503236400,6.271236328125,2.0667097568511963,-0.003359758760780096,0.11575896292924881
1700871062520227800,6.288227783203125,2.0592267513275146,0.00427605677396059,0.11911872029304504
1700871062537220400,6.305220458984375,2.0555615425109863,0.0003054326225537807,0.12018773704767227
1700871062554202000,6.3222021484375,2.054950714111328,0.0012217304902151227,0.12171489745378494
1700871062571198200,6.3391982421875,2.0564777851104736,0.002138028386980295,0.11804971098899841
1700871062588196400,6.3561962890625,2.0595321655273438,0.0006108652451075613,0.11362093687057495
1700871062605188900,6.37318896484375,2.0589213371276855,0.00015271631127689034,0.10919216275215149
1700871062622170000,6.390170166015625,2.057852268218994,-0.003512475173920393,0.10430523753166199
1700871062639172900,6.4071728515625,2.0534234046936035,-0.00015271631127689034,0.10583240538835526
1700871062656164600,6.42416455078125,2.045787811279297,0.0025961773935705423,0.1082758679986
1700871062673157400,6.441157470703125,2.037693738937378,0.0029016099870204926,0.11362093687057495
1700871062690146300,6.458146240234375,2.0303633213043213,0.003359758760780096,0.11804971098899841
1700871062707132400,6.47513232421875,2.0227274894714355,0.003817907767370343,0.12079860270023346
1700871062724135700,6.4921357421875,2.0190622806549072,0.0006108652451075613,0.12232576310634613
1700871062741125600,6.509125732421875,2.0172297954559326,0.007177666760981083,0.1235474944114685
1700871062758117000,6.5261171875,2.020742177963257,0.0009162978967651725,0.12140946835279465
1700871062775110000,6.54310986328125,2.0257818698883057,0.00366519158706069,0.1186605766415596
1700871062792099000,6.56009912109375,2.032043218612671,0.00809396430850029,0.11591167747974396
1700871062809094100,6.57709423828125,2.0384573936462402,0.00855211354792118,0.11301007121801376
1700871062826085600,6.594085693359375,2.0451767444610596,0.00809396430850029,0.11301007121801376
1700871062843078100,6.611078125,2.052507162094116,0.0024434609804302454,0.11209376901388168
1700871062860069600,6.628069580078125,2.0589213371276855,-0.005955935921519995,0.11026117950677872
1700871062877062700,6.645062744140625,2.0639610290527344,-0.006719517521560192,0.11255192011594772
1700871062894054100,6.66205419921875,2.0670151710510254,-0.006261368747800589,0.10797043144702911
1700871062911046700,6.679046630859375,2.069000482559204,0.0006108652451075613,0.10812314599752426
1700871062928038100,6.6960380859375,2.073582172393799,0.003054326167330146,0.11071932315826416
1700871062945033700,6.71303369140625,2.0763309001922607,0.004734205547720194,0.11041389405727386
1700871062962022400,6.7300224609375,2.0752620697021484,0.0012217304902151227,0.11102475970983505
1700871062979015200,6.74701513671875,2.073734760284424,0.003054326167330146,0.10903944820165634
1700871062996006700,6.764006591796875,2.071444034576416,-0.001527163083665073,0.10461067408323288
1700871063012999200,6.780999267578125,2.0650298595428467,-0.005345070734620094,0.10201449692249298
1700871063029991200,6.7979912109375,2.05433988571167,-0.0019853119738399982,0.10216721147298813
1700871063046983400,6.8149833984375,2.0392208099365234,0.0013744467869400978,0.10491610318422318
1700871063063975000,6.831974853515625,2.0254764556884766,0.0027488935738801956,0.11270463466644287
1700871063080967700,6.8489677734375,2.01509165763855,0.005803219974040985,0.12186761945486069
1700871063097959200,6.865959228515625,2.013259172439575,0.006719517521560192,0.12629638612270355
1700871063114951700,6.88295166015625,2.018451452255249,-0.00015271631127689034,0.12018773704767227
1700871063131943400,6.899943359375,2.032501459121704,-0.008704829961061478,0.11316278576850891
1700871063148936200,6.916936279296875,2.045787811279297,-0.007941247895359993,0.10445795953273773
1700871063165927700,6.933927734375,2.054034471511841,-0.005345070734620094,0.1014036312699318
1700871063182920400,6.95092041015625,2.0560197830200195,0.008704829961061478,0.10262536257505417
1700871063199912000,6.967911865234375,2.0558669567108154,0.015882495790719986,0.10812314599752426
1700871063216904400,6.984904541015625,2.055103302001953,0.010231993161141872,0.11560624837875366
1700871063233907500,7.001907470703125,2.0561723709106445,0.002138028386980295,0.1160643994808197
1700871063250888700,7.018888671875,2.0586159229278564,-0.0024434609804302454,0.1137736514210701
1700871063267864800,7.03586474609375,2.059684991836548,-0.006261368747800589,0.1085812970995903
1700871063284867600,7.05286767578125,2.0558669567108154,0.003359758760780096,0.10461067408323288
1700871063301864700,7.06986474609375,2.048689365386963,0.01572977937757969,0.10476338863372803
1700871063318857000,7.08685693359375,2.040442705154419,0.018020525574684143,0.10995574295520782
1700871063335848700,7.1038486328125,2.0361666679382324,0.015271631069481373,0.11224649101495743
1700871063352841200,7.12084130859375,2.0367774963378906,0.001832595793530345,0.11331550031900406
1700871063369833000,7.1378330078125,2.0387628078460693,-0.005955935921519995,0.10949759185314178
1700871063386827800,7.154827880859375,2.0413589477539062,-0.01542434748262167,0.10415252298116684
1700871063403815000,7.17181494140625,2.0396790504455566,-0.009468411095440388,0.10506882518529892
1700871063420809700,7.188809814453125,2.034944772720337,0.00366519158706069,0.10155634582042694
1700871063437801200,7.20580126953125,2.026850938796997,0.010842857882380486,0.10766500234603882
1700871063454794000,7.2227939453125,2.0169243812561035,0.01725694350898266,0.10797043144702911
1700871063471783000,7.239782958984375,2.0114264488220215,0.014508049935102463,0.11010845750570297
1700871063488770800,7.256770751953125,2.0089831352233887,0.013286318629980087,0.11041389405727386
1700871063505769700,7.273769775390625,2.007455825805664,0.004734205547720194,0.10537425428628922
1700871063522762800,7.2907626953125,2.0033326148986816,-0.0009162978967651725,0.1014036312699318
1700871063539753500,7.30775341796875,1.9966130256652832,-0.005345070734620094,0.09651670604944229
1700871063556746500,7.32474658203125,1.986533761024475,-0.003359758760780096,0.09865473955869675
1700871063573738200,7.34173828125,1.972331166267395,0,0.1007927656173706
1700871063590730800,7.358730712890625,1.9538525342941284,0.004734205547720194,0.10033461451530457
1700871063607722500,7.375722412109375,1.931708574295044,0.00015271631127689034,0.09941831976175308
1700871063624715000,7.392715087890625,1.906663179397583,-0.005955935921519995,0.09804387390613556
1700871063641706500,7.40970654296875,1.8822284936904907,0.0013744467869400978,0.1014036312699318
1700871063658689300,7.426689208984375,1.859321117401123,0.004886921960860491,0.1007927656173706
1700871063675690800,7.443690673828125,1.8374826908111572,0.007788531947880983,0.10170906037092209
1700871063692683500,7.46068359375,1.8206838369369507,0.010537425056099892,0.09957103431224823
1700871063709675000,7.477675048828125,1.8038851022720337,0.0019853119738399982,0.09346238523721695
1700871063726650600,7.494650634765625,1.7857118844985962,-0.0010690141934901476,0.09193521738052368
1700871063743659000,7.511658935546875,1.7644842863082886,0.004581489134579897,0.08750644326210022
1700871063760647400,7.5286474609375,1.7414240837097168,0.003512475173920393,0.08796459436416626
1700871063777647900,7.54564794921875,1.7159204483032227,0.002138028386980295,0.08781187981367111
1700871063794636000,7.562635986328125,1.690264105796814,-0.0009162978967651725,0.08918632566928864
1700871063811627500,7.57962744140625,1.6658295392990112,-0.004581489134579897,0.09117163717746735
1700871063828620300,7.596620361328125,1.6421585083007812,-0.001527163083665073,0.09086620807647705
1700871063845596000,7.613595947265625,1.6195564270019531,0.0027488935738801956,0.08659014850854874
1700871063862604500,7.6306044921875,1.5975652933120728,0.0007635815418325365,0.0861319974064827
1700871063879596000,7.647595947265625,1.5734361410140991,0.010690141469240189,0.07971791177988052
1700871063896586000,7.6645859375,1.5473216772079468,0.004886921960860491,0.07483099400997162
1700871063913582800,7.681582763671875,1.518610954284668,0.003512475173920393,0.07635815441608429
1700871063930573000,7.698572998046875,1.4902057647705078,-0.0032070425804704428,0.07360926270484924
1700871063947564500,7.715564453125,1.4622586965560913,-0.004123340360820293,0.07788532227277756
1700871063964557000,7.73255712890625,1.436449646949768,-0.009162978269159794,0.08185594528913498
1700871063981548500,7.749548583984375,1.4117095470428467,-0.00733038317412138,0.08048149943351746
1700871063998541600,7.76654150390625,1.3889548778533936,0.001527163083665073,0.0780380368232727
1700871064015532800,7.78353271484375,1.3672691583633423,0.0027488935738801956,0.07452555745840073
1700871064032523000,7.80052294921875,1.3480268716812134,0.004428773187100887,0.07254024595022202
1700871064049519400,7.817519287109375,1.3292428255081177,0.005955935921519995,0.07024950534105301
1700871064066509800,7.834509765625,1.3115277290344238,0.003359758760780096,0.07467827945947647
1700871064083503400,7.85150341796875,1.296408772468567,0.0019853119738399982,0.07849618047475815
1700871064100491800,7.86849169921875,1.2892310619354248,-0.0064140851609408855,0.08017606288194656
1700871064117485600,7.885485595703125,1.2886202335357666,-0.012828170321881771,0.08567385375499725
1700871064134478000,7.90247802734375,1.2942707538604736,-0.006872233934700489,0.08720101416110992
1700871064151457000,7.91945703125,1.303891897201538,-0.0027488935738801956,0.0809396430850029
1700871064168462300,7.93646240234375,1.3170254230499268,0.003817907767370343,0.07849618047475815
1700871064185453800,7.953453857421875,1.331380844116211,0.006872233934700489,0.06979135423898697
1700871064202446600,7.970446533203125,1.3419182300567627,0.008399397134780884,0.0708603709936142
1700871064219438000,7.98743798828125,1.3515393733978271,0.007024950347840786,0.07131851464509964
1700871064236430600,8.0044306640625,1.3590224981307983,0.0065668015740811825,0.0757472887635231
1700871064253422300,8.02142236328125,1.3683381080627441,0.0010690141934901476,0.0809396430850029
1700871064270415000,8.0384150390625,1.3794864416122437,-0.009162978269159794,0.08216137439012527
1700871064287406600,8.055406494140625,1.3935363292694092,-0.006261368747800589,0.0832303911447525
1700871064304399400,8.0723994140625,1.4121677875518799,-0.0012217304902151227,0.07819075137376785
1700871064321388300,8.08938818359375,1.433700680732727,0,0.07925976812839508
1700871064338386000,8.106385986328124,1.4555391073226929,-0.0019853119738399982,0.07620543986558914
1700871064355374800,8.123374755859375,1.4767667055130005,0.00733038317412138,0.07910704612731934
1700871064372352000,8.14035205078125,1.4975361824035645,0.0024434609804302454,0.08048149943351746
1700871064389359000,8.157359130859374,1.5181528329849243,-0.003817907767370343,0.08567385375499725
1700871064406352000,8.174351806640624,1.538158655166626,0.00366519158706069,0.0858265683054924
1700871064423343400,8.19134326171875,1.5567901134490967,0,0.0832303911447525
1700871064440336000,8.2083359375,1.5755741596221924,0.001832595793530345,0.08689557760953903
1700871064457327600,8.22532763671875,1.5928311347961426,0.007024950347840786,0.0858265683054924
1700871064474320100,8.242320068359374,1.6093244552612305,0.0065668015740811825,0.08567385375499725
1700871064491311600,8.2593115234375,1.6265814304351807,0.001527163083665073,0.08796459436416626
1700871064508304400,8.276304443359376,1.6412421464920044,-0.0007635815418325365,0.08811730891466141
1700871064525295900,8.2932958984375,1.6557502746582031,0.003359758760780096,0.09117163717746735
1700871064542288600,8.31028857421875,1.669342041015625,0.007024950347840786,0.09422596544027328
1700871064559280400,8.3272802734375,1.685835361480713,0.00427605677396059,0.09483683109283447
1700871064576273000,8.34427294921875,1.7047722339630127,-0.0010690141934901476,0.09254608303308487
1700871064593264400,8.361264404296875,1.720807433128357,-0.001527163083665073,0.09239336848258972
1700871064610257200,8.378257080078125,1.7366899251937866,-0.005345070734620094,0.08949175477027893
1700871064627248600,8.39524853515625,1.7499761581420898,0.0003054326225537807,0.0907134860754013
1700871064644241200,8.4122412109375,1.7599027156829834,0.009010262787342072,0.09178250283002853
1700871064661222400,8.429222412109375,1.7701348066329956,0.005803219974040985,0.09911288321018219
1700871064678225400,8.446225341796875,1.7799086570739746,-0.0003054326225537807,0.09896016865968704
1700871064695218400,8.463218505859375,1.79090416431427,0.0027488935738801956,0.10277807712554932
1700871064712208100,8.4802080078125,1.8041905164718628,-0.0013744467869400978,0.1010981947183609
1700871064729201400,8.497201416015624,1.8194621801376343,-0.0024434609804302454,0.09987647086381912
1700871064746194000,8.51419384765625,1.8333593606948853,-0.0022907445672899485,0.09651670604944229
1700871064763175000,8.5311748046875,1.846798300743103,-0.0019853119738399982,0.09758572280406952
1700871064780178000,8.548177978515625,1.859015703201294,0,0.09911288321018219
1700871064797169700,8.565169677734374,1.870163917541504,0.0022907445672899485,0.10002918541431427
1700871064814162400,8.582162353515624,1.8810068368911743,0.0003054326225537807,0.10308351367712021
1700871064831154000,8.59915380859375,1.8910861015319824,-0.0027488935738801956,0.10231992602348328
1700871064848141800,8.616141845703124,1.9016234874725342,0.001527163083665073,0.10567969083786011
1700871064865138200,8.63313818359375,1.9118554592132568,-0.0013744467869400978,0.10522153973579407
1700871064882130700,8.650130615234374,1.9239200353622437,-0.001527163083665073,0.11026117950677872
1700871064899122200,8.6671220703125,1.9370536804199219,-0.001679879380390048,0.10842858254909515
1700871064916104400,8.6841044921875,1.9518672227859497,-0.00366519158706069,0.10766500234603882
1700871064933106400,8.7011064453125,1.9659171104431152,-0.0006108652451075613,0.10445795953273773
1700871064950099200,8.71809912109375,1.9759963750839233,0.003817907767370343,0.10048733651638031
1700871064967088000,8.735088134765626,1.9798142910003662,0.01191187184303999,0.09575312584638596
1700871064984085800,8.752085693359374,1.9785925149917603,0.00855211354792118,0.10277807712554932
1700871065001074700,8.76907470703125,1.977676272392273,0.00809396430850029,0.11026117950677872
1700871065018067700,8.786067626953125,1.9788979291915894,0.002138028386980295,0.11133018881082535
1700871065035059200,8.80305908203125,1.9813414812088013,-0.006872233934700489,0.11316278576850891
1700871065052051700,8.8200517578125,1.9857702255249023,-0.0022907445672899485,0.11239920556545258
1700871065069043200,8.837043212890626,1.9927951097488403,0.002138028386980295,0.10919216275215149
1700871065086033700,8.85403369140625,2.0002782344818115,0.003512475173920393,0.10506882518529892
1700871065103029800,8.87102978515625,2.0060815811157227,0.006719517521560192,0.10277807712554932
1700871065120020200,8.888020263671875,2.0094411373138428,0.009773843921720982,0.10415252298116684
1700871065137011700,8.90501171875,2.0117318630218506,0.005345070734620094,0.10690141469240189
1700871065154004500,8.92200439453125,2.012953758239746,0.00045814894838258624,0.10949759185314178
1700871065170996000,8.938995849609375,2.013106346130371,-0.0032070425804704428,0.11133018881082535
1700871065187988500,8.955988525390625,2.017993450164795,-0.0032070425804704428,0.11270463466644287
1700871065204980000,8.97297998046875,2.0225749015808105,-0.0027488935738801956,0.11148291081190109
1700871065221972700,8.98997265625,2.0274617671966553,0.005497787147760391,0.11102475970983505
1700871065238964500,9.006964599609375,2.0335702896118164,0.01160643994808197,0.10903944820165634
1700871065255957000,9.02395703125,2.040442705154419,0.010231993161141872,0.10903944820165634
1700871065272948700,9.04094873046875,2.048689365386963,0.008399397134780884,0.11148291081190109
1700871065289938400,9.0579384765625,2.057241439819336,0.0074830991216003895,0.11010845750570297
1700871065306932700,9.0749326171875,2.067931652069092,0.00427605677396059,0.10995574295520782
1700871065323925500,9.091925537109375,2.0780107975006104,0.006719517521560192,0.10903944820165634
1700871065340917000,9.1089169921875,2.0845775604248047,0.0074830991216003895,0.10583240538835526
1700871065357909800,9.12590966796875,2.0925188064575195,0.005803219974040985,0.10705413669347763
1700871065374901000,9.14290087890625,2.099849224090576,0.0022907445672899485,0.11010845750570297
1700871065391893800,9.159893798828126,2.108401298522949,0.004123340360820293,0.11591167747974396
1700871065408885500,9.176885498046875,2.1207714080810547,0.005039638374000788,0.11789698898792267
1700871065425878300,9.193878173828125,2.135584831237793,0.004581489134579897,0.11698069423437119
1700871065442869000,9.210868896484374,2.1534526348114014,0.005650503560900688,0.11545353382825851
1700871065459862800,9.22786279296875,2.169335126876831,0.0024434609804302454,0.11194105446338654
1700871065476853800,9.244853759765626,2.183079719543457,0.0006108652451075613,0.11209376901388168
1700871065493846500,9.261846435546875,2.194838762283325,-0.0022907445672899485,0.11255192011594772
1700871065510838000,9.278838134765625,2.2040019035339355,-0.001679879380390048,0.1160643994808197
1700871065527830800,9.295830810546875,2.2116377353668213,-0.0009162978967651725,0.1186605766415596
1700871065544814000,9.31281396484375,2.2185099124908447,0,0.12049316614866257
1700871065561814800,9.329814697265626,2.2237021923065186,0.0012217304902151227,0.12018773704767227
1700871065578806500,9.346806640625,2.227672815322876,0.0012217304902151227,0.11850785464048386
1700871065595799000,9.363799072265625,2.230727195739746,0.00015271631127689034,0.11789698898792267
1700871065612794600,9.380794677734375,2.2296581268310547,0,0.11759155988693237
1700871065629783300,9.397783203125,2.2285890579223633,0.00045814894838258624,0.11957687139511108
1700871065646774800,9.41477490234375,2.2243130207061768,-0.00015271631127689034,0.12003502249717712
1700871065663767600,9.431767578125,2.219273328781128,0.001679879380390048,0.11927144229412079
1700871065680759000,9.448759033203125,2.2130119800567627,0.005039638374000788,0.1189660057425499
1700871065697751800,9.465751708984374,2.205070734024048,0.007941247895359993,0.1186605766415596
1700871065714743300,9.482743408203126,2.197587728500366,0.010231993161141872,0.11881329119205475
1700871065731735800,9.49973583984375,2.1902573108673096,0.007941247895359993,0.1189660057425499
1700871065748727600,9.5167275390625,2.1839959621429443,0.0065668015740811825,0.11743884533643723
1700871065765720000,9.533719970703125,2.177734613418579,0.007788531947880983,0.11575896292924881
1700871065782711600,9.550711669921874,2.1725423336029053,0.003054326167330146,0.11530081182718277
1700871065799704300,9.567704345703126,2.1678080558776855,0.0024434609804302454,0.11484266817569733
1700871065816695800,9.58469580078125,2.1650590896606445,0.003512475173920393,0.11407908797264099
1700871065833679600,9.6016796875,2.160783052444458,0.0013744467869400978,0.11575896292924881
1700871065850679800,9.6186796875,2.1563544273376465,-0.002138028386980295,0.12034045159816742
1700871065867673300,9.63567333984375,2.1542162895202637,-0.0012217304902151227,0.11911872029304504
1700871065884648400,9.6526484375,2.154979944229126,0.0025961773935705423,0.12492194026708603
1700871065901651000,9.66965087890625,2.157423257827759,0.0024434609804302454,0.12553280591964722
1700871065918648600,9.686648681640625,2.1598668098449707,0.0003054326225537807,0.12003502249717712
1700871065935645700,9.703645751953125,2.161088466644287,0.004886921960860491,0.11988230794668198
1700871065952632800,9.7206328125,2.1623103618621826,0.0022907445672899485,0.11392636597156525
1700871065969625300,9.737625244140625,2.161393880844116,0.0024434609804302454,0.10949759185314178
1700871065986616800,9.754616943359375,2.155132532119751,0.0025961773935705423,0.11041389405727386
1700871066003609600,9.771609619140625,2.1449005603790283,0.001527163083665073,0.10766500234603882
1700871066020601000,9.78860107421875,2.132988691329956,0.001832595793530345,0.10797043144702911
1700871066037593900,9.80559375,2.118786096572876,0.0032070425804704428,0.11407908797264099
1700871066054585300,9.82258544921875,2.104888916015625,0.0006108652451075613,0.11881329119205475
1700871066071578000,9.839578125,2.0922133922576904,0.0019853119738399982,0.1238529309630394
1700871066088569600,9.856569580078125,2.0813705921173096,0.0009162978967651725,0.12736541032791138
1700871066105566500,9.87356640625,2.073582172393799,0.0013744467869400978,0.126143679022789
1700871066122551300,9.89055126953125,2.068389654159546,0.004734205547720194,0.12095131725072861
1700871066139549000,9.907548828125,2.0650298595428467,0.0074830991216003895,0.11301007121801376
1700871066156538000,9.9245380859375,2.0624337196350098,0.0027488935738801956,0.10735956579446793
1700871066173542100,9.941542236328125,2.0581576824188232,0.005039638374000788,0.10445795953273773
1700871066190522000,9.958522216796876,2.052507162094116,0.0012217304902151227,0.1036943718791008
1700871066207515000,9.975514892578126,2.043649673461914,-0.003817907767370343,0.10644327104091644
1700871066224503800,9.99250390625,2.0340285301208496,0.0007635815418325365,0.11148291081190109
1700871066241501700,10.009501708984375,2.021658420562744,-0.003359758760780096,0.11239920556545258
1700871066258490600,10.02649072265625,2.012800931930542,0.0003054326225537807,0.11255192011594772
1700871066275472600,10.04347265625,2.004707098007202,0.0064140851609408855,0.1134682223200798
1700871066292475000,10.060474853515625,1.9996674060821533,0.0025961773935705423,0.11071932315826416
1700871066309467600,10.077467529296875,1.9976820945739746,0.0012217304902151227,0.10812314599752426
1700871066326452000,10.094451904296875,1.995696783065796,0.003359758760780096,0.10537425428628922
1700871066343451000,10.111450927734374,1.996002197265625,0.0025961773935705423,0.1036943718791008
1700871066360443400,10.128443359375,1.9952386617660522,0.0029016099870204926,0.10537425428628922
1700871066377425400,10.14542529296875,1.9940168857574463,0.001527163083665073,0.10735956579446793
1700871066394427400,10.162427490234375,1.9931005239486694,0.0003054326225537807,0.10659598559141159
1700871066411420200,10.179420166015625,1.9937114715576172,0.0012217304902151227,0.11026117950677872
1700871066428412000,10.196411865234374,1.9969184398651123,0.0027488935738801956,0.10919216275215149
1700871066445404400,10.213404296875,2.0036380290985107,0.0065668015740811825,0.10873401165008545
1700871066462396000,10.23039599609375,2.009746551513672,0.004734205547720194,0.10949759185314178
1700871066479388400,10.247388427734375,2.0172297954559326,-0.0027488935738801956,0.10674870014190674
1700871066496380200,10.264380126953125,2.0254764556884766,0.00045814894838258624,0.10644327104091644
1700871066513361400,10.281361328125,2.0338759422302246,0.00366519158706069,0.10644327104091644
1700871066530364000,10.298364013671875,2.0442605018615723,0.0064140851609408855,0.10751228034496307
1700871066547357000,10.31535693359375,2.0552561283111572,0.009621127508580685,0.10873401165008545
1700871066564348700,10.3323486328125,2.0636556148529053,0.010690141469240189,0.1088867336511612
1700871066581332500,10.34933251953125,2.0722076892852783,0.0024434609804302454,0.10674870014190674
1700871066598332700,10.366332763671876,2.0783162117004395,-0.00366519158706069,0.10705413669347763
1700871066615325400,10.383325439453126,2.0838141441345215,-0.005650503560900688,0.10690141469240189
1700871066632317000,10.40031689453125,2.0873265266418457,-0.0019853119738399982,0.10873401165008545
1700871066649309700,10.417309814453125,2.0917553901672363,0.0024434609804302454,0.11194105446338654
1700871066666301200,10.43430126953125,2.0946569442749023,0.005039638374000788,0.11407908797264099
1700871066683291400,10.45129150390625,2.1004600524902344,0.004734205547720194,0.11438451707363129
1700871066700287700,10.468287841796876,2.1087067127227783,0.005192354787141085,0.11255192011594772
1700871066717278000,10.48527783203125,2.116189956665039,-0.0003054326225537807,0.11133018881082535
1700871066734269400,10.50226953125,2.1224513053894043,-0.0007635815418325365,0.10705413669347763
1700871066751262200,10.51926220703125,2.1255056858062744,0.0013744467869400978,0.10659598559141159
1700871066768253700,10.536253662109376,2.1224513053894043,0.00015271631127689034,0.1085812970995903
1700871066785246500,10.55324658203125,2.1151208877563477,-0.0025961773935705423,0.11026117950677872
1700871066802238000,10.570238037109375,2.1094703674316406,0.0013744467869400978,0.11530081182718277
1700871066819230700,10.587230712890625,2.105347156524658,0.005497787147760391,0.11530081182718277
1700871066836222200,10.60422216796875,2.105041742324829,-0.0007635815418325365,0.1134682223200798
1700871066853215000,10.621215087890626,2.1061105728149414,0.007941247895359993,0.11056660860776901
1700871066870205400,10.638205322265625,2.104430675506592,0.007024950347840786,0.10491610318422318
1700871066887199000,10.655198974609375,2.1001546382904053,0.0065668015740811825,0.10308351367712021
1700871066904190700,10.672190673828124,2.0899226665496826,0.001832595793530345,0.10461067408323288
1700871066921181000,10.689180908203125,2.0734293460845947,0.0010690141934901476,0.10384709388017654
1700871066938177300,10.70617724609375,2.052354574203491,0.005650503560900688,0.1059851199388504
1700871066955167500,10.72316748046875,2.030057907104492,0.003054326167330146,0.10583240538835526
1700871066972159200,10.7401591796875,2.007150411605835,-0.00045814894838258624,0.10247264802455902
1700871066989151700,10.75715185546875,1.9828685522079468,0.00809396430850029,0.09972374886274338
1700871067006143200,10.774143310546876,1.9591975212097168,0.00931569468230009,0.10002918541431427
1700871067023125500,10.79112548828125,1.9370536804199219,0.018325956538319588,0.10033461451530457
1700871067040127500,10.80812744140625,1.917811393737793,-0.009162978269159794,0.10705413669347763
1700871067057120300,10.825120361328125,1.9029979705810547,0.003817907767370343,0.10781771689653397
1700871067074111700,10.84211181640625,1.8906279802322388,0.0024434609804302454,0.10720685124397278
1700871067091104300,10.859104248046876,1.8790215253829956,-0.022449297830462456,0.10231992602348328
1700871067108091600,10.876091552734374,1.8683313131332397,-0.01191187184303999,0.0988074541091919
1700871067125088500,10.893088623046875,1.8573358058929443,0.00366519158706069,0.09239336848258972
1700871067142080000,10.910080078125,1.8448129892349243,0.002138028386980295,0.09926560521125793
1700871067159072800,10.92707275390625,1.8365663290023804,0.008246680721640587,0.10216721147298813
1700871067176064300,10.944064208984376,1.832595705986023,0.014355333521962166,0.10644327104091644
1700871067193048600,10.961048583984375,1.8342756032943726,0.008704829961061478,0.11071932315826416
1700871067210048500,10.978048583984375,1.8390097618103027,0.0019853119738399982,0.10980302840471268
1700871067227041500,10.99504150390625,1.848020076751709,0.001679879380390048,0.10430523753166199
1700871067244032800,11.01203271484375,1.856266736984253,-0.004734205547720194,0.09865473955869675
1700871067261025300,11.029025390625,1.8657351732254028,0.00427605677396059,0.09117163717746735
1700871067278017000,11.04601708984375,1.8710802793502808,0.00733038317412138,0.08994990587234497
1700871067295009500,11.063009521484375,1.87611985206604,0.005497787147760391,0.09224065393209457
1700871067312001000,11.0800009765625,1.8797850608825684,0.0019853119738399982,0.10125091671943665
1700871067328993800,11.096993896484374,1.8832975625991821,-0.0025961773935705423,0.10491610318422318
1700871067345985300,11.1139853515625,1.8848247528076172,-0.004886921960860491,0.10674870014190674
1700871067362967800,11.1309677734375,1.8875735998153687,-0.0019853119738399982,0.10980302840471268
1700871067379969500,11.147969482421875,1.891238808631897,-0.0065668015740811825,0.1085812970995903
1700871067396962300,11.16496240234375,1.895667552947998,-0.007177666760981083,0.11041389405727386
1700871067413953800,11.181953857421876,1.9020816087722778,0.0010690141934901476,0.10995574295520782
1700871067430946300,11.1989462890625,1.9088011980056763,0,0.10705413669347763
1700871067447938000,11.21593798828125,1.914909839630127,0.009773843921720982,0.10277807712554932
1700871067464931000,11.23293115234375,1.9194912910461426,0.007024950347840786,0.098502017557621
1700871067481922000,11.249922119140624,1.9236146211624146,-0.004734205547720194,0.10216721147298813
1700871067498914800,11.266914794921876,1.9274325370788574,-0.0065668015740811825,0.10476338863372803
1700871067515906600,11.283906494140625,1.9310977458953857,-0.003054326167330146,0.10766500234603882
1700871067532899000,11.300899169921875,1.9365955591201782,-0.00366519158706069,0.10995574295520782
1700871067549891800,11.317891845703125,1.941482424736023,-0.0027488935738801956,0.10797043144702911
1700871067566882000,11.334882080078126,1.945758581161499,0.00427605677396059,0.10567969083786011
1700871067583884800,11.351884765625,1.9495763778686523,0.011759156361222267,0.10430523753166199
1700871067600867600,11.36886767578125,1.9529361724853516,0.005192354787141085,0.10231992602348328
1700871067617859000,11.385859130859375,1.9556851387023926,0.00045814894838258624,0.10506882518529892
1700871067634841300,11.40284130859375,1.9570595026016235,-0.00366519158706069,0.10491610318422318
1700871067651843300,11.41984326171875,1.9593502283096313,-0.003359758760780096,0.10797043144702911
1700871067668825300,11.436825439453125,1.959502935409546,-0.001832595793530345,0.1059851199388504
1700871067685829600,11.45382958984375,1.959961175918579,0.004123340360820293,0.10522153973579407
1700871067702818300,11.470818359375,1.95965576171875,0.005955935921519995,0.10583240538835526
1700871067719811600,11.4878115234375,1.9575176239013672,0.003054326167330146,0.10674870014190674
1700871067736804400,11.504804443359374,1.9561432600021362,0.0010690141934901476,0.1062905490398407
1700871067753787000,11.521786865234375,1.9561432600021362,0.0039706239476799965,0.10644327104091644
1700871067770788600,11.53878857421875,1.9570595026016235,0.007177666760981083,0.10476338863372803
1700871067787780000,11.555780029296875,1.9570595026016235,0.01160643994808197,0.10354165732860565
1700871067804772900,11.57277294921875,1.958433985710144,0.00809396430850029,0.10476338863372803
1700871067821764400,11.589764404296876,1.9619464874267578,0.0007635815418325365,0.10552696883678436
1700871067838756900,11.6067568359375,1.965153455734253,-0.0012217304902151227,0.10751228034496307
1700871067855738400,11.62373828125,1.968207836151123,-0.003054326167330146,0.10476338863372803
1700871067872741000,11.6407412109375,1.9718730449676514,-0.003054326167330146,0.1059851199388504
1700871067889732600,11.657732666015624,1.9741637706756592,0.00015271631127689034,0.10690141469240189
1700871067906725400,11.674725341796876,1.9755382537841797,0.0012217304902151227,0.10659598559141159
1700871067923717000,11.691717041015625,1.976759910583496,0.0013744467869400978,0.1062905490398407
1700871067940709600,11.708709716796875,1.9758436679840088,0.001527163083665073,0.10461067408323288
1700871067957701000,11.725701171875,1.9753854274749756,0.0024434609804302454,0.1059851199388504
1700871067974694000,11.74269384765625,1.9743164777755737,0.002138028386980295,0.10583240538835526
1700871067991685400,11.759685302734376,1.9734001159667969,0.0006108652451075613,0.1059851199388504
1700871068008678100,11.77667822265625,1.9734001159667969,0.0022907445672899485,0.10674870014190674
1700871068025655000,11.793655029296875,1.9743164777755737,0.0019853119738399982,0.10797043144702911
1700871068042662100,11.810662109375,1.9766072034835815,0.0012217304902151227,0.10720685124397278
1700871068059653600,11.827653564453126,1.9787452220916748,0.001527163083665073,0.10659598559141159
1700871068076644600,11.84464453125,1.9822577238082886,0.0024434609804302454,0.10720685124397278
1700871068093639700,11.8616396484375,1.9871445894241333,0.00045814894838258624,0.10690141469240189
1700871068110631000,11.878630859375,1.9931005239486694,0.003817907767370343,0.10567969083786011
1700871068127622400,11.895622314453124,1.9981402158737183,0.004886921960860491,0.10415252298116684
1700871068144615000,11.912614990234376,2.0021109580993652,0.005497787147760391,0.10445795953273773
1700871068161606400,11.9296064453125,2.0059287548065186,0.0025961773935705423,0.10430523753166199
1700871068178599000,11.946598876953125,2.006844997406006,-0.0007635815418325365,0.10384709388017654
1700871068195590700,11.963590576171875,2.007150411605835,0.00015271631127689034,0.10644327104091644
1700871068212583400,11.98058349609375,2.009899377822876,0,0.11071932315826416
1700871068229575200,11.9975751953125,2.012800931930542,-0.0007635815418325365,0.10980302840471268
1700871068246567400,12.0145673828125,2.0176877975463867,-0.00015271631127689034,0.11133018881082535
1700871068263559200,12.03155908203125,2.0233383178710938,-0.003817907767370343,0.10720685124397278
1700871068280530700,12.04853076171875,2.0285308361053467,-0.0003054326225537807,0.10567969083786011
1700871068297545500,12.06554541015625,2.032654047012329,0.003512475173920393,0.10705413669347763
1700871068314536000,12.082535888671876,2.0360138416290283,0.0029016099870204926,0.10659598559141159
1700871068331527400,12.09952734375,2.037540912628174,0.007177666760981083,0.10797043144702911
1700871068348520200,12.116520263671875,2.0398318767547607,0.004734205547720194,0.1085812970995903
1700871068365511700,12.13351171875,2.0422751903533936,0.001832595793530345,0.11010845750570297
1700871068382504200,12.150504150390624,2.0454821586608887,0.001832595793530345,0.11102475970983505
1700871068399496000,12.167495849609375,2.0502164363861084,-0.0012217304902151227,0.10980302840471268
1700871068416488400,12.184488525390625,2.057394027709961,0.0039706239476799965,0.11239920556545258
1700871068433488600,12.201488525390625,2.0636556148529053,0.004734205547720194,0.1085812970995903
1700871068450462200,12.218462158203126,2.071138620376587,0.005345070734620094,0.10659598559141159
1700871068467464400,12.23546435546875,2.0749564170837402,0.004886921960860491,0.10613783448934555
1700871068484457000,12.25245703125,2.076789140701294,0.00015271631127689034,0.10705413669347763
1700871068501446000,12.26944580078125,2.0780107975006104,-0.0012217304902151227,0.10949759185314178
1700871068518443800,12.28644384765625,2.080301523208618,0.00045814894838258624,0.1137736514210701
1700871068535422200,12.303422119140626,2.085952043533325,0.003512475173920393,0.11682797968387604
1700871068552425500,12.320425537109376,2.0957260131835938,0.009926560334861279,0.11636982858181
1700871068569417000,12.3374169921875,2.1067214012145996,0.007177666760981083,0.11163562536239624
1700871068586409500,12.354409423828125,2.116037130355835,0.0024434609804302454,0.10949759185314178
1700871068603401200,12.371401123046875,2.1224513053894043,0.0007635815418325365,0.10659598559141159
1700871068620393700,12.388393798828124,2.1255056858062744,-0.0013744467869400978,0.10384709388017654
1700871068637385500,12.405385498046876,2.124589204788208,-0.004886921960860491,0.10751228034496307
1700871068654377000,12.422376953125,2.121229648590088,-0.0027488935738801956,0.11316278576850891
1700871068671370800,12.439370849609375,2.1174116134643555,-0.00015271631127689034,0.11728613078594208
1700871068688362200,12.4563623046875,2.1142046451568604,0.0009162978967651725,0.11804971098899841
1700871068705349600,12.473349609375,2.1117610931396484,0.0006108652451075613,0.11743884533643723
1700871068722348000,12.49034814453125,2.1111502647399902,0.00427605677396059,0.11316278576850891
1700871068739340500,12.507340576171876,2.1091649532318115,0.005192354787141085,0.10949759185314178
1700871068756330800,12.524330810546875,2.107332468032837,0.005039638374000788,0.11071932315826416
1700871068773322200,12.541322265625,2.105499744415283,0.003359758760780096,0.1137736514210701
1700871068790314800,12.558314697265626,2.104430675506592,-0.0003054326225537807,0.11759155988693237
1700871068807306500,12.575306396484375,2.1038198471069336,-0.0010690141934901476,0.12110403180122375
1700871068824299300,12.59229931640625,2.104888916015625,-0.003817907767370343,0.11835514008998871
1700871068841290800,12.609290771484375,2.105347156524658,0.0003054326225537807,0.11560624837875366
1700871068858283300,12.626283203125,2.10809588432312,0.005192354787141085,0.11453723162412643
1700871068875272200,12.643272216796875,2.110539436340332,0.0032070425804704428,0.11438451707363129
1700871068892270000,12.66027001953125,2.1119139194488525,0.004734205547720194,0.11530081182718277
1700871068909259300,12.67725927734375,2.113288402557373,0.003359758760780096,0.11575896292924881
1700871068926255000,12.694255126953125,2.113593816757202,-0.0010690141934901476,0.11560624837875366
1700871068943245800,12.711245849609375,2.1140518188476562,-0.003817907767370343,0.11423180252313614
1700871068960235800,12.72823583984375,2.113746404647827,0.003054326167330146,0.1108720451593399
1700871068977227500,12.7452275390625,2.1097757816314697,0.001527163083665073,0.11010845750570297
1700871068994220300,12.76222021484375,2.104736089706421,0.005650503560900688,0.11163562536239624
1700871069011211800,12.779211669921875,2.1009182929992676,0.010537425056099892,0.11575896292924881
1700871069028204500,12.79620458984375,2.096031427383423,0.005650503560900688,0.11820242553949356
1700871069045196000,12.813196044921876,2.093129873275757,0.001527163083665073,0.12492194026708603
1700871069062186000,12.83018603515625,2.091297149658203,-0.003512475173920393,0.12507465481758118
1700871069079177500,12.847177490234374,2.0929770469665527,-0.009010262787342072,0.12324206531047821
1700871069096175400,12.86417529296875,2.09389328956604,0.0006108652451075613,0.11652254313230515
1700871069113164300,12.881164306640626,2.0958786010742188,0.009010262787342072,0.1082758679986
1700871069130157000,12.898156982421876,2.094198703765869,0.012522737495601177,0.10552696883678436
1700871069147148500,12.9151484375,2.09389328956604,0.018325956538319588,0.10705413669347763
1700871069164131000,12.932131103515625,2.090686321258545,0.01114829070866108,0.11071932315826416
1700871069181132800,12.9491328125,2.0893118381500244,0.004428773187100887,0.11514809727668762
1700871069198125300,12.966125244140626,2.087784767150879,0.0029016099870204926,0.11774427443742752
1700871069215117000,12.983116943359375,2.0867156982421875,-0.004734205547720194,0.11713340878486633
1700871069232109600,13.000109619140625,2.085188627243042,-0.003054326167330146,0.11178833991289139
1700871069249101000,13.01710107421875,2.079232692718506,0.0010690141934901476,0.1088867336511612
1700871069266093800,13.03409375,2.0641136169433594,-0.014355333521962166,0.11163562536239624
1700871069283085600,13.05108544921875,2.045940399169922,-0.0065668015740811825,0.1137736514210701
1700871069300078000,13.068078125,2.0247128009796143,-0.008704829961061478,0.11163562536239624
1700871069317069600,13.085069580078125,2.0051651000976562,0.005192354787141085,0.11759155988693237
1700871069334062300,13.102062255859375,1.991878867149353,0.02076941914856434,0.11438451707363129
1700871069351049700,13.1190498046875,1.9816468954086304,0.024587325751781464,0.1036943718791008
1700871069368046600,13.136046630859376,1.9746218919754028,0.02519819140434265,0.10170906037092209
1700871069385038000,13.1530380859375,1.967902421951294,0.008399397134780884,0.0981965884566307
1700871069402028000,13.170028076171874,1.9620991945266724,-0.0009162978967651725,0.09712757170200348
1700871069419025000,13.18702490234375,1.957212209701538,-0.003359758760780096,0.09926560521125793
1700871069436014800,13.204014892578124,1.9518672227859497,-0.01114829070866108,0.10201449692249298
1700871069453006300,13.22100634765625,1.9494236707687378,-0.004428773187100887,0.10445795953273773
1700871069469999000,13.2379990234375,1.9454530477523804,0.005955935921519995,0.10690141469240189
1700871069486988000,13.254988037109374,1.9449949264526367,0.010537425056099892,0.1085812970995903
1700871069503987000,13.271987060546875,1.9475910663604736,0.0039706239476799965,0.10781771689653397
1700871069520980500,13.28898046875,1.9547687768936157,0.0012217304902151227,0.10720685124397278
1700871069537967600,13.305967529296876,1.9663752317428589,0.006261368747800589,0.10476338863372803
1700871069554959000,13.322958984375,1.9788979291915894,0.002138028386980295,0.10064005106687546
1700871069571951900,13.339951904296875,1.9889771938323975,-0.00015271631127689034,0.09957103431224823
1700871069588943400,13.356943359375,1.9967657327651978,0.0013744467869400978,0.09972374886274338
1700871069605935900,13.373935791015626,2.0005836486816406,-0.0003054326225537807,0.10186178237199783
1700871069622927600,13.390927734375,2.0034852027893066,-0.0024434609804302454,0.10522153973579407
1700871069639920000,13.407920166015625,2.0027217864990234,0.0032070425804704428,0.10567969083786011
1700871069656912000,13.424911865234375,2.0033326148986816,0.004886921960860491,0.10659598559141159
1700871069673894000,13.441893798828126,2.001499891281128,-0.00015271631127689034,0.10613783448934555
1700871069690896000,13.458895751953126,2.001652717590332,-0.001832595793530345,0.10659598559141159
1700871069707888600,13.475888671875,2.0005836486816406,-0.001527163083665073,0.1036943718791008
1700871069724880400,13.49288037109375,1.9990564584732056,-0.00045814894838258624,0.1036943718791008
1700871069741872600,13.50987255859375,1.9955440759658813,-0.0003054326225537807,0.1036943718791008
1700871069758864400,13.526864501953124,1.9929478168487549,0.003512475173920393,0.10506882518529892
1700871069775857200,13.543857177734376,1.9897408485412598,0.004886921960860491,0.10552696883678436
1700871069792848600,13.5608486328125,1.9883663654327393,0.0029016099870204926,0.10674870014190674
1700871069809841700,13.577841552734375,1.9837849140167236,-0.00045814894838258624,0.10476338863372803
1700871069826832600,13.59483251953125,1.9796615839004517,-0.001832595793530345,0.10354165732860565
1700871069843825400,13.611825439453124,1.975232720375061,-0.00366519158706069,0.10323622822761536
1700871069860817200,13.628817138671875,1.9691240787506104,0.001679879380390048,0.1033889427781105
1700871069877810000,13.645809814453125,1.9639317989349365,0.005650503560900688,0.10308351367712021
1700871069894801400,13.662801513671875,1.9602665901184082,0.004581489134579897,0.10445795953273773
1700871069911793700,13.679793701171874,1.9608774185180664,0.016340645030140877,0.10751228034496307
1700871069928785700,13.69678564453125,1.9598084688186646,-0.010079276748001575,0.09957103431224823
1700871069945778200,13.713778076171875,1.9585866928100586,0.012828170321881771,0.09804387390613556
1700871069962769700,13.730769775390625,1.9555323123931885,-0.005039638374000788,0.09575312584638596
1700871069979762400,13.747762451171875,1.951256275177002,-0.011301007121801376,0.10262536257505417
1700871069996753700,13.764753662109374,1.9469802379608154,0.0010690141934901476,0.10735956579446793
1700871070013743900,13.781743896484375,1.9428569078445435,-0.0010690141934901476,0.10934487730264664
1700871070030740700,13.79874072265625,1.9398025274276733,0,0.10461067408323288
1700871070047731000,13.81573095703125,1.9362901449203491,0.005039638374000788,0.09697485715150833
1700871070064719600,13.8327197265625,1.9233092069625854,0.0003054326225537807,0.08903361111879349
1700871070081718500,13.849718505859375,1.9046778678894043,-0.00015271631127689034,0.09025534242391586
1700871070098697000,13.866697021484375,1.8787161111831665,-0.0027488935738801956,0.09178250283002853
1700871070115699200,13.88369921875,1.8484781980514526,-0.00366519158706069,0.09972374886274338
1700871070132690700,13.900690673828125,1.8209892511367798,-0.001832595793530345,0.10323622822761536
1700871070149683500,13.917683349609375,1.7974709272384644,0.00366519158706069,0.10277807712554932
1700871070166675000,13.934675048828124,1.7792977094650269,0.006261368747800589,0.09605856239795685
1700871070183667700,13.951667724609376,1.7611244916915894,0.009926560334861279,0.09224065393209457
1700871070200659200,13.9686591796875,1.7440202236175537,0.005650503560900688,0.08796459436416626
1700871070217651700,13.985651611328125,1.726457953453064,0.018020525574684143,0.0835358202457428
1700871070234640600,14.002640625,1.709811806678772,0.007788531947880983,0.0858265683054924
1700871070251636000,14.019635986328124,1.6936239004135132,-0.009162978269159794,0.09422596544027328
1700871070268625000,14.036625,1.680795669555664,-0.0012217304902151227,0.09789115190505981
1700871070285623000,14.053623046875,1.671938180923462,-0.001832595793530345,0.09392052888870239
1700871070302611700,14.07061181640625,1.665218710899353,-0.003817907767370343,0.09422596544027328
1700871070319604500,14.0876044921875,1.6606371402740479,0.0032070425804704428,0.09254608303308487
1700871070336596000,14.104595947265626,1.6594154834747314,0.0025961773935705423,0.0907134860754013
1700871070353580000,14.121580078125,1.657124638557434,-0.0022907445672899485,0.0907134860754013
1700871070370580200,14.138580322265625,1.6565138101577759,0.0009162978967651725,0.0884227454662323
1700871070387573000,14.155572998046875,1.6559029817581177,0.001679879380390048,0.08888089656829834
1700871070404564500,14.172564453125,1.6569719314575195,-0.0009162978967651725,0.08827003091573715
1700871070421554400,14.189554443359375,1.655444860458374,0.003817907767370343,0.08674286305904388
1700871070438533600,14.20653369140625,1.6534595489501953,0.00733038317412138,0.08567385375499725
1700871070455541500,14.22354150390625,1.651321530342102,0.005650503560900688,0.08521570265293121
1700871070472533000,14.240532958984375,1.648572564125061,0.00733038317412138,0.08445212244987488
1700871070489525500,14.257525390625,1.645365595817566,0.003054326167330146,0.08735372871160507
1700871070506509000,14.274509033203126,1.6418530941009521,0.00015271631127689034,0.0884227454662323
1700871070523501000,14.2915009765625,1.6392568349838257,-0.00045814894838258624,0.08888089656829834
1700871070540501200,14.308501220703125,1.6357444524765015,-0.00427605677396059,0.08888089656829834
1700871070557494000,14.325493896484375,1.6340645551681519,-0.005497787147760391,0.09208793938159943
1700871070574485500,14.342485595703126,1.6307047605514526,-0.003054326167330146,0.09560041129589081
1700871070591478300,14.359478271484376,1.630246639251709,-0.005345070734620094,0.09697485715150833
1700871070608469800,14.3764697265625,1.630246639251709,-0.0007635815418325365,0.09911288321018219
1700871070625462800,14.393462890625,1.6333009004592896,-0.0003054326225537807,0.098502017557621
1700871070642453800,14.410453857421874,1.6378824710845947,-0.00015271631127689034,0.09453139454126358
1700871070659449900,14.427449951171875,1.6442965269088745,0.0065668015740811825,0.0913243517279625
1700871070676432600,14.4444326171875,1.6507105827331543,0.003359758760780096,0.08933904021978378
1700871070693433300,14.461433349609376,1.6572774648666382,0.0003054326225537807,0.08979719132184982
1700871070710422500,14.478422607421875,1.6644550561904907,0.0010690141934901476,0.09025534242391586
1700871070727415000,14.4954150390625,1.6717854738235474,0.0025961773935705423,0.09193521738052368
1700871070744398800,14.51239892578125,1.6801848411560059,0.001679879380390048,0.09269879758358002
1700871070761399300,14.5293994140625,1.688889741897583,0.004734205547720194,0.09315694868564606
1700871070778390800,14.546390869140625,1.698510766029358,0.004581489134579897,0.0933096632361412
1700871070795383600,14.563383544921875,1.7095063924789429,0.0032070425804704428,0.09193521738052368
1700871070812375000,14.580375,1.7191275358200073,0.0039706239476799965,0.08964447677135468
1700871070829367800,14.597367919921876,1.730581283569336,0.0007635815418325365,0.09056077152490616
1700871070846359300,14.614359375,1.740660548210144,0.0006108652451075613,0.09162978827953339
1700871070863351800,14.631351806640625,1.7505871057510376,0.003054326167330146,0.09376781433820724
1700871070880343600,14.648343505859375,1.7600555419921875,0.0007635815418325365,0.09651670604944229
1700871070897336000,14.665336181640624,1.771051049232483,0,0.09941831976175308
1700871070914327600,14.68232763671875,1.782352089881897,-0.0003054326225537807,0.09987647086381912
1700871070931320300,14.6993203125,1.7951802015304565,-0.0003054326225537807,0.09911288321018219
1700871070948312000,14.71631201171875,1.806328535079956,0.001679879380390048,0.0981965884566307
1700871070965304600,14.7333046875,1.819003939628601,0.0019853119738399982,0.09743300825357437
1700871070982296000,14.750296142578126,1.8289304971694946,0.00045814894838258624,0.09712757170200348
1700871070999288800,14.767288818359376,1.8387043476104736,0.0012217304902151227,0.09697485715150833
1700871071016280300,14.7842802734375,1.846492886543274,0.0025961773935705423,0.09773843735456467
1700871071033273000,14.801273193359375,1.8538233041763306,0.0006108652451075613,0.09926560521125793
1700871071050264600,14.8182646484375,1.8613064289093018,-0.0006108652451075613,0.10048733651638031
1700871071067255600,14.835255615234376,1.8674150705337524,-0.0007635815418325365,0.10231992602348328
1700871071084250400,14.85225048828125,1.8735237121582031,-0.003054326167330146,0.10247264802455902
1700871071101241300,14.869241455078125,1.878563404083252,-0.005497787147760391,0.10262536257505417
1700871071118233000,14.886233154296875,1.8819230794906616,-0.003054326167330146,0.10231992602348328
1700871071135225600,14.9032255859375,1.8848247528076172,-0.002138028386980295,0.10247264802455902
1700871071152217000,14.920217041015626,1.8872681856155396,0.0010690141934901476,0.1036943718791008
1700871071169209900,14.9372099609375,1.8909333944320679,0.001679879380390048,0.10399980843067169
1700871071186201300,14.954201416015625,1.8961256742477417,0.0032070425804704428,0.10522153973579407
1700871071203194000,14.971194091796875,1.9011653661727905,0.0013744467869400978,0.10415252298116684
1700871071220185600,14.988185546875,1.908037543296814,0.0006108652451075613,0.10399980843067169
1700871071237178400,15.005178466796876,1.9141463041305542,0,0.10384709388017654
1700871071254169900,15.022169921875,1.9230037927627563,-0.0013744467869400978,0.10522153973579407
1700871071271162400,15.039162353515625,1.9307923316955566,-0.0013744467869400978,0.10720685124397278
1700871071288144000,15.056143798828124,1.941787838935852,0,0.10766500234603882
1700871071305146600,15.073146728515624,1.951561689376831,0.0039706239476799965,0.10842858254909515
1700871071322136600,15.090136474609375,1.9650007486343384,0.004581489134579897,0.10690141469240189
1700871071339132700,15.107132568359376,1.979050636291504,0.007177666760981083,0.10506882518529892
1700871071356121600,15.12412158203125,1.9921842813491821,0.006261368747800589,0.10445795953273773
1700871071373113300,15.14111328125,2.0053179264068604,0.0024434609804302454,0.10354165732860565
1700871071390109200,15.158109130859375,2.0166189670562744,0.0006108652451075613,0.10644327104091644
1700871071407099100,15.17509912109375,2.027308940887451,0.0022907445672899485,0.10751228034496307
1700871071424091000,15.1920908203125,2.0384573936462402,0.004886921960860491,0.1088867336511612
1700871071441083600,15.209083740234375,2.046245813369751,0.005650503560900688,0.10965031385421753
1700871071458075100,15.2260751953125,2.0529654026031494,-0.0009162978967651725,0.10812314599752426
1700871071475068000,15.24306787109375,2.0581576824188232,-0.002138028386980295,0.10766500234603882
1700871071492059400,15.260059326171875,2.0621283054351807,-0.0032070425804704428,0.1082758679986
1700871071509052200,15.27705224609375,2.065335512161255,0.0012217304902151227,0.1108720451593399
1700871071526033200,15.294033203125,2.0699169635772705,0.004886921960860491,0.11438451707363129
1700871071543036200,15.3110361328125,2.0755674839019775,0.009468411095440388,0.11575896292924881
1700871071560028000,15.32802783203125,2.0857994556427,0.008704829961061478,0.11499538272619247
1700871071577020400,15.3450205078125,2.096031427383423,0.009621127508580685,0.11239920556545258
1700871071594012200,15.36201220703125,2.105194330215454,0.007024950347840786,0.10766500234603882
1700871071611004700,15.379004638671875,2.112982988357544,0.004123340360820293,0.10506882518529892
1700871071627996400,15.395996337890624,2.1178698539733887,0.001679879380390048,0.10659598559141159
1700871071644986400,15.412986328125,2.118633270263672,0.002138028386980295,0.11102475970983505
1700871071661983000,15.42998291015625,2.121382236480713,0.0022907445672899485,0.11514809727668762
1700871071678973000,15.446972900390625,2.123825788497925,0.004123340360820293,0.11774427443742752
1700871071695964700,15.463964599609374,2.1284072399139404,0.0012217304902151227,0.1186605766415596
1700871071712957200,15.480957275390624,2.1348214149475098,-0.001679879380390048,0.11560624837875366
1700871071729949000,15.497948974609375,2.141846179962158,-0.001527163083665073,0.11331550031900406
1700871071746941400,15.51494140625,2.1484131813049316,0.0006108652451075613,0.11148291081190109
1700871071763923500,15.53192333984375,2.1534526348114014,0.001832595793530345,0.11255192011594772
1700871071780925700,15.54892578125,2.158034086227417,0.005497787147760391,0.11514809727668762
1700871071797914600,15.56591455078125,2.160935878753662,0.005803219974040985,0.11652254313230515
1700871071814912500,15.58291259765625,2.1646010875701904,0.003359758760780096,0.11789698898792267
1700871071831901400,15.5999013671875,2.169487953186035,0.0019853119738399982,0.11667526513338089
1700871071848894200,15.616894287109375,2.1739165782928467,0.0009162978967651725,0.11545353382825851
1700871071865883100,15.633883056640625,2.177734613418579,0.001527163083665073,0.11285735666751862
1700871071882881000,15.650881103515625,2.1783454418182373,0.0013744467869400978,0.11362093687057495
1700871071899870000,15.667869873046875,2.1765129566192627,0.0039706239476799965,0.11407908797264099
1700871071916862200,15.6848623046875,2.175138473510742,0.0025961773935705423,0.11713340878486633
1700871071933855500,15.70185546875,2.171625852584839,0.0013744467869400978,0.11850785464048386
1700871071950846700,15.7188466796875,2.171931266784668,0.0019853119738399982,0.12202033400535583
1700871071967838500,15.73583837890625,2.1728477478027344,0.0009162978967651725,0.12186761945486069
1700871071984827100,15.7528271484375,2.17742919921875,0.003817907767370343,0.12278391420841217
1700871072001822500,15.769822509765625,2.1820106506347656,0.00366519158706069,0.12018773704767227
1700871072018815500,15.7868154296875,2.1864395141601562,0.005192354787141085,0.1186605766415596
1700871072035806500,15.803806396484376,2.191020965576172,0.005497787147760391,0.11759155988693237
1700871072052799500,15.820799560546876,2.193617105484009,0.005497787147760391,0.11713340878486633
1700871072069791000,15.837791015625,2.1954495906829834,0.0039706239476799965,0.11743884533643723
1700871072086783700,15.85478369140625,2.196518659591675,0.0006108652451075613,0.11942415684461594
1700871072103775200,15.871775146484374,2.1959078311920166,-0.0007635815418325365,0.11927144229412079
1700871072120767700,15.888767822265624,2.1954495906829834,0.00015271631127689034,0.12095131725072861
1700871072137758700,15.9057587890625,2.194533348083496,0.003817907767370343,0.12003502249717712
1700871072154753000,15.9227529296875,2.1934642791748047,0.0064140851609408855,0.12034045159816742
1700871072171743700,15.93974365234375,2.1922426223754883,0.00809396430850029,0.11942415684461594
1700871072188736300,15.956736328125,2.1930062770843506,0.006719517521560192,0.11988230794668198
1700871072205728000,15.97372802734375,2.1922426223754883,0.00427605677396059,0.11591167747974396
1700871072222720500,15.990720458984375,2.1905627250671387,0.0025961773935705423,0.11804971098899841
1700871072239712000,16.0077119140625,2.188271999359131,-0.001832595793530345,0.11835514008998871
1700871072256695600,16.024695556640626,2.1850650310516357,-0.0027488935738801956,0.11988230794668198
1700871072273699300,16.04169921875,2.1815524101257324,0.0010690141934901476,0.12232576310634613
1700871072290689000,16.05868896484375,2.180025339126587,0.005497787147760391,0.12538009881973267
1700871072307680500,16.075680419921873,2.1812469959259033,0.005345070734620094,0.12568552792072296
1700871072324673300,16.09267333984375,2.1846067905426025,0.003817907767370343,0.12828169763088226
1700871072341664800,16.109664794921876,2.1897990703582764,0.01572977937757969,0.12538009881973267
1700871072358657500,16.126657470703126,2.1957550048828125,0.005803219974040985,0.1215621829032898
1700871072375649000,16.14364892578125,2.2038490772247314,0.0010690141934901476,0.12049316614866257
1700871072392641500,16.1606416015625,2.2090413570404053,0.0032070425804704428,0.11942415684461594
1700871072409627100,16.177627197265625,2.214233875274658,-0.0009162978967651725,0.11728613078594208
1700871072426615600,16.194615478515626,2.217135429382324,-0.003512475173920393,0.12049316614866257
1700871072443617300,16.2116171875,2.214386463165283,-0.00015271631127689034,0.11759155988693237
1700871072460610000,16.228610107421876,2.2088887691497803,0.0006108652451075613,0.11636982858181
1700871072477601500,16.2456015625,2.1983513832092285,0.0019853119738399982,0.11881329119205475
1700871072494595800,16.262595947265623,2.186134099960327,0.0039706239476799965,0.11850785464048386
1700871072511584500,16.27958447265625,2.1728477478027344,0.005345070734620094,0.11743884533643723
1700871072528578600,16.29657861328125,2.15849232673645,0.008857546374201775,0.11636982858181
1700871072545570000,16.313570068359375,2.1461222171783447,0.007177666760981083,0.1186605766415596
1700871072562562800,16.330562744140625,2.1340577602386475,0.004581489134579897,0.1134682223200798
1700871072579554300,16.34755419921875,2.1229095458984375,0.002138028386980295,0.11178833991289139
1700871072596546800,16.364546875,2.110844850540161,-0.001832595793530345,0.11026117950677872
1700871072613529000,16.381529052734376,2.0978639125823975,0.003512475173920393,0.1082758679986
1700871072630531000,16.398531005859375,2.0832033157348633,0.009773843921720982,0.1062905490398407
1700871072647522800,16.415522705078125,2.0696115493774414,0.01160643994808197,0.1062905490398407
1700871072664515600,16.432515625,2.054034471511841,0.00855211354792118,0.10735956579446793
1700871072681506800,16.4495068359375,2.0390682220458984,0.0039706239476799965,0.1088867336511612
1700871072698499600,16.46649951171875,2.0274617671966553,-0.004886921960860491,0.10751228034496307
1700871072715491000,16.483490966796875,2.0193676948547363,-0.0024434609804302454,0.11041389405727386
1700871072732483800,16.50048388671875,2.018451452255249,0.0074830991216003895,0.11331550031900406
1700871072749475300,16.517475341796874,2.021047592163086,0.00427605677396059,0.11301007121801376
1700871072766468000,16.534468017578124,2.027156352996826,0.006872233934700489,0.11316278576850891
1700871072783459600,16.55145947265625,2.0341813564300537,0.009926560334861279,0.10537425428628922
1700871072800452000,16.5684521484375,2.0396790504455566,0.0032070425804704428,0.1033889427781105
1700871072817443800,16.58544384765625,2.0444133281707764,-0.004428773187100887,0.10048733651638031
1700871072834436400,16.602436279296874,2.043649673461914,0.00015271631127689034,0.10201449692249298
1700871072851427800,16.619427734375,2.0427334308624268,0.001527163083665073,0.10583240538835526
1700871072868420600,16.636420654296874,2.0398318767547607,0.001832595793530345,0.10751228034496307
1700871072885407500,16.653407470703126,2.0358612537384033,0.007024950347840786,0.10949759185314178
1700871072902409700,16.67040966796875,2.0343339443206787,0.0010690141934901476,0.10995574295520782
1700871072919396400,16.687396240234374,2.035097599029541,0.003054326167330146,0.1085812970995903
1700871072936389000,16.70438916015625,2.040289878845215,-0.003512475173920393,0.10720685124397278
1700871072953380600,16.721380615234374,2.0566306114196777,-0.022602014243602753,0.11148291081190109
1700871072970373400,16.738373291015623,2.068084239959717,-0.009468411095440388,0.11041389405727386
1700871072987364900,16.75536474609375,2.07663631439209,0.003359758760780096,0.1088867336511612
1700871073004355600,16.77235546875,2.082286834716797,-0.003054326167330146,0.11056660860776901
1700871073021344500,16.789344482421875,2.0819814205169678,-0.003054326167330146,0.10583240538835526
1700871073038344200,16.80634423828125,2.07663631439209,0.0019853119738399982,0.10491610318422318
1700871073055333400,16.82333349609375,2.0676262378692627,-0.003054326167330146,0.10476338863372803
1700871073072326000,16.840325927734376,2.054034471511841,0.00015271631127689034,0.10461067408323288
1700871073089307000,16.857306884765624,2.0389153957366943,0.01114829070866108,0.11056660860776901
1700871073106310400,16.874310302734376,2.023949384689331,0.012522737495601177,0.1108720451593399
1700871073123301600,16.891301513671873,2.009593963623047,0.012217304669320583,0.11178833991289139
1700871073140294400,16.90829443359375,1.9979875087738037,0.004886921960860491,0.11026117950677872
1700871073157286000,16.925285888671876,1.9892827272415161,-0.001527163083665073,0.10797043144702911
1700871073174278700,16.942278564453126,1.9828685522079468,-0.005497787147760391,0.10461067408323288
1700871073191270100,16.959270263671876,1.9747745990753174,-0.004428773187100887,0.09926560521125793
1700871073208262700,16.9762626953125,1.962251901626587,0.0012217304902151227,0.09789115190505981
1700871073225244000,16.993243896484376,1.9463694095611572,0.005039638374000788,0.09712757170200348
1700871073242249500,17.01024951171875,1.9274325370788574,0.008704829961061478,0.09987647086381912
1700871073259238700,17.02723876953125,1.9071213006973267,0.00855211354792118,0.1014036312699318
1700871073276231200,17.044231201171876,1.8849774599075317,0.006719517521560192,0.0988074541091919
1700871073293223000,17.061222900390625,1.8658878803253174,0.005192354787141085,0.10094548016786575
1700871073310215400,17.07821533203125,1.8547395467758179,0.0074830991216003895,0.1036943718791008
1700871073327207200,17.095207275390624,1.8500053882598877,0.005039638374000788,0.10659598559141159
1700871073344191700,17.112191650390624,1.8518379926681519,0.003359758760780096,0.10934487730264664
1700871073361191200,17.129191162109375,1.8596265316009521,-0.0074830991216003895,0.11301007121801376
1700871073378184000,17.146183837890625,1.8724546432495117,-0.011301007121801376,0.10919216275215149
1700871073395175700,17.16317578125,1.8848247528076172,-0.007177666760981083,0.09773843735456467
1700871073412157700,17.18015771484375,1.8929187059402466,-0.00427605677396059,0.08888089656829834
1700871073429160000,17.197159912109374,1.8930714130401611,-0.0024434609804302454,0.08292495459318161
1700871073446152400,17.21415234375,1.8846720457077026,0.007635815534740686,0.08170322328805923
1700871073463144000,17.23114404296875,1.8686367273330688,0.0074830991216003895,0.08735372871160507
1700871073480118300,17.2481181640625,1.8513798713684082,0.005650503560900688,0.10262536257505417
1700871073497128200,17.265128173828124,1.8364136219024658,-0.0007635815418325365,0.11071932315826416
1700871073514120700,17.28212060546875,1.8267924785614014,-0.0007635815418325365,0.11392636597156525
1700871073531110000,17.29910986328125,1.8237382173538208,-0.004581489134579897,0.10980302840471268
1700871073548107500,17.316107421875,1.8229745626449585,0.0039706239476799965,0.09789115190505981
1700871073565096700,17.3330966796875,1.8220583200454712,0.008399397134780884,0.09117163717746735
1700871073582089200,17.350089111328124,1.8194621801376343,0.001679879380390048,0.0887281745672226
1700871073599080700,17.367080810546874,1.8141170740127563,0.005345070734620094,0.0910189226269722
1700871073616073500,17.384073486328123,1.809230089187622,0.001527163083665073,0.09422596544027328
1700871073633065000,17.40106494140625,1.8052594661712646,-0.0019853119738399982,0.10064005106687546
1700871073650057700,17.4180576171875,1.8025106191635132,0.003817907767370343,0.1059851199388504
1700871073667051800,17.4350517578125,1.8035796880722046,-0.001832595793530345,0.10995574295520782
1700871073684039400,17.452039306640625,1.8064812421798706,0.003512475173920393,0.10735956579446793
1700871073701033700,17.46903369140625,1.8090773820877075,0.005803219974040985,0.10186178237199783
1700871073718026000,17.48602587890625,1.8096883296966553,0.0012217304902151227,0.0936150997877121
1700871073735010600,17.503010498046876,1.808924674987793,0.00427605677396059,0.08720101416110992
1700871073752010200,17.52001025390625,1.806328535079956,0.003359758760780096,0.08552113175392151
1700871073769002000,17.537001953125,1.803274154663086,-0.001832595793530345,0.08903361111879349
1700871073785994500,17.553994384765623,1.7968600988388062,-0.0012217304902151227,0.09804387390613556
1700871073802986000,17.570986083984376,1.792125940322876,-0.0007635815418325365,0.1036943718791008
1700871073819978800,17.587978759765626,1.7902933359146118,-0.0025961773935705423,0.1111774742603302
1700871073836970200,17.60497021484375,1.7916678190231323,-0.0032070425804704428,0.11255192011594772
1700871073853963000,17.621962890625,1.7974709272384644,0.001679879380390048,0.1111774742603302
1700871073870954500,17.63895458984375,1.8046486377716064,-0.0019853119738399982,0.10583240538835526
1700871073887947300,17.655947265625,1.8122844696044922,-0.002138028386980295,0.09743300825357437
1700871073904938800,17.672938720703126,1.8196148872375488,-0.0012217304902151227,0.08903361111879349
1700871073921925400,17.68992529296875,1.8248071670532227,0.003817907767370343,0.08720101416110992
1700871073938923300,17.70692333984375,1.8264870643615723,0.007024950347840786,0.0910189226269722
1700871073955915800,17.723915771484375,1.825876235961914,0.003359758760780096,0.09544769674539566
1700871073972906200,17.74090625,1.8245017528533936,0.0039706239476799965,0.10231992602348328
1700871073989900800,17.75790087890625,1.8234328031539917,0.0013744467869400978,0.10293079167604446
1700871074006891500,17.7748916015625,1.8261816501617432,-0.00045814894838258624,0.10399980843067169
1700871074023884000,17.791884033203125,1.8307631015777588,0.007024950347840786,0.10002918541431427
1700871074040875500,17.80887548828125,1.8379408121109009,0.006872233934700489,0.10048733651638031
1700871074057867000,17.825866943359376,1.846492886543274,-0.003054326167330146,0.10216721147298813
1700871074074850600,17.8428505859375,1.8564194440841675,-0.004428773187100887,0.10506882518529892
1700871074091852500,17.8598525390625,1.867873191833496,-0.004734205547720194,0.10659598559141159
1700871074108844000,17.876843994140625,1.8816176652908325,-0.010995574295520782,0.10812314599752426
1700871074125826800,17.893826904296876,1.8949040174484253,-0.003512475173920393,0.10812314599752426
1700871074142828300,17.910828369140624,1.9097174406051636,0.001832595793530345,0.10720685124397278
1700871074159810600,17.927810546875,1.9271271228790283,0.001679879380390048,0.10552696883678436
1700871074176812500,17.9448125,1.9425514936447144,0.004428773187100887,0.1036943718791008
1700871074193805300,17.961805419921873,1.9578231573104858,0.00855211354792118,0.10201449692249298
1700871074210796800,17.978796875,1.9721784591674805,0.004886921960860491,0.10155634582042694
1700871074227789600,17.99578955078125,1.98332679271698,-0.00015271631127689034,0.10231992602348328
1700871074244781000,18.012781005859374,1.9927951097488403,-0.0007635815418325365,0.10354165732860565
1700871074261773600,18.029773681640624,1.998903751373291,0.001832595793530345,0.10430523753166199
1700871074278765300,18.046765380859377,2.0051651000976562,0.004734205547720194,0.10537425428628922
1700871074295766500,18.0637666015625,2.009899377822876,0.0064140851609408855,0.1088867336511612
1700871074312739600,18.080739501953126,2.015855312347412,0.005955935921519995,0.10995574295520782
1700871074329742000,18.0977421875,2.0222694873809814,0.0029016099870204926,0.10919216275215149
1700871074346733600,18.114733642578123,2.0308215618133545,0.0012217304902151227,0.11102475970983505
1700871074363726300,18.131726318359377,2.0398318767547607,0.0010690141934901476,0.10949759185314178
1700871074380721200,18.14872119140625,2.0497584342956543,0.001527163083665073,0.10842858254909515
1700871074397710600,18.165710693359376,2.0583105087280273,0.00366519158706069,0.10873401165008545
1700871074414702000,18.1827021484375,2.065182685852051,0.001679879380390048,0.11026117950677872
1700871074431694600,18.199694580078123,2.0725131034851074,0.0019853119738399982,0.11194105446338654
1700871074448686300,18.216686279296876,2.0816760063171387,0.00366519158706069,0.1108720451593399
1700871074465679000,18.23367919921875,2.088090181350708,0.003359758760780096,0.10980302840471268
1700871074482670300,18.25067041015625,2.0943515300750732,0.0074830991216003895,0.1085812970995903
1700871074499663000,18.2676630859375,2.099391222000122,0.004428773187100887,0.10934487730264664
1700871074516644600,18.28464453125,2.102750778198242,-0.0010690141934901476,0.11148291081190109
1700871074533647400,18.3016474609375,2.1061105728149414,-0.003054326167330146,0.11392636597156525
1700871074550623200,18.318623291015626,2.110539436340332,-0.0029016099870204926,0.11530081182718277
1700871074567632000,18.3356318359375,2.1149682998657227,-0.001527163083665073,0.11621711403131485
1700871074584623000,18.352623046875,2.1201605796813965,-0.00015271631127689034,0.11560624837875366
1700871074601602600,18.3696025390625,2.12397837638855,0.0007635815418325365,0.11331550031900406
1700871074618610200,18.386610107421873,2.126880168914795,-0.0027488935738801956,0.11026117950677872
1700871074635600400,18.403600341796874,2.1281018257141113,0.00045814894838258624,0.11056660860776901
1700871074652591600,18.420591552734376,2.12703275680542,0.002138028386980295,0.11026117950677872
1700871074669584400,18.43758447265625,2.12397837638855,0.005955935921519995,0.11423180252313614
1700871074686575600,18.45457568359375,2.1222984790802,0.005497787147760391,0.11652254313230515
1700871074703568600,18.471568603515625,2.121382236480713,0.0039706239476799965,0.11560624837875366
1700871074720560000,18.48856005859375,2.121076822280884,0.0027488935738801956,0.11438451707363129
1700871074737552600,18.505552734375,2.121993064880371,-0.0012217304902151227,0.11499538272619247
1700871074754542300,18.522542236328125,2.1232149600982666,-0.0007635815418325365,0.11484266817569733
1700871074771524000,18.539524169921876,2.126727342605591,0.0013744467869400978,0.11591167747974396
1700871074788526300,18.5565263671875,2.132988691329956,0.006108652334660292,0.11575896292924881
1700871074805521200,18.573521240234374,2.138333797454834,0.005345070734620094,0.11453723162412643
1700871074822512600,18.5905126953125,2.1432206630706787,0.0065668015740811825,0.11316278576850891
1700871074839505400,18.60750537109375,2.149329423904419,0.005650503560900688,0.11056660860776901
1700871074856497200,18.6244970703125,2.15543794631958,0.00855211354792118,0.11102475970983505
1700871074873489700,18.64148974609375,2.1600193977355957,0.007024950347840786,0.11255192011594772
1700871074890481200,18.658481201171874,2.1641428470611572,0.0065668015740811825,0.11468994617462158
1700871074907481300,18.6754814453125,2.169182538986206,0.004428773187100887,0.11636982858181
1700871074924462600,18.692462646484376,2.1736111640930176,-0.0029016099870204926,0.11621711403131485
1700871074941460700,18.709460693359375,2.1786508560180664,-0.002138028386980295,0.1160643994808197
1700871074958449700,18.72644970703125,2.1850650310516357,0.0029016099870204926,0.11774427443742752
1700871074975442200,18.743442138671874,2.191784381866455,0.002138028386980295,0.11881329119205475
1700871074992433700,18.76043359375,2.199725866317749,0.003054326167330146,0.12064588814973831
1700871075009426400,18.777426513671877,2.207819700241089,0.003359758760780096,0.12110403180122375
1700871075026427400,18.794427490234376,2.216219186782837,0.00015271631127689034,0.12003502249717712
1700871075043410700,18.81141064453125,2.2233967781066895,-0.0024434609804302454,0.11881329119205475
1700871075060402200,18.828402099609374,2.230727195739746,-0.0013744467869400978,0.11743884533643723
1700871075077395000,18.84539501953125,2.2342395782470703,-0.0006108652451075613,0.11774427443742752
1700871075094386400,18.862386474609377,2.238821029663086,0,0.12018773704767227
1700871075111379200,18.879379150390626,2.241569995880127,0.0032070425804704428,0.12293662875890732
1700871075128380000,18.8963798828125,2.2430970668792725,0.005803219974040985,0.1241583600640297
1700871075145363200,18.91336328125,2.2427916526794434,0.0039706239476799965,0.12263119965791702
1700871075162355000,18.93035498046875,2.2411117553710938,0.001527163083665073,0.12217304855585098
1700871075179345000,18.947344970703124,2.2400429248809814,-0.00045814894838258624,0.11988230794668198
1700871075196342800,18.9643427734375,2.2371411323547363,-0.00015271631127689034,0.11972958594560623
1700871075213320200,18.9813203125,2.2319488525390625,0.0012217304902151227,0.11850785464048386
1700871075230323500,18.998323486328125,2.227672815322876,0.008704829961061478,0.11835514008998871
1700871075247316000,19.01531591796875,2.222175121307373,0.010690141469240189,0.12003502249717712
1700871075264307500,19.032307373046876,2.216219186782837,0.01114829070866108,0.12278391420841217
1700871075281290800,19.049290771484376,2.21056866645813,0.0074830991216003895,0.12278391420841217
1700871075298291700,19.066291748046876,2.2059872150421143,0.00427605677396059,0.12476922571659088
1700871075315284500,19.083284423828125,2.2018637657165527,-0.0007635815418325365,0.11957687139511108
1700871075332276000,19.10027587890625,2.2017111778259277,0.002138028386980295,0.12003502249717712
1700871075349268500,19.1172685546875,2.2015583515167236,-0.0039706239476799965,0.11652254313230515
1700871075366260200,19.13426025390625,2.1983513832092285,0.0029016099870204926,0.11698069423437119
1700871075383253000,19.1512529296875,2.194533348083496,0.0032070425804704428,0.11942415684461594
1700871075400244500,19.168244384765625,2.189188241958618,-0.001832595793530345,0.12217304855585098
1700871075417237200,19.1852373046875,2.1850650310516357,0.0032070425804704428,0.1264491081237793
1700871075434226200,19.20222607421875,2.1815524101257324,0.0013744467869400978,0.1258382350206375
1700871075451220200,19.21922021484375,2.1792616844177246,0.0006108652451075613,0.12889257073402405
1700871075468215000,19.236215087890624,2.1784982681274414,0.0013744467869400978,0.1270599663257599
1700871075485207000,19.25320703125,2.1763601303100586,0.003512475173920393,0.12110403180122375
1700871075502195700,19.27019580078125,2.1739165782928467,0.005192354787141085,0.11759155988693237
1700871075519189800,19.287189697265624,2.1684188842773438,0.0032070425804704428,0.11407908797264099
1700871075536181200,19.30418115234375,2.158186912536621,0.001832595793530345,0.11102475970983505
1700871075553163500,19.32116357421875,2.1455113887786865,0.0019853119738399982,0.10949759185314178
1700871075570163000,19.338162841796876,2.1261165142059326,0.0007635815418325365,0.10949759185314178
1700871075587160800,19.355160888671875,2.102139949798584,-0.00015271631127689034,0.10766500234603882
1700871075604149800,19.372149658203124,2.0760254859924316,0.006261368747800589,0.11041389405727386
1700871075621140500,19.389140380859374,2.049452781677246,0.00809396430850029,0.11026117950677872
1700871075638135800,19.4061357421875,2.0247128009796143,0.008399397134780884,0.1111774742603302
1700871075655126800,19.423126708984373,2.0001256465911865,0.005650503560900688,0.1108720451593399
1700871075672118500,19.440118408203126,1.9778289794921875,0.007024950347840786,0.11026117950677872
1700871075689110800,19.45711083984375,1.9579758644104004,0.007177666760981083,0.1062905490398407
1700871075706102500,19.4741025390625,1.938580870628357,-0.003359758760780096,0.1036943718791008
1700871075723095000,19.491094970703124,1.9196439981460571,-0.0039706239476799965,0.10018189996480942
1700871075740086500,19.50808642578125,1.9023871421813965,0.007024950347840786,0.09834930300712585
1700871075757079300,19.525079345703126,1.884519338607788,0.007788531947880983,0.09896016865968704
1700871075774070800,19.54207080078125,1.8674150705337524,0.0065668015740811825,0.09957103431224823
1700871075791063600,19.5590634765625,1.85244882106781,0.006108652334660292,0.10002918541431427
1700871075808055000,19.576054931640623,1.83824622631073,-0.0007635815418325365,0.098502017557621
1700871075825047800,19.5930478515625,1.8270978927612305,0.0027488935738801956,0.10064005106687546
1700871075842039300,19.610039306640626,1.8183931112289429,-0.0027488935738801956,0.09758572280406952
1700871075859032000,19.627031982421876,1.8087719678878784,-0.007788531947880983,0.09712757170200348
1700871075876019000,19.64401904296875,1.8002198934555054,0.0006108652451075613,0.096211276948452
1700871075893020700,19.661020751953124,1.7915149927139282,0.006108652334660292,0.09407325088977814
1700871075910007800,19.6780078125,1.7821993827819824,0.00427605677396059,0.09269879758358002
1700871075927000600,19.69500048828125,1.7724255323410034,0.003512475173920393,0.0913243517279625
1700871075943992000,19.711991943359376,1.7624989748001099,0.004581489134579897,0.09162978827953339
1700871075960984600,19.728984619140626,1.7524197101593018,0.0006108652451075613,0.09285151958465576
1700871075977976300,19.745976318359375,1.743256688117981,-0.0032070425804704428,0.09514226019382477
1700871075994968800,19.76296875,1.7351627349853516,-0.0039706239476799965,0.096211276948452
1700871076011960600,19.779960693359374,1.7292068004608154,-0.003512475173920393,0.09422596544027328
1700871076028953000,19.796953125,1.7258470058441162,0.0010690141934901476,0.0936150997877121
1700871076045944600,19.813944580078125,1.722181797027588,0.003512475173920393,0.09086620807647705
1700871076062937300,19.830937255859375,1.7220290899276733,0.00366519158706069,0.09010262042284012
1700871076079928800,19.8479287109375,1.722640037536621,0.0010690141934901476,0.09285151958465576
1700871076096921600,19.864921630859374,1.7250834703445435,0.0006108652451075613,0.09193521738052368
1700871076113896000,19.88189599609375,1.7304285764694214,0.003817907767370343,0.0933096632361412
1700871076130905900,19.89890576171875,1.7369953393936157,0.0029016099870204926,0.09422596544027328
1700871076147897300,19.9158974609375,1.7438675165176392,0.00015271631127689034,0.09300423413515091
1700871076164890000,19.93289013671875,1.7502816915512085,0.0025961773935705423,0.08964447677135468
1700871076181886500,19.949886474609375,1.7540996074676514,0.0029016099870204926,0.08704829961061478
1700871076198874000,19.9668740234375,1.7547104358673096,0.003054326167330146,0.08781187981367111
1700871076215865900,19.983865966796873,1.7557793855667114,0.005345070734620094,0.09193521738052368
1700871076232858400,20.0008583984375,1.7548631429672241,0.004581489134579897,0.09346238523721695
1700871076249849900,20.017849853515624,1.7551685571670532,0.0009162978967651725,0.09636399149894714
1700871076266842600,20.034842529296874,1.7556266784667969,-0.0027488935738801956,0.09529497474431992
1700871076283831600,20.05183154296875,1.7547104358673096,-0.005955935921519995,0.09193521738052368
1700871076300829400,20.068829345703126,1.7547104358673096,-0.0012217304902151227,0.0907134860754013
1700871076317818400,20.085818359375,1.751503348350525,0.0024434609804302454,0.08918632566928864
1700871076334801000,20.10280078125,1.7481436729431152,0.003817907767370343,0.09422596544027328
1700871076351802600,20.119802734375,1.7484490871429443,0.005345070734620094,0.09697485715150833
1700871076368795100,20.136795166015624,1.751503348350525,0.0012217304902151227,0.09560041129589081
1700871076385784300,20.153784423828125,1.7592918872833252,0.00045814894838258624,0.09560041129589081
1700871076402782200,20.1707822265625,1.7678439617156982,0,0.09346238523721695
1700871076419771100,20.187771240234376,1.7756325006484985,-0.0022907445672899485,0.0884227454662323
1700871076436764000,20.204763916015626,1.7806721925735474,0.0013744467869400978,0.09239336848258972
1700871076453755400,20.22175537109375,1.7847955226898193,-0.0019853119738399982,0.0936150997877121
1700871076470748000,20.238747802734373,1.7881553173065186,0.003817907767370343,0.09697485715150833
1700871076487739400,20.255739501953126,1.7919732332229614,0.0025961773935705423,0.09682214260101318
1700871076504732200,20.272732177734376,1.7927367687225342,0.008246680721640587,0.09117163717746735
1700871076521721000,20.28972119140625,1.790598750114441,0.010537425056099892,0.08994990587234497
1700871076538719000,20.306718994140624,1.7858645915985107,0.006108652334660292,0.08933904021978378
1700871076555703000,20.323703125,1.7799086570739746,-0.0003054326225537807,0.0913243517279625
1700871076572699600,20.34069970703125,1.7712037563323975,-0.001832595793530345,0.09269879758358002
1700871076589692200,20.357692138671876,1.764026165008545,-0.0024434609804302454,0.09422596544027328
1700871076606674400,20.37467431640625,1.758986473083496,-0.004123340360820293,0.09483683109283447
1700871076623676700,20.3916767578125,1.7511979341506958,0.003512475173920393,0.09193521738052368
1700871076640669000,20.4086689453125,1.7446311712265015,0.005650503560900688,0.0933096632361412
1700871076657658000,20.425658203125,1.739133358001709,-0.002138028386980295,0.09712757170200348
1700871076674655700,20.44265576171875,1.7388279438018799,-0.00427605677396059,0.10170906037092209
1700871076691645000,20.45964501953125,1.7460055351257324,-0.002138028386980295,0.10751228034496307
1700871076708637400,20.476637451171875,1.757459282875061,-0.0019853119738399982,0.10705413669347763
1700871076725610800,20.49361083984375,1.771051049232483,0.00366519158706069,0.10125091671943665
1700871076742621700,20.51062158203125,1.7821993827819824,0.0039706239476799965,0.09056077152490616
1700871076759613400,20.527613525390624,1.79090416431427,0.0003054326225537807,0.08735372871160507
1700871076776606000,20.54460595703125,1.797776460647583,-0.004123340360820293,0.08674286305904388
1700871076793597400,20.561597412109375,1.8000671863555908,-0.0012217304902151227,0.09056077152490616
1700871076810590200,20.578590087890625,1.7979291677474976,0.005955935921519995,0.09346238523721695
1700871076827581700,20.595581787109374,1.7933475971221924,0.006719517521560192,0.09453139454126358
1700871076844574500,20.612574462890624,1.7895296812057495,0.013591751456260681,0.096211276948452
1700871076861566000,20.62956591796875,1.7846428155899048,0.013744467869400978,0.09728029370307922
1700871076878558500,20.646558349609375,1.7809776067733765,0.00427605677396059,0.10094548016786575
1700871076895550200,20.66355029296875,1.7791450023651123,0.0027488935738801956,0.10002918541431427
1700871076912542700,20.680542724609374,1.777923345565796,-0.00045814894838258624,0.09941831976175308
1700871076929534500,20.697534423828124,1.7759380340576172,-0.001679879380390048,0.09712757170200348
1700871076946527000,20.71452685546875,1.7742581367492676,0.00366519158706069,0.09300423413515091
1700871076963518700,20.731518798828127,1.769982099533081,0.007177666760981083,0.09040805697441101
1700871076980511200,20.74851123046875,1.7654005289077759,0.004886921960860491,0.08857546001672745
1700871076997502700,20.765502685546874,1.7597500085830688,0.006108652334660292,0.09056077152490616
1700871077014495500,20.78249560546875,1.7519614696502686,0.003359758760780096,0.0884227454662323
1700871077031487000,20.799487060546873,1.742034912109375,0.0022907445672899485,0.08857546001672745
1700871077048478500,20.816478515625,1.7330247163772583,0.0007635815418325365,0.09147707372903824
1700871077065472500,20.833472412109376,1.7235562801361084,0.0019853119738399982,0.09453139454126358
1700871077082464000,20.850464111328126,1.7148514986038208,-0.004581489134579897,0.09666942805051804
1700871077099455500,20.86745556640625,1.7079792022705078,-0.006108652334660292,0.10018189996480942
1700871077116448300,20.8844482421875,1.7006487846374512,-0.0064140851609408855,0.09926560521125793
1700871077133439700,20.901439697265626,1.6937766075134277,-0.005192354787141085,0.09743300825357437
1700871077150432300,20.918432373046876,1.6884315013885498,-0.007024950347840786,0.09437867999076843
1700871077167408400,20.935408447265626,1.684613585472107,0.0006108652451075613,0.09208793938159943
1700871077184416500,20.95241650390625,1.6788103580474854,0.004886921960860491,0.09193521738052368
1700871077201408300,20.969408203125,1.6736180782318115,-0.00045814894838258624,0.09208793938159943
