time,seconds_elapsed,z,y,x
1702071609581160400,0.103160400390625,7.650815010070801,5.10402250289917,3.4132237434387207
1702071609598129200,0.120129150390625,7.536749839782715,5.160739898681641,3.5777482986450195
1702071609615127000,0.137126953125,7.378689289093018,5.244787693023682,3.7793188095092773
1702071609632114700,0.15411474609375,7.125063419342041,5.382818698883057,4.0613837242126465
1702071609649103400,0.171103271484375,6.787807464599609,5.540874481201172,4.411405563354492
1702071609666089700,0.18808984375,6.427520275115967,5.653480529785156,4.79179048538208
1702071609683080000,0.205079833984375,6.062979698181152,5.702890396118164,5.191668510437012
1702071609700075800,0.22207568359375,5.659114360809326,5.708706378936768,5.623273849487305
1702071609717059600,0.2390595703125,5.168303966522217,5.697174072265625,6.088264465332031
1702071609734052600,0.256052490234375,4.601431846618652,5.653016567230225,6.565541744232178
1702071609751043800,0.2730439453125,4.048105716705322,5.5275702476501465,7.02103328704834
1702071609768030500,0.290030517578125,3.5844311714172363,5.302470684051514,7.4344987869262695
1702071609785023000,0.30702294921875,3.1758995056152344,5.006415367126465,7.815726280212402
1702071609802012700,0.3240126953125,2.7028064727783203,4.679400444030762,8.187439918518066
1702071609819004200,0.341004150390625,2.081252098083496,4.336385250091553,8.549869537353516
1702071609835990500,0.357990478515625,1.4192140102386475,3.951817512512207,8.865950584411621
1702071609852982500,0.374982421875,0.8970611691474915,3.504049777984619,9.118828773498535
1702071609869975600,0.3919755859375,0.5917832851409912,3.0326650142669678,9.310685157775879
1702071609886960400,0.40896044921875,0.42915523052215576,2.566436529159546,9.458613395690918
1702071609903953200,0.425953125,0.23240812122821808,2.098374605178833,9.580131530761719
1702071609920931800,0.442931884765625,-0.0727013573050499,1.617008924484253,9.675542831420898
1702071609937924600,0.459924560546875,-0.38725584745407104,1.1368768215179443,9.736205101013184
1702071609954926300,0.47692626953125,-0.6049219965934753,0.6912020444869995,9.766904830932617
1702071609971918000,0.49391796875,-0.7001479864120483,0.2921792268753052,9.780619621276855
1702071609988897000,0.51089697265625,-0.7530038952827454,-0.061732858419418335,9.780862808227539
1702071610005888000,0.527887939453125,-0.8292252421379089,-0.3813557028770447,9.767450332641602
1702071610022885400,0.544885498046875,-0.9436154961585999,-0.7100139856338501,9.738664627075195
1702071610039876900,0.561876953125,-1.0659153461456299,-1.0705848932266235,9.692976951599121
1702071610056861000,0.57886083984375,-1.1591356992721558,-1.4317399263381958,9.635488510131836
1702071610073851400,0.595851318359375,-1.2093732357025146,-1.754273533821106,9.575806617736816
1702071610090836200,0.612836181640625,-1.2278556823730469,-2.0247480869293213,9.519922256469727
1702071610107832000,0.62983203125,-1.2276054620742798,-2.266655921936035,9.465272903442383
1702071610124822000,0.646822021484375,-1.219119906425476,-2.5067405700683594,9.405643463134766
1702071610141817000,0.663817138671875,-1.2069203853607178,-2.7460784912109375,9.340154647827148
1702071610158803200,0.68080322265625,-1.2044410705566406,-2.9622762203216553,9.274175643920898
1702071610175795200,0.697795166015625,-1.2187825441360474,-3.1390914916992188,9.213947296142578
1702071610192784400,0.714784423828125,-1.2431210279464722,-3.271833658218384,9.16438102722168
1702071610209779000,0.731779052734375,-1.2670221328735352,-3.3703181743621826,9.125334739685059
1702071610226762000,0.748761962890625,-1.2975504398345947,-3.4539847373962402,9.089689254760742
1702071610243754800,0.765754638671875,-1.3415319919586182,-3.5306596755981445,9.053773880004883
1702071610260746200,0.782746337890625,-1.3985867500305176,-3.5899834632873535,9.02175521850586
1702071610277732600,0.799732666015625,-1.4617244005203247,-3.6123294830322266,9.0028076171875
1702071610294725400,0.816725341796875,-1.520094871520996,-3.585496187210083,9.00386905670166
1702071610311713800,0.8337138671875,-1.5678222179412842,-3.510904312133789,9.025053977966309
1702071610328704800,0.850704833984375,-1.6043819189071655,-3.3988120555877686,9.0614652633667
1702071610345684200,0.867684326171875,-1.6325058937072754,-3.2600083351135254,9.107327461242676
1702071610362682000,0.88468212890625,-1.6508303880691528,-3.105282783508301,9.157952308654785
1702071610379668200,0.901668212890625,-1.6576483249664307,-2.941070556640625,9.210777282714844
1702071610396655600,0.918655517578125,-1.6532477140426636,-2.768920421600342,9.264771461486816
1702071610413655600,0.935655517578125,-1.6386816501617432,-2.5924124717712402,9.318275451660156
1702071610430644500,0.95264453125,-1.6186742782592773,-2.415205955505371,9.369247436523438
1702071610447635700,0.9696357421875,-1.6146613359451294,-2.24253249168396,9.412757873535156
1702071610464633600,0.986633544921875,-1.6495013236999512,-2.084182024002075,9.443062782287598
1702071610481609000,1.00360888671875,-1.7250257730484009,-1.945383906364441,9.459168434143066
1702071610498605000,1.02060498046875,-1.818250298500061,-1.8204259872436523,9.46657943725586
1702071610515584300,1.037584228515625,-1.9045896530151367,-1.7022546529769897,9.471587181091309
1702071610532586500,1.05458642578125,-1.9661608934402466,-1.5836029052734375,9.479585647583008
1702071610549577000,1.071576904296875,-1.9980194568634033,-1.464053988456726,9.492132186889648
1702071610566558000,1.088557861328125,-2.007852554321289,-1.3490647077560425,9.507086753845215
1702071610583554000,1.105553955078125,-2.0063936710357666,-1.2421118021011353,9.521957397460938
1702071610600549000,1.122549072265625,-1.9933936595916748,-1.1493644714355469,9.536325454711914
1702071610617527300,1.13952734375,-1.9624583721160889,-1.0803418159484863,9.550799369812012
1702071610634524400,1.1565244140625,-1.9219634532928467,-1.0359728336334229,9.56394100189209
1702071610651509800,1.173509765625,-1.8808634281158447,-1.0128772258758545,9.574577331542969
1702071610668504000,1.190504150390625,-1.8507426977157593,-1.021645188331604,9.579516410827637
1702071610685495000,1.2074951171875,-1.8349761962890625,-1.0856972932815552,9.57550048828125
1702071610702488600,1.224488525390625,-1.8398475646972656,-1.2150827646255493,9.559008598327637
1702071610719479000,1.24147900390625,-1.867102026939392,-1.3981441259384155,9.52865219116211
1702071610736464400,1.25846435546875,-1.889014482498169,-1.6198688745498657,9.489140510559082
1702071610753457400,1.27545751953125,-1.868519902229309,-1.885876178741455,9.443951606750488
1702071610770448400,1.292448486328125,-1.7989134788513184,-2.2064332962036133,9.387846946716309
1702071610787428000,1.309427978515625,-1.7011995315551758,-2.5831916332244873,9.309627532958984
1702071610804425000,1.326425048828125,-1.6132354736328125,-2.9997477531433105,9.19973373413086
1702071610821421000,1.343421142578125,-1.5530387163162231,-3.411520004272461,9.065634727478027
1702071610838404900,1.36040478515625,-1.5127581357955933,-3.7822394371032715,8.9242582321167
1702071610855398700,1.377398681640625,-1.4660677909851074,-4.09450101852417,8.793283462524414
1702071610872387300,1.39438720703125,-1.4024935960769653,-4.339756965637207,8.685370445251465
1702071610889379800,1.4113798828125,-1.3216935396194458,-4.524019241333008,8.603631973266602
1702071610906365000,1.428364990234375,-1.2232615947723389,-4.668445110321045,8.54080581665039
1702071610923358000,1.44535791015625,-1.1095194816589355,-4.786509037017822,8.49084186553955
1702071610940349400,1.462349365234375,-0.989741861820221,-4.8819804191589355,8.451200485229492
1702071610957336300,1.47933642578125,-0.873914361000061,-4.95608377456665,8.420783996582031
1702071610974327300,1.496327392578125,-0.7705516815185547,-5.007425308227539,8.40047836303711
1702071610991304200,1.51330419921875,-0.6902427673339844,-5.0325117111206055,8.39246654510498
1702071611008305400,1.530305419921875,-0.6424803733825684,-5.031157493591309,8.397069931030273
1702071611025288700,1.547288818359375,-0.6312724351882935,-5.004297733306885,8.41395378112793
1702071611042288000,1.5642880859375,-0.6426947116851807,-4.958334922790527,8.440260887145996
1702071611059280400,1.5812802734375,-0.6549355387687683,-4.892525672912598,8.477638244628906
1702071611076271000,1.59827099609375,-0.6580126285552979,-4.808159351348877,8.525533676147461
1702071611093259000,1.615259033203125,-0.6450675129890442,-4.715837478637695,8.577930450439453
1702071611110250200,1.632250244140625,-0.6157381534576416,-4.633255481719971,8.624959945678711
1702071611127234000,1.649234130859375,-0.5823023319244385,-4.572842597961426,8.659454345703125
1702071611144231200,1.666231201171875,-0.558785080909729,-4.528565406799316,8.68423843383789
1702071611161208600,1.68320849609375,-0.5553805828094482,-4.485926151275635,8.706557273864746
1702071611178206000,1.7002060546875,-0.5697073936462402,-4.433440208435059,8.732478141784668
1702071611195200800,1.71720068359375,-0.5818368792533875,-4.375125885009766,8.761041641235352
1702071611212188400,1.7341884765625,-0.592301070690155,-4.304207801818848,8.795400619506836
1702071611229181400,1.751181396484375,-0.6547157168388367,-4.187980651855469,8.84693717956543
1702071611246166800,1.768166748046875,-0.7927810549736023,-4.027836322784424,8.90977954864502
1702071611263159600,1.78515966796875,-0.9351201057434082,-3.879626512527466,8.961594581604004
1702071611280160800,1.802160888671875,-0.9943711161613464,-3.77573823928833,8.99950885772705
1702071611297151500,1.8191513671875,-1.0213741064071655,-3.648344039916992,9.048894882202148
1702071611314128600,1.836128662109375,-1.0900689363479614,-3.439272165298462,9.122459411621094
1702071611331126500,1.85312646484375,-1.1937389373779297,-3.1535658836364746,9.21228313446045
1702071611348107800,1.870107666015625,-1.2853800058364868,-2.8224549293518066,9.306861877441406
1702071611365101000,1.88710107421875,-1.3312087059020996,-2.481550931930542,9.39712142944336
1702071611382089700,1.90408984375,-1.3423717021942139,-2.1535680294036865,9.476093292236328
1702071611399082200,1.921082275390625,-1.3479844331741333,-1.8469069004058838,9.539811134338379
1702071611416062200,1.938062255859375,-1.367187261581421,-1.5625208616256714,9.587774276733398
1702071611433058800,1.955058837890625,-1.4005993604660034,-1.294324517250061,9.622845649719238
1702071611450061800,1.972061767578125,-1.4374719858169556,-1.0411996841430664,9.648092269897461
1702071611467039200,1.989039306640625,-1.4723803997039795,-0.8018807768821716,9.665671348571777
1702071611484029200,2.006029296875,-1.4999401569366455,-0.5764510035514832,9.677499771118164
1702071611501012000,2.023011962890625,-1.514952301979065,-0.3653872609138489,9.685429573059082
1702071611518007800,2.0400078125,-1.5207111835479736,-0.17711859941482544,9.689798355102539
1702071611535001900,2.057001953125,-1.5230196714401245,-0.01939755491912365,9.691034317016602
1702071611551990500,2.073990478515625,-1.5325517654418945,0.10415820777416229,9.688992500305176
1702071611568980200,2.090980224609375,-1.5536677837371826,0.19430619478225708,9.684237480163574
1702071611585970700,2.107970703125,-1.5856842994689941,0.2597973644733429,9.677512168884277
1702071611602961200,2.124961181640625,-1.6223877668380737,0.307904452085495,9.670016288757324
1702071611619952600,2.14195263671875,-1.6485921144485474,0.3382927179336548,9.664565086364746
1702071611636939000,2.15893896484375,-1.6564700603485107,0.35088762640953064,9.66277027130127
1702071611653931000,2.175930908203125,-1.6313568353652954,0.33120501041412354,9.667736053466797
1702071611670923300,2.19292333984375,-1.5861432552337646,0.27193763852119446,9.677102088928223
1702071611687908900,2.209908935546875,-1.5357747077941895,0.15040120482444763,9.687872886657715
1702071611704911600,2.22691162109375,-1.5101417303085327,-0.048051249235868454,9.692951202392578
1702071611721891600,2.2438916015625,-1.5397292375564575,-0.2862972319126129,9.684182167053223
1702071611738901500,2.260901611328125,-1.6016559600830078,-0.5228966474533081,9.664233207702637
1702071611755878000,2.2778779296875,-1.6295827627182007,-0.7764459252357483,9.642496109008789
1702071611772849200,2.29484912109375,-1.5787582397460938,-1.0892436504364014,9.620665550231934
1702071611789850000,2.31185009765625,-1.449486255645752,-1.4575512409210205,9.592218399047852
1702071611806837200,2.328837158203125,-1.274452805519104,-1.8325791358947754,9.552671432495117
1702071611823828700,2.345828857421875,-1.1115610599517822,-2.197927474975586,9.495771408081055
1702071611840822000,2.362822021484375,-0.9976034164428711,-2.5554471015930176,9.418631553649902
1702071611857813200,2.379813232421875,-0.9465607404708862,-2.9032914638519287,9.322608947753906
1702071611874804200,2.39680419921875,-0.9433994889259338,-3.240865707397461,9.21102237701416
1702071611891792600,2.413792724609375,-0.9656785130500793,-3.561061143875122,9.089689254760742
1702071611908781000,2.430781005859375,-0.9858168959617615,-3.8573033809661865,8.96579647064209
1702071611925760300,2.44776025390625,-0.9788528680801392,-4.127079486846924,8.845630645751953
1702071611942765600,2.464765625,-0.9405431151390076,-4.366287708282471,8.734245300292969
1702071611959751700,2.481751708984375,-0.8838695287704468,-4.5670976638793945,8.636927604675293
1702071611976743400,2.498743408203125,-0.8296655416488647,-4.728595733642578,8.555007934570312
1702071611993732900,2.51573291015625,-0.7928965091705322,-4.859497547149658,8.484853744506836
1702071612010725000,2.53272509765625,-0.7750674486160278,-4.969610691070557,8.422490119934082
1702071612027710500,2.54971044921875,-0.7651429772377014,-5.061680316925049,8.368395805358887
1702071612044704000,2.5667041015625,-0.7614639401435852,-5.134598255157471,8.324193954467773
1702071612061693200,2.583693115234375,-0.7739842534065247,-5.1831512451171875,8.292889595031738
1702071612078681900,2.600681884765625,-0.8052259683609009,-5.21750020980835,8.268340110778809
1702071612095673000,2.617673095703125,-0.8523969054222107,-5.264915466308594,8.233479499816895
1702071612112664800,2.634664794921875,-0.8905470371246338,-5.338184833526611,8.182104110717773
1702071612129652500,2.651652587890625,-0.8943372368812561,-5.422725677490234,8.12590503692627
1702071612146644200,2.668644287109375,-0.8691641092300415,-5.488993167877197,8.084036827087402
1702071612163634000,2.685634033203125,-0.8711190819740295,-5.515645980834961,8.06566333770752
1702071612180631000,2.702631103515625,-0.9217033386230469,-5.509720325469971,8.064091682434082
1702071612197611300,2.719611328125,-0.9863934516906738,-5.494344711303711,8.06692886352539
1702071612214605300,2.736605224609375,-1.0722118616104126,-5.457788944244385,8.080780029296875
1702071612231584300,2.753584228515625,-1.1836349964141846,-5.358821868896484,8.131305694580078
1702071612248582000,2.770581787109375,-1.2554794549942017,-5.222128868103027,8.209097862243652
1702071612265574700,2.78757470703125,-1.2557252645492554,-5.089918613433838,8.291682243347168
1702071612282565600,2.804565673828125,-1.2376337051391602,-4.9432902336120605,8.382616996765137
1702071612299555600,2.8215556640625,-1.2644367218017578,-4.7577385902404785,8.485355377197266
1702071612316542500,2.83854248046875,-1.3114269971847534,-4.548717021942139,8.592172622680664
1702071612333534200,2.8555341796875,-1.3263704776763916,-4.336921215057373,8.698734283447266
1702071612350526500,2.8725263671875,-1.2979799509048462,-4.125922203063965,8.805005073547363
1702071612367512300,2.88951220703125,-1.2611216306686401,-3.9121816158294678,8.907330513000488
1702071612384488400,2.906488525390625,-1.2468374967575073,-3.6891210079193115,9.003993034362793
1702071612401496000,2.92349609375,-1.2569671869277954,-3.4522483348846436,9.096052169799805
1702071612418483000,2.94048291015625,-1.278417706489563,-3.2042243480682373,9.183392524719238
1702071612435475500,2.957475341796875,-1.296917200088501,-2.950866222381592,9.265337944030762
1702071612452465400,2.97446533203125,-1.3108569383621216,-2.698171854019165,9.340109825134277
1702071612469456600,2.99145654296875,-1.3269612789154053,-2.4493019580841064,9.406181335449219
1702071612486443300,3.008443359375,-1.3537211418151855,-2.1983225345611572,9.464192390441895
1702071612503435000,3.02543505859375,-1.396762490272522,-1.9342695474624634,9.515450477600098
1702071612520428300,3.04242822265625,-1.445430040359497,-1.6504114866256714,9.561537742614746
1702071612537412400,3.059412353515625,-1.4767950773239136,-1.3504548072814941,9.60372257232666
1702071612554406100,3.07640625,-1.4785691499710083,-1.0467638969421387,9.641279220581055
1702071612571386600,3.09338671875,-1.4505597352981567,-0.7564241886138916,9.672633171081543
1702071612588374000,3.1103740234375,-1.3964052200317383,-0.5024328231811523,9.697101593017578
1702071612605379300,3.12737939453125,-1.3224724531173706,-0.3087373971939087,9.715547561645508
1702071612622367500,3.144367431640625,-1.255200743675232,-0.1810704469680786,9.727683067321777
1702071612639357000,3.16135693359375,-1.2259517908096313,-0.1030583530664444,9.732551574707031
1702071612656347400,3.178347412109375,-1.2410376071929932,-0.06127297505736351,9.730992317199707
1702071612673337000,3.195337158203125,-1.2833253145217896,-0.055547673255205154,9.725540161132812
1702071612690327600,3.21232763671875,-1.3182390928268433,-0.09258539974689484,9.720584869384766
1702071612707317000,3.22931689453125,-1.3231010437011719,-0.17923325300216675,9.718713760375977
1702071612724294400,3.24629443359375,-1.2901233434677124,-0.3081091046333313,9.719916343688965
1702071612741287000,3.263286865234375,-1.2347255945205688,-0.4656313359737396,9.720840454101562
1702071612758290400,3.28029052734375,-1.1809475421905518,-0.6481363773345947,9.717068672180176
1702071612775277600,3.297277587890625,-1.1397942304611206,-0.8820741772651672,9.703551292419434
1702071612792268000,3.31426806640625,-1.089742660522461,-1.2230007648468018,9.672271728515625
1702071612809255000,3.3312548828125,-0.9871994853019714,-1.7012834548950195,9.610784530639648
1702071612826248200,3.348248291015625,-0.8420891165733337,-2.2682406902313232,9.506948471069336
1702071612843238700,3.36523876953125,-0.694135844707489,-2.83894944190979,9.364542961120605
1702071612860227600,3.3822275390625,-0.5889415144920349,-3.3716628551483154,9.1935396194458
1702071612877218000,3.399218017578125,-0.5502133965492249,-3.861923933029175,9.00105094909668
1702071612894208500,3.41620849609375,-0.5557302236557007,-4.314908981323242,8.792545318603516
1702071612911198200,3.4331982421875,-0.5769445300102234,-4.7288994789123535,8.575591087341309
1702071612928189000,3.45018896484375,-0.5931012630462646,-5.092650413513184,8.363566398620605
1702071612945178000,3.46717822265625,-0.5892324447631836,-5.397031784057617,8.170740127563477
1702071612962168800,3.4841689453125,-0.5650784373283386,-5.628842353820801,8.014545440673828
1702071612979157200,3.5011572265625,-0.5261731147766113,-5.780933380126953,7.908227443695068
1702071612996161500,3.51816162109375,-0.4818246364593506,-5.870335578918457,7.844943046569824
1702071613013119700,3.53511962890625,-0.43701857328414917,-5.920557498931885,7.809746265411377
1702071613030119400,3.552119384765625,-0.38685092329978943,-5.942879676818848,7.795423984527588
1702071613047117300,3.569117431640625,-0.331220805644989,-5.945886611938477,7.795691967010498
1702071613064100400,3.586100341796875,-0.28141772747039795,-5.938878059387207,7.802990436553955
1702071613081091300,3.60309130859375,-0.24698668718338013,-5.9287428855896,7.8118577003479
1702071613098082300,3.620082275390625,-0.22980844974517822,-5.927994251251221,7.812950611114502
1702071613115079200,3.6370791015625,-0.21194608509540558,-5.947028636932373,7.798978328704834
1702071613132061400,3.6540615234375,-0.17937563359737396,-5.980198383331299,7.77439022064209
1702071613149053200,3.67105322265625,-0.13536450266838074,-6.006514072418213,7.7549729347229
1702071613166045400,3.68804541015625,-0.0932932049036026,-6.008603572845459,7.753973007202148
1702071613183038000,3.705037841796875,-0.0800071656703949,-5.9844160079956055,7.77280330657959
1702071613200030200,3.7220302734375,-0.12031728774309158,-5.938777446746826,7.807211399078369
1702071613217009000,3.7390087890625,-0.17264899611473083,-5.900412082672119,7.835268020629883
1702071613234004500,3.75600439453125,-0.20583632588386536,-5.880075931549072,7.849742412567139
1702071613250993400,3.772993408203125,-0.25724679231643677,-5.8331804275512695,7.883142948150635
1702071613267978800,3.789978759765625,-0.3363587558269501,-5.733085632324219,7.953282356262207
1702071613284974800,3.806974853515625,-0.3991762697696686,-5.61777925491333,8.032269477844238
1702071613301972700,3.82397265625,-0.40787896513938904,-5.505437850952148,8.109247207641602
1702071613318948000,3.840947998046875,-0.42640236020088196,-5.348461151123047,8.212688446044922
1702071613335944200,3.857944091796875,-0.5006228089332581,-5.129086971282959,8.347332954406738
1702071613352935400,3.874935302734375,-0.5890856385231018,-4.872655391693115,8.493898391723633
1702071613369927200,3.89192724609375,-0.6585847735404968,-4.60859489440918,8.635000228881836
1702071613386922000,3.908921875,-0.7200627326965332,-4.357743263244629,8.759435653686523
1702071613403911000,3.925910888671875,-0.8016205430030823,-4.131108283996582,8.861573219299316
1702071613420902100,3.942902099609375,-0.913616955280304,-3.9221091270446777,8.945304870605469
1702071613437882000,3.959882080078125,-1.0431315898895264,-3.7170448303222656,9.018401145935059
1702071613454870800,3.976870849609375,-1.166316032409668,-3.510863780975342,9.085683822631836
1702071613471871500,3.99387158203125,-1.2656830549240112,-3.304870367050171,9.149426460266113
1702071613488852000,4.01085205078125,-1.3404724597930908,-3.095015287399292,9.211956977844238
1702071613505845200,4.02784521484375,-1.4039428234100342,-2.875925064086914,9.273300170898438
1702071613522838000,4.044838134765625,-1.4643820524215698,-2.6485254764556885,9.331506729125977
1702071613539823400,4.0618232421875,-1.5225706100463867,-2.41371750831604,9.385727882385254
1702071613556814300,4.078814453125,-1.5787115097045898,-2.172243356704712,9.435314178466797
1702071613573815800,4.09581591796875,-1.6272001266479492,-1.925331473350525,9.480583190917969
1702071613590788900,4.112788818359375,-1.6621530055999756,-1.6782784461975098,9.521385192871094
1702071613607783000,4.129782958984375,-1.6728487014770508,-1.4442322254180908,9.557820320129395
1702071613624775400,4.146775390625,-1.651266098022461,-1.2395784854888916,9.590248107910156
1702071613641766700,4.1637666015625,-1.5984996557235718,-1.0738897323608398,9.61913013458252
1702071613658751700,4.180751708984375,-1.5196107625961304,-0.9531078934669495,9.644609451293945
1702071613675749400,4.197749267578125,-1.434561848640442,-0.8774060010910034,9.664796829223633
1702071613692736000,4.214736083984375,-1.3694214820861816,-0.8468771576881409,9.676961898803711
1702071613709723100,4.23172314453125,-1.3092857599258423,-0.8589677214622498,9.684216499328613
1702071613726716400,4.24871630859375,-1.2193725109100342,-0.9280104637145996,9.689583778381348
1702071613743707000,4.265706787109375,-1.099475383758545,-1.0686997175216675,9.689435005187988
1702071613760699000,4.282698974609375,-0.999598503112793,-1.261374592781067,9.677078247070312
1702071613777690000,4.299690185546875,-0.9761722087860107,-1.443844199180603,9.653939247131348
1702071613794680000,4.31668017578125,-1.0172033309936523,-1.590448260307312,9.626625061035156
1702071613811662300,4.333662353515625,-1.0500530004501343,-1.7868521213531494,9.588570594787598
1702071613828656400,4.350656494140625,-0.9923672676086426,-2.151650905609131,9.51954460144043
1702071613845655600,4.367655517578125,-0.8306870460510254,-2.6600499153137207,9.40585994720459
1702071613862637600,4.384637451171875,-0.6281991600990295,-3.179466962814331,9.259184837341309
1702071613879636200,4.40163623046875,-0.4437580704689026,-3.625664234161377,9.104601860046387
1702071613896623400,4.418623291015625,-0.32659274339675903,-3.9888803958892822,8.956466674804688
1702071613913613600,4.435613525390625,-0.27212709188461304,-4.294010162353516,8.816096305847168
1702071613930606300,4.4526064453125,-0.2607618570327759,-4.5722832679748535,8.67538833618164
1702071613947589600,4.469589599609375,-0.290920615196228,-4.8322858810424805,8.532319068908691
1702071613964582400,4.48658251953125,-0.3417893648147583,-5.071405410766602,8.390480041503906
1702071613981576200,4.503576171875,-0.37539681792259216,-5.288885116577148,8.25365924835205
1702071613998563600,4.5205634765625,-0.3787817656993866,-5.4793243408203125,8.128323554992676
1702071614015564000,4.53756396484375,-0.3662441670894623,-5.635621070861816,8.021330833435059
1702071614032543700,4.554543701171875,-0.35353437066078186,-5.761312007904053,7.932114601135254
1702071614049534700,4.57153466796875,-0.3487805724143982,-5.8672075271606445,7.854320526123047
1702071614066523600,4.588523681640625,-0.34977927803993225,-5.963495254516602,7.781418800354004
1702071614083514600,4.6055146484375,-0.3551163375377655,-6.05539608001709,7.709877014160156
1702071614100504000,4.622504150390625,-0.3616105318069458,-6.1429643630981445,7.6399827003479
1702071614117494500,4.63949462890625,-0.3607957363128662,-6.230350017547607,7.568929195404053
1702071614134484200,4.656484130859375,-0.3491603434085846,-6.319666862487793,7.495065212249756
1702071614151464400,4.67346435546875,-0.33161696791648865,-6.4096360206604,7.419078350067139
1702071614168463400,4.69046337890625,-0.3133169114589691,-6.4969329833984375,7.343556880950928
1702071614185459200,4.707459228515625,-0.29790014028549194,-6.574926376342773,7.2744574546813965
1702071614202441200,4.724441162109375,-0.30249637365341187,-6.628861427307129,7.225150108337402
1702071614219435000,4.74143505859375,-0.3440142273902893,-6.651381015777588,7.202563285827637
1702071614236414000,4.7584140625,-0.3850274682044983,-6.655392169952393,7.196779251098633
1702071614253415200,4.775415283203125,-0.38670679926872253,-6.651873588562012,7.199941158294678
1702071614270404900,4.79240478515625,-0.426052987575531,-6.6034159660339355,7.242201805114746
1702071614287395300,4.809395263671875,-0.5887517929077148,-6.484383583068848,7.3377299308776855
1702071614304384800,4.826384765625,-0.8256909251213074,-6.313770294189453,7.462617874145508
1702071614321375500,4.84337548828125,-0.9775273203849792,-6.095551490783691,7.623964786529541
1702071614338366700,4.86036669921875,-0.9987720251083374,-5.806365013122559,7.84376859664917
1702071614355355000,4.87735498046875,-0.9848708510398865,-5.435184955596924,8.107090950012207
1702071614372342800,4.8943427734375,-0.9917716979980469,-5.002199172973633,8.380365371704102
1702071614389323500,4.911323486328125,-1.0074548721313477,-4.546087741851807,8.634478569030762
1702071614406325800,4.92832568359375,-1.011222243309021,-4.101657867431641,8.85381031036377
1702071614423316200,4.945316162109375,-1.0134623050689697,-3.690654993057251,9.032610893249512
1702071614440305700,4.9623056640625,-1.0473614931106567,-3.3173580169677734,9.17247486114502
1702071614457296400,4.97929638671875,-1.1292933225631714,-2.9720985889434814,9.280488014221191
1702071614474275300,4.996275390625,-1.239867091178894,-2.649679660797119,9.363654136657715
1702071614491268900,5.013268798828125,-1.335639238357544,-2.3520171642303467,9.429752349853516
1702071614508264200,5.03026416015625,-1.379868745803833,-2.0733554363250732,9.488588333129883
1702071614525258200,5.04725830078125,-1.3822163343429565,-1.7992924451828003,9.544012069702148
1702071614542246100,5.06424609375,-1.3657418489456177,-1.5227469205856323,9.594378471374512
1702071614559236900,5.08123681640625,-1.354117512702942,-1.2437200546264648,9.636164665222168
1702071614576226600,5.0982265625,-1.360018014907837,-0.9643599987030029,9.667288780212402
1702071614593219300,5.11521923828125,-1.3692781925201416,-0.699088454246521,9.68878173828125
1702071614610204400,5.132204345703125,-1.3606711626052856,-0.4735841453075409,9.703627586364746
1702071614627194600,5.149194580078125,-1.354467749595642,-0.294137179851532,9.711590766906738
1702071614644189400,5.166189453125,-1.3835272789001465,-0.16258037090301514,9.710588455200195
1702071614661177300,5.18317724609375,-1.4561760425567627,-0.09566045552492142,9.700850486755371
1702071614678164200,5.200164306640625,-1.553338646888733,-0.10096563398838043,9.685714721679688
1702071614695157200,5.2171572265625,-1.6538996696472168,-0.17093195021152496,9.668066024780273
1702071614712149200,5.234149169921875,-1.738020658493042,-0.29222893714904785,9.650389671325684
1702071614729128000,5.2511279296875,-1.7887861728668213,-0.4797889292240143,9.63359546661377
1702071614746127400,5.26812744140625,-1.8145437240600586,-0.763364851474762,9.610454559326172
1702071614763117800,5.285117919921875,-1.806109070777893,-1.1240471601486206,9.576565742492676
1702071614780107300,5.302107177734375,-1.7359822988510132,-1.4763329029083252,9.541642189025879
1702071614797098000,5.319097900390625,-1.589123010635376,-1.758929967880249,9.519294738769531
1702071614814087400,5.33608740234375,-1.3496683835983276,-2.0220561027526855,9.503988265991211
1702071614831078100,5.353078125,-1.0199941396713257,-2.3830692768096924,9.461328506469727
1702071614848067600,5.370067626953125,-0.6630631685256958,-2.8759288787841797,9.355506896972656
1702071614865058000,5.38705810546875,-0.3849467933177948,-3.426236152648926,9.184162139892578
1702071614882048000,5.404048095703125,-0.22193458676338196,-3.959897756576538,8.972517013549805
1702071614899038500,5.42103857421875,-0.14696568250656128,-4.436034202575684,8.748493194580078
1702071614916028000,5.43802783203125,-0.10515808314085007,-4.843230724334717,8.530426025390625
1702071614933018600,5.4550185546875,-0.059315912425518036,-5.188337802886963,8.325489044189453
1702071614949997800,5.471997802734375,-0.004732444416731596,-5.479536056518555,8.13700008392334
1702071614966998300,5.488998291015625,0.05637973174452782,-5.727749824523926,7.964034557342529
1702071614983989200,5.5059892578125,0.11451684683561325,-5.924595832824707,7.818068027496338
1702071615000979200,5.522979248046875,0.1601695716381073,-6.0487542152404785,7.721595764160156
1702071615017968400,5.539968505859375,0.1856730729341507,-6.1076226234436035,7.674540996551514
1702071615034959000,5.556958984375,0.1961948573589325,-6.130086898803711,7.656349182128906
1702071615051938000,5.57393798828125,0.2049633413553238,-6.1406683921813965,7.6476335525512695
1702071615068939500,5.590939453125,0.2163531333208084,-6.159286022186279,7.6323323249816895
1702071615085926400,5.607926513671875,0.22635844349861145,-6.181277751922607,7.614242076873779
1702071615102922200,5.624922119140625,0.2323569506406784,-6.191586017608643,7.6056809425354
1702071615119909000,5.6419091796875,0.2327750325202942,-6.187885284423828,7.608677864074707
1702071615136899600,5.658899658203125,0.23039346933364868,-6.181406021118164,7.614017486572266
1702071615153889300,5.67588916015625,0.23265253007411957,-6.175779819488525,7.61851167678833
1702071615170879700,5.692879638671875,0.2323189526796341,-6.154590129852295,7.635652542114258
1702071615187869400,5.709869384765625,0.20394475758075714,-6.08716344833374,7.6903157234191895
1702071615204860200,5.726860107421875,0.17565123736858368,-5.9799957275390625,7.77463436126709
1702071615221848800,5.743848876953125,0.14119769632816315,-5.8601884841918945,7.866026878356934
1702071615238841000,5.760841064453125,0.024266822263598442,-5.713779449462891,7.974223613739014
1702071615255829800,5.777829833984375,-0.14309117197990417,-5.548281669616699,8.089017868041992
1702071615272820500,5.794820556640625,-0.23749884963035583,-5.373012542724609,8.204294204711914
1702071615289809700,5.8118095703125,-0.2256816327571869,-5.130760192871094,8.358261108398438
1702071615306800400,5.82880029296875,-0.15805506706237793,-4.771373748779297,8.570014953613281
1702071615323790000,5.8457900390625,-0.09397631138563156,-4.333810806274414,8.800305366516113
1702071615340780500,5.862780517578125,-0.06091834232211113,-3.8845019340515137,9.007944107055664
1702071615357770000,5.87977001953125,-0.05538424476981163,-3.475004196166992,9.173734664916992
1702071615374758400,5.89675830078125,-0.07201957702636719,-3.109412908554077,9.303894996643066
1702071615391753000,5.9137529296875,-0.10773845762014389,-2.7563908100128174,9.414182662963867
1702071615408740900,5.930740966796875,-0.16284145414829254,-2.3965327739715576,9.511374473571777
1702071615425720000,5.947719970703125,-0.22703072428703308,-2.031501531600952,9.594663619995117
1702071615442721800,5.9647216796875,-0.27410462498664856,-1.6743435859680176,9.662171363830566
1702071615459710700,5.981710693359375,-0.28986695408821106,-1.3408905267715454,9.713603973388672
1702071615476701400,5.998701416015625,-0.2924233675003052,-1.0396674871444702,9.75036907196045
1702071615493691100,6.015691162109375,-0.3148161470890045,-0.7672842144966125,9.774879455566406
1702071615510681600,6.032681640625,-0.3826073110103607,-0.521976888179779,9.788631439208984
1702071615527670800,6.0496708984375,-0.5082218647003174,-0.30592429637908936,9.792052268981934
1702071615544653000,6.066653076171875,-0.672237753868103,-0.11687327176332474,9.78624439239502
1702071615561633000,6.083633056640625,-0.8344614505767822,0.04541678726673126,9.774340629577637
1702071615578642200,6.10064208984375,-0.9682451486587524,0.17884820699691772,9.760462760925293
1702071615595631400,6.11763134765625,-1.0562878847122192,0.2849886119365692,9.74880313873291
1702071615612622000,6.1346220703125,-1.0891281366348267,0.3567924499511719,9.74282455444336
1702071615629611800,6.15161181640625,-1.0833779573440552,0.3870660960674286,9.742308616638184
1702071615646602500,6.1686025390625,-1.0556858777999878,0.3684772253036499,9.746068000793457
1702071615663591700,6.185591796875,-0.9898859858512878,0.2920605540275574,9.755560874938965
1702071615680571600,6.202571533203125,-0.8839303255081177,0.15856041014194489,9.768810272216797
1702071615697571800,6.21957177734375,-0.7601108551025391,-0.015808532014489174,9.780496597290039
1702071615714562600,6.2365625,-0.6452481746673584,-0.22388902306556702,9.786197662353516
1702071615731552000,6.253552001953125,-0.5484471917152405,-0.48427578806877136,9.782679557800293
1702071615748542700,6.270542724609375,-0.46624353528022766,-0.8205307722091675,9.76450252532959
1702071615765531400,6.287531494140625,-0.38842836022377014,-1.2282629013061523,9.725051879882812
1702071615782524700,6.304524658203125,-0.30343762040138245,-1.6388965845108032,9.66737174987793
1702071615799511000,6.321510986328125,-0.19463525712490082,-1.9566612243652344,9.610917091369629
1702071615816502800,6.338502685546875,-0.0930710881948471,-2.1588499546051025,9.56905460357666
1702071615833498000,6.355498046875,-0.044050730764865875,-2.2986984252929688,9.53678035736084
1702071615850483200,6.372483154296875,-0.07401508092880249,-2.4320590496063232,9.503458976745605
1702071615867473000,6.389472900390625,-0.17417050898075104,-2.587181568145752,9.46109390258789
1702071615884446000,6.406446044921875,-0.31139522790908813,-2.753486156463623,9.410496711730957
1702071615901452800,6.423452880859375,-0.4471469521522522,-2.910290002822876,9.35769271850586
1702071615918448400,6.440448486328125,-0.549494206905365,-3.054323673248291,9.306195259094238
1702071615935433500,6.45743359375,-0.6037182807922363,-3.1912412643432617,9.256763458251953
1702071615952423400,6.47442333984375,-0.6129747033119202,-3.325272560119629,9.208849906921387
1702071615969413400,6.491413330078125,-0.5967831015586853,-3.4535202980041504,9.162595748901367
1702071615986403800,6.50840380859375,-0.5784781575202942,-3.576840400695801,9.116342544555664
1702071616003393500,6.5253935546875,-0.5739428997039795,-3.6954469680786133,9.069199562072754
1702071616020384000,6.542384033203125,-0.5816261768341064,-3.8046212196350098,9.023452758789062
1702071616037373400,6.55937353515625,-0.5866830348968506,-3.892890691757202,8.985394477844238
1702071616054364000,6.576364013671875,-0.5783407688140869,-3.9559731483459473,8.958344459533691
1702071616071335700,6.593335693359375,-0.5517855286598206,-4.001614093780518,8.939728736877441
1702071616088344600,6.610344482421875,-0.5081986784934998,-4.035735607147217,8.92696475982666
1702071616105333800,6.627333740234375,-0.45965200662612915,-4.046255111694336,8.924833297729492
1702071616122324200,6.64432421875,-0.40978318452835083,-4.035533428192139,8.93211555480957
1702071616139314200,6.661314208984375,-0.3490793704986572,-4.022276878356934,8.940670013427734
1702071616156304600,6.6783046875,-0.26932838559150696,-4.017308235168457,8.945658683776855
1702071616173291800,6.695291748046875,-0.17256036400794983,-4.027228832244873,8.943588256835938
1702071616190277600,6.712277587890625,-0.0729912519454956,-4.049948215484619,8.934691429138184
1702071616207254300,6.729254150390625,0.016158854588866234,-4.078168869018555,8.92212963104248
1702071616224267800,6.746267822265625,0.09656807035207748,-4.111515045166016,8.906302452087402
1702071616241252400,6.76325244140625,0.18056362867355347,-4.147704124450684,8.888199806213379
1702071616258247700,6.78024755859375,0.28284966945648193,-4.181524753570557,8.86966609954834
1702071616275234800,6.79723486328125,0.39993730187416077,-4.203043460845947,8.854975700378418
1702071616292225300,6.814225341796875,0.5218719840049744,-4.208502292633057,8.846031188964844
1702071616309215000,6.831215087890625,0.6395228505134583,-4.201667785644531,8.841556549072266
1702071616326205200,6.848205078125,0.742341935634613,-4.18726110458374,8.84035587310791
1702071616343195000,6.86519482421875,0.8139568567276001,-4.17371129989624,8.840460777282715
1702071616360185900,6.882185791015625,0.8433706164360046,-4.175292015075684,8.836956024169922
1702071616377175300,6.89917529296875,0.8416525721549988,-4.2026824951171875,8.824125289916992
1702071616394166000,6.916166015625,0.8436933755874634,-4.249094009399414,8.801675796508789
1702071616411154200,6.933154296875,0.8462741374969482,-4.273464202880859,8.78962230682373
1702071616428147200,6.950147216796875,0.8337385058403015,-4.225973606109619,8.813748359680176
1702071616445135600,6.967135498046875,0.8048444986343384,-4.084622383117676,8.882803916931152
1702071616462123500,6.98412353515625,0.7740396857261658,-3.8726894855499268,8.979937553405762
1702071616479118000,7.0011181640625,0.7590939998626709,-3.6313936710357666,9.08145809173584
1702071616496106500,7.0181064453125,0.7573025822639465,-3.3895103931427,9.174629211425781
1702071616513096000,7.035095947265625,0.7255175113677979,-3.1334190368652344,9.267763137817383
1702071616530074000,7.05207421875,0.6347825527191162,-2.839348077774048,9.368632316589355
1702071616547070200,7.0690703125,0.516440749168396,-2.509547233581543,9.469507217407227
1702071616564056800,7.086056884765625,0.4201015532016754,-2.160276412963867,9.55996036529541
1702071616581045200,7.103045166015625,0.37657076120376587,-1.8164567947387695,9.63300609588623
1702071616598049500,7.120049560546875,0.3926475942134857,-1.5063544511795044,9.685702323913574
1702071616615036400,7.137036376953125,0.44010281562805176,-1.2448804378509521,9.720735549926758
1702071616632027100,7.154027099609375,0.46633437275886536,-1.0323512554168701,9.744378089904785
1702071616649016300,7.171016357421875,0.4284212589263916,-0.8548983931541443,9.763285636901855
1702071616666004700,7.188004638671875,0.3230489492416382,-0.6989418864250183,9.779735565185547
1702071616682999300,7.204999267578125,0.17471057176589966,-0.5687652826309204,9.791940689086914
1702071616699984600,7.221984619140625,0.014142496511340141,-0.48884543776512146,9.797805786132812
1702071616716979500,7.2389794921875,-0.13343563675880432,-0.4728962779045105,9.797688484191895
1702071616733956900,7.255956787109375,-0.25538063049316406,-0.5171144604682922,9.793034553527832
1702071616750960000,7.272960205078125,-0.3461556136608124,-0.6026546955108643,9.78535270690918
1702071616767934500,7.2899345703125,-0.4041467607021332,-0.704114556312561,9.776350021362305
1702071616784937200,7.306937255859375,-0.43023449182510376,-0.800876796245575,9.76778507232666
1702071616801926000,7.32392578125,-0.42331013083457947,-0.8872148990631104,9.760623931884766
1702071616818919400,7.34091943359375,-0.3838808238506317,-0.974846601486206,9.753893852233887
1702071616835908000,7.357908203125,-0.3141482472419739,-1.0872005224227905,9.7445068359375
1702071616852897300,7.374897216796875,-0.22424741089344025,-1.2384109497070312,9.728935241699219
1702071616869879600,7.391879638671875,-0.13588440418243408,-1.4257456064224243,9.7048921585083
1702071616886867000,7.408866943359375,-0.07198390364646912,-1.6373775005340576,9.67212200164795
1702071616903868200,7.4258681640625,-0.03510785475373268,-1.8676835298538208,9.63050651550293
1702071616920857900,7.44285791015625,-0.017316602170467377,-2.1051039695739746,9.58145809173584
1702071616937836300,7.459836181640625,-0.012198973447084427,-2.3353734016418457,9.527958869934082
1702071616954827000,7.476826904296875,-0.01551500242203474,-2.555992841720581,9.471156120300293
1702071616971818500,7.493818603515625,-0.008167099207639694,-2.783334732055664,9.406865119934082
1702071616988809700,7.510809814453125,0.0281927902251482,-3.027086019515991,9.331241607666016
1702071617005800400,7.527800537109375,0.09341760724782944,-3.2817225456237793,9.244332313537598
1702071617022788900,7.544788818359375,0.17307277023792267,-3.530816078186035,9.150930404663086
1702071617039778600,7.561778564453125,0.2657533288002014,-3.7509865760803223,9.060662269592285
1702071617056770000,7.57877001953125,0.3733137547969818,-3.9203670024871826,8.984847068786621
1702071617073761000,7.595760986328125,0.499644011259079,-4.029749870300293,8.930150985717773
1702071617090748700,7.612748779296875,0.6382551789283752,-4.09463357925415,8.891721725463867
1702071617107740000,7.629739990234375,0.7606493830680847,-4.14741849899292,8.857563972473145
1702071617124728800,7.646728759765625,0.8493990302085876,-4.215117931365967,8.817450523376465
1702071617141721900,7.663721923828125,0.9002861976623535,-4.311699390411377,8.765548706054688
1702071617158710300,7.680710205078125,0.9282773733139038,-4.43480110168457,8.700974464416504
1702071617175697200,7.697697265625,0.9487426280975342,-4.567959308624268,8.629586219787598
1702071617192692500,7.7146923828125,0.9704238176345825,-4.696935653686523,8.557638168334961
1702071617209679000,7.73167919921875,0.9919679164886475,-4.81507682800293,8.489238739013672
1702071617226674400,7.74867431640625,1.0064011812210083,-4.919682025909424,8.427338600158691
1702071617243661000,7.7656611328125,1.0130056142807007,-5.01108980178833,8.372509956359863
1702071617260651000,7.782651123046875,1.0192465782165527,-5.094244003295898,8.32141399383545
1702071617277650200,7.799650146484375,1.0312942266464233,-5.170354843139648,8.272845268249512
1702071617294639600,7.8166396484375,1.0491522550582886,-5.231112480163574,8.232305526733398
1702071617311627500,7.83362744140625,1.0686640739440918,-5.265155792236328,8.20805835723877
1702071617328622300,7.850622314453125,1.0925835371017456,-5.268287181854248,8.202898025512695
1702071617345608700,7.867608642578125,1.1239694356918335,-5.239201545715332,8.217272758483887
1702071617362601500,7.8846015625,1.1574862003326416,-5.178494453430176,8.251033782958984
1702071617379590400,7.90159033203125,1.1774786710739136,-5.088942527770996,8.303753852844238
1702071617396580000,7.918580078125,1.1737321615219116,-4.974661827087402,8.373244285583496
1702071617413570300,7.9355703125,1.1563752889633179,-4.842583656311035,8.45271110534668
1702071617430560300,7.952560302734375,1.130254864692688,-4.7014079093933105,8.535538673400879
1702071617447550700,7.96955078125,1.0992628335952759,-4.557880401611328,8.617045402526855
1702071617464540400,7.98654052734375,1.0651811361312866,-4.421946048736572,8.6918306350708
1702071617481531100,8.00353125,1.0299897193908691,-4.302352428436279,8.75585651397705
1702071617498520300,8.020520263671875,0.9995324611663818,-4.203135967254639,8.807422637939453
1702071617515511000,8.037510986328124,0.9714231491088867,-4.12680721282959,8.846576690673828
1702071617532500700,8.054500732421875,0.9400557279586792,-4.072076320648193,8.875282287597656
1702071617549491500,8.071491455078124,0.896128237247467,-4.020719528198242,8.903196334838867
1702071617566481200,8.088481201171875,0.8268293738365173,-3.959460973739624,8.93729019165039
1702071617583471400,8.105471435546875,0.7640492916107178,-3.9135849475860596,8.963045120239258
1702071617600461300,8.12246142578125,0.7311385273933411,-3.900022506713867,8.971700668334961
1702071617617451500,8.139451416015625,0.6809635758399963,-3.8944592475891113,8.978060722351074
1702071617634441000,8.15644091796875,0.5915365219116211,-3.86238169670105,8.998233795166016
1702071617651421400,8.17342138671875,0.5165506601333618,-3.792738199234009,9.032408714294434
1702071617668421400,8.19042138671875,0.4575551748275757,-3.664640188217163,9.088297843933105
1702071617685412000,8.207412109375,0.3464776575565338,-3.4732465744018555,9.168023109436035
1702071617702401500,8.224401611328124,0.19388256967067719,-3.270404815673828,9.246781349182129
1702071617719392000,8.24139208984375,0.06259912252426147,-3.106330156326294,9.304994583129883
1702071617736381400,8.25838134765625,-0.04654208570718765,-2.985415458679199,9.344583511352539
1702071617753362000,8.27536181640625,-0.15987983345985413,-2.881855010986328,9.375791549682617
1702071617770361900,8.29236181640625,-0.2874508798122406,-2.7778098583221436,9.404109954833984
1702071617787352300,8.309352294921876,-0.40241125226020813,-2.664354085922241,9.43267822265625
1702071617804341800,8.326341796875,-0.4674161970615387,-2.5394809246063232,9.464073181152344
1702071617821332700,8.343332763671874,-0.4655965566635132,-2.403520345687866,9.499602317810059
1702071617838319600,8.360319580078125,-0.41889309883117676,-2.2575433254241943,9.537511825561523
1702071617855315200,8.377315185546875,-0.3555060625076294,-2.104613780975342,9.574984550476074
1702071617872308000,8.394307861328125,-0.3225628435611725,-1.9459528923034668,9.609647750854492
1702071617889292800,8.411292724609375,-0.35668134689331055,-1.7834367752075195,9.639927864074707
1702071617906288400,8.428288330078125,-0.44931352138519287,-1.6265220642089844,9.663780212402344
1702071617923268900,8.445268798828126,-0.5671346187591553,-1.4899667501449585,9.67959213256836
1702071617940266800,8.462266845703125,-0.6729388236999512,-1.381820797920227,9.688850402832031
1702071617957253000,8.479253173828125,-0.7417617440223694,-1.3042703866958618,9.694576263427734
1702071617974235100,8.496235107421874,-0.7778773307800293,-1.256378173828125,9.698068618774414
1702071617991245600,8.51324560546875,-0.8086720108985901,-1.2411589622497559,9.697509765625
1702071618008220400,8.530220458984376,-0.846216082572937,-1.2557737827301025,9.692423820495605
1702071618025216300,8.54721630859375,-0.8809111714363098,-1.2947168350219727,9.684206008911133
1702071618042203000,8.564202880859375,-0.8947658538818359,-1.3582956790924072,9.674221992492676
1702071618059193600,8.581193603515626,-0.8816920518875122,-1.4489529132843018,9.662261009216309
1702071618076180500,8.598180419921874,-0.8597310781478882,-1.5619287490844727,9.646625518798828
1702071618093176600,8.615176513671875,-0.8497989773750305,-1.6922634840011597,9.625495910644531
1702071618110163500,8.63216357421875,-0.852990984916687,-1.8443405628204346,9.597235679626465
1702071618127151400,8.6491513671875,-0.8606870770454407,-2.0182087421417236,9.561493873596191
1702071618144143600,8.6661435546875,-0.8794598579406738,-2.2120280265808105,9.516807556152344
1702071618161136600,8.68313671875,-0.9007148146629333,-2.4151248931884766,9.46530532836914
1702071618178119700,8.70011962890625,-0.9067102074623108,-2.625826835632324,9.408454895019531
1702071618195118600,8.71711865234375,-0.8959259390830994,-2.8399500846862793,9.34709358215332
1702071618212104000,8.73410400390625,-0.8999251127243042,-3.042170763015747,9.282856941223145
1702071618229094700,8.7510947265625,-0.9230386018753052,-3.2494001388549805,9.210077285766602
1702071618246083600,8.76808349609375,-0.9233183860778809,-3.5088353157043457,9.114365577697754
1702071618263074800,8.78507470703125,-0.8416780829429626,-3.8372392654418945,8.98906421661377
1702071618280060000,8.802059814453125,-0.6789904236793518,-4.186598777770996,8.845759391784668
1702071618297052000,8.819052001953125,-0.486260324716568,-4.4869914054870605,8.7101411819458
1702071618314044400,8.83604443359375,-0.31013867259025574,-4.712596893310547,8.598335266113281
1702071618331035000,8.853034912109376,-0.19476725161075592,-4.86390495300293,8.51707649230957
1702071618348024600,8.870024658203125,-0.15422207117080688,-4.973292827606201,8.454506874084473
1702071618365015000,8.88701513671875,-0.17166081070899963,-5.068791389465332,8.397261619567871
1702071618382004500,8.90400439453125,-0.22242867946624756,-5.140691757202148,8.352242469787598
1702071618398995000,8.920994873046874,-0.28070318698883057,-5.162173748016357,8.337224006652832
1702071618415984600,8.937984619140625,-0.3244146406650543,-5.124765396118164,8.358686447143555
1702071618432975400,8.954975341796874,-0.3500581979751587,-5.049740791320801,8.403194427490234
1702071618449964800,8.97196484375,-0.36012476682662964,-4.971582889556885,8.449249267578125
1702071618466953000,8.988952880859374,-0.36384886503219604,-4.916061878204346,8.481512069702148
1702071618483947800,9.00594775390625,-0.356624037027359,-4.882742404937744,8.501045227050781
1702071618500935400,9.022935302734375,-0.3372533917427063,-4.847850799560547,8.52177906036377
1702071618517925400,9.03992529296875,-0.3151398003101349,-4.792482376098633,8.553884506225586
1702071618534915600,9.05691552734375,-0.2991470694541931,-4.725089073181152,8.591866493225098
1702071618551912000,9.073911865234376,-0.2830888628959656,-4.67863655090332,8.617793083190918
1702071618568896000,9.09089599609375,-0.25055786967277527,-4.674003601074219,8.62131404876709
1702071618585886000,9.107885986328125,-0.21190251410007477,-4.6959381103515625,8.610422134399414
1702071618602875400,9.12487548828125,-0.19819898903369904,-4.707257270812988,8.604565620422363
1702071618619851800,9.141851806640625,-0.21890047192573547,-4.6899495124816895,8.613510131835938
1702071618636859600,9.158859619140625,-0.2759985327720642,-4.643631935119629,8.636934280395508
1702071618653845800,9.175845703125,-0.3690037727355957,-4.569376468658447,8.672989845275879
1702071618670836500,9.19283642578125,-0.4835001528263092,-4.466030597686768,8.721061706542969
1702071618687826700,9.20982666015625,-0.558043360710144,-4.342148303985596,8.77897834777832
1702071618704816600,9.226816650390624,-0.5860843062400818,-4.205365180969238,8.84350299835205
1702071618721806000,9.24380615234375,-0.6533699631690979,-4.056669235229492,8.908010482788086
1702071618738797000,9.260797119140625,-0.7372015118598938,-3.9483938217163086,8.950019836425781
1702071618755786500,9.277786376953125,-0.7506170272827148,-3.9497852325439453,8.948291778564453
1702071618772776700,9.294776611328125,-0.7261683940887451,-4.01140022277832,8.922863006591797
1702071618789775600,9.311775634765626,-0.7683882117271423,-4.0433430671691895,8.904891014099121
1702071618806758400,9.32875830078125,-0.9142162799835205,-4.008707523345947,8.906771659851074
1702071618823754800,9.345754638671876,-1.080564022064209,-3.9129879474639893,8.930678367614746
1702071618840737300,9.3627373046875,-1.1745039224624634,-3.7774038314819336,8.97707462310791
1702071618857726700,9.379726806640624,-1.1715812683105469,-3.6313562393188477,9.037521362304688
1702071618874717200,9.39671728515625,-1.1349226236343384,-3.4815282821655273,9.100937843322754
1702071618891707000,9.413706787109374,-1.1112726926803589,-3.3244433403015137,9.162383079528809
1702071618908697300,9.430697265625,-1.1043540239334106,-3.147848129272461,9.22537612915039
1702071618925685500,9.447685546875,-1.0991227626800537,-2.9393742084503174,9.294522285461426
1702071618942679000,9.464678955078124,-1.0833566188812256,-2.695187568664551,9.370081901550293
1702071618959667000,9.4816669921875,-1.056024193763733,-2.426260471343994,9.446385383605957
1702071618976658000,9.498657958984374,-1.036091923713684,-2.14497447013855,9.516392707824707
1702071618993647400,9.5156474609375,-1.0321601629257202,-1.866076946258545,9.575413703918457
1702071619010638000,9.53263818359375,-1.0330685377120972,-1.6117891073226929,9.621383666992188
1702071619027625000,9.549625,-1.0367844104766846,-1.3979389667510986,9.654376029968262
1702071619044620500,9.56662060546875,-1.0475664138793945,-1.2215982675552368,9.677108764648438
1702071619061607700,9.583607666015626,-1.082932472229004,-1.0808128118515015,9.689955711364746
1702071619078598100,9.60059814453125,-1.1543439626693726,-0.9740400314331055,9.693031311035156
1702071619095574800,9.61757470703125,-1.246726155281067,-0.898212194442749,9.688911437988281
1702071619112569000,9.634569091796875,-1.3346928358078003,-0.8524273037910461,9.681326866149902
1702071619129569300,9.6515693359375,-1.4013019800186157,-0.8411960005760193,9.672893524169922
1702071619146558500,9.668558349609375,-1.4365746974945068,-0.8645026683807373,9.66566276550293
1702071619163548200,9.685548095703124,-1.448042869567871,-0.9099612832069397,9.659774780273438
1702071619180538400,9.702538330078125,-1.4543613195419312,-0.9635782241821289,9.653624534606934
1702071619197528000,9.719528076171875,-1.4554725885391235,-1.0385158061981201,9.645683288574219
1702071619214519000,9.73651904296875,-1.4288525581359863,-1.1701807975769043,9.63458251953125
1702071619231497700,9.753497802734374,-1.3780572414398193,-1.3688188791275024,9.615788459777832
1702071619248499200,9.770499267578124,-1.3398118019104004,-1.5954184532165527,9.586222648620605
1702071619265485600,9.787485595703124,-1.3051000833511353,-1.844109296798706,9.54631233215332
1702071619282481700,9.804481689453125,-1.235188364982605,-2.157917022705078,9.489668846130371
1702071619299468500,9.821468505859375,-1.08564031124115,-2.548701524734497,9.41071891784668
1702071619316459000,9.838458984375,-0.8491379618644714,-2.9527151584625244,9.316466331481934
1702071619333448700,9.85544873046875,-0.5665227174758911,-3.298886299133301,9.221309661865234
1702071619350429200,9.87242919921875,-0.2756441831588745,-3.59694766998291,9.122615814208984
1702071619367429000,9.88942919921875,-0.020012972876429558,-3.877511739730835,9.011139869689941
1702071619384419600,9.906419677734375,0.18164055049419403,-4.1591596603393555,8.882821083068848
1702071619401409300,9.9234091796875,0.3316081762313843,-4.443294525146484,8.739753723144531
1702071619418399500,9.9403994140625,0.4522991180419922,-4.721797943115234,8.586976051330566
1702071619435378700,9.957378662109376,0.5662022829055786,-4.981185436248779,8.432279586791992
1702071619452372200,9.974372314453126,0.6856076717376709,-5.198139190673828,8.291284561157227
1702071619469372000,9.991371826171875,0.8046891689300537,-5.348289966583252,8.18440055847168
1702071619486357800,10.008357666015625,0.9077984094619751,-5.441000461578369,8.11218547821045
1702071619503352000,10.02535205078125,0.985332190990448,-5.5003485679626465,8.06296443939209
1702071619520330000,10.042330078125,1.041177749633789,-5.543980598449707,8.025979042053223
1702071619537329700,10.05932958984375,1.0896838903427124,-5.58479118347168,7.991169452667236
1702071619554320400,10.0763203125,1.1363798379898071,-5.633487224578857,7.950381755828857
1702071619571303000,10.093302978515625,1.178160548210144,-5.69577693939209,7.899758338928223
1702071619588300300,10.11030029296875,1.2084540128707886,-5.764336109161377,7.845264434814453
1702071619605290000,10.1272900390625,1.2185661792755127,-5.829589366912842,7.795327663421631
1702071619622280400,10.144280517578125,1.2161449193954468,-5.899912357330322,7.742619037628174
1702071619639270100,10.161270263671875,1.2168856859207153,-5.982431411743164,7.678920745849609
1702071619656260600,10.178260498046875,1.2305471897125244,-6.067589282989502,7.609614372253418
1702071619673250300,10.195250244140626,1.2514123916625977,-6.144498825073242,7.544219017028809
1702071619690240800,10.21224072265625,1.260871410369873,-6.200955867767334,7.496297836303711
1702071619707227600,10.2292275390625,1.2275118827819824,-6.2144670486450195,7.490642547607422
1702071619724215600,10.246215576171876,1.1562261581420898,-6.185097694396973,7.526208877563477
1702071619741210600,10.263210693359374,1.0813612937927246,-6.1313676834106445,7.58110237121582
1702071619758201000,10.280201171875,0.9558870792388916,-6.032167911529541,7.676937103271484
1702071619775190800,10.297190673828124,0.7703168988227844,-5.886839389801025,7.809471607208252
1702071619792181200,10.31418115234375,0.6209573745727539,-5.75651216506958,7.919160842895508
1702071619809171000,10.3311708984375,0.5985005497932434,-5.680362224578857,7.975676536560059
1702071619826161200,10.3481611328125,0.6063352227210999,-5.597827434539795,8.033230781555176
1702071619843150800,10.36515087890625,0.518970787525177,-5.462259769439697,8.13206672668457
1702071619860131000,10.382131103515626,0.33679816126823425,-5.265965938568115,8.269962310791016
1702071619877131300,10.39913134765625,0.13164567947387695,-5.025650501251221,8.423871994018555
1702071619894121700,10.416121826171874,-0.04401900991797447,-4.769671440124512,8.572304725646973
1702071619911111200,10.433111083984375,-0.19338759779930115,-4.5163254737854,8.70640754699707
1702071619928101600,10.4501015625,-0.3364841639995575,-4.257515907287598,8.831561088562012
1702071619945091300,10.46709130859375,-0.47968804836273193,-3.980473518371582,8.953314781188965
1702071619962071600,10.484071533203124,-0.6175753474235535,-3.6787173748016357,9.073135375976562
1702071619979071500,10.501071533203126,-0.736982524394989,-3.352508306503296,9.18986701965332
1702071619996062200,10.518062255859375,-0.8001915216445923,-3.021049737930298,9.298874855041504
1702071620013039000,10.5350390625,-0.7841709852218628,-2.707448720932007,9.396326065063477
1702071620030033000,10.552032958984375,-0.7132793664932251,-2.426445245742798,9.47838306427002
1702071620047023400,10.5690234375,-0.6239900588989258,-2.186152458190918,9.542927742004395
1702071620064019200,10.586019287109375,-0.5381090641021729,-1.9945160150527954,9.590019226074219
1702071620081013500,10.603013427734375,-0.4854510724544525,-1.8526637554168701,9.621231079101562
1702071620098002400,10.62000244140625,-0.4631734788417816,-1.7523307800292969,9.641107559204102
1702071620114992000,10.6369921875,-0.44717109203338623,-1.6929256916046143,9.652470588684082
1702071620131972400,10.653972412109376,-0.44092100858688354,-1.6774717569351196,9.655455589294434
1702071620148974600,10.670974609375,-0.46333542466163635,-1.7250456809997559,9.646016120910645
1702071620165960400,10.68796044921875,-0.5233802199363708,-1.8409596681594849,9.621488571166992
1702071620182941700,10.704941650390625,-0.6042963266372681,-2.01045823097229,9.582744598388672
1702071620199943200,10.721943115234374,-0.6916511058807373,-2.215376138687134,9.531518936157227
1702071620216932400,10.738932373046875,-0.784676194190979,-2.440880537033081,9.46902847290039
1702071620233923000,10.755923095703125,-0.8831655383110046,-2.6862142086029053,9.393636703491211
1702071620250912500,10.77291259765625,-0.9570851922035217,-2.9654266834259033,9.301955223083496
1702071620267903200,10.7899033203125,-0.9585226774215698,-3.29274320602417,9.191039085388184
1702071620284892700,10.806892578125,-0.8754639029502869,-3.6183605194091797,9.07618522644043
1702071620301876200,10.823876220703125,-0.75030916929245,-3.8577070236206055,8.988395690917969
1702071620318873000,10.840873046875,-0.6471137404441833,-3.998671770095825,8.934650421142578
1702071620335863600,10.857863525390625,-0.5493032336235046,-4.1446685791015625,8.874462127685547
1702071620352843300,10.87484326171875,-0.3904262185096741,-4.390691757202148,8.763875007629395
1702071620369843500,10.891843505859375,-0.17684611678123474,-4.712125301361084,8.602367401123047
1702071620386833400,10.90883349609375,0.0382910780608654,-5.021608829498291,8.427223205566406
1702071620403823600,10.92582373046875,0.21907822787761688,-5.277495384216309,8.266569137573242
1702071620420814600,10.942814697265625,0.3768530786037445,-5.484537601470947,8.124897956848145
1702071620437804000,10.959803955078126,0.5418924689292908,-5.672325611114502,7.98543643951416
1702071620454781200,10.97678125,0.7008174657821655,-5.857504844665527,7.838024139404297
1702071620471776300,10.9937763671875,0.8265472650527954,-6.037522792816162,7.6877336502075195
1702071620488770800,11.010770751953125,0.9177801609039307,-6.197391033172607,7.548917293548584
1702071620505756200,11.027756103515625,0.9985051155090332,-6.307009220123291,7.447198390960693
1702071620522744300,11.044744384765625,1.0811607837677002,-6.350129127502441,7.398857116699219
1702071620539739000,11.06173876953125,1.1653717756271362,-6.347656726837158,7.388185501098633
1702071620556728800,11.078728759765625,1.2481975555419922,-6.332555770874023,7.387614727020264
1702071620573716500,11.095716552734375,1.3278225660324097,-6.326561450958252,7.37886381149292
1702071620590703900,11.112703857421875,1.4069032669067383,-6.332021236419678,7.359501361846924
1702071620607688700,11.129688720703125,1.4838409423828125,-6.341246604919434,7.336411952972412
1702071620624685300,11.146685302734374,1.5550857782363892,-6.33646297454834,7.325781345367432
1702071620641676800,11.1636767578125,1.617753267288208,-6.305345058441162,7.339046955108643
1702071620658665000,11.1806650390625,1.6694029569625854,-6.268525123596191,7.358994483947754
1702071620675656200,11.19765625,1.7159689664840698,-6.24819803237915,7.365569591522217
1702071620692646100,11.214646240234375,1.7577613592147827,-6.255110740661621,7.349830150604248
1702071620709638700,11.231638671875,1.7830569744110107,-6.27105188369751,7.330124855041504
1702071620726629400,11.24862939453125,1.7651938199996948,-6.268115997314453,7.336955547332764
1702071620743614500,11.265614501953126,1.6823781728744507,-6.229029655456543,7.389512062072754
1702071620760605400,11.28260546875,1.5585014820098877,-6.165461540222168,7.46955680847168
1702071620777598000,11.299597900390625,1.4387054443359375,-6.1000518798828125,7.546894073486328
1702071620794588400,11.31658837890625,1.3276629447937012,-6.037317276000977,7.617363452911377
1702071620811587600,11.333587646484375,1.1757389307022095,-5.968642234802246,7.696043014526367
1702071620828575000,11.350574951171875,0.9860692024230957,-5.902245998382568,7.773498058319092
1702071620845565700,11.367565673828125,0.8367418646812439,-5.853235244750977,7.827873706817627
1702071620862555100,11.38455517578125,0.7265206575393677,-5.774914264678955,7.896750450134277
1702071620879545600,11.401545654296875,0.5808606743812561,-5.616696357727051,8.021934509277344
1702071620896535000,11.41853515625,0.3810604214668274,-5.367521286010742,8.20247745513916
1702071620913526000,11.435526123046875,0.19251111149787903,-5.05534029006958,8.404914855957031
1702071620930515500,11.452515380859374,0.0876997634768486,-4.732022762298584,8.592811584472656
1702071620947503400,11.46950341796875,0.08309274166822433,-4.440702438354492,8.746963500976562
1702071620964498200,11.486498291015625,0.13485842943191528,-4.188166618347168,8.870016098022461
1702071620981493500,11.503493408203125,0.19997449219226837,-3.9578182697296143,8.973952293395996
1702071620998475800,11.520475830078125,0.2428901344537735,-3.7282421588897705,9.070686340332031
1702071621015466500,11.537466552734376,0.25282105803489685,-3.4756271839141846,9.170181274414062
1702071621032439000,11.55443896484375,0.2396545708179474,-3.197303295135498,9.27124309539795
1702071621049446400,11.5714462890625,0.230819433927536,-2.918184995651245,9.363067626953125
1702071621066436000,11.58843603515625,0.24963928759098053,-2.6769275665283203,9.434396743774414
1702071621083423500,11.605423583984376,0.2958208918571472,-2.482454538345337,9.486096382141113
1702071621100419300,11.62241943359375,0.349161833524704,-2.3244566917419434,9.524237632751465
1702071621117406700,11.63940673828125,0.3971458375453949,-2.194962978363037,9.55303955078125
1702071621134396200,11.656396240234375,0.43440312147140503,-2.0893335342407227,9.57507610321045
1702071621151375600,11.673375732421874,0.4593084454536438,-2.0035924911499023,9.59222412109375
1702071621168377000,11.690377197265626,0.4807250499725342,-1.9496585130691528,9.60228443145752
1702071621185367000,11.707366943359375,0.49761298298835754,-1.9386967420578003,9.603642463684082
1702071621202356500,11.7243564453125,0.5018033981323242,-1.9828908443450928,9.594395637512207
1702071621219347200,11.74134716796875,0.49262675642967224,-2.081965923309326,9.57386302947998
1702071621236336600,11.758336669921874,0.46942266821861267,-2.2145864963531494,9.545228958129883
1702071621253327000,11.7753271484375,0.42272213101387024,-2.3614203929901123,9.512157440185547
1702071621270316800,11.79231689453125,0.3514401912689209,-2.5206212997436523,9.474125862121582
1702071621287307500,11.8093076171875,0.2752123773097992,-2.7123098373413086,9.423574447631836
1702071621304297000,11.826296875,0.22368787229061127,-2.9456067085266113,9.354649543762207
1702071621321287700,11.84328759765625,0.21106724441051483,-3.1805381774902344,9.277702331542969
1702071621338277000,11.860277099609375,0.23349687457084656,-3.402092695236206,9.198225975036621
1702071621355256600,11.877256591796876,0.2973230481147766,-3.6626057624816895,9.095770835876465
1702071621372258000,11.894258056640625,0.43055564165115356,-4.008890628814697,8.943127632141113
1702071621389247700,11.911247802734374,0.6379680633544922,-4.400660514831543,8.744330406188965
1702071621406237200,11.9282373046875,0.8877137899398804,-4.768006801605225,8.527261734008789
1702071621423228000,11.945227783203125,1.1192927360534668,-5.067752838134766,8.32473373413086
1702071621440217600,11.962217529296876,1.2858489751815796,-5.289962291717529,8.160822868347168
1702071621457208000,11.9792080078125,1.3767918348312378,-5.468097686767578,8.027482032775879
1702071621474200800,11.996200927734375,1.4077510833740234,-5.640821933746338,7.901612758636475
1702071621491185000,12.013184814453124,1.3972886800765991,-5.8192057609558105,7.773066520690918
1702071621508177700,12.030177734375,1.381174921989441,-5.990530014038086,7.644740104675293
1702071621525168000,12.047168212890625,1.3845312595367432,-6.137946128845215,7.52627420425415
1702071621542157800,12.06415771484375,1.4134165048599243,-6.247412204742432,7.4302239418029785
1702071621559148500,12.0811484375,1.4601012468338013,-6.313786506652832,7.364804267883301
1702071621576137700,12.0981376953125,1.5096780061721802,-6.348297119140625,7.325033187866211
1702071621593128400,12.11512841796875,1.549349069595337,-6.3684868812561035,7.2991790771484375
1702071621610107600,12.132107666015624,1.5711522102355957,-6.388837814331055,7.276697635650635
1702071621627106000,12.14910595703125,1.568676471710205,-6.411915302276611,7.256906986236572
1702071621644101000,12.16610107421875,1.5467008352279663,-6.433712005615234,7.242318153381348
1702071621661088800,12.1830888671875,1.515869140625,-6.450594425201416,7.233816146850586
1702071621678078500,12.200078369140625,1.4938291311264038,-6.472465515136719,7.218850135803223
1702071621695069200,12.217069091796875,1.4869756698608398,-6.508961200714111,7.187381267547607
1702071621712058400,12.234058349609375,1.4835597276687622,-6.554882049560547,7.146236896514893
1702071621729049300,12.25104931640625,1.4628617763519287,-6.582355499267578,7.125218868255615
1702071621746038800,12.268038818359376,1.3960707187652588,-6.553372383117676,7.165222644805908
1702071621763029500,12.285029541015625,1.2960354089736938,-6.459402084350586,7.2686004638671875
1702071621780019700,12.302019775390624,1.1955264806747437,-6.339430809020996,7.3904290199279785
1702071621797006600,12.319006591796875,1.092966914176941,-6.217319011688232,7.509091854095459
1702071621814001000,12.3360009765625,0.9397984743118286,-6.075232028961182,7.6448974609375
1702071621830990300,12.352990234375,0.7431600689888,-5.918346881866455,7.788261413574219
1702071621847964700,12.369964599609375,0.6021077036857605,-5.7968292236328125,7.891157627105713
1702071621864969700,12.3869697265625,0.5609233975410461,-5.714215278625488,7.954195022583008
1702071621881959200,12.403959228515625,0.5186749696731567,-5.5862135887146,8.047440528869629
1702071621898949600,12.42094970703125,0.4195517599582672,-5.357333183288574,8.207256317138672
1702071621915928800,12.4379287109375,0.31677234172821045,-5.035745620727539,8.412909507751465
1702071621932919300,12.454919189453125,0.26137346029281616,-4.679182052612305,8.618182182312012
1702071621949912800,12.471912841796875,0.25149694085121155,-4.356691360473633,8.785903930664062
1702071621966910200,12.48891015625,0.24585027992725372,-4.103328704833984,8.907209396362305
1702071621983899600,12.505899658203125,0.2149530053138733,-3.908219814300537,8.995317459106445
1702071622000890000,12.52289013671875,0.16162991523742676,-3.742849349975586,9.06648063659668
1702071622017879800,12.5398798828125,0.09634925425052643,-3.579383373260498,9.133173942565918
1702071622034870300,12.556870361328125,0.02455187402665615,-3.3994460105895996,9.202134132385254
1702071622051860000,12.57385986328125,-0.04869736731052399,-3.2030200958251953,9.272238731384277
1702071622068850400,12.590850341796875,-0.10730518400669098,-3.002274990081787,9.338680267333984
1702071622085837300,12.60783740234375,-0.14313925802707672,-2.8099448680877686,9.39786434173584
1702071622102833200,12.624833251953126,-0.16538207232952118,-2.637314558029175,9.44739818572998
1702071622119820300,12.6418203125,-0.1953309178352356,-2.4922404289245605,9.486133575439453
1702071622136810800,12.658810791015625,-0.26176580786705017,-2.3808631896972656,9.513101577758789
1702071622153800400,12.675800537109374,-0.37704017758369446,-2.302433729171753,9.528523445129395
1702071622170791000,12.692791015625,-0.5418585538864136,-2.254047393798828,9.532145500183105
1702071622187780400,12.7097802734375,-0.7178340554237366,-2.238913059234619,9.524079322814941
1702071622204771000,12.72677099609375,-0.8657054305076599,-2.263768434524536,9.505894660949707
1702071622221760500,12.743760498046875,-0.9512099027633667,-2.3253250122070312,9.482836723327637
1702071622238751000,12.7607509765625,-0.9727206230163574,-2.412834644317627,9.458761215209961
1702071622255740400,12.777740478515625,-0.9651373624801636,-2.502476930618286,9.436219215393066
1702071622272731100,12.794731201171874,-0.9538534283638,-2.5863540172576904,9.414724349975586
1702071622289720000,12.811719970703125,-0.9338401556015015,-2.6986899375915527,9.385154724121094
1702071622306712600,12.828712646484375,-0.9182035326957703,-2.843329429626465,9.343902587890625
1702071622323701000,12.845700927734375,-0.8823670744895935,-3.038069725036621,9.285886764526367
1702071622340691500,12.86269140625,-0.7831094264984131,-3.322397232055664,9.196985244750977
1702071622357681000,12.879680908203126,-0.5909172892570496,-3.675963878631592,9.076025009155273
1702071622374671600,12.896671630859375,-0.3543693423271179,-4.023879051208496,8.939740180969238
1702071622391661000,12.9136611328125,-0.15640367567539215,-4.318453788757324,8.806962966918945
1702071622408651500,12.930651611328125,-0.024427328258752823,-4.589142799377441,8.670369148254395
1702071622425640000,12.947639892578126,0.08527228981256485,-4.889894485473633,8.503987312316895
1702071622442622200,12.964622314453125,0.2189425677061081,-5.225261211395264,8.299689292907715
1702071622459621000,12.98162109375,0.3747919201850891,-5.550523281097412,8.080058097839355
1702071622476612000,12.998612060546876,0.5514275431632996,-5.805549621582031,7.888451099395752
1702071622493601800,13.015601806640625,0.7474309206008911,-5.946988105773926,7.766003131866455
1702071622510589400,13.03258935546875,0.9591726064682007,-5.979696750640869,7.717470169067383
1702071622527584000,13.049583984375,1.167611837387085,-5.950207233428955,7.711538314819336
1702071622544572200,13.066572265625,1.3527995347976685,-5.903353691101074,7.717282295227051
1702071622561561600,13.0835615234375,1.4990863800048828,-5.866618633270264,7.71826696395874
1702071622578552300,13.10055224609375,1.605605125427246,-5.846229076385498,7.712311744689941
1702071622595541800,13.117541748046875,1.683070182800293,-5.836259365081787,7.703341960906982
1702071622612532500,13.134532470703125,1.7400671243667603,-5.82931661605835,7.6959309577941895
1702071622629522200,13.151522216796875,1.781960129737854,-5.825738906860352,7.689050197601318
1702071622646512400,13.168512451171875,1.8079288005828857,-5.83171272277832,7.6784539222717285
1702071622663499800,13.185499755859375,1.8104220628738403,-5.849290370941162,7.664482593536377
1702071622680495000,13.2024951171875,1.7916126251220703,-5.868693828582764,7.654062747955322
1702071622697472000,13.219471923828126,1.7482572793960571,-5.856494903564453,7.673408031463623
1702071622714472700,13.23647265625,1.658541202545166,-5.789584636688232,7.743776321411133
1702071622731452000,13.253451904296876,1.525387167930603,-5.700585842132568,7.836621284484863
1702071622748465000,13.27046484375,1.4062992334365845,-5.652528762817383,7.8935017585754395
1702071622765441000,13.28744091796875,1.32155442237854,-5.6319050788879395,7.922830104827881
1702071622782434800,13.304434814453124,1.2116448879241943,-5.5404052734375,8.004496574401855
1702071622799422500,13.32142236328125,1.0485397577285767,-5.310962677001953,8.181097030639648
1702071622816413200,13.3384130859375,0.8791552186012268,-4.950536727905273,8.423502922058105
1702071622833402600,13.355402587890625,0.775020956993103,-4.527027606964111,8.668417930603027
1702071622850393300,13.372393310546874,0.7639551162719727,-4.107968330383301,8.875645637512207
1702071622867382300,13.38938232421875,0.7909803986549377,-3.712925910949707,9.045698165893555
1702071622884374800,13.406374755859375,0.7767921090126038,-3.3316962718963623,9.1941556930542
1702071622901362200,13.423362060546875,0.6944299936294556,-2.966517448425293,9.324893951416016
1702071622918353400,13.440353515625,0.5688077807426453,-2.630314588546753,9.43366527557373
1702071622935343000,13.457343017578125,0.4272969961166382,-2.333421468734741,9.51885986328125
1702071622952331300,13.474331298828124,0.29020142555236816,-2.089273691177368,9.580546379089355
1702071622969317600,13.491317626953125,0.1613708734512329,-1.892061471939087,9.624456405639648
1702071622986314000,13.50831396484375,0.02820112183690071,-1.7399051189422607,9.654431343078613
1702071623003303400,13.525303466796874,-0.1281440705060959,-1.631211519241333,9.672581672668457
1702071623020294000,13.5422939453125,-0.3170161545276642,-1.5597585439682007,9.680020332336426
1702071623037283600,13.55928369140625,-0.5281789898872375,-1.5216517448425293,9.67686653137207
1702071623054274000,13.576274169921875,-0.7188087701797485,-1.5121119022369385,9.666072845458984
1702071623071253000,13.5932529296875,-0.8566381931304932,-1.512193202972412,9.654820442199707
1702071623088254200,13.610254150390626,-0.9415438771247864,-1.5034455060958862,9.648277282714844
1702071623105243600,13.62724365234375,-0.9880940914154053,-1.48321533203125,9.646753311157227
1702071623122223900,13.644223876953125,-1.0101152658462524,-1.4647910594940186,9.647287368774414
1702071623139223800,13.661223876953125,-1.0023525953292847,-1.4701932668685913,9.647275924682617
1702071623156214500,13.678214599609374,-0.9603409171104431,-1.5219124555587769,9.643528938293457
1702071623173204000,13.695203857421875,-0.8874202370643616,-1.6330292224884033,9.632333755493164
1702071623190194400,13.7121943359375,-0.8050271272659302,-1.8036195039749146,9.609112739562988
1702071623207181600,13.729181640625,-0.737454354763031,-2.03139328956604,9.568998336791992
1702071623224177200,13.74617724609375,-0.6968185901641846,-2.3059470653533936,9.509634971618652
1702071623241164300,13.763164306640626,-0.6770099401473999,-2.6129653453826904,9.431340217590332
1702071623258154500,13.780154541015625,-0.6725040674209595,-2.9408843517303467,9.334615707397461
1702071623275144000,13.79714404296875,-0.6824835538864136,-3.2847418785095215,9.21850299835205
1702071623292136700,13.81413671875,-0.7106145024299622,-3.6398117542266846,9.082010269165039
1702071623309111300,13.831111328125,-0.760260283946991,-4.004238605499268,8.923238754272461
1702071623326114800,13.84811474609375,-0.8218945860862732,-4.389022350311279,8.734821319580078
1702071623343104300,13.865104248046874,-0.8660340905189514,-4.8120269775390625,8.50473403930664
1702071623360096800,13.8820966796875,-0.8611264824867249,-5.264896869659424,8.232585906982422
1702071623377081000,13.8990810546875,-0.803544282913208,-5.694518089294434,7.947508811950684
1702071623394075100,13.9160751953125,-0.7035814523696899,-6.038548469543457,7.69915771484375
1702071623411064800,13.93306494140625,-0.5927720665931702,-6.26365327835083,7.5267109870910645
1702071623428055600,13.9500556640625,-0.506213366985321,-6.382772445678711,7.432368278503418
1702071623445045000,13.967044921875,-0.4575522541999817,-6.4363298416137695,7.389209270477295
1702071623462035500,13.984035400390624,-0.43906569480895996,-6.4768171310424805,7.3548760414123535
1702071623479025000,14.00102490234375,-0.43203264474868774,-6.548791885375977,7.2912821769714355
1702071623496002300,14.018002197265625,-0.42549604177474976,-6.662761211395264,7.187677383422852
1702071623512992800,14.03499267578125,-0.41380512714385986,-6.793204307556152,7.065213680267334
1702071623529986000,14.051986083984374,-0.399939626455307,-6.90366792678833,6.958127975463867
1702071623546979800,14.068979736328124,-0.38135191798210144,-6.972635269165039,6.890070915222168
1702071623563975700,14.0859755859375,-0.354571670293808,-6.996243953704834,6.867529392242432
1702071623580965600,14.102965576171876,-0.312040776014328,-6.9862542152404785,6.879754543304443
1702071623597955800,14.119955810546875,-0.24785295128822327,-6.9589762687683105,6.909945487976074
1702071623614945300,14.1369453125,-0.1618889421224594,-6.925686359405518,6.945847034454346
1702071623631936000,14.15393603515625,-0.06886091083288193,-6.886582851409912,6.986154079437256
1702071623648922400,14.17092236328125,0.01427422370761633,-6.837854862213135,7.0341796875
1702071623665919500,14.18791943359375,0.07549867033958435,-6.783209800720215,7.086501598358154
1702071623682905900,14.20490576171875,0.12531928718090057,-6.728659629821777,7.13761568069458
1702071623699893800,14.221893798828125,0.18862299621105194,-6.66937255859375,7.191662788391113
1702071623716888300,14.238888427734375,0.2661488950252533,-6.5962395668029785,7.256370544433594
1702071623733876200,14.255876220703126,0.34092894196510315,-6.504490375518799,7.33563232421875
1702071623750865200,14.272865234375,0.4048904776573181,-6.395902633666992,7.427289962768555
1702071623767856400,14.2898564453125,0.46094071865081787,-6.276569843292236,7.525177955627441
1702071623784845800,14.306845703125,0.4997919499874115,-6.150076389312744,7.626460075378418
1702071623801836500,14.32383642578125,0.5074862837791443,-6.025081157684326,7.725088596343994
1702071623818826200,14.340826171875,0.5109788179397583,-5.932634353637695,7.796079635620117
1702071623835817000,14.35781689453125,0.5373644232749939,-5.896646022796631,7.821568012237549
1702071623852806100,14.37480615234375,0.5689019560813904,-5.890915870666504,7.823655128479004
1702071623869796600,14.391796630859375,0.5810454487800598,-5.871397495269775,7.837423324584961
1702071623886786600,14.40878662109375,0.5623220801353455,-5.8010759353637695,7.890971660614014
1702071623903777000,14.425777099609375,0.5167360305786133,-5.669103622436523,7.989391803741455
1702071623920766500,14.442766357421876,0.44997015595436096,-5.499273777008057,8.11120319366455
1702071623937756000,14.459755859375,0.3663783669471741,-5.330716609954834,8.227110862731934
1702071623954734800,14.47673486328125,0.2677779197692871,-5.186628341674805,8.322457313537598
1702071623971727400,14.493727294921875,0.15846072137355804,-5.065520763397217,8.399495124816895
1702071623988726500,14.5107265625,0.040388476103544235,-4.9510626792907715,8.468853950500488
1702071624005706500,14.52770654296875,-0.08081846684217453,-4.826440334320068,8.540204048156738
1702071624022700800,14.54470068359375,-0.2013026922941208,-4.683807849884033,8.61728286743164
1702071624039689700,14.561689697265624,-0.314520001411438,-4.525659084320068,8.698023796081543
1702071624056679000,14.578678955078125,-0.4159715175628662,-4.360815525054932,8.777606964111328
1702071624073668600,14.595668701171874,-0.5074383616447449,-4.198197364807129,8.851765632629395
1702071624090657500,14.612657470703125,-0.5924744009971619,-4.042316436767578,8.918787956237793
1702071624107648800,14.629648681640624,-0.6738249659538269,-3.889475107192993,8.980762481689453
1702071624124637200,14.64663720703125,-0.7469099164009094,-3.7325899600982666,9.041351318359375
1702071624141630500,14.66363037109375,-0.8018906712532043,-3.5697875022888184,9.102182388305664
1702071624158619400,14.680619384765626,-0.8268834352493286,-3.407583713531494,9.161920547485352
1702071624175607600,14.697607666015625,-0.8198469281196594,-3.2559573650360107,9.217520713806152
1702071624192591000,14.714591064453124,-0.786199688911438,-3.127490997314453,9.264816284179688
1702071624209592300,14.73159228515625,-0.7394272089004517,-3.032656669616699,9.300127983093262
1702071624226581000,14.7485810546875,-0.690780758857727,-2.9840798377990723,9.319559097290039
1702071624243570000,14.76556982421875,-0.6514307260513306,-2.9931604862213135,9.319482803344727
1702071624260558000,14.78255810546875,-0.6246943473815918,-3.0641462802886963,9.29822063446045
1702071624277553000,14.799552978515624,-0.6114615201950073,-3.188375234603882,9.257241249084473
1702071624294549500,14.816549560546875,-0.607035756111145,-3.345586061477661,9.201885223388672
1702071624311535000,14.83353515625,-0.6125572323799133,-3.5078272819519043,9.140898704528809
1702071624328527600,14.850527587890625,-0.6278980374336243,-3.657120704650879,9.08115291595459
1702071624345521200,14.867521240234375,-0.6372413039207458,-3.802363157272339,9.020648002624512
1702071624362490600,14.88449072265625,-0.6125087141990662,-3.9734456539154053,8.948332786560059
1702071624379498500,14.90149853515625,-0.5321995615959167,-4.193444728851318,8.85256576538086
1702071624396475400,14.918475341796874,-0.4245593249797821,-4.4292778968811035,8.742847442626953
1702071624413481200,14.935481201171875,-0.33002740144729614,-4.626955509185791,8.643983840942383
1702071624430457900,14.952457763671875,-0.284248948097229,-4.765077114105225,8.570261001586914
1702071624447458800,14.969458740234375,-0.2802272439002991,-4.86355447769165,8.514894485473633
1702071624464448300,14.9864482421875,-0.2788133919239044,-4.9619059562683105,8.458006858825684
1702071624481438700,15.003438720703125,-0.25840193033218384,-5.092609405517578,8.38061237335205
1702071624498428200,15.02042822265625,-0.21969802677631378,-5.263035774230957,8.275765419006348
1702071624515419000,15.0374189453125,-0.1698838472366333,-5.462520122528076,8.146665573120117
1702071624532408600,15.05440869140625,-0.11515741050243378,-5.672255516052246,8.003023147583008
1702071624549399300,15.0713994140625,-0.0551643893122673,-5.868613243103027,7.8608174324035645
1702071624566388000,15.088387939453124,0.012555726803839207,-6.040347576141357,7.729823589324951
1702071624583380000,15.1053798828125,0.08397625386714935,-6.18826961517334,7.611464977264404
1702071624600368600,15.12236865234375,0.15240183472633362,-6.318490982055664,7.502636432647705
1702071624617359400,15.139359375,0.216857448220253,-6.4359259605407715,7.400537967681885
1702071624634348500,15.1563486328125,0.2808566987514496,-6.54095983505249,7.305686950683594
1702071624651347500,15.173347412109376,0.3504502475261688,-6.630841255187988,7.221167087554932
1702071624668329000,15.190328857421875,0.425743967294693,-6.7022385597229,7.150865077972412
1702071624685319400,15.2073193359375,0.5036479234695435,-6.753483295440674,7.097388744354248
1702071624702308900,15.224308837890625,0.5801341533660889,-6.7876973152160645,7.058806419372559
1702071624719296800,15.241296875,0.657017171382904,-6.811665058135986,7.028918266296387
1702071624736291800,15.258291748046876,0.7338282465934753,-6.83189058303833,7.00163459777832
1702071624753279700,15.27527978515625,0.8101624846458435,-6.850100994110107,6.975377082824707
1702071624770269200,15.292269287109375,0.8725209832191467,-6.862138748168945,6.955995559692383
1702071624787257000,15.309257080078124,0.9165230393409729,-6.863473892211914,6.9490180015563965
1702071624804251600,15.326251708984374,0.946868896484375,-6.859335422515869,6.949033737182617
1702071624821245700,15.34324560546875,0.9753603339195251,-6.854565620422363,6.949800968170166
1702071624838229500,15.3602294921875,1.0010181665420532,-6.843997001647949,6.956564903259277
1702071624855211500,15.37721142578125,0.9906634092330933,-6.815587520599365,6.985877990722656
1702071624872209400,15.39420947265625,0.9292085766792297,-6.75948429107666,7.048548698425293
1702071624889199900,15.411199951171875,0.8465613722801208,-6.6820573806762695,7.132287979125977
1702071624906189600,15.428189453125,0.7534096837043762,-6.585762023925781,7.2316131591796875
1702071624923180300,15.44518017578125,0.6082674264907837,-6.451541900634766,7.365033149719238
1702071624940169500,15.46216943359375,0.42371705174446106,-6.292029857635498,7.514449119567871
1702071624957160200,15.47916015625,0.2882300317287445,-6.159739017486572,7.6295905113220215
1702071624974150100,15.496150146484375,0.2330825924873352,-6.055708408355713,7.714283466339111
1702071624991147000,15.51314697265625,0.18399375677108765,-5.940333843231201,7.804785251617432
1702071625008130000,15.530130126953125,0.07501744478940964,-5.800154209136963,7.911301612854004
1702071625025120300,15.547120361328124,-0.083940289914608,-5.639937877655029,8.026217460632324
1702071625042110000,15.56410986328125,-0.2611118257045746,-5.45670747756958,8.14814567565918
1702071625059100700,15.5811005859375,-0.4125590920448303,-5.263644695281982,8.268009185791016
1702071625076090400,15.59809033203125,-0.5190380811691284,-5.062901973724365,8.386521339416504
1702071625093080800,15.615080810546875,-0.585730791091919,-4.842690467834473,8.511251449584961
1702071625110059800,15.632059814453125,-0.6225115656852722,-4.5924248695373535,8.646284103393555
1702071625127059200,15.64905908203125,-0.6367331743240356,-4.312332630157471,8.788314819335938
1702071625144052200,15.66605224609375,-0.6293329000473022,-4.011984348297119,8.929952621459961
1702071625161041000,15.683041015625,-0.5948898792266846,-3.7001328468322754,9.065938949584961
1702071625178025000,15.70002490234375,-0.5354383587837219,-3.3878231048583984,9.19087028503418
1702071625195021000,15.71702099609375,-0.46093660593032837,-3.086129903793335,9.300509452819824
1702071625212010500,15.734010498046874,-0.38081103563308716,-2.816314458847046,9.389328002929688
1702071625229001200,15.751001220703126,-0.29602232575416565,-2.5958786010742188,9.455681800842285
1702071625245990400,15.767990478515625,-0.17842546105384827,-2.427591323852539,9.503212928771973
1702071625262981400,15.7849814453125,-0.007941103540360928,-2.312265634536743,9.533596992492676
1702071625279970800,15.801970703125,0.17503641545772552,-2.241724729537964,9.548830032348633
1702071625296961300,15.818961181640624,0.3151538372039795,-2.218209743499756,9.550724983215332
1702071625313950700,15.83595068359375,0.37587833404541016,-2.241790771484375,9.54301929473877
1702071625330941200,15.852941162109374,0.3386707305908203,-2.3105592727661133,9.527997016906738
1702071625347931100,15.86993115234375,0.22174397110939026,-2.414996385574341,9.505509376525879
1702071625364921600,15.886921630859375,0.07116295397281647,-2.5371384620666504,9.475969314575195
1702071625381911000,15.9039111328125,-0.0763745829463005,-2.6444945335388184,9.44653034210205
1702071625398901500,15.920901611328125,-0.21485067903995514,-2.72613525390625,9.421154022216797
1702071625415891000,15.937890869140626,-0.3347572088241577,-2.8132312297821045,9.39200496673584
1702071625432877000,15.954876953125,-0.43466508388519287,-2.923395872116089,9.354195594787598
1702071625449866800,15.97186669921875,-0.5242456197738647,-3.0464041233062744,9.310247421264648
1702071625466849300,15.988849365234374,-0.5971340537071228,-3.179591655731201,9.26119327545166
1702071625483842800,16.0058427734375,-0.6374558806419373,-3.372291326522827,9.190071105957031
1702071625500844500,16.022844482421874,-0.6283388733863831,-3.6807475090026855,9.071572303771973
1702071625517831200,16.0398310546875,-0.5690460801124573,-4.085323810577393,8.9006986618042
1702071625534822000,16.05682177734375,-0.4517015218734741,-4.516490936279297,8.696746826171875
1702071625551811600,16.0738115234375,-0.26810479164123535,-4.922111511230469,8.481572151184082
1702071625568802000,16.090802001953126,-0.02145957387983799,-5.2726311683654785,8.272546768188477
1702071625585789200,16.1077890625,0.26137375831604004,-5.561820983886719,8.076754570007324
1702071625602784800,16.12478466796875,0.5585319399833679,-5.81610631942749,7.88016939163208
1702071625619772000,16.14177197265625,0.8536838889122009,-6.067694664001465,7.66096830368042
1702071625636762400,16.158762451171874,1.1212992668151855,-6.332894325256348,7.40764856338501
1702071625653741300,16.1757412109375,1.330686330795288,-6.601258277893066,7.13363790512085
1702071625670742500,16.192742431640625,1.4798059463500977,-6.844860076904297,6.869801998138428
1702071625687736600,16.209736572265626,1.5923597812652588,-7.038812637329102,6.644970893859863
1702071625704725200,16.226725341796875,1.6850812435150146,-7.176113128662109,6.473021984100342
1702071625721712000,16.243712158203124,1.763762354850769,-7.262151718139648,6.355031490325928
1702071625738702300,16.260702392578125,1.8205056190490723,-7.306753635406494,6.287545204162598
1702071625755688400,16.2776884765625,1.849921464920044,-7.323732852935791,6.2591423988342285
1702071625772686300,16.294686279296876,1.847529411315918,-7.320312976837158,6.263844013214111
1702071625789672200,16.311672119140624,1.8139744997024536,-7.309700012207031,6.286010265350342
1702071625806663000,16.328662841796874,1.761176586151123,-7.308027744293213,6.302943229675293
1702071625823652400,16.34565234375,1.7003012895584106,-7.321455955505371,6.304075717926025
1702071625840643000,16.36264306640625,1.6415315866470337,-7.3472981452941895,6.2895708084106445
1702071625857632500,16.379632568359376,1.5885404348373413,-7.3755202293396,6.27011775970459
1702071625874623200,16.396623291015626,1.540878176689148,-7.394530773162842,6.259610652923584
1702071625891613200,16.41361328125,1.4799683094024658,-7.4017791748046875,6.265738010406494
1702071625908602600,16.4306025390625,1.3783760070800781,-7.392648696899414,6.299599647521973
1702071625925592300,16.44759228515625,1.2449424266815186,-7.364383697509766,6.360195159912109
1702071625942583000,16.4645830078125,1.0970513820648193,-7.319268703460693,6.43901252746582
1702071625959572500,16.481572509765623,0.9049436450004578,-7.230133533477783,6.568283557891846
1702071625976563500,16.4985634765625,0.656948447227478,-7.083892345428467,6.754479885101318
1702071625993553000,16.515552978515625,0.4593283236026764,-6.95293664932251,6.905200004577637
1702071626010543400,16.53254345703125,0.4235699772834778,-6.873830318450928,6.986212730407715
1702071626027533000,16.549532958984376,0.49450021982192993,-6.762298107147217,7.089634895324707
1702071626044523300,16.566523193359377,0.5339733362197876,-6.565201282501221,7.269738674163818
1702071626061513000,16.583512939453126,0.48635709285736084,-6.2771453857421875,7.523099422454834
1702071626078503700,16.600503662109375,0.3891140818595886,-5.924831867218018,7.809038162231445
1702071626095493000,16.6174931640625,0.3001384735107422,-5.5697922706604,8.06990909576416
1702071626112479700,16.634479736328124,0.25085198879241943,-5.262757301330566,8.275055885314941
1702071626129476900,16.651476806640623,0.22634367644786835,-5.005875110626221,8.433629989624023
1702071626146455600,16.66845556640625,0.19601242244243622,-4.773807525634766,8.56787395477295
1702071626163451000,16.685450927734376,0.15204808115959167,-4.542521953582764,8.693589210510254
1702071626180443600,16.702443603515626,0.10462657362222672,-4.313144207000732,8.810331344604492
1702071626197433000,16.71943310546875,0.07834918797016144,-4.091220378875732,8.915823936462402
1702071626214420000,16.736419921875,0.08493431657552719,-3.8812143802642822,9.009166717529297
1702071626231402800,16.75340283203125,0.117240771651268,-3.683612108230591,9.091389656066895
1702071626248404200,16.770404296875,0.1675320863723755,-3.4981563091278076,9.163564682006836
1702071626265393700,16.7873935546875,0.21760940551757812,-3.326134443283081,9.226353645324707
1702071626282384400,16.80438427734375,0.2506999671459198,-3.173161029815674,9.279240608215332
1702071626299373600,16.82137353515625,0.2582557499408722,-3.0532078742980957,9.319190979003906
1702071626316364000,16.838364013671875,0.24861836433410645,-2.9823551177978516,9.342369079589844
1702071626333353500,16.855353515625,0.2272321581840515,-2.9687511920928955,9.347244262695312
1702071626350344400,16.872344482421877,0.19634541869163513,-3.0117359161376953,9.334183692932129
1702071626367334000,16.889333984375,0.1637933850288391,-3.1086080074310303,9.303000450134277
1702071626384324600,16.90632470703125,0.13069580495357513,-3.255286931991577,9.253225326538086
1702071626401314600,16.923314453125,0.10142814368009567,-3.452807903289795,9.181717872619629
1702071626418303700,16.9403037109375,0.0831018015742302,-3.6991403102874756,9.085457801818848
1702071626435294000,16.9572939453125,0.08750797063112259,-3.9702444076538086,8.970264434814453
1702071626452284700,16.97428466796875,0.1254262924194336,-4.232823371887207,8.848931312561035
1702071626469273900,16.99127392578125,0.20673270523548126,-4.472701072692871,8.728592872619629
1702071626486264800,17.008264892578126,0.3246833384037018,-4.682904243469238,8.614006042480469
1702071626503254000,17.02525390625,0.457202285528183,-4.867007255554199,8.505252838134766
1702071626520244700,17.04224462890625,0.5791778564453125,-5.051890850067139,8.389223098754883
1702071626537234400,17.059234375,0.6725804209709167,-5.256494998931885,8.255484580993652
1702071626554225000,17.076224853515626,0.7243759036064148,-5.466310501098633,8.113621711730957
1702071626571212800,17.093212890625,0.715846598148346,-5.649874687194824,7.98765230178833
1702071626588204800,17.110204833984376,0.6527647376060486,-5.813699722290039,7.874701976776123
1702071626605184000,17.12718408203125,0.5854077339172363,-6.006289005279541,7.734203815460205
1702071626622185200,17.144185302734375,0.5728564262390137,-6.271909713745117,7.52137565612793
1702071626639174700,17.161174560546876,0.6325687766075134,-6.5745015144348145,7.253406524658203
1702071626656165000,17.1781650390625,0.7383557558059692,-6.842579364776611,6.990711688995361
1702071626673154600,17.195154541015626,0.8584614992141724,-7.044709205627441,6.772830009460449
1702071626690145300,17.212145263671875,0.9681409597396851,-7.177281379699707,6.617057800292969
1702071626707132000,17.2291318359375,1.0652709007263184,-7.257754802703857,6.513548374176025
1702071626724128000,17.2461279296875,1.1362640857696533,-7.304358959197998,6.449138164520264
1702071626741104400,17.2631044921875,1.1658403873443604,-7.326313495635986,6.418882846832275
1702071626758105000,17.28010498046875,1.164588212966919,-7.325371265411377,6.420187473297119
1702071626775084300,17.297084228515626,1.1613032817840576,-7.299546241760254,6.450126647949219
1702071626792085500,17.31408544921875,1.1774637699127197,-7.24941349029541,6.503513336181641
1702071626809075000,17.331074951171875,1.21633780002594,-7.182321071624756,6.570457458496094
1702071626826065400,17.3480654296875,1.2698873281478882,-7.1053338050842285,6.643625259399414
1702071626843054800,17.365054931640625,1.3258005380630493,-7.026329040527344,6.7163286209106445
1702071626860045600,17.382045654296874,1.3791993856430054,-6.95314359664917,6.781424522399902
1702071626877035300,17.39903515625,1.4249969720840454,-6.886409282684326,6.839798927307129
1702071626894025700,17.416025634765624,1.4510694742202759,-6.8169660568237305,6.903584957122803
1702071626911004000,17.43300390625,1.4523106813430786,-6.748354434967041,6.970409870147705
1702071626927995100,17.4499951171875,1.4311628341674805,-6.691328525543213,7.029510021209717
1702071626944995300,17.466995361328124,1.4049021005630493,-6.65704870223999,7.067253112792969
1702071626961981400,17.4839814453125,1.3867803812026978,-6.642327308654785,7.084662437438965
1702071626978979600,17.5009794921875,1.3747220039367676,-6.628849506378174,7.099620342254639
1702071626995953400,17.517953369140624,1.3465170860290527,-6.597411155700684,7.134225368499756
1702071627012947000,17.534947021484374,1.275053858757019,-6.5336456298828125,7.2056803703308105
1702071627029930000,17.551929931640625,1.169523000717163,-6.45149040222168,7.297027587890625
1702071627046925000,17.568925048828124,1.0825166702270508,-6.370952606201172,7.380732536315918
1702071627063928600,17.585928466796876,1.008831262588501,-6.272950172424316,7.474521636962891
1702071627080915500,17.60291552734375,0.9125615358352661,-6.142580509185791,7.594212055206299
1702071627097906200,17.61990625,0.8280347585678101,-6.0249857902526855,7.697402477264404
1702071627114896000,17.636895751953126,0.8043105602264404,-5.948647499084473,7.75904655456543
1702071627131886300,17.65388623046875,0.7725116610527039,-5.853590965270996,7.8342084884643555
1702071627148867000,17.6708671875,0.6551063060760498,-5.697626113891602,7.958895206451416
1702071627165864000,17.687864013671874,0.48468858003616333,-5.493714809417725,8.112971305847168
1702071627182855700,17.704855712890627,0.34534329175949097,-5.284365177154541,8.257865905761719
1702071627199849000,17.721848876953125,0.2851578891277313,-5.109849452972412,8.369243621826172
1702071627216836400,17.73883642578125,0.2818741202354431,-4.966028213500977,8.455484390258789
1702071627233826600,17.75582666015625,0.29021427035331726,-4.833608627319336,8.531594276428223
1702071627250805800,17.7728056640625,0.2880011200904846,-4.695976734161377,8.608192443847656
1702071627267809000,17.78980908203125,0.28089791536331177,-4.542973518371582,8.690144538879395
1702071627284793900,17.8067939453125,0.2758289575576782,-4.375172138214111,8.775984764099121
1702071627301787000,17.823786865234375,0.2748366892337799,-4.195589542388916,8.863272666931152
1702071627318776300,17.8407763671875,0.28301578760147095,-4.010364532470703,8.948351860046387
1702071627335764200,17.85776416015625,0.30263903737068176,-3.8288960456848145,9.026853561401367
1702071627352759000,17.874759033203127,0.3301490247249603,-3.6573967933654785,9.096732139587402
1702071627369736200,17.891736083984377,0.35741984844207764,-3.4980404376983643,9.15816879272461
1702071627386736400,17.908736328125,0.369129478931427,-3.3548758029937744,9.211116790771484
1702071627403727000,17.92572705078125,0.35348525643348694,-3.2282259464263916,9.256874084472656
1702071627420716500,17.942716552734375,0.31731143593788147,-3.1205523014068604,9.29503059387207
1702071627437707000,17.95970703125,0.27437886595726013,-3.0463013648986816,9.320992469787598
1702071627454696700,17.97669677734375,0.24648413062095642,-3.019625186920166,9.33044719696045
1702071627471674400,17.99367431640625,0.24179232120513916,-3.0544590950012207,9.319226264953613
1702071627488666600,18.01066650390625,0.24701271951198578,-3.142923593521118,9.289626121520996
1702071627505657600,18.02765771484375,0.2421109974384308,-3.2721965312957764,9.245012283325195
1702071627522655500,18.044655517578125,0.22394543886184692,-3.4174883365631104,9.192754745483398
1702071627539640600,18.061640625,0.19391882419586182,-3.548886299133301,9.143519401550293
1702071627556628700,18.078628662109374,0.16230176389217377,-3.6820034980773926,9.091349601745605
1702071627573620700,18.095620849609375,0.16247718036174774,-3.847816228866577,9.022418022155762
1702071627590606600,18.112606689453123,0.18508601188659668,-4.017756462097168,8.947596549987793
1702071627607598600,18.1295986328125,0.17848099768161774,-4.146069526672363,8.889002799987793
1702071627624589000,18.146589111328126,0.15310408174991608,-4.273550987243652,8.828898429870605
1702071627641577500,18.163577392578127,0.1875251829624176,-4.475434303283691,8.72762393951416
1702071627658570200,18.1805703125,0.32190707325935364,-4.750986099243164,8.576749801635742
1702071627675557400,18.197557373046877,0.528398871421814,-5.023526668548584,8.40958309173584
1702071627692547000,18.214547119140626,0.7500510215759277,-5.24790096282959,8.25427532196045
1702071627709541600,18.231541748046876,0.9328177571296692,-5.431548595428467,8.115678787231445
1702071627726526500,18.2485263671875,1.056061863899231,-5.608676910400391,7.978947162628174
1702071627743521800,18.265521728515626,1.1256846189498901,-5.808945655822754,7.824648380279541
1702071627760516600,18.2825166015625,1.1629825830459595,-6.026065826416016,7.65311336517334
1702071627777510400,18.299510498046875,1.199952244758606,-6.238444805145264,7.475161552429199
1702071627794494700,18.31649462890625,1.2586818933486938,-6.4305195808410645,7.30070161819458
1702071627811480300,18.333480224609374,1.341192603111267,-6.59414529800415,7.138247966766357
1702071627828477700,18.350477783203125,1.4420392513275146,-6.722942352294922,6.997048854827881
1702071627845465600,18.367465576171874,1.549635648727417,-6.819074630737305,6.880041599273682
1702071627862460200,18.384460205078124,1.6606416702270508,-6.892712116241455,6.780036926269531
1702071627879448000,18.401447998046876,1.770918607711792,-6.954040050506592,6.688893795013428
1702071627896437500,18.4184375,1.8752204179763794,-7.004277229309082,6.607553482055664
1702071627913428000,18.435427978515627,1.9611810445785522,-7.038651466369629,6.545781135559082
1702071627930417700,18.452417724609376,2.016603946685791,-7.049549579620361,6.51715087890625
1702071627947408400,18.469408447265625,2.034947395324707,-7.03277063369751,6.529565334320068
1702071627964393500,18.4863935546875,2.019461154937744,-7.005171775817871,6.563950538635254
1702071627981392600,18.503392578125,1.9881715774536133,-6.990355491638184,6.58925199508667
1702071627998377700,18.520377685546876,1.953774094581604,-6.997039318084717,6.592443943023682
1702071628015358000,18.53735791015625,1.9141526222229004,-7.0113525390625,6.588858604431152
1702071628032353800,18.554353759765625,1.8618673086166382,-7.014228820800781,6.60076904296875
1702071628049348400,18.571348388671876,1.8000825643539429,-6.9963202476501465,6.63681697845459
1702071628066337800,18.588337890625,1.7259304523468018,-6.950000286102295,6.704831600189209
1702071628083311900,18.605311767578126,1.6235768795013428,-6.870706081390381,6.811277866363525
1702071628100318200,18.622318115234375,1.4892797470092773,-6.788054466247559,6.923906326293945
1702071628117308700,18.63930859375,1.3366501331329346,-6.720590114593506,7.02019739151001
1702071628134295800,18.6562958984375,1.1465294361114502,-6.635537147521973,7.133810043334961
1702071628151300000,18.673300048828125,0.8871042132377625,-6.507555961608887,7.287035942077637
1702071628168278300,18.6902783203125,0.6329836249351501,-6.374683380126953,7.429593086242676
1702071628185268700,18.707268798828125,0.4896979033946991,-6.277194499969482,7.522840976715088
1702071628202258400,18.724258544921874,0.4264625906944275,-6.185155868530273,7.602505683898926
1702071628219245300,18.741245361328126,0.343026340007782,-6.049050331115723,7.715402126312256
1702071628236238300,18.75823828125,0.20817317068576813,-5.845659255981445,7.875344753265381
1702071628253229000,18.77522900390625,0.07430379092693329,-5.586308002471924,8.063732147216797
1702071628270218500,18.792218505859374,0.006078473292291164,-5.310369968414307,8.248395919799805
1702071628287206100,18.8092060546875,0.02931910939514637,-5.063920974731445,8.401902198791504
1702071628304191000,18.82619091796875,0.12490501254796982,-4.862552165985107,8.519161224365234
1702071628321189000,18.843189208984374,0.25083473324775696,-4.693730354309082,8.610580444335938
1702071628338178800,18.8601787109375,0.37295734882354736,-4.543853759765625,8.686220169067383
1702071628355169300,18.877169189453124,0.4799877107143402,-4.412473201751709,8.748475074768066
1702071628372158700,18.89415869140625,0.5788068175315857,-4.305539608001709,8.795647621154785
1702071628389149400,18.9111494140625,0.675693154335022,-4.226655960083008,8.826943397521973
1702071628406139000,18.928138916015627,0.7708685994148254,-4.173435211181641,8.844451904296875
1702071628423129300,18.94512939453125,0.8486462235450745,-4.139713287353516,8.853175163269043
1702071628440118500,18.962118408203125,0.8984712362289429,-4.127037048339844,8.854175567626953
1702071628457109200,18.979109130859374,0.9173153042793274,-4.141788482666016,8.84535026550293
1702071628474088700,18.996088623046877,0.8945573568344116,-4.1840500831604,8.827775955200195
1702071628491089400,19.01308935546875,0.8088793158531189,-4.248107433319092,8.805418014526367
1702071628508079000,19.0300791015625,0.6850259304046631,-4.343174934387207,8.769474029541016
1702071628525069300,19.0470693359375,0.5593774318695068,-4.471948146820068,8.713488578796387
1702071628542059000,19.06405908203125,0.4330161511898041,-4.614705562591553,8.645988464355469
1702071628559049700,19.0810498046875,0.29303672909736633,-4.7398576736450195,8.583937644958496
1702071628576039200,19.0980390625,0.1565524786710739,-4.834083557128906,8.534825325012207
1702071628593029600,19.115029541015623,0.053399115800857544,-4.907407283782959,8.494152069091797
1702071628610022400,19.1320224609375,-0.0024897444527596235,-4.95459508895874,8.466883659362793
1702071628627007700,19.1490078125,-0.0115298330783844,-4.977818965911865,8.453241348266602
1702071628643998200,19.165998291015626,-0.002440627897158265,-5.0111823081970215,8.433514595031738
1702071628660977000,19.182976806640625,-0.018905218690633774,-5.10036563873291,8.37985897064209
1702071628677980700,19.199980712890625,-0.06291195005178452,-5.265963077545166,8.276579856872559
1702071628694971100,19.21697119140625,-0.088740274310112,-5.509218215942383,8.116450309753418
1702071628711959000,19.233958984375,-0.06030379980802536,-5.784703731536865,7.922731876373291
1702071628728950000,19.250949951171876,0.029638806357979774,-6.034964561462402,7.733979225158691
1702071628745939700,19.267939697265625,0.14601141214370728,-6.235374927520752,7.571980953216553
1702071628762930200,19.28493017578125,0.26274991035461426,-6.386445045471191,7.441802501678467
1702071628779919400,19.30191943359375,0.3605102300643921,-6.4976606369018555,7.340744495391846
1702071628796910300,19.318910400390624,0.42153412103652954,-6.592360019683838,7.252531051635742
1702071628813899800,19.335899658203125,0.4485805630683899,-6.688503265380859,7.162317276000977
1702071628830891800,19.352891845703127,0.4659830629825592,-6.775850772857666,7.078616142272949
1702071628847875600,19.36987548828125,0.4904165267944336,-6.838446617126465,7.016499042510986
1702071628864873000,19.386873046875,0.5303972959518433,-6.868917942047119,6.9837517738342285
1702071628881859800,19.40385986328125,0.5834137201309204,-6.865580081939697,6.982804775238037
1702071628898850300,19.420850341796875,0.6409772038459778,-6.837103366851807,7.005660057067871
1702071628915839700,19.43783984375,0.696097195148468,-6.791862964630127,7.044300079345703
1702071628932828400,19.454828369140625,0.7414869070053101,-6.734719276428223,7.094354152679443
1702071628949821400,19.471821533203126,0.7718731164932251,-6.667982578277588,7.153904438018799
1702071628966810400,19.488810302734375,0.7882839441299438,-6.593338966369629,7.220983982086182
1702071628983799800,19.5057998046875,0.7943124175071716,-6.516082286834717,7.290121555328369
1702071629000790500,19.52279052734375,0.7965964674949646,-6.439723014831543,7.3574113845825195
1702071629017780200,19.5397802734375,0.7929078936576843,-6.37220573425293,7.4163594245910645
1702071629034751700,19.556751708984375,0.7795628309249878,-6.318936347961426,7.463205337524414
1702071629051762000,19.573761962890625,0.7556482553482056,-6.276406288146973,7.501455307006836
1702071629068740000,19.590739990234376,0.710663914680481,-6.219976902008057,7.552676677703857
1702071629085737500,19.607737548828126,0.6595542430877686,-6.139866828918457,7.622541904449463
1702071629102733600,19.624733642578125,0.6091269850730896,-6.046562671661377,7.700919151306152
1702071629119720000,19.641719970703125,0.5150420665740967,-5.925237655639648,7.8014373779296875
1702071629136711000,19.6587109375,0.34889665246009827,-5.774905204772949,7.922429084777832
1702071629153700600,19.67570068359375,0.19182318449020386,-5.691284656524658,7.9880290031433105
1702071629170690800,19.69269091796875,0.12962371110916138,-5.710479736328125,7.9755706787109375
1702071629187680300,19.70968017578125,0.1031077578663826,-5.698202610015869,7.984734535217285
1702071629204670700,19.726670654296875,0.016678890213370323,-5.576201915740967,8.071046829223633
1702071629221660400,19.743660400390624,-0.1109415665268898,-5.3408331871032715,8.227957725524902
1702071629238651100,19.760651123046873,-0.18950417637825012,-5.037477493286133,8.41569995880127
1702071629255640600,19.777640625,-0.17384269833564758,-4.742149829864502,8.58591365814209
1702071629272620500,19.79462060546875,-0.10773290693759918,-4.502562999725342,8.715012550354004
1702071629289610500,19.811610595703126,-0.05713168531656265,-4.312397003173828,8.81113338470459
1702071629306597600,19.82859765625,-0.04707914963364601,-4.143377780914307,8.891923904418945
1702071629323601000,19.845600830078126,-0.0633963942527771,-3.9775753021240234,8.967217445373535
1702071629340591400,19.86259130859375,-0.08568305522203445,-3.8129734992980957,9.038252830505371
1702071629357580500,19.87958056640625,-0.08703610301017761,-3.6664369106292725,9.09867000579834
1702071629374571300,19.8965712890625,-0.052146054804325104,-3.5551693439483643,9.142986297607422
1702071629391558100,19.91355810546875,0.0036317058838903904,-3.4834160804748535,9.170710563659668
1702071629408554200,19.93055419921875,0.05537956580519676,-3.4488587379455566,9.18359661102295
1702071629425540900,19.947540771484373,0.0810716450214386,-3.442784070968628,9.185683250427246
1702071629442531300,19.96453125,0.07045105844736099,-3.4552597999572754,9.181086540222168
1702071629459520800,19.981520751953123,0.03558381646871567,-3.4800915718078613,9.171902656555176
1702071629476509000,19.998509033203124,-0.001278201350942254,-3.5240862369537354,9.155158042907715
1702071629493503700,20.015503662109374,-0.03007310815155506,-3.5991437435150146,9.125863075256348
1702071629510480100,20.032480224609376,-0.03815308213233948,-3.7183520793914795,9.077913284301758
1702071629527475200,20.04947509765625,-0.033638741821050644,-3.881383180618286,9.009430885314941
1702071629544474400,20.066474365234374,-0.05399114638566971,-4.055163860321045,8.932461738586426
1702071629561461000,20.0834609375,-0.13077443838119507,-4.205557823181152,8.861845970153809
1702071629578451500,20.100451416015623,-0.2553745210170746,-4.352494716644287,8.787870407104492
1702071629595441200,20.117441162109376,-0.3793226480484009,-4.508855819702148,8.704164505004883
1702071629612432000,20.134431884765625,-0.44956174492836,-4.6304521560668945,8.63671875
1702071629629421300,20.15142138671875,-0.4215836822986603,-4.696280002593994,8.602519989013672
1702071629646411800,20.168411865234376,-0.30497878789901733,-4.748881816864014,8.578532218933105
1702071629663401200,20.185401123046876,-0.13196903467178345,-4.853402614593506,8.524271011352539
1702071629680391700,20.2023916015625,0.06626985967159271,-5.037429332733154,8.417603492736816
1702071629697382400,20.21938232421875,0.24381034076213837,-5.258866310119629,8.277741432189941
1702071629714370600,20.23637060546875,0.39124760031700134,-5.484771728515625,8.124058723449707
1702071629731347000,20.253346923828126,0.5162321925163269,-5.710973262786865,7.959549427032471
1702071629748352300,20.270352294921874,0.6189348101615906,-5.937994956970215,7.784165859222412
1702071629765341400,20.287341552734375,0.7029290795326233,-6.1576642990112305,7.604286193847656
1702071629782332200,20.304332275390625,0.7687197923660278,-6.360093116760254,7.429294109344482
1702071629799321300,20.3213212890625,0.8288254141807556,-6.528660774230957,7.2750091552734375
1702071629816312000,20.33831201171875,0.8946350812911987,-6.644379615783691,7.161562442779541
1702071629833301800,20.3553017578125,0.9717540740966797,-6.704996585845947,7.094706058502197
1702071629850289000,20.372288818359376,1.0547670125961304,-6.733377456665039,7.055863380432129
1702071629867282700,20.38928271484375,1.13554048538208,-6.750786781311035,7.026632785797119
1702071629884271400,20.406271240234375,1.2051457166671753,-6.763275146484375,7.002990245819092
1702071629901261600,20.423261474609376,1.2555021047592163,-6.771398067474365,6.986271858215332
1702071629918252500,20.44025244140625,1.2852282524108887,-6.7744526863098145,6.977899551391602
1702071629935241700,20.45724169921875,1.2987414598464966,-6.774692535400391,6.975164413452148
1702071629952230000,20.47422998046875,1.3073726892471313,-6.773087501525879,6.97511100769043
1702071629969224400,20.491224365234373,1.3251402378082275,-6.7638750076293945,6.980695724487305
1702071629986208300,20.508208251953125,1.3585402965545654,-6.73656702041626,7.00065279006958
1702071630003202000,20.5252021484375,1.4069279432296753,-6.681081295013428,7.044133186340332
1702071630020190000,20.54218994140625,1.4546189308166504,-6.5834269523620605,7.125917434692383
1702071630037184500,20.5591845703125,1.473321795463562,-6.449151039123535,7.243885517120361
1702071630054172700,20.576172607421874,1.4627803564071655,-6.3194580078125,7.359404563903809
1702071630071162000,20.593162109375,1.4697110652923584,-6.23812198638916,7.42710542678833
1702071630088152800,20.61015283203125,1.5044326782226562,-6.194173336029053,7.4568772315979
1702071630105142000,20.62714208984375,1.5380637645721436,-6.135822772979736,7.498143196105957
1702071630122128600,20.644128662109374,1.5450148582458496,-6.027958393096924,7.5837178230285645
1702071630139126000,20.6611259765625,1.5264699459075928,-5.867732524871826,7.712050437927246
1702071630156112600,20.678112548828125,1.5145751237869263,-5.6794562339782715,7.854040622711182
1702071630173091800,20.695091796875,1.5337904691696167,-5.491861343383789,7.9826741218566895
1702071630190079700,20.712079833984376,1.5824540853500366,-5.310633659362793,8.095006942749023
1702071630207082200,20.729082275390624,1.6373025178909302,-5.127897262573242,8.201220512390137
1702071630224065000,20.74606494140625,1.673234224319458,-4.938350200653076,8.309579849243164
1702071630241062400,20.7630625,1.6745926141738892,-4.740998268127441,8.423467636108398
1702071630258052900,20.780052978515624,1.6491411924362183,-4.5473809242248535,8.534505844116211
1702071630275042600,20.79704248046875,1.623997449874878,-4.3696088790893555,8.631643295288086
1702071630292033000,20.814032958984374,1.615609884262085,-4.2112603187561035,8.711557388305664
1702071630309022700,20.831022705078126,1.6255263090133667,-4.077715873718262,8.773027420043945
1702071630326013200,20.84801318359375,1.6397844552993774,-3.969608783721924,8.819831848144531
1702071630343000300,20.865000244140624,1.6413654088974,-3.880889892578125,8.85893440246582
1702071630359997000,20.881996826171875,1.6222038269042969,-3.8054304122924805,8.895127296447754
1702071630376981000,20.89898095703125,1.5912413597106934,-3.7465906143188477,8.925643920898438
1702071630393959400,20.91595947265625,1.5587297677993774,-3.716797351837158,8.943819046020508
1702071630410962700,20.932962646484373,1.5396898984909058,-3.72619891166687,8.943205833435059
1702071630427950600,20.94995068359375,1.5381295680999756,-3.7722620964050293,8.924142837524414
1702071630444945700,20.966945556640624,1.541796088218689,-3.8457367420196533,8.892090797424316
1702071630461933300,20.983933349609377,1.536020040512085,-3.9404330253601074,8.851539611816406
1702071630478920000,21.000919921875,1.51701021194458,-4.053504943847656,8.803628921508789
1702071630495903000,21.017903076171876,1.4845592975616455,-4.184708595275879,8.747594833374023
1702071630512899600,21.034899658203123,1.443761944770813,-4.342498779296875,8.677233695983887
1702071630529883000,21.0518828125,1.3966878652572632,-4.530594825744629,8.588312149047852
1702071630546877700,21.068877685546877,1.3439126014709473,-4.737910270690918,8.484232902526855
1702071630563876000,21.0858759765625,1.285810112953186,-4.942173480987549,8.376020431518555
1702071630580863200,21.10286328125,1.219354271888733,-5.120311260223389,8.278388977050781
1702071630597852200,21.11985205078125,1.152482032775879,-5.274194240570068,8.190895080566406
1702071630614845000,21.136844970703127,1.0904285907745361,-5.421559810638428,8.102701187133789
1702071630631834400,21.15383447265625,1.0354753732681274,-5.582424640655518,8.00002670288086
1702071630648823300,21.1708232421875,0.9957593083381653,-5.77592134475708,7.866596221923828
1702071630665811200,21.187811279296874,0.9716752767562866,-5.986911773681641,7.71030855178833
1702071630682806000,21.204805908203124,0.9654636383056641,-6.175955772399902,7.560527324676514
1702071630699793700,21.221793701171876,0.9694674611091614,-6.308195114135742,7.450028419494629
1702071630716774000,21.23877392578125,0.9771279692649841,-6.362423896789551,7.402764797210693
1702071630733773800,21.25577392578125,0.9816775918006897,-6.355992794036865,7.407684803009033
1702071630750763300,21.27276318359375,0.9760809540748596,-6.327901363372803,7.432431697845459
1702071630767754200,21.289754150390625,0.9620873928070068,-6.3124895095825195,7.4473466873168945
1702071630784743200,21.3067431640625,0.9503620862960815,-6.323827266693115,7.439230442047119
1702071630801734000,21.32373388671875,0.9539475440979004,-6.347729206085205,7.418384552001953
1702071630818722600,21.34072265625,0.9783230423927307,-6.365694522857666,7.399792671203613
1702071630835710700,21.357710693359376,1.0222066640853882,-6.363684177398682,7.395588397979736
1702071630852703500,21.374703369140626,1.0713047981262207,-6.33917236328125,7.4096760749816895
1702071630869685200,21.391685302734373,1.1129722595214844,-6.300842761993408,7.436180591583252
1702071630886683600,21.40868359375,1.1411052942276,-6.258800983428955,7.467356204986572
1702071630903673900,21.425673828125,1.1627639532089233,-6.2210283279418945,7.4955267906188965
1702071630920663800,21.442663818359375,1.186192512512207,-6.186221122741699,7.520620822906494
1702071630937654300,21.459654296875,1.2189137935638428,-6.147979736328125,7.546702861785889
1702071630954644000,21.47664404296875,1.267133355140686,-6.106152057647705,7.572673797607422
1702071630971621000,21.49362109375,1.3250726461410522,-6.061542510986328,7.598552227020264
1702071630988613600,21.510613525390625,1.3784351348876953,-6.016165256500244,7.625075817108154
1702071631005605400,21.52760546875,1.4256104230880737,-5.977015972137451,7.647158145904541
1702071631022599000,21.544598876953124,1.4700133800506592,-5.948030471801758,7.66133975982666
1702071631039586800,21.5615869140625,1.523790955543518,-5.92764139175415,7.666633129119873
1702071631056577000,21.578576904296874,1.5937812328338623,-5.906359672546387,7.668827533721924
1702071631073567500,21.5955673828125,1.6840081214904785,-5.874969482421875,7.673652172088623
1702071631090554000,21.61255419921875,1.7784150838851929,-5.827793598175049,7.688316345214844
1702071631107549200,21.629549072265625,1.8512890338897705,-5.771708965301514,7.713376998901367
1702071631124539400,21.646539306640626,1.8852169513702393,-5.733013153076172,7.733989715576172
1702071631141524000,21.66352392578125,1.885530948638916,-5.741629600524902,7.727519512176514
1702071631158516200,21.68051611328125,1.8537713289260864,-5.782190799713135,7.704928874969482
1702071631175511600,21.697511474609374,1.788380742073059,-5.803536415100098,7.704334259033203
1702071631192491800,21.71449169921875,1.704869270324707,-5.76402473449707,7.75277853012085
