time,seconds_elapsed,z,y,x
1701910843930569700,0.11456982421875,8.521662712097168,4.807769298553467,0.7090310454368591
1701910843947565300,0.1315654296875,8.507720947265625,4.823801040649414,0.7653283476829529
1701910843964558600,0.14855859375,8.497570991516113,4.830063819885254,0.8353880643844604
1701910843981561000,0.16556103515625,8.481124877929688,4.845603942871094,0.9092616438865662
1701910843998548200,0.18254833984375,8.45410442352295,4.880738735198975,0.9708905816078186
1701910844015529000,0.199529052734375,8.42756175994873,4.918690204620361,1.0093588829040527
1701910844032531000,0.216531005859375,8.414396286010742,4.931361198425293,1.0562783479690552
1701910844049522400,0.2335224609375,8.420709609985352,4.903619289398193,1.1323760747909546
1701910844066513400,0.250513427734375,8.425048828125,4.866756916046143,1.2527319192886353
1701910844083509200,0.26750927734375,8.399658203125,4.852746963500977,1.4603772163391113
1701910844100495000,0.2844951171875,8.325736045837402,4.871250629425049,1.7858190536499023
1701910844117485300,0.3014853515625,8.202160835266113,4.909546375274658,2.203864574432373
1701910844134485800,0.31848583984375,8.061602592468262,4.921786308288574,2.6500351428985596
1701910844151474700,0.335474609375,7.946861267089844,4.855350971221924,3.0836775302886963
1701910844168469000,0.352468994140625,7.8521575927734375,4.7309746742248535,3.492506504058838
1701910844185463600,0.369463623046875,7.716495990753174,4.5877604484558105,3.9552812576293945
1701910844202448400,0.386448486328125,7.457657337188721,4.446761608123779,4.56571626663208
1701910844219446500,0.403446533203125,7.065556049346924,4.304444313049316,5.271223068237305
1701910844236442400,0.4204423828125,6.625360488891602,4.0905632972717285,5.96724271774292
1701910844253435400,0.437435302734375,6.257585048675537,3.748373031616211,6.559606552124023
1701910844270426400,0.45442626953125,6.036434173583984,3.293518304824829,6.996449947357178
1701910844287421200,0.471421142578125,5.907719612121582,2.7747063636779785,7.323658466339111
1701910844304398600,0.488398681640625,5.730118274688721,2.255632162094116,7.636358261108398
1701910844321402000,0.505402099609375,5.417126178741455,1.7747256755828857,7.983809471130371
1701910844338398700,0.522398681640625,5.012324810028076,1.3400163650512695,8.325687408447266
1701910844355391200,0.53939111328125,4.605721950531006,0.9190870523452759,8.612706184387207
1701910844372386300,0.55638623046875,4.2315545082092285,0.48230496048927307,8.837275505065918
1701910844389374500,0.57337451171875,3.8444666862487793,0.02667207457125187,9.0252685546875
1701910844406370600,0.59037060546875,3.401992082595825,-0.4477993845939636,9.190322875976562
1701910844423367200,0.6073671875,2.973445415496826,-0.930765688419342,9.302064895629883
1701910844440351000,0.62435107421875,2.6352157592773438,-1.4091895818710327,9.343764305114746
1701910844457348400,0.641348388671875,2.3876819610595703,-1.8821090459823608,9.326990127563477
1701910844474341400,0.65834130859375,2.1911003589630127,-2.3549134731292725,9.267663955688477
1701910844491335200,0.675335205078125,1.9932503700256348,-2.837193489074707,9.176786422729492
1701910844508310800,0.692310791015625,1.7696505784988403,-3.337808609008789,9.05336856842041
1701910844525321000,0.709321044921875,1.53459894657135,-3.8509809970855713,8.891067504882812
1701910844542312700,0.726312744140625,1.3390141725540161,-4.3498358726501465,8.69034481048584
1701910844559292000,0.7432919921875,1.228214144706726,-4.811827659606934,8.460136413574219
1701910844576295400,0.76029541015625,1.2008932828903198,-5.2170610427856445,8.220476150512695
1701910844593287700,0.77728759765625,1.2179254293441772,-5.554614067077637,7.993686199188232
1701910844610282500,0.794282470703125,1.236817479133606,-5.837010383605957,7.786892890930176
1701910844627278000,0.811278076171875,1.239335536956787,-6.083713054656982,7.595302104949951
1701910844644269600,0.82826953125,1.2269765138626099,-6.308513164520264,7.411701202392578
1701910844661261600,0.845261474609375,1.2052503824234009,-6.5199995040893555,7.230014801025391
1701910844678253300,0.86225341796875,1.1858863830566406,-6.716105937957764,7.0515055656433105
1701910844695246600,0.87924658203125,1.1830683946609497,-6.893614768981934,6.8785576820373535
1701910844712239900,0.896239990234375,1.2026035785675049,-7.0524187088012695,6.712172508239746
1701910844729234000,0.91323388671875,1.2418574094772339,-7.190306186676025,6.556936264038086
1701910844746214100,0.930214111328125,1.307152271270752,-7.301760673522949,6.419639587402344
1701910844763218000,0.947218017578125,1.3952199220657349,-7.385180950164795,6.304647922515869
1701910844780206600,0.96420654296875,1.4970219135284424,-7.442398548126221,6.213352203369141
1701910844797208300,0.981208251953125,1.6103533506393433,-7.473972320556641,6.14675760269165
1701910844814198000,0.998197998046875,1.7266262769699097,-7.4822096824646,6.105031490325928
1701910844831185000,1.015184814453125,1.840429663658142,-7.471649646759033,6.084684371948242
1701910844848186000,1.03218603515625,1.9430701732635498,-7.456061363220215,6.071882247924805
1701910844865172700,1.0491728515625,2.031914472579956,-7.437000274658203,6.066173076629639
1701910844882159400,1.066159423828125,2.104609966278076,-7.4052348136901855,6.0802321434021
1701910844899158000,1.083157958984375,2.164907217025757,-7.351766109466553,6.123791694641113
1701910844916153600,1.100153564453125,2.2171101570129395,-7.274509429931641,6.196938991546631
1701910844933148000,1.11714794921875,2.2615959644317627,-7.176712512969971,6.294131278991699
1701910844950137000,1.13413720703125,2.3027267456054688,-7.061426639556885,6.408571243286133
1701910844967129000,1.151129150390625,2.3336455821990967,-6.929434299468994,6.540118217468262
1701910844984125000,1.168125,2.3480374813079834,-6.777248859405518,6.692662715911865
1701910845001123000,1.185123046875,2.3313393592834473,-6.603200912475586,6.87013053894043
1701910845018111500,1.202111572265625,2.284886121749878,-6.414181232452393,7.062130928039551
1701910845035102700,1.219102783203125,2.222470283508301,-6.2175445556640625,7.255266189575195
1701910845052088300,1.23608837890625,2.155851364135742,-6.020357608795166,7.439334869384766
1701910845069083400,1.25308349609375,2.073655128479004,-5.813963413238525,7.624558448791504
1701910845086082800,1.270082763671875,1.9390276670455933,-5.5827531814575195,7.830015182495117
1701910845103075600,1.28707568359375,1.7406202554702759,-5.335229396820068,8.046220779418945
1701910845120064800,1.304064697265625,1.4870163202285767,-5.074971675872803,8.26253890991211
1701910845137057800,1.321057861328125,1.177120566368103,-4.800091743469238,8.474056243896484
1701910845154055400,1.338055419921875,0.8113953471183777,-4.514895439147949,8.671417236328125
1701910845171043300,1.355043212890625,0.4522564113140106,-4.2531304359436035,8.828503608703613
1701910845188041500,1.37204150390625,0.16876175999641418,-4.038391590118408,8.938626289367676
1701910845205028400,1.3890283203125,-0.028872966766357422,-3.81067156791687,9.039582252502441
1701910845222023700,1.406023681640625,-0.17738406360149384,-3.505070924758911,9.16073989868164
1701910845239015700,1.423015625,-0.28694742918014526,-3.113377809524536,9.298421859741211
1701910845256009500,1.440009521484375,-0.342994749546051,-2.6661415100097656,9.434518814086914
1701910845273004800,1.4570048828125,-0.34105756878852844,-2.2019500732421875,9.553597450256348
1701910845289991200,1.4739912109375,-0.2843489348888397,-1.7603046894073486,9.646584510803223
1701910845306988300,1.49098828125,-0.1804538518190384,-1.368210792541504,9.712442398071289
1701910845323981000,1.50798095703125,-0.03691171854734421,-1.0261446237564087,9.756114959716797
1701910845340970500,1.524970458984375,0.13378839194774628,-0.7208640575408936,9.782565116882324
1701910845357967400,1.54196728515625,0.31633028388023376,-0.43916186690330505,9.795058250427246
1701910845374959600,1.558959716796875,0.49818336963653564,-0.17354069650173187,9.795805931091309
1701910845391953000,1.575952880859375,0.675701916217804,0.07684674113988876,9.78640079498291
1701910845408942800,1.59294287109375,0.8586671352386475,0.3128368556499481,9.767339706420898
1701910845425936100,1.60993603515625,1.0494290590286255,0.5480958223342896,9.738295555114746
1701910845442931200,1.62693115234375,1.221169352531433,0.7829898595809937,9.702155113220215
1701910845459920600,1.643920654296875,1.3487749099731445,1.0081992149353027,9.664390563964844
1701910845476911900,1.660911865234375,1.4144386053085327,1.2105783224105835,9.63171672821045
1701910845493910000,1.677909912109375,1.4088703393936157,1.3688218593597412,9.611323356628418
1701910845510897700,1.694897705078125,1.3408929109573364,1.4584134817123413,9.607870101928711
1701910845527895600,1.7118955078125,1.2168798446655273,1.4666028022766113,9.623117446899414
1701910845544886500,1.728886474609375,1.0464937686920166,1.3907667398452759,9.654363632202148
1701910845561881900,1.7458818359375,0.8312636017799377,1.2291958332061768,9.697124481201172
1701910845578869500,1.762869384765625,0.5686289072036743,0.9919535517692566,9.743141174316406
1701910845595865300,1.779865234375,0.3004884123802185,0.6946060061454773,9.78076457977295
1701910845612859400,1.796859375,0.08715742826461792,0.3471837043762207,9.803467750549316
1701910845629846000,1.813845947265625,-0.03297596052289009,-0.04358924180269241,9.80984878540039
1701910845646843600,1.83084375,-0.04301328957080841,-0.44445011019706726,9.799832344055176
1701910845663837400,1.84783740234375,0.02607331983745098,-0.8384676575660706,9.774068832397461
1701910845680822800,1.86482275390625,0.10773495584726334,-1.3108972311019897,9.72142219543457
1701910845697820000,1.88181982421875,0.1727343648672104,-1.989854097366333,9.604517936706543
1701910845714814200,1.898814208984375,0.23631931841373444,-2.857328414916992,9.381682395935059
1701910845731808500,1.91580859375,0.3313102722167969,-3.732656478881836,9.066070556640625
1701910845748798200,1.932798095703125,0.48930466175079346,-4.448479175567627,8.729702949523926
1701910845765793000,1.94979296875,0.6833486557006836,-4.971512317657471,8.429306983947754
1701910845782787300,1.966787353515625,0.84938645362854,-5.345689296722412,8.18157958984375
1701910845799776300,1.9837763671875,0.9509034752845764,-5.6461262702941895,7.9657487869262695
1701910845816771300,2.000771240234375,0.9840031266212463,-5.927751541137695,7.754328727722168
1701910845833766000,2.017765869140625,0.97715163230896,-6.203848361968994,7.536150932312012
1701910845850753800,2.03475390625,0.9636375308036804,-6.456244468688965,7.322870254516602
1701910845867750700,2.051750732421875,0.9676329493522644,-6.656373023986816,7.140902996063232
1701910845884728300,2.068728271484375,0.9863642454147339,-6.797735691070557,7.003856658935547
1701910845901740500,2.085740478515625,1.003056526184082,-6.906761646270752,6.893957138061523
1701910845918718200,2.10271826171875,1.0000873804092407,-7.010349750518799,6.789029121398926
1701910845935720700,2.119720703125,0.97687828540802,-7.116379261016846,6.681241512298584
1701910845952715500,2.136715576171875,0.9413406848907471,-7.216554164886475,6.578094959259033
1701910845969704200,2.1537041015625,0.9034033417701721,-7.301916599273682,6.488605976104736
1701910845986695700,2.17069580078125,0.8689556121826172,-7.370126247406006,6.415783882141113
1701910846003694000,2.187694091796875,0.8497639298439026,-7.424437046051025,6.355451583862305
1701910846020682000,2.204681884765625,0.8489871025085449,-7.46301794052124,6.310206413269043
1701910846037678600,2.2216787109375,0.8528137803077698,-7.482665061950684,6.286379814147949
1701910846054670000,2.238670166015625,0.8356706500053406,-7.483819007873535,6.28730583190918
1701910846071654700,2.255654541015625,0.774014413356781,-7.459321022033691,6.324204444885254
1701910846088653000,2.272653076171875,0.6869142651557922,-7.400247097015381,6.403172492980957
1701910846105651700,2.289651611328125,0.6162711381912231,-7.309439659118652,6.51370906829834
1701910846122639400,2.306639404296875,0.5362312197685242,-7.187868118286133,6.654556751251221
1701910846139632600,2.323632568359375,0.3776596784591675,-7.040981292724609,6.8204169273376465
1701910846156626700,2.340626708984375,0.20540392398834229,-6.910243988037109,6.960061550140381
1701910846173620700,2.357620849609375,0.13669182360172272,-6.81239128112793,7.057531356811523
1701910846190611000,2.37461083984375,0.16200822591781616,-6.654618263244629,7.205965042114258
1701910846207606300,2.391606201171875,0.19682429730892181,-6.355375289916992,7.470381259918213
1701910846224582400,2.40858251953125,0.20714230835437775,-5.917815208435059,7.821295738220215
1701910846241592000,2.425592041015625,0.22720877826213837,-5.374495983123779,8.20361328125
1701910846258582000,2.44258203125,0.2763955593109131,-4.765297889709473,8.570394515991211
1701910846275576800,2.459576904296875,0.3456733822822571,-4.123929500579834,8.89437198638916
1701910846292570600,2.476570556640625,0.41666966676712036,-3.4658420085906982,9.167901992797852
1701910846309559800,2.493559814453125,0.47215625643730164,-2.794142484664917,9.391802787780762
1701910846326547000,2.510546875,0.5091837644577026,-2.110459566116333,9.566756248474121
1701910846343561200,2.527561279296875,0.5432455539703369,-1.4122365713119507,9.692605018615723
1701910846360528100,2.544528076171875,0.5732405781745911,-0.7064483165740967,9.767725944519043
1701910846377531600,2.56153173828125,0.5698620676994324,-0.0009586510714143515,9.793437004089355
1701910846394525700,2.578525634765625,0.4997182786464691,0.6898127198219299,9.772951126098633
1701910846411526400,2.5955263671875,0.3475900888442993,1.3521519899368286,9.710145950317383
1701910846428511700,2.61251171875,0.12658753991127014,1.9665576219558716,9.61003303527832
1701910846445505500,2.629505615234375,-0.13635766506195068,2.521878242492676,9.479328155517578
1701910846462494700,2.64649462890625,-0.40343040227890015,3.0024242401123047,9.330533027648926
1701910846479487700,2.66348779296875,-0.6529486775398254,3.3911526203155518,9.18204116821289
1701910846496479000,2.68047900390625,-0.8702972531318665,3.6884098052978516,9.048445701599121
1701910846513467000,2.697466796875,-1.0436701774597168,3.8986990451812744,8.941308975219727
1701910846530465500,2.714465576171875,-1.1883174180984497,4.008653163909912,8.874385833740234
1701910846547460600,2.731460693359375,-1.3369699716567993,3.99934720993042,8.857417106628418
1701910846564444700,2.748444580078125,-1.518442988395691,3.8603365421295166,8.889782905578613
1701910846581440500,2.7654404296875,-1.7236995697021484,3.572746753692627,8.972207069396973
1701910846598438400,2.7824384765625,-1.8534469604492188,3.1736319065093994,9.09554386138916
1701910846615431000,2.799430908203125,-1.7630022764205933,2.727566957473755,9.256799697875977
1701910846632428000,2.816427978515625,-1.4365849494934082,2.2390615940093994,9.442402839660645
1701910846649416000,2.833416015625,-1.0116952657699585,1.68788743019104,9.610599517822266
1701910846666400000,2.85039990234375,-0.6464711427688599,1.0727345943450928,9.729719161987305
1701910846683405300,2.8674052734375,-0.43065446615219116,0.37810903787612915,9.793248176574707
1701910846700393000,2.88439306640625,-0.37054333090782166,-0.4127374291419983,9.794306755065918
1701910846717393400,2.901393310546875,-0.40748605132102966,-1.2799400091171265,9.717602729797363
1701910846734378800,2.918378662109375,-0.464914470911026,-2.168212890625,9.5560884475708
1701910846751374000,2.9353740234375,-0.4906808137893677,-3.0274181365966797,9.318266868591309
1701910846768367000,2.9523671875,-0.47698137164115906,-3.8275630474090576,9.019887924194336
1701910846785360400,2.9693603515625,-0.43234139680862427,-4.552480697631836,8.678947448730469
1701910846802354400,2.9863544921875,-0.3795650005340576,-5.195180416107178,8.31277084350586
1701910846819343400,3.00334326171875,-0.3310500681400299,-5.74958610534668,7.941586494445801
1701910846836338000,3.020337890625,-0.27849119901657104,-6.196796894073486,7.599884986877441
1701910846853333200,3.037333251953125,-0.2118539810180664,-6.514184474945068,7.33189058303833
1701910846870321400,3.0543212890625,-0.12923868000507355,-6.712065696716309,7.153151988983154
1701910846887314700,3.071314697265625,-0.038277629762887955,-6.829128265380859,7.042561054229736
1701910846904299500,3.088299560546875,0.03693627938628197,-6.905619144439697,6.967581272125244
1701910846921306600,3.105306640625,0.08498577773571014,-6.966407299041748,6.90637731552124
1701910846938299400,3.12229931640625,0.11221596598625183,-7.014150619506836,6.857491970062256
1701910846955283200,3.139283203125,0.1313980519771576,-7.035279750823975,6.83547306060791
1701910846972284000,3.156283935546875,0.1296035349369049,-7.019632816314697,6.8515753746032715
1701910846989275000,3.17327490234375,0.11928612738847733,-6.991285800933838,6.880683422088623
1701910847006256400,3.19025634765625,0.12434250861406326,-6.984063148498535,6.887925624847412
1701910847023260400,3.207260498046875,0.09502837061882019,-6.9890594482421875,6.883322715759277
1701910847040249900,3.224249755859375,0.0018512285314500332,-6.975705623626709,6.8975090980529785
1701910847057248800,3.241248779296875,-0.08228085190057755,-6.954397201538086,6.918506622314453
1701910847074227000,3.25822705078125,-0.10118811577558517,-6.9317626953125,6.940931797027588
1701910847091225300,3.275225341796875,-0.11074159294366837,-6.850910186767578,7.020603179931641
1701910847108223700,3.2922236328125,-0.15208403766155243,-6.671876907348633,7.190205097198486
1701910847125224400,3.309224365234375,-0.1703185886144638,-6.4099531173706055,7.424257755279541
1701910847142209300,3.326209228515625,-0.12214073538780212,-6.099649429321289,7.68215274810791
1701910847159202800,3.343202880859375,-0.025024915114045143,-5.764892578125,7.937349319458008
1701910847176194800,3.36019482421875,0.08150814473628998,-5.413406848907471,8.180739402770996
1701910847193188400,3.377188232421875,0.16836151480674744,-5.046346664428711,8.410835266113281
1701910847210178000,3.394177978515625,0.22499793767929077,-4.665704250335693,8.626509666442871
1701910847227176400,3.411176513671875,0.24602395296096802,-4.273582935333252,8.826781272888184
1701910847244166100,3.428166259765625,0.22896762192249298,-3.873459577560425,9.009993553161621
1701910847261158400,3.445158447265625,0.17376112937927246,-3.4698636531829834,9.174201011657715
1701910847278152400,3.46215234375,0.08344152569770813,-3.0699894428253174,9.31688404083252
1701910847295142000,3.479141845703125,-0.03167203068733215,-2.682921886444092,9.435943603515625
1701910847312137500,3.496137451171875,-0.1510821133852005,-2.302712917327881,9.534716606140137
1701910847329120300,3.513120361328125,-0.25202086567878723,-1.9200005531311035,9.616974830627441
1701910847346115300,3.530115234375,-0.32400184869766235,-1.5372816324234009,9.68338394165039
1701910847363116300,3.5471162109375,-0.36202743649482727,-1.1711660623550415,9.733110427856445
1701910847380103400,3.564103515625,-0.35735493898391724,-0.8473092317581177,9.766805648803711
1701910847397097200,3.58109716796875,-0.31752312183380127,-0.5904778838157654,9.787065505981445
1701910847414087700,3.598087646484375,-0.26977184414863586,-0.4028225839138031,9.798014640808105
1701910847431081200,3.615081298828125,-0.23728938400745392,-0.2788291573524475,9.803168296813965
1701910847448072700,3.63207275390625,-0.2385816127061844,-0.20566383004188538,9.804943084716797
1701910847465063200,3.649063232421875,-0.24595612287521362,-0.16582529246807098,9.805514335632324
1701910847482055400,3.666055419921875,-0.2389412224292755,-0.14655227959156036,9.80599594116211
1701910847499048000,3.6830478515625,-0.2259504497051239,-0.15315495431423187,9.806204795837402
1701910847516040700,3.700040771484375,-0.20245400071144104,-0.2125597447156906,9.805607795715332
1701910847533035300,3.71703515625,-0.18014277517795563,-0.3231048583984375,9.803023338317871
1701910847550029000,3.734029052734375,-0.1670461893081665,-0.4595385491847992,9.797807693481445
1701910847567020000,3.75102001953125,-0.15754446387290955,-0.6394032835960388,9.787873268127441
1701910847584017200,3.76801708984375,-0.14319831132888794,-0.9174317121505737,9.765957832336426
1701910847601013800,3.785013671875,-0.10919208079576492,-1.3422670364379883,9.717123985290527
1701910847617990400,3.801990478515625,-0.05288631469011307,-1.9006582498550415,9.623970985412598
1701910847635000000,3.819,0.02195395715534687,-2.521214246749878,9.48045825958252
1701910847651990300,3.835990234375,0.12461996078491211,-3.12638783454895,9.297649383544922
1701910847668988400,3.852988525390625,0.2544199526309967,-3.675865650177002,9.091721534729004
1701910847685978400,3.869978271484375,0.39202365279197693,-4.144880294799805,8.88270378112793
1701910847702971600,3.8869716796875,0.4918970465660095,-4.525025844573975,8.690126419067383
1701910847719964400,3.90396435546875,0.5334154963493347,-4.829394340515137,8.522237777709961
1701910847736957400,3.92095751953125,0.5213254690170288,-5.067571640014648,8.38355827331543
1701910847753949400,3.937949462890625,0.47136130928993225,-5.24345588684082,8.277688026428223
1701910847770942500,3.9549423828125,0.40762725472450256,-5.370414733886719,8.199304580688477
1701910847787936000,3.97193603515625,0.34576985239982605,-5.468776702880859,8.136894226074219
1701910847804928500,3.988928466796875,0.29712772369384766,-5.557085990905762,8.078776359558105
1701910847821909000,4.005908935546875,0.2760862410068512,-5.632882595062256,8.026864051818848
1701910847838916900,4.022916748046875,0.2784096300601959,-5.692511558532715,7.984604835510254
1701910847855906300,4.03990625,0.28999239206314087,-5.749345302581787,7.943365573883057
1701910847872897000,4.05689697265625,0.29666316509246826,-5.812188625335693,7.897251605987549
1701910847889894400,4.073894287109375,0.28632062673568726,-5.886961936950684,7.84205436706543
1701910847906882000,4.090882080078125,0.25958773493766785,-5.969725608825684,7.780172824859619
1701910847923877600,4.107877685546875,0.23302879929542542,-6.0418477058410645,7.7251458168029785
1701910847940871200,4.12487109375,0.22430738806724548,-6.091379165649414,7.686410427093506
1701910847957863000,4.14186279296875,0.2226611077785492,-6.106357097625732,7.67456579208374
1701910847974855400,4.15885546875,0.204433873295784,-6.070127964019775,7.703757286071777
1701910847991849200,4.17584912109375,0.16770224273204803,-6.000844478607178,7.758729457855225
1701910848008841700,4.192841796875,0.1006484180688858,-5.908033847808838,7.830780982971191
1701910848025834200,4.209834228515625,-0.04193418473005295,-5.769444942474365,7.933969020843506
1701910848042827300,4.2268271484375,-0.23810125887393951,-5.587352752685547,8.059833526611328
1701910848059819500,4.243819580078125,-0.34710007905960083,-5.412187576293945,8.174588203430176
1701910848076803600,4.260803466796875,-0.28975674510002136,-5.248507976531982,8.282833099365234
1701910848093804500,4.277804443359375,-0.16415999829769135,-5.032924652099609,8.418956756591797
1701910848110799600,4.294799560546875,-0.07808839529752731,-4.737730503082275,8.589756965637207
1701910848127790800,4.311790771484375,-0.0483301617205143,-4.38905143737793,8.773255348205566
1701910848144774000,4.32877392578125,-0.037494685500860214,-4.036098003387451,8.94117546081543
1701910848161775000,4.345775146484375,-0.018121106550097466,-3.705681324005127,9.083155632019043
1701910848178771200,4.362771240234375,0.002635340206325054,-3.394951343536377,9.203826904296875
1701910848195762200,4.37976220703125,0.0035825890954583883,-3.0906970500946045,9.310407638549805
1701910848212755500,4.39675537109375,-0.020083433017134666,-2.7801480293273926,9.407788276672363
1701910848229740800,4.41374072265625,-0.061522651463747025,-2.4538087844848633,9.497956275939941
1701910848246741000,4.430740966796875,-0.11826345324516296,-2.1176230907440186,9.577984809875488
1701910848263733200,4.447733154296875,-0.18390780687332153,-1.7813470363616943,9.645158767700195
1701910848280716000,4.464716064453125,-0.25685590505599976,-1.4562889337539673,9.697905540466309
1701910848297715500,4.481715576171875,-0.33538752794265747,-1.1503827571868896,9.736542701721191
1701910848314709800,4.498709716796875,-0.4108598828315735,-0.8621152639389038,9.763404846191406
1701910848331707000,4.515706787109375,-0.4800938367843628,-0.5886959433555603,9.780545234680176
1701910848348695000,4.532695068359375,-0.5486758351325989,-0.33051827549934387,9.789067268371582
1701910848365692700,4.549692626953125,-0.6193178296089172,-0.09278830140829086,9.789993286132812
1701910848382683100,4.56668310546875,-0.6877898573875427,0.09872380644083023,9.785364151000977
1701910848399675600,4.583675537109375,-0.7444031834602356,0.23416784405708313,9.778911590576172
1701910848416665600,4.60066552734375,-0.7802548408508301,0.3191691040992737,9.773714065551758
1701910848433661200,4.6176611328125,-0.7920685410499573,0.3676051199436188,9.7710599899292
1701910848450654500,4.634654541015625,-0.7825124263763428,0.3898020088672638,9.77096939086914
1701910848467642000,4.65164208984375,-0.7508304715156555,0.39180848002433777,9.77337646484375
1701910848484631800,4.6686318359375,-0.6976722478866577,0.3693876266479492,9.77818775177002
1701910848501622300,4.685622314453125,-0.6258187294006348,0.2996677756309509,9.785432815551758
1701910848518625300,4.702625244140625,-0.5459124445915222,0.14713262021541595,9.793695449829102
1701910848535614200,4.7196142578125,-0.46389472484588623,-0.1072414442896843,9.798439025878906
1701910848552615000,4.736614990234375,-0.38793060183525085,-0.46238526701927185,9.791415214538574
1701910848569603600,4.753603515625,-0.29782384634017944,-0.8967956900596619,9.764382362365723
1701910848586596600,4.7705966796875,-0.1536782830953598,-1.394106388092041,9.709219932556152
1701910848603600100,4.78760009765625,0.02655220776796341,-1.9392963647842407,9.616368293762207
1701910848620580600,4.80458056640625,0.19515083730220795,-2.4983866214752197,9.484519004821777
1701910848637563600,4.821563720703125,0.3215419054031372,-3.042982339859009,9.32056713104248
1701910848654558700,4.838558837890625,0.3997840881347656,-3.5428011417388916,9.139193534851074
1701910848671550500,4.855550537109375,0.4412660002708435,-3.984351396560669,8.95356559753418
1701910848688554200,4.87255419921875,0.4789770245552063,-4.381842136383057,8.76391315460205
1701910848705537800,4.889537841796875,0.5320984125137329,-4.742503643035889,8.570978164672852
1701910848722539300,4.906539306640625,0.6057630777359009,-5.052546977996826,8.386951446533203
1701910848739528000,4.92352783203125,0.6891636848449707,-5.290189743041992,8.232562065124512
1701910848756514300,4.940514404296875,0.774756133556366,-5.4468793869018555,8.122030258178711
1701910848773514200,4.95751416015625,0.842171847820282,-5.537503719329834,8.053751945495605
1701910848790500000,4.9745,0.8687439560890198,-5.5885820388793945,8.015556335449219
1701910848807495700,4.99149560546875,0.8534801006317139,-5.628723621368408,7.989063262939453
1701910848824484400,5.008484375,0.8140996694564819,-5.676011085510254,7.959664344787598
1701910848841483800,5.02548388671875,0.7761009931564331,-5.724900722503662,7.928386211395264
1701910848858475300,5.042475341796875,0.7579529881477356,-5.763949394226074,7.901803493499756
1701910848875470800,5.059470947265625,0.7729077935218811,-5.791386604309082,7.880263805389404
1701910848892466200,5.076466064453125,0.8130024671554565,-5.803206443786621,7.867526054382324
1701910848909454000,5.0934541015625,0.835258424282074,-5.788141250610352,7.876286506652832
1701910848926442800,5.11044287109375,0.8152700066566467,-5.755602836608887,7.902181148529053
1701910848943437600,5.1274375,0.7503156065940857,-5.732053756713867,7.925698280334473
1701910848960434000,5.144433837890625,0.6060712337493896,-5.70228910446167,7.959442138671875
1701910848977430000,5.161429931640625,0.3925227224826813,-5.654214859008789,8.006991386413574
1701910848994421000,5.1784208984375,0.20391200482845306,-5.618916988372803,8.038800239562988
1701910849011417900,5.19541796875,0.1381685435771942,-5.614442348480225,8.04332447052002
1701910849028409000,5.2124091796875,0.14751970767974854,-5.575661659240723,8.070090293884277
1701910849045401300,5.2294013671875,0.1531233787536621,-5.453747749328613,8.15286922454834
1701910849062394600,5.24639453125,0.156812384724617,-5.248876571655273,8.286181449890137
1701910849079386600,5.26338671875,0.19670121371746063,-4.993253231048584,8.441850662231445
1701910849096379400,5.28037939453125,0.2842814028263092,-4.716049671173096,8.597336769104004
1701910849113373400,5.29737353515625,0.4016663134098053,-4.433940410614014,8.741562843322754
1701910849130364400,5.314364501953125,0.5158396363258362,-4.153441905975342,8.872369766235352
1701910849147359700,5.33135986328125,0.604498028755188,-3.8739426136016846,8.992401123046875
1701910849164351200,5.348351318359375,0.6612563729286194,-3.5959339141845703,9.103192329406738
1701910849181343000,5.365343017578125,0.6867145895957947,-3.318756580352783,9.205998420715332
1701910849198337800,5.382337890625,0.6839880347251892,-3.0420801639556885,9.301292419433594
1701910849215329300,5.399329345703125,0.6532737612724304,-2.7706902027130127,9.387898445129395
1701910849232322600,5.416322509765625,0.5989519357681274,-2.49822998046875,9.467641830444336
1701910849249316000,5.433316162109375,0.5242473483085632,-2.2115044593811035,9.543087005615234
1701910849266311700,5.450311767578125,0.42876407504081726,-1.9069054126739502,9.613323211669922
1701910849283300400,5.46730029296875,0.31246528029441833,-1.5900983810424805,9.675230026245117
1701910849300293600,5.484293701171875,0.17784248292446136,-1.2819386720657349,9.724255561828613
1701910849317282800,5.50128271484375,0.03804725036025047,-0.9999967217445374,9.758824348449707
1701910849334279400,5.518279541015625,-0.09562595188617706,-0.7460006475448608,9.7811279296875
1701910849351271700,5.535271728515625,-0.23037737607955933,-0.5278913378715515,9.793079376220703
1701910849368264400,5.552264404296875,-0.3590664267539978,-0.347310870885849,9.797273635864258
1701910849385256700,5.569256591796875,-0.4509887397289276,-0.2022101730108261,9.7975435256958
1701910849402250800,5.586250732421875,-0.4991891086101532,-0.09747279435396194,9.796806335449219
1701910849419242200,5.6032421875,-0.5335304141044617,-0.020887425169348717,9.79546070098877
1701910849436235800,5.62023583984375,-0.5818219780921936,0.061881668865680695,9.792536735534668
1701910849453228000,5.63722802734375,-0.6509606242179871,0.11880665272474289,9.787659645080566
1701910849470222600,5.65422265625,-0.7260587215423584,0.04774485528469086,9.782977104187012
1701910849487212800,5.671212890625,-0.7492440938949585,-0.2151813507080078,9.77898120880127
1701910849504206300,5.688206298828125,-0.6511699557304382,-0.6379426717758179,9.767556190490723
1701910849521199900,5.705199951171875,-0.38782185316085815,-1.1197298765182495,9.738168716430664
1701910849538192600,5.722192626953125,-0.01917477510869503,-1.5813871622085571,9.681681632995605
1701910849555182600,5.7391826171875,0.31005796790122986,-2.024005651473999,9.593925476074219
1701910849572177200,5.75617724609375,0.5039730072021484,-2.4639673233032227,9.48214054107666
1701910849589171200,5.773171142578125,0.5438545346260071,-2.9206645488739014,9.349334716796875
1701910849606153000,5.790153076171875,0.49167105555534363,-3.4004340171813965,9.1886568069458
1701910849623156000,5.807156005859375,0.4172479808330536,-3.8984320163726807,8.992454528808594
1701910849640149500,5.8241494140625,0.36060744524002075,-4.372213840484619,8.774384498596191
1701910849657141500,5.8411416015625,0.32952597737312317,-4.750078201293945,8.5769624710083
1701910849674134800,5.858134765625,0.32387641072273254,-5.02026891708374,8.421883583068848
1701910849691126300,5.875126220703125,0.34035825729370117,-5.2249627113342285,8.295783042907715
1701910849708120800,5.892120849609375,0.3783762753009796,-5.401546478271484,8.1802339553833
1701910849725111000,5.909111083984375,0.43709808588027954,-5.567044258117676,8.06554889678955
1701910849742105900,5.92610595703125,0.5052196383476257,-5.72227144241333,7.952137470245361
1701910849759108600,5.943108642578125,0.576572060585022,-5.850768089294434,7.853166103363037
1701910849776091600,5.960091552734375,0.6437916159629822,-5.932188987731934,7.786577224731445
1701910849793083600,5.977083740234375,0.6948875188827515,-5.964619159698486,7.757354736328125
1701910849810077200,5.9940771484375,0.7277284264564514,-5.975442409515381,7.746007442474365
1701910849827066000,6.011066162109375,0.7587209939956665,-5.994240760803223,7.728487968444824
1701910849844052000,6.028052001953125,0.7845379114151001,-6.022215843200684,7.70412540435791
1701910849861055000,6.045054931640625,0.7716307640075684,-6.044167518615723,7.688220500946045
1701910849878048300,6.06204833984375,0.7133954167366028,-6.066226959228516,7.676461219787598
1701910849895039500,6.07903955078125,0.6542461514472961,-6.100980758666992,7.654158115386963
1701910849912034600,6.09603466796875,0.6261017322540283,-6.105534076690674,7.652879238128662
1701910849929026000,6.113026123046875,0.621540904045105,-6.013450622558594,7.725815296173096
1701910849946023700,6.130023681640625,0.6319791078567505,-5.805266380310059,7.882613182067871
1701910849963011300,6.14701123046875,0.6691571474075317,-5.519419193267822,8.08234977722168
1701910849980002600,6.16400244140625,0.7296939492225647,-5.208286762237549,8.281147956848145
1701910849996999400,6.18099951171875,0.795650839805603,-4.908616542816162,8.45627212524414
1701910850013999900,6.197999755859375,0.8513175249099731,-4.619802951812744,8.612131118774414
1701910850030983700,6.214983642578125,0.8861256837844849,-4.325013160705566,8.760432243347168
1701910850047976000,6.231975830078125,0.9044607877731323,-4.018375396728516,8.903411865234375
1701910850064968200,6.24896826171875,0.9200983047485352,-3.703639030456543,9.0372896194458
1701910850081958700,6.265958740234375,0.9418864846229553,-3.386997699737549,9.15845012664795
1701910850098956300,6.282956298828125,0.9682708978652954,-3.0753064155578613,9.265044212341309
1701910850115947300,6.299947265625,0.995820939540863,-2.7674005031585693,9.358736038208008
1701910850132939000,6.31693896484375,1.006782054901123,-2.4584157466888428,9.443448066711426
1701910850149930500,6.333930419921875,0.9906405806541443,-2.156602144241333,9.51860237121582
1701910850166927400,6.35092724609375,0.9505830407142639,-1.876246452331543,9.581869125366211
1701910850183918300,6.36791845703125,0.8891624212265015,-1.6328511238098145,9.6322021484375
1701910850200909600,6.38490966796875,0.8020307421684265,-1.4304813146591187,9.671948432922363
1701910850217897000,6.40189697265625,0.6813603043556213,-1.2574636936187744,9.70518684387207
1701910850234890000,6.418889892578125,0.5388916730880737,-1.115239143371582,9.73149299621582
1701910850251889200,6.43588916015625,0.36906400322914124,-1.0083345174789429,9.751060485839844
1701910850268881000,6.452880859375,0.15709188580513,-0.9225450754165649,9.765262603759766
1701910850285876500,6.46987646484375,-0.11018083989620209,-0.8515557646751404,9.772350311279297
1701910850302867000,6.486866943359375,-0.42368459701538086,-0.7718722820281982,9.770405769348145
1701910850319860500,6.503860595703125,-0.6942943334579468,-0.7619609236717224,9.755691528320312
1701910850336850200,6.52085009765625,-0.852108359336853,-0.9934636354446411,9.722296714782715
1701910850353851400,6.537851318359375,-0.8371049761772156,-1.4843119382858276,9.660859107971191
1701910850370838300,6.55483837890625,-0.6632993817329407,-2.021930456161499,9.576427459716797
1701910850387831600,6.57183154296875,-0.4268748164176941,-2.4468703269958496,9.490347862243652
1701910850404812500,6.5888125,-0.21964773535728455,-2.7544374465942383,9.41280746459961
1701910850421819600,6.605819580078125,-0.04779777303338051,-3.0158913135528564,9.334785461425781
1701910850438807800,6.622807861328125,0.09481699019670486,-3.3075990676879883,9.235093116760254
1701910850455802600,6.639802734375,0.1965632289648056,-3.663438320159912,9.098169326782227
1701910850472795000,6.656794921875,0.2515925467014313,-4.054068088531494,8.929577827453613
1701910850489788200,6.6737880859375,0.2819271683692932,-4.391359806060791,8.767702102661133
1701910850506780700,6.69078076171875,0.3106831908226013,-4.6100969314575195,8.653703689575195
1701910850523774000,6.70777392578125,0.35190021991729736,-4.740203380584717,8.581536293029785
1701910850540766500,6.724766357421875,0.41038742661476135,-4.838483810424805,8.523895263671875
1701910850557759500,6.741759521484375,0.46593818068504333,-4.943002223968506,8.460837364196777
1701910850574751700,6.758751708984375,0.5118050575256348,-5.064830303192139,8.385801315307617
1701910850591744000,6.775743896484375,0.5522541999816895,-5.19293737411499,8.304489135742188
1701910850608738000,6.792738037109375,0.5951533317565918,-5.3071441650390625,8.22898006439209
1701910850625717500,6.809717529296875,0.6404076814651489,-5.404156684875488,8.1621732711792
1701910850642722600,6.82672265625,0.6816022396087646,-5.500991344451904,8.093865394592285
1701910850659713000,6.843713134765625,0.7191489338874817,-5.6114115715026855,8.014424324035645
1701910850676708400,6.860708251953125,0.7449889779090881,-5.723583698272705,7.9323201179504395
1701910850693701400,6.877701416015625,0.7592794895172119,-5.807034969329834,7.870068073272705
1701910850710693600,6.894693603515625,0.7730191349983215,-5.854614734649658,7.8333916664123535
1701910850727683800,6.911683837890625,0.7941684722900391,-5.873901844024658,7.816822528839111
1701910850744670700,6.928670654296875,0.8202101588249207,-5.868662357330322,7.818068027496338
1701910850761672700,6.945672607421875,0.8372003436088562,-5.837894439697266,7.839272975921631
1701910850778662400,6.962662353515625,0.8385567665100098,-5.782105445861816,7.880366325378418
1701910850795660800,6.979660888671875,0.8364046216011047,-5.723424434661865,7.923316478729248
1701910850812649500,6.9966494140625,0.8467970490455627,-5.680303573608398,7.953188896179199
1701910850829644000,7.01364404296875,0.853886067867279,-5.6161088943481445,7.997893810272217
1701910850846636000,7.030635986328125,0.8284186124801636,-5.480696201324463,8.093936920166016
1701910850863618300,7.047618408203125,0.7688731551170349,-5.2538886070251465,8.248734474182129
1701910850880610800,7.06461083984375,0.6978526711463928,-4.951695919036865,8.439776420593262
1701910850897599200,7.08159912109375,0.6287276148796082,-4.606715202331543,8.638228416442871
1701910850914599400,7.098599365234375,0.5669957399368286,-4.257184982299805,8.81992244720459
1701910850931593200,7.11559326171875,0.5125002861022949,-3.9290695190429688,8.9741792678833
1701910850948582700,7.132582763671875,0.45779290795326233,-3.6210861206054688,9.105729103088379
1701910850965576200,7.149576171875,0.3933006227016449,-3.324760913848877,9.221029281616211
1701910850982570000,7.166570068359375,0.31013140082359314,-3.03981614112854,9.321988105773926
1701910850999574300,7.18357421875,0.20794092118740082,-2.773134469985962,9.40758228302002
1701910851016563700,7.200563720703125,0.09007943421602249,-2.5309224128723145,9.477470397949219
1701910851033557200,7.21755712890625,-0.0311423446983099,-2.322460174560547,9.531071662902832
1701910851050549800,7.2345498046875,-0.1472301185131073,-2.149808168411255,9.570411682128906
1701910851067542800,7.251542724609375,-0.2631725072860718,-2.0093469619750977,9.598406791687012
1701910851084537300,7.268537353515625,-0.39055755734443665,-1.8991152048110962,9.616494178771973
1701910851101525000,7.28552490234375,-0.5363137125968933,-1.8147485256195068,9.62575626373291
1701910851118521000,7.30252099609375,-0.6913836002349854,-1.7573829889297485,9.626509666442871
1701910851135513900,7.319513916015625,-0.8361911773681641,-1.7254670858383179,9.620794296264648
1701910851152506000,7.336506103515625,-0.9504210352897644,-1.7119486331939697,9.612598419189453
1701910851169499600,7.353499755859375,-1.0205106735229492,-1.7069672346115112,9.606297492980957
1701910851186491600,7.37049169921875,-1.0421762466430664,-1.7106335163116455,9.603317260742188
1701910851203484700,7.387484619140625,-1.022993564605713,-1.724056601524353,9.60297966003418
1701910851220474600,7.404474609375,-0.9846569895744324,-1.7525763511657715,9.601826667785645
1701910851237470200,7.42147021484375,-0.9483135938644409,-1.801436185836792,9.596439361572266
1701910851254462700,7.438462646484375,-0.9224478602409363,-1.8712726831436157,9.585592269897461
1701910851271456000,7.4554560546875,-0.900858461856842,-1.966023325920105,9.568662643432617
1701910851288448000,7.472447998046875,-0.8738067746162415,-2.084167957305908,9.546142578125
1701910851305432300,7.489432373046875,-0.848396897315979,-2.2130088806152344,9.51939868927002
1701910851322431200,7.50643115234375,-0.8400819301605225,-2.3462302684783936,9.488182067871094
1701910851339430000,7.523429931640625,-0.8624123334884644,-2.488147258758545,9.449945449829102
1701910851356419600,7.540419677734375,-0.9157847166061401,-2.650362253189087,9.4006929397583
1701910851373412600,7.55741259765625,-0.9870313405990601,-2.841663122177124,9.33738899230957
1701910851390404900,7.57440478515625,-1.0372025966644287,-3.0693130493164062,9.259570121765137
1701910851407398100,7.591398193359375,-1.011551022529602,-3.3195345401763916,9.17570686340332
1701910851424379000,7.60837890625,-0.9061124324798584,-3.557100534439087,9.097368240356445
1701910851441382000,7.6253818359375,-0.7618575096130371,-3.747436046600342,9.033960342407227
1701910851458378800,7.642378662109375,-0.6202578544616699,-3.8764164447784424,8.99026107788086
1701910851475359200,7.659359130859375,-0.5040048956871033,-3.9644978046417236,8.959065437316895
1701910851492359200,7.676359130859375,-0.4181979298591614,-4.04019832611084,8.92961597442627
1701910851509357600,7.693357666015625,-0.3592715561389923,-4.123067855834961,8.894231796264648
1701910851526337300,7.710337158203125,-0.31362876296043396,-4.225841045379639,8.847599983215332
1701910851543340500,7.727340576171875,-0.264942467212677,-4.344974517822266,8.791309356689453
1701910851560329200,7.7443291015625,-0.20731420814990997,-4.455984115600586,8.7371244430542
1701910851577329400,7.761329345703125,-0.1516646444797516,-4.544841766357422,8.692381858825684
1701910851594315500,7.7783154296875,-0.11556065082550049,-4.611945629119873,8.657526016235352
1701910851611313400,7.7953134765625,-0.1057855635881424,-4.669175148010254,8.626920700073242
1701910851628305000,7.812304931640625,-0.11068224161863327,-4.731220245361328,8.592986106872559
1701910851645297200,7.829297119140625,-0.106236532330513,-4.808615684509277,8.549973487854004
1701910851662289200,7.8462890625,-0.08382736891508102,-4.897005558013916,8.499907493591309
1701910851679282700,7.86328271484375,-0.0457635261118412,-4.9811906814575195,8.451139450073242
1701910851696275000,7.88027490234375,-0.004453239496797323,-5.0576300621032715,8.405739784240723
1701910851713259800,7.897259765625,0.03193676099181175,-5.133691787719727,8.359444618225098
1701910851730258000,7.9142578125,0.0577564612030983,-5.2147297859191895,8.30899429321289
1701910851747253200,7.931253173828125,0.07276918739080429,-5.297091007232666,8.256611824035645
1701910851764245800,7.948245849609375,0.09004464000463486,-5.367125988006592,8.211087226867676
1701910851781236700,7.96523681640625,0.12194515019655228,-5.419094562530518,8.176469802856445
1701910851798233900,7.98223388671875,0.16930438578128815,-5.455277442932129,8.151529312133789
1701910851815221000,7.999220947265625,0.2073821872472763,-5.476933002471924,8.136112213134766
1701910851832217900,8.0162177734375,0.21664738655090332,-5.501103401184082,8.119547843933105
1701910851849218300,8.03321826171875,0.2249869853258133,-5.5457868576049805,8.088865280151367
1701910851866192400,8.0501923828125,0.24544653296470642,-5.596183776855469,8.053484916687012
1701910851883196200,8.067196044921875,0.2735517621040344,-5.604720592498779,8.046639442443848
1701910851900185300,8.084185302734374,0.27945366501808167,-5.530183792114258,8.097846984863281
1701910851917184000,8.10118408203125,0.24124443531036377,-5.365406513214111,8.209162712097168
1701910851934174500,8.118174560546874,0.18075571954250336,-5.14285945892334,8.351912498474121
1701910851951165200,8.135165283203126,0.10166671127080917,-4.902334690093994,8.496639251708984
1701910851968162000,8.152162109375,-0.0010418277233839035,-4.674325942993164,8.624778747558594
1701910851985145600,8.1691455078125,-0.13132013380527496,-4.469234466552734,8.731826782226562
1701910852002147800,8.18614794921875,-0.2833818197250366,-4.273835182189941,8.825540542602539
1701910852019138800,8.203138916015625,-0.44445785880088806,-4.0670576095581055,8.916143417358398
1701910852036130600,8.220130615234375,-0.597518801689148,-3.8380396366119385,9.008248329162598
1701910852053123300,8.237123291015624,-0.7275253534317017,-3.582317352294922,9.103506088256836
1701910852070116400,8.254116455078124,-0.8264327645301819,-3.3063161373138428,9.198989868164062
1701910852087109000,8.271109130859376,-0.8988397121429443,-3.020486354827881,9.290042877197266
1701910852104101400,8.288101318359375,-0.9505614042282104,-2.7285854816436768,9.374826431274414
1701910852121090300,8.30509033203125,-0.9899737238883972,-2.4286515712738037,9.452922821044922
1701910852138085600,8.322085693359375,-1.0196468830108643,-2.1172826290130615,9.524368286132812
1701910852155074300,8.33907421875,-1.0396947860717773,-1.8839912414550781,9.571089744567871
1701910852172062500,8.3560625,-1.0699723958969116,-1.5164347887039185,9.632843971252441
1701910852189068500,8.373068603515625,-1.0796334743499756,-1.2708567380905151,9.667234420776367
1701910852206047500,8.390047607421875,-1.090683102607727,-1.066967487335205,9.690620422363281
1701910852223051500,8.407051513671876,-1.1248506307601929,-0.8842164278030396,9.705103874206543
1701910852240043500,8.42404345703125,-1.199674129486084,-0.7021043300628662,9.711023330688477
1701910852257033700,8.44103369140625,-1.3125452995300293,-0.5158981084823608,9.708099365234375
1701910852274009000,8.458009033203124,-1.4414863586425781,-0.33890944719314575,9.697596549987793
1701910852291015200,8.47501513671875,-1.5644199848175049,-0.19136710464954376,9.68256664276123
1701910852308004600,8.492004638671874,-1.671537160873413,-0.0876702293753624,9.666146278381348
1701910852324998100,8.508998046875,-1.7677637338638306,-0.02706705406308174,9.649373054504395
1701910852341992200,8.5259921875,-1.872533917427063,0.00009267836867365986,9.62962818145752
1701910852358989600,8.542989501953125,-1.9939632415771484,0.019090283662080765,9.605199813842773
1701910852375975200,8.55997509765625,-2.1106574535369873,0.03971809148788452,9.580172538757324
1701910852392971500,8.576971435546875,-2.19254994392395,0.0469013974070549,9.561728477478027
1701910852409964300,8.59396435546875,-2.2126553058624268,0.023498499765992165,9.557183265686035
1701910852426956000,8.6109560546875,-2.156289577484131,-0.02980121225118637,9.570039749145508
1701910852443945200,8.6279453125,-2.0547542572021484,-0.09812329709529877,9.591897964477539
1701910852460941300,8.64494140625,-1.9512534141540527,-0.19286106526851654,9.612051963806152
1701910852477938000,8.66193798828125,-1.8624417781829834,-0.3415695130825043,9.625527381896973
1701910852494935800,8.678935791015626,-1.7946146726608276,-0.533492386341095,9.629687309265137
1701910852511927000,8.695927001953125,-1.7693840265274048,-0.7473727464675903,9.620126724243164
1701910852528911600,8.71291162109375,-1.7787867784500122,-1.0345414876937866,9.591754913330078
1701910852545913600,8.72991357421875,-1.7629892826080322,-1.389021396636963,9.549796104431152
1701910852562906600,8.74690673828125,-1.6516598463058472,-1.7333433628082275,9.513340950012207
1701910852579899000,8.76389892578125,-1.4248697757720947,-2.028122901916504,9.491711616516113
1701910852596891100,8.78089111328125,-1.1375831365585327,-2.3019936084747314,9.467989921569824
1701910852613886200,8.79788623046875,-0.863454282283783,-2.594456195831299,9.421218872070312
1701910852630878700,8.814878662109376,-0.6469008922576904,-2.9239132404327393,9.341753959655762
1701910852647866400,8.831866455078124,-0.4964628219604492,-3.274573564529419,9.234003067016602
1701910852664863500,8.848863525390625,-0.40077313780784607,-3.607658863067627,9.11374282836914
1701910852681853400,8.865853515625,-0.32905471324920654,-3.8998985290527344,8.995478630065918
1701910852698843600,8.88284375,-0.25760260224342346,-4.142081260681152,8.888922691345215
1701910852715841000,8.899841064453126,-0.1862899661064148,-4.3432769775390625,8.79416561126709
1701910852732823800,8.91682373046875,-0.11482294648885727,-4.528029441833496,8.7017183303833
1701910852749827000,8.9338271484375,-0.041831858456134796,-4.715930938720703,8.601998329162598
1701910852766820400,8.9508203125,0.038624368607997894,-4.899975776672363,8.498519897460938
1701910852783812000,8.96781201171875,0.1226380467414856,-5.0742011070251465,8.394854545593262
1701910852800803300,8.98480322265625,0.19780020415782928,-5.226353645324707,8.299531936645508
1701910852817800200,9.00180029296875,0.25545668601989746,-5.349565029144287,8.219062805175781
1701910852834780000,9.01877978515625,0.2946435511112213,-5.459832191467285,8.144908905029297
1701910852851784400,9.035784423828124,0.32196640968322754,-5.564909934997559,8.072436332702637
1701910852868777000,9.05277685546875,0.3447103202342987,-5.663007736206055,8.00297737121582
1701910852885769000,9.06976904296875,0.3729962408542633,-5.736839771270752,7.948940277099609
1701910852902762500,9.086762451171875,0.4212632477283478,-5.773043155670166,7.9202680587768555
1701910852919752000,9.103751953125,0.49561646580696106,-5.781773090362549,7.909588813781738
1701910852936750300,9.120750244140625,0.5864698886871338,-5.784238338470459,7.901566028594971
1701910852953729500,9.1377294921875,0.6695196628570557,-5.785323143005371,7.894168853759766
1701910852970733600,9.154733642578124,0.7106267809867859,-5.770962238311768,7.9010844230651855
1701910852987725600,9.1717255859375,0.6928412914276123,-5.7286882400512695,7.933362007141113
1701910853004717300,9.18871728515625,0.6453648209571838,-5.6639628410339355,7.9836812019348145
1701910853021710300,9.20571044921875,0.5775932669639587,-5.574951171875,8.051236152648926
1701910853038705400,9.222705322265625,0.44145721197128296,-5.4370646476745605,8.153501510620117
1701910853055696400,9.2396962890625,0.2627522349357605,-5.295441627502441,8.253809928894043
1701910853072690000,9.25668994140625,0.1321078985929489,-5.218919277191162,8.305514335632324
1701910853089682400,9.273682373046874,0.08358770608901978,-5.178874492645264,8.331170082092285
1701910853106673000,9.2906728515625,0.04592988267540932,-5.086551666259766,8.388147354125977
1701910853123670300,9.307670166015624,-0.04042297229170799,-4.9151811599731445,8.489727973937988
1701910853140668000,9.32466796875,-0.17095330357551575,-4.692670822143555,8.613114356994629
1701910853157647600,9.341647705078126,-0.3011690378189087,-4.448757648468018,8.738076210021973
1701910853174648300,9.3586484375,-0.3922721743583679,-4.199816703796387,8.85684871673584
1701910853191639800,9.375639892578125,-0.4424205422401428,-3.942073106765747,8.972203254699707
1701910853208632000,9.392632080078124,-0.4664970338344574,-3.660358428955078,9.089570999145508
1701910853225624300,9.409624267578126,-0.4799681305885315,-3.352665901184082,9.206812858581543
1701910853242615300,9.426615234375,-0.49764513969421387,-3.0283403396606445,9.317599296569824
1701910853259602200,9.443602294921876,-0.5231273174285889,-2.7014896869659424,9.416177749633789
1701910853276603400,9.460603271484375,-0.5533775687217712,-2.3829050064086914,9.50008773803711
1701910853293593000,9.477593017578124,-0.5917654633522034,-2.0777740478515625,9.569157600402832
1701910853310591700,9.494591796875,-0.6421789526939392,-1.7743651866912842,9.626805305480957
1701910853327581200,9.511581298828125,-0.711026132106781,-1.4603477716445923,9.674603462219238
1701910853344567300,9.5285673828125,-0.794590175151825,-1.132264256477356,9.71198844909668
1701910853361567500,9.5455673828125,-0.8818623423576355,-0.8058282136917114,9.736994743347168
1701910853378549200,9.56254931640625,-0.9584453701972961,-0.5042822957038879,9.750035285949707
1701910853395554600,9.579554443359376,-1.012091040611267,-0.23676809668540955,9.754779815673828
1701910853412542500,9.59654248046875,-1.030945897102356,-0.009061138145625591,9.755674362182617
1701910853429537300,9.613537353515625,-1.0333455801010132,0.18496644496917725,9.75367259979248
1701910853446518300,9.630518310546876,-1.059314489364624,0.35990169644355774,9.745996475219727
1701910853463512600,9.6475126953125,-1.1329957246780396,0.5054318904876709,9.731236457824707
1701910853480516400,9.664516357421874,-1.245557427406311,0.5705066919326782,9.713869094848633
1701910853497511400,9.681511474609374,-1.3768277168273926,0.511646568775177,9.699418067932129
1701910853514502000,9.698501953125,-1.5158601999282837,0.36485838890075684,9.68530559539795
1701910853531493600,9.71549365234375,-1.6394939422607422,0.20995891094207764,9.669751167297363
1701910853548486100,9.732486083984375,-1.6968402862548828,0.08900047093629837,9.661726951599121
1701910853565492500,9.749492431640626,-1.6199314594268799,-0.020048057660460472,9.675305366516113
1701910853582473200,9.76647314453125,-1.3817462921142578,-0.1719999462366104,9.710680961608887
1701910853599465200,9.78346533203125,-1.0414718389511108,-0.43888646364212036,9.744682312011719
1701910853616456000,9.8004560546875,-0.7252968549728394,-0.8555734157562256,9.745668411254883
1701910853633453800,9.817453857421874,-0.5163623690605164,-1.3830723762512207,9.698278427124023
1701910853650444000,9.834444091796875,-0.43275126814842224,-1.9508943557739258,9.604314804077148
1701910853667432200,9.85143212890625,-0.4418097734451294,-2.508989095687866,9.473432540893555
1701910853684433700,9.86843359375,-0.4904291033744812,-3.035954713821411,9.31550121307373
1701910853701422000,9.885422119140625,-0.5285231471061707,-3.524242639541626,9.139829635620117
1701910853718417000,9.9024169921875,-0.549485981464386,-3.9899790287017822,8.945069313049316
1701910853735401700,9.919401611328125,-0.5540018081665039,-4.438877582550049,8.73072624206543
1701910853752402000,9.93640185546875,-0.5329573750495911,-4.849366664886475,8.510917663574219
1701910853769395000,9.95339501953125,-0.4917561113834381,-5.173858642578125,8.320186614990234
1701910853786374400,9.97037451171875,-0.4376688003540039,-5.395659446716309,8.18116283416748
1701910853803370200,9.987370361328125,-0.39663711190223694,-5.545136451721191,8.082715034484863
1701910853820373500,10.00437353515625,-0.38162440061569214,-5.660730838775635,8.002911567687988
1701910853837353500,10.021353515625,-0.38604840636253357,-5.769948482513428,7.924314975738525
1701910853854356500,10.0383564453125,-0.38249269127845764,-5.889791965484619,7.835827827453613
1701910853871350500,10.0553505859375,-0.35706666111946106,-6.021312713623047,7.736435413360596
1701910853888343300,10.07234326171875,-0.30946624279022217,-6.136537551879883,7.647433757781982
1701910853905335300,10.089335205078125,-0.23939086496829987,-6.208618640899658,7.59156608581543
1701910853922327800,10.106327880859375,-0.16908511519432068,-6.2315568923950195,7.574643135070801
1701910853939322000,10.123322021484375,-0.14068518579006195,-6.216716289520264,7.587408542633057
1701910853956313600,10.140313720703125,-0.15294504165649414,-6.188749313354492,7.610001087188721
1701910853973306400,10.157306396484374,-0.15522019565105438,-6.17136287689209,7.624061584472656
1701910853990300200,10.174300048828124,-0.1513575166463852,-6.155794143676758,7.636715888977051
1701910854007281200,10.19128125,-0.1900280863046646,-6.120534420013428,7.6641411781311035
1701910854024285200,10.20828515625,-0.2525137662887573,-6.105385780334473,7.674415111541748
1701910854041277400,10.22527734375,-0.2957024872303009,-6.1641459465026855,7.625746250152588
1701910854058267400,10.242267333984374,-0.32037657499313354,-6.270857810974121,7.537229061126709
1701910854075261400,10.259261474609374,-0.36959317326545715,-6.353031158447266,7.465822696685791
1701910854092254000,10.27625390625,-0.46433091163635254,-6.363164901733398,7.4518890380859375
1701910854109251000,10.2932509765625,-0.5698100328445435,-6.286218643188477,7.509654998779297
1701910854126231300,10.310231201171876,-0.6566709876060486,-6.129179000854492,7.631386756896973
1701910854143234300,10.327234375,-0.7176322937011719,-5.910501480102539,7.796607494354248
1701910854160224800,10.344224853515625,-0.7479782104492188,-5.653687000274658,7.9820098876953125
1701910854177219300,10.36121923828125,-0.7501691579818726,-5.37249231338501,8.17371940612793
1701910854194212900,10.378212890625,-0.7278070449829102,-5.071061134338379,8.366047859191895
1701910854211202600,10.39520263671875,-0.689056396484375,-4.746751308441162,8.557435035705566
1701910854228191200,10.412191162109375,-0.6525355577468872,-4.398950099945068,8.74411678314209
1701910854245188400,10.429188232421875,-0.6351038217544556,-4.033498287200928,8.919845581054688
1701910854262185000,10.44618505859375,-0.6467421054840088,-3.6643311977386475,9.076922416687012
1701910854279176200,10.46317626953125,-0.6913335919380188,-3.3089101314544678,9.209196090698242
1701910854296167700,10.480167724609375,-0.764468252658844,-2.9777238368988037,9.315839767456055
1701910854313163300,10.497163330078125,-0.8598997592926025,-2.6754558086395264,9.398863792419434
1701910854330153700,10.51415380859375,-0.9753553867340088,-2.412055492401123,9.458690643310547
1701910854347136300,10.53113623046875,-1.1080646514892578,-2.1960866451263428,9.496603965759277
1701910854364131800,10.5481318359375,-1.241885781288147,-2.0379159450531006,9.515287399291992
1701910854381122300,10.565122314453125,-1.3524842262268066,-1.927757740020752,9.523165702819824
1701910854398116400,10.582116455078125,-1.44778573513031,-1.8466377258300781,9.525226593017578
1701910854415111000,10.59911083984375,-1.5433869361877441,-1.798585295677185,9.519410133361816
1701910854432103400,10.616103515625,-1.652998447418213,-1.784691333770752,9.503608703613281
1701910854449097000,10.633096923828125,-1.7837539911270142,-1.7942179441452026,9.478140830993652
1701910854466086400,10.65008642578125,-1.9227811098098755,-1.7872670888900757,9.452235221862793
1701910854483091700,10.667091796875,-2.019904136657715,-1.7441867589950562,9.440019607543945
1701910854500082700,10.684082763671874,-2.023792266845703,-1.7136362791061401,9.444777488708496
1701910854517074700,10.70107470703125,-1.9045294523239136,-1.7663103342056274,9.459864616394043
1701910854534068000,10.71806787109375,-1.679732322692871,-1.9336727857589722,9.469717979431152
1701910854551060700,10.735060791015625,-1.4229624271392822,-2.159804344177246,9.46290397644043
1701910854568050700,10.75205078125,-1.1784663200378418,-2.384702205657959,9.442485809326172
1701910854585046000,10.7690458984375,-0.980804979801178,-2.5975327491760254,9.4088773727417
1701910854602036500,10.786036376953126,-0.8257827162742615,-2.823903799057007,9.358407020568848
1701910854619034000,10.8030341796875,-0.696150541305542,-3.081879138946533,9.287278175354004
1701910854636016000,10.82001611328125,-0.5909649729728699,-3.362517833709717,9.196758270263672
1701910854653016800,10.837016845703126,-0.5131829380989075,-3.6471445560455322,9.092366218566895
1701910854670010600,10.8540107421875,-0.4541205167770386,-3.9144363403320312,8.983713150024414
1701910854687002600,10.871002685546875,-0.40219196677207947,-4.153182029724121,8.878368377685547
1701910854703996000,10.887995849609375,-0.34653642773628235,-4.35613489151001,8.782943725585938
1701910854720988200,10.90498828125,-0.2830859422683716,-4.518698692321777,8.70272159576416
1701910854737981700,10.921981689453125,-0.2085970938205719,-4.653511047363281,8.63350772857666
1701910854754972700,10.93897265625,-0.11996849626302719,-4.771849632263184,8.570365905761719
1701910854771967500,10.955967529296874,-0.02914544753730297,-4.8819355964660645,8.508934020996094
1701910854788954000,10.9729541015625,0.04252738505601883,-4.9815192222595215,8.45096206665039
1701910854805952500,10.989952392578125,0.08945830911397934,-5.060192108154297,8.403724670410156
1701910854822945000,11.006945068359375,0.11810615658760071,-5.117587566375732,8.368539810180664
1701910854839938000,11.02393798828125,0.1495659351348877,-5.1602253913879395,8.341812133789062
1701910854856932400,11.040932373046875,0.19470643997192383,-5.194581031799316,8.319525718688965
1701910854873921500,11.057921630859376,0.25442230701446533,-5.218958854675293,8.302640914916992
1701910854890915300,11.074915283203126,0.3068805932998657,-5.213181972503662,8.304498672485352
1701910854907910100,11.09191015625,0.33477768301963806,-5.17089319229126,8.329819679260254
1701910854924901400,11.1089013671875,0.32678744196891785,-5.117641448974609,8.362958908081055
1701910854941892900,11.125892822265625,0.24783658981323242,-5.069633483886719,8.394851684570312
1701910854958889000,11.142888916015625,0.08933376520872116,-5.042141914367676,8.414566993713379
1701910854975880200,11.159880126953125,-0.06578468531370163,-5.073694229125977,8.395798683166504
1701910854992872400,11.17687255859375,-0.14504311978816986,-5.1496992111206055,8.348394393920898
1701910855009865700,11.19386572265625,-0.17098253965377808,-5.185251235961914,8.32586669921875
1701910855026847700,11.21084765625,-0.19721080362796783,-5.12895393371582,8.360087394714355
1701910855043851300,11.227851318359376,-0.22000910341739655,-4.999563694000244,8.437539100646973
1701910855060843500,11.244843505859375,-0.2116873413324356,-4.838408470153809,8.531184196472168
1701910855077831000,11.261830810546876,-0.17370909452438354,-4.681302070617676,8.619244575500488
1701910855094826500,11.278826416015624,-0.12298800051212311,-4.547865867614746,8.691254615783691
1701910855111822600,11.295822509765625,-0.07234000414609909,-4.436830997467041,8.7490234375
1701910855128814800,11.31281494140625,-0.0259093064814806,-4.333724498748779,8.800812721252441
1701910855145808000,11.329807861328124,0.010985457338392735,-4.222017288208008,8.854974746704102
1701910855162800400,11.34680029296875,0.03579285368323326,-4.0934247970581055,8.915082931518555
1701910855179793400,11.36379345703125,0.04248236119747162,-3.9473793506622314,8.980674743652344
1701910855196785700,11.38078564453125,0.03151737153530121,-3.7885727882385254,9.048858642578125
1701910855213779200,11.397779296875,0.0038082916289567947,-3.6221823692321777,9.116791725158691
1701910855230771000,11.41477099609375,-0.047968219965696335,-3.441732406616211,9.186310768127441
1701910855247764500,11.431764404296874,-0.13194096088409424,-3.23482608795166,9.260376930236816
1701910855264745500,11.448745361328125,-0.23775188624858856,-2.99311900138855,9.33920955657959
1701910855281748000,11.465748046875,-0.3455081880092621,-2.7108423709869385,9.421682357788086
1701910855298745300,11.482745361328124,-0.42821618914604187,-2.40246844291687,9.501626014709473
1701910855315728400,11.499728271484376,-0.4627515971660614,-2.0956568717956543,9.572366714477539
1701910855332727000,11.51672705078125,-0.4407736659049988,-1.8123095035552979,9.631063461303711
1701910855349722000,11.53372216796875,-0.3692879378795624,-1.564463496208191,9.677408218383789
1701910855366713300,11.55071337890625,-0.2872503399848938,-1.3318233489990234,9.714929580688477
1701910855383704300,11.567704345703126,-0.25721755623817444,-1.078352928161621,9.747159004211426
1701910855400701700,11.58470166015625,-0.2719019651412964,-0.8378109931945801,9.770377159118652
1701910855417692000,11.60169189453125,-0.28678080439567566,-0.6749827265739441,9.782549858093262
1701910855434684200,11.61868408203125,-0.2838720977306366,-0.6196625232696533,9.786294937133789
1701910855451676700,11.6356767578125,-0.28718191385269165,-0.6583883166313171,9.783669471740723
1701910855468670700,11.652670654296875,-0.3312588036060333,-0.7824329137802124,9.773136138916016
1701910855485663200,11.669663330078125,-0.380032479763031,-1.0312811136245728,9.748237609863281
1701910855502655700,11.68665576171875,-0.364263117313385,-1.4212123155593872,9.699670791625977
1701910855519648800,11.703648681640624,-0.252000093460083,-1.8949414491653442,9.621944427490234
1701910855536640800,11.720640869140626,-0.09456497430801392,-2.3629231452941895,9.520702362060547
1701910855553634000,11.737634033203125,0.019033271819353104,-2.795522689819336,9.403234481811523
1701910855570626600,11.75462646484375,0.05170575901865959,-3.204869270324707,9.27158260345459
1701910855587616800,11.77161669921875,0.014939052052795887,-3.6100351810455322,9.121599197387695
1701910855604601300,11.788601318359374,-0.05912763252854347,-4.031176567077637,8.943280220031738
1701910855621602800,11.805602783203126,-0.14008116722106934,-4.46794319152832,8.732353210449219
1701910855638600200,11.82260009765625,-0.21131955087184906,-4.885111331939697,8.504536628723145
1701910855655579100,11.8395791015625,-0.2504356801509857,-5.153810501098633,8.343358039855957
1701910855672572000,11.856572021484375,-0.2786683738231659,-5.507138729095459,8.11356258392334
1701910855689574700,11.87357470703125,-0.2779310345649719,-5.732694625854492,7.955821514129639
1701910855706572800,11.89057275390625,-0.26124951243400574,-5.918120384216309,7.819444179534912
1701910855723562000,11.90756201171875,-0.23689410090446472,-6.0684494972229,7.7041497230529785
1701910855740551400,11.924551513671876,-0.21557924151420593,-6.185330390930176,7.611264228820801
1701910855757547300,11.94154736328125,-0.20040571689605713,-6.271424293518066,7.5409016609191895
1701910855774534100,11.9585341796875,-0.19182902574539185,-6.327938556671143,7.493764400482178
1701910855791526700,11.975526611328124,-0.1819261759519577,-6.357293128967285,7.4691267013549805
1701910855808517000,11.99251708984375,-0.1637214571237564,-6.3678297996521,7.460566997528076
1701910855825507600,12.009507568359375,-0.1443437933921814,-6.359226703643799,7.4683027267456055
1701910855842501600,12.026501708984375,-0.13829776644706726,-6.326017379760742,7.496564865112305
1701910855859498000,12.043498046875,-0.15696384012699127,-6.261307716369629,7.5503315925598145
1701910855876492500,12.060492431640625,-0.1769993156194687,-6.163589000701904,7.629872798919678
1701910855893482200,12.077482177734375,-0.18216124176979065,-6.04427433013916,7.724614143371582
1701910855910474800,12.094474853515624,-0.22447636723518372,-5.9037251472473145,7.831459999084473
1701910855927465700,12.1114658203125,-0.3574753999710083,-5.741538047790527,7.946260929107666
1701910855944458500,12.12845849609375,-0.5404341816902161,-5.607547760009766,8.031155586242676
1701910855961462800,12.145462890625,-0.663901686668396,-5.538687705993652,8.069592475891113
1701910855978450000,12.162449951171874,-0.6857725977897644,-5.466813564300537,8.116636276245117
1701910855995446300,12.1794462890625,-0.6448432207107544,-5.303936958312988,8.22730541229248
1701910856012438500,12.1964384765625,-0.5685955286026001,-5.042002201080322,8.395893096923828
1701910856029423600,12.213423583984374,-0.46618741750717163,-4.723114490509033,8.58551025390625
1701910856046424000,12.230424072265626,-0.3485133647918701,-4.3893280029296875,8.766324996948242
1701910856063404800,12.24740478515625,-0.24919898808002472,-4.071492671966553,8.921713829040527
1701910856080415200,12.264415283203125,-0.18847273290157318,-3.772096633911133,9.053833961486816
1701910856097396700,12.281396728515626,-0.16264411807060242,-3.4836783409118652,9.169167518615723
1701910856114395100,12.29839501953125,-0.15631654858589172,-3.2017295360565186,9.271493911743164
1701910856131388400,12.315388427734375,-0.15423814952373505,-2.9277703762054443,9.361651420593262
1701910856148377300,12.33237744140625,-0.14537639915943146,-2.6673569679260254,9.439290046691895
1701910856165373000,12.349373046875,-0.12344525009393692,-2.419246196746826,9.50621509552002
1701910856182367000,12.366366943359376,-0.09309586137533188,-2.182410478591919,9.56371021270752
1701910856199348700,12.3833486328125,-0.06618142127990723,-1.9489449262619019,9.614225387573242
1701910856216351700,12.400351806640625,-0.05460480973124504,-1.7027109861373901,9.660947799682617
1701910856233344800,12.4173447265625,-0.07863277196884155,-1.4439021348953247,9.702838897705078
1701910856250337300,12.434337158203125,-0.13895411789417267,-1.193229079246521,9.736170768737793
1701910856267330600,12.45133056640625,-0.2125302255153656,-0.9759830832481384,9.759016036987305
1701910856284322600,12.468322509765626,-0.27480512857437134,-0.8121060729026794,9.772464752197266
1701910856301316400,12.48531640625,-0.3273905813694,-0.6994225978851318,9.779558181762695
1701910856318308000,12.50230810546875,-0.4023258686065674,-0.6141055822372437,9.782491683959961
1701910856335301400,12.51930126953125,-0.520398736000061,-0.526076078414917,9.782052993774414
1701910856352292900,12.53629296875,-0.6738206148147583,-0.4502335786819458,9.776471138000488
1701910856369288000,12.553287841796875,-0.8203506469726562,-0.43034982681274414,9.766162872314453
1701910856386268700,12.5702685546875,-0.9158850908279419,-0.48738327622413635,9.754984855651855
1701910856403272700,12.587272705078124,-0.9446636438369751,-0.6322205662727356,9.743922233581543
1701910856420264700,12.6042646484375,-0.9388634562492371,-0.8617328405380249,9.726873397827148
1701910856437258200,12.62125830078125,-0.9281200766563416,-1.1790083646774292,9.69456958770752
1701910856454250200,12.638250244140625,-0.8914048671722412,-1.5935189723968506,9.638580322265625
1701910856471243800,12.655243896484375,-0.8100382089614868,-2.0993621349334717,9.548436164855957
1701910856488232700,12.672232666015624,-0.7069430351257324,-2.6450512409210205,9.420193672180176
1701910856505229000,12.68922900390625,-0.6201112866401672,-3.172076940536499,9.262263298034668
1701910856522221300,12.70622119140625,-0.5691919922828674,-3.649534225463867,9.088072776794434
1701910856539214800,12.72321484375,-0.5478730201721191,-4.070601940155029,8.908769607543945
1701910856556207000,12.74020703125,-0.534245491027832,-4.442871570587158,8.729925155639648
1701910856573191000,12.75719091796875,-0.5182106494903564,-4.781313419342041,8.550239562988281
1701910856590192600,12.774192626953125,-0.49729636311531067,-5.081491470336914,8.37658977508545
1701910856607188700,12.791188720703126,-0.47268834710121155,-5.325420379638672,8.225118637084961
1701910856624178000,12.808177978515625,-0.4434130787849426,-5.508092403411865,8.10558032989502
1701910856641168100,12.825168212890626,-0.4098547399044037,-5.630758285522461,8.022636413574219
1701910856658167600,12.84216748046875,-0.37550821900367737,-5.699967861175537,7.9753031730651855
1701910856675151400,12.8591513671875,-0.3477128744125366,-5.7360005378723145,7.950693130493164
1701910856692150000,12.87614990234375,-0.3271581530570984,-5.755659103393555,7.937347888946533
1701910856709142500,12.893142578125,-0.3077576756477356,-5.7658843994140625,7.930698871612549
1701910856726125300,12.910125244140625,-0.2782233953475952,-5.763443946838379,7.933563232421875
1701910856743127800,12.9271279296875,-0.2364467978477478,-5.742761611938477,7.9499006271362305
1701910856760120000,12.9441201171875,-0.18406100571155548,-5.70590353012085,7.977776050567627
1701910856777113300,12.96111328125,-0.13133198022842407,-5.669254779815674,8.004899978637695
1701910856794103600,12.978103515625,-0.07733937352895737,-5.646521091461182,8.02165412902832
1701910856811096800,12.995096923828125,-0.024907385930418968,-5.633566856384277,8.031092643737793
1701910856828095700,13.012095703125,0.024563569575548172,-5.610023021697998,8.047555923461914
1701910856845072000,13.02907177734375,0.06536661088466644,-5.551641941070557,8.087714195251465
1701910856862074000,13.04607421875,0.07769020646810532,-5.453094959259033,8.154375076293945
1701910856879072800,13.06307275390625,0.0670260488986969,-5.341364860534668,8.22808837890625
1701910856896062500,13.0800625,0.05658292397856712,-5.2433013916015625,8.291001319885254
1701910856913055700,13.0970556640625,0.04127023369073868,-5.143952369689941,8.353095054626465
1701910856930048000,13.114048095703126,-0.024656539782881737,-5.009016513824463,8.434765815734863
1701910856947041000,13.131041015625,-0.12368089705705643,-4.83929967880249,8.532408714294434
1701910856964033300,13.148033203125,-0.19270668923854828,-4.654791831970215,8.633185386657715
1701910856981023700,13.165023681640625,-0.21665923297405243,-4.440282344818115,8.744888305664062
1701910856998010600,13.1820107421875,-0.21783043444156647,-4.175986289978027,8.874109268188477
1701910857015012400,13.199012451171875,-0.20773813128471375,-3.883329153060913,9.00625991821289
1701910857032004000,13.216004150390624,-0.19283416867256165,-3.591249704360962,9.126985549926758
1701910857048998000,13.232997802734374,-0.1845504194498062,-3.3091695308685303,9.233172416687012
1701910857065990000,13.249989990234376,-0.1885826587677002,-3.0381898880004883,9.325767517089844
1701910857082983000,13.26698291015625,-0.20284926891326904,-2.774982213973999,9.407148361206055
1701910857099975200,13.28397509765625,-0.21702350676059723,-2.517930269241333,9.478875160217285
1701910857116969000,13.300968994140625,-0.21216271817684174,-2.2656750679016113,9.542423248291016
1701910857133961200,13.317961181640625,-0.18374525010585785,-2.0253031253814697,9.59689998626709
1701910857150953500,13.334953369140624,-0.14365088939666748,-1.7954975366592407,9.643218994140625
1701910857167937300,13.351937255859376,-0.11156400293111801,-1.571499228477478,9.68266773223877
1701910857184939000,13.36893896484375,-0.10435467958450317,-1.3507112264633179,9.716009140014648
1701910857201930200,13.38593017578125,-0.12649165093898773,-1.132215976715088,9.743624687194824
1701910857218928000,13.40292822265625,-0.1690424233675003,-0.9185456037521362,9.765439987182617
1701910857235917600,13.41991748046875,-0.21462030708789825,-0.7092629075050354,9.78197193145752
1701910857252909800,13.436909912109375,-0.26399362087249756,-0.501838743686676,9.793599128723145
1701910857269904100,13.453904052734375,-0.3104693293571472,-0.29686665534973145,9.800593376159668
1701910857286896400,13.470896484375,-0.35272014141082764,-0.10225289314985275,9.80312442779541
1701910857303889200,13.48788916015625,-0.38243481516838074,0.061225611716508865,9.802350044250488
1701910857320868600,13.50486865234375,-0.38914769887924194,0.1811017245054245,9.800607681274414
1701910857337876700,13.521876708984376,-0.38000908493995667,0.2720896601676941,9.798860549926758
1701910857354867200,13.5388671875,-0.37626922130584717,0.3490349352359772,9.796566009521484
1701910857371844000,13.555843994140625,-0.3811069130897522,0.41537919640541077,9.793790817260742
1701910857388852200,13.572852294921875,-0.37313657999038696,0.4657857120037079,9.791830062866211
1701910857405845200,13.58984521484375,-0.3363263010978699,0.4890754520893097,9.79202938079834
1701910857422828000,13.606828125,-0.27101173996925354,0.46860817074775696,9.795053482055664
1701910857439831000,13.6238310546875,-0.21041323244571686,0.3963026702404022,9.799734115600586
1701910857456813300,13.640813232421875,-0.19529730081558228,0.2781669795513153,9.80411148071289
1701910857473816300,13.65781640625,-0.21646276116371155,0.14201074838638306,9.806583404541016
1701910857490809300,13.674809326171875,-0.239386186003685,-0.006574317347258329,9.807076454162598
1701910857507798800,13.691798828125,-0.2030898928642273,-0.25689831376075745,9.804533004760742
1701910857524787500,13.708787353515625,-0.07341209053993225,-0.6445348262786865,9.788529396057129
1701910857541784800,13.725784912109376,0.11224783211946487,-1.110619306564331,9.746284484863281
1701910857558783200,13.742783203125,0.2978624403476715,-1.5649415254592896,9.679791450500488
1701910857575769900,13.759769775390625,0.42442426085472107,-1.963800072669983,9.602057456970215
1701910857592766200,13.77676611328125,0.4624042510986328,-2.321523666381836,9.520127296447754
1701910857609758500,13.793758544921875,0.4368627369403839,-2.6756300926208496,9.427952766418457
1701910857626750700,13.810750732421875,0.38964736461639404,-3.061333656311035,9.311957359313965
1701910857643744800,13.827744873046875,0.34311988949775696,-3.483156442642212,9.164389610290527
1701910857660737300,13.8447373046875,0.3038084805011749,-3.901942253112793,8.995479583740234
1701910857677731000,13.86173095703125,0.2771381437778473,-4.254940032958984,8.83486270904541
1701910857694720500,13.878720458984375,0.25232255458831787,-4.5240254402160645,8.700900077819824
1701910857711713300,13.89571337890625,0.22277775406837463,-4.738138198852539,8.58699893951416
1701910857728711000,13.9127109375,0.19373346865177155,-4.92970609664917,8.4791841506958
1701910857745700400,13.929700439453125,0.18190337717533112,-5.112164497375488,8.370713233947754
1701910857762692900,13.94669287109375,0.1944667100906372,-5.2838969230651855,8.263094902038574
1701910857779686700,13.963686767578125,0.23283788561820984,-5.411261081695557,8.179251670837402
1701910857796679400,13.980679443359374,0.2907148003578186,-5.487928867340088,8.12614631652832
1701910857813671700,13.997671630859376,0.3508206605911255,-5.539292335510254,8.088835716247559
1701910857830655000,14.014655029296875,0.3998168408870697,-5.588804244995117,8.052423477172852
1701910857847647500,14.0316474609375,0.42196959257125854,-5.642498970031738,8.013754844665527
1701910857864640000,14.048639892578125,0.42630237340927124,-5.686346530914307,7.9824724197387695
1701910857881632300,14.06563232421875,0.4375167489051819,-5.694803714752197,7.975831508636475
1701910857898627300,14.08262744140625,0.442778080701828,-5.655187606811523,8.003681182861328
1701910857915620600,14.09962060546875,0.43337926268577576,-5.584506511688232,8.053668975830078
1701910857932613000,14.116613037109374,0.4249347150325775,-5.514563083648682,8.10216999053955
1701910857949605000,14.133605224609376,0.3575513958930969,-5.4344329833984375,8.159363746643066
1701910857966609000,14.15060888671875,0.2137484848499298,-5.330813407897949,8.232427597045898
1701910857983599400,14.167599365234375,0.09814785420894623,-5.213758945465088,8.309225082397461
1701910858000595000,14.184594970703126,0.0573512464761734,-5.032129287719727,8.420836448669434
1701910858017579300,14.201579345703125,0.04344306141138077,-4.730806827545166,8.593817710876465
1701910858034578200,14.218578125,0.0016565162222832441,-4.340986728668213,8.797269821166992
1701910858051574800,14.23557470703125,-0.07615121454000473,-3.9249305725097656,8.990285873413086
1701910858068565800,14.252565673828125,-0.16940027475357056,-3.521841526031494,9.154455184936523
1701910858085554700,14.2695546875,-0.24177652597427368,-3.1345722675323486,9.292584419250488
1701910858102545200,14.286545166015625,-0.28482314944267273,-2.7390286922454834,9.415557861328125
1701910858119532800,14.30353271484375,-0.30292436480522156,-2.3247241973876953,9.525755882263184
1701910858136534500,14.320534423828125,-0.30668121576309204,-1.8972502946853638,9.619902610778809
1701910858153524500,14.3375244140625,-0.30029839277267456,-1.4713767766952515,9.694378852844238
1701910858170519600,14.35451953125,-0.28126394748687744,-1.0618032217025757,9.748311996459961
1701910858187503600,14.371503662109374,-0.25152209401130676,-0.6823425889015198,9.783008575439453
1701910858204505600,14.388505615234376,-0.21864436566829681,-0.337753027677536,9.801746368408203
1701910858221498400,14.405498291015626,-0.1959378719329834,-0.026018064469099045,9.808008193969727
1701910858238491100,14.4224912109375,-0.1990140825510025,0.25786134600639343,9.80459213256836
1701910858255483400,14.4394833984375,-0.23899149894714355,0.5169005990028381,9.793456077575684
1701910858272475600,14.4564755859375,-0.3161846995353699,0.7490692734718323,9.776248931884766
1701910858289461800,14.473461669921875,-0.42802995443344116,0.9488794803619385,9.754616737365723
1701910858306462200,14.490462158203124,-0.5646793842315674,1.1141244173049927,9.730158805847168
1701910858323452200,14.5074521484375,-0.7141509056091309,1.2415589094161987,9.704875946044922
1701910858340449000,14.524448974609374,-0.859961748123169,1.3272782564163208,9.681679725646973
1701910858357441500,14.541441650390626,-0.993509829044342,1.3692326545715332,9.663036346435547
1701910858374433300,14.558433349609375,-1.1178046464920044,1.3803625106811523,9.647860527038574
1701910858391425300,14.57542529296875,-1.2318499088287354,1.3719755411148071,9.635162353515625
1701910858408415700,14.592415771484376,-1.3155966997146606,1.3286924362182617,9.630156517028809
1701910858425424000,14.609423828125,-1.3712300062179565,1.226214051246643,9.635987281799316
1701910858442404400,14.626404296875,-1.410723328590393,1.042772650718689,9.651869773864746
1701910858459396600,14.643396728515626,-1.4311364889144897,0.782819390296936,9.673425674438477
1701910858476389600,14.6603896484375,-1.4048175811767578,0.46955570578575134,9.697531700134277
1701910858493382100,14.677382080078125,-1.292985439300537,0.11500567197799683,9.723736763000488
1701910858510375400,14.69437548828125,-1.089713454246521,-0.25922608375549316,9.745841979980469
1701910858527367700,14.71136767578125,-0.8639542460441589,-0.6384695172309875,9.75100326538086
1701910858544361000,14.72836083984375,-0.7001789808273315,-1.0185297727584839,9.731826782226562
1701910858561343000,14.745343017578126,-0.6376792192459106,-1.3928228616714478,9.689661026000977
1701910858578346500,14.762346435546876,-0.6591648459434509,-1.7639561891555786,9.627568244934082
1701910858595335000,14.7793349609375,-0.7286145687103271,-2.1302309036254883,9.5481595993042
1701910858612333000,14.7963330078125,-0.8189336061477661,-2.486562490463257,9.454229354858398
1701910858629324300,14.81332421875,-0.9113038182258606,-2.8232569694519043,9.350661277770996
1701910858646318300,14.830318359375,-1.0002528429031372,-3.1333670616149902,9.242165565490723
1701910858663309600,14.8473095703125,-1.0850415229797363,-3.4166879653930664,9.131542205810547
1701910858680303000,14.86430322265625,-1.1674755811691284,-3.6779770851135254,9.019182205200195
1701910858697295000,14.881295166015626,-1.2447214126586914,-3.9155571460723877,8.908154487609863
1701910858714288400,14.898288330078126,-1.3097267150878906,-4.1254353523254395,8.803494453430176
1701910858731281200,14.91528125,-1.3568722009658813,-4.305240631103516,8.709761619567871
1701910858748274000,14.93227392578125,-1.3890020847320557,-4.459273815155029,8.626799583435059
1701910858765266200,14.94926611328125,-1.412278652191162,-4.597443580627441,8.550151824951172
1701910858782267100,14.96626708984375,-1.4269077777862549,-4.724330425262451,8.478250503540039
1701910858799252500,14.98325244140625,-1.4298354387283325,-4.842306613922119,8.410930633544922
1701910858816245200,15.000245361328124,-1.4090428352355957,-4.9507365226745605,8.351102828979492
1701910858833237500,15.017237548828126,-1.364531397819519,-5.041962623596191,8.303780555725098
1701910858850230800,15.034230712890626,-1.3043221235275269,-5.1210174560546875,8.26498794555664
1701910858867222800,15.051222900390625,-1.2374165058135986,-5.194753170013428,8.229183197021484
1701910858884216000,15.068216064453125,-1.1683591604232788,-5.258749008178711,8.19857406616211
1701910858901206300,15.085206298828124,-1.0978037118911743,-5.305791854858398,8.177989959716797
1701910858918186200,15.102186279296875,-1.0155754089355469,-5.331737041473389,8.171740531921387
1701910858935189800,15.119189697265625,-0.914849579334259,-5.338183403015137,8.179423332214355
1701910858952192000,15.13619189453125,-0.7959920167922974,-5.33310604095459,8.195149421691895
1701910858969177000,15.153177001953125,-0.6764012575149536,-5.314801216125488,8.217755317687988
1701910858986164500,15.17016455078125,-0.576787531375885,-5.270409107208252,8.253861427307129
1701910859003165000,15.1871650390625,-0.49671632051467896,-5.206528663635254,8.299487113952637
1701910859020156200,15.20415625,-0.4173877239227295,-5.140255928039551,8.345039367675781
1701910859037152800,15.22115283203125,-0.3212945759296417,-5.070078372955322,8.392090797424316
1701910859054143500,15.2381435546875,-0.21605053544044495,-4.969504356384277,8.455381393432617
1701910859071125200,15.255125244140626,-0.11729924380779266,-4.803393840789795,8.552763938903809
1701910859088129300,15.27212939453125,-0.03348875790834427,-4.560666561126709,8.68535041809082
1701910859105111000,15.289111083984375,0.030723610892891884,-4.271381855010986,8.831222534179688
1701910859122115800,15.30611572265625,0.07642427831888199,-3.9740970134735107,8.968658447265625
1701910859139107000,15.323107177734375,0.10711748898029327,-3.6901352405548096,9.08887004852295
1701910859156097800,15.340097900390624,0.12024156004190445,-3.4117815494537354,9.19681453704834
1701910859173081900,15.357081787109376,0.1154889464378357,-3.3412857055664062,9.222721099853516
1701910859190076200,15.374076171875,0.08758369088172913,-2.8117775917053223,9.397997856140137
1701910859207080400,15.39108056640625,0.0695643275976181,-2.4936931133270264,9.487506866455078
1701910859224071700,15.40807177734375,0.05870721861720085,-2.1684794425964355,9.567151069641113
1701910859241064000,15.42506396484375,0.047035589814186096,-1.8449726104736328,9.634832382202148
1701910859258057000,15.442056884765625,0.026880821213126183,-1.5388487577438354,9.688517570495605
1701910859275042300,15.459042236328125,-0.01028466783463955,-1.2639037370681763,9.728236198425293
1701910859292034300,15.476034423828125,-0.07158629596233368,-1.019287347793579,9.756643295288086
1701910859309026300,15.4930263671875,-0.16139017045497894,-0.8016167283058167,9.775860786437988
1701910859326019300,15.510019287109374,-0.2739344537258148,-0.6168065667152405,9.786759376525879
1701910859343014000,15.527013916015624,-0.39502912759780884,-0.47235968708992004,9.790656089782715
1701910859360007700,15.544007568359374,-0.5095094442367554,-0.3740587532520294,9.789615631103516
1701910859376996600,15.56099658203125,-0.6139617562294006,-0.31925156712532043,9.785563468933105
1701910859393989000,15.577989013671875,-0.7149864435195923,-0.2941133379936218,9.779491424560547
1701910859410983400,15.5949833984375,-0.8182389140129089,-0.28625673055648804,9.771625518798828
1701910859427977000,15.61197705078125,-0.9246442317962646,-0.295224130153656,9.761865615844727
1701910859444978700,15.628978759765625,-1.0285521745681763,-0.3304961919784546,9.750332832336426
1701910859461967400,15.64596728515625,-1.1168006658554077,-0.400889128446579,9.737975120544434
1701910859478964700,15.66296484375,-1.1825976371765137,-0.5018423199653625,9.725521087646484
1701910859495952600,15.67995263671875,-1.221197485923767,-0.6269952058792114,9.713478088378906
1701910859512948000,15.696947998046875,-1.2413785457611084,-0.7617858648300171,9.701278686523438
1701910859529941200,15.713941162109375,-1.2645522356033325,-0.8905224800109863,9.687313079833984
1701910859546933500,15.73093359375,-1.3044342994689941,-1.0120431184768677,9.670075416564941
1701910859563926500,15.747926513671874,-1.3600202798843384,-1.1382654905319214,9.648358345031738
1701910859580917800,15.764917724609376,-1.411075234413147,-1.3074028491973877,9.619546890258789
1701910859597913000,15.7819130859375,-1.4196455478668213,-1.5682709217071533,9.57921028137207
1701910859614902300,15.79890234375,-1.3721579313278198,-1.9228572845458984,9.521341323852539
1701910859631900200,15.815900146484376,-1.302735686302185,-2.309279680252075,9.444905281066895
1701910859648890000,15.83289013671875,-1.2411118745803833,-2.65978741645813,9.360625267028809
1701910859665883100,15.849883056640625,-1.200114130973816,-2.936330795288086,9.282984733581543
1701910859682875000,15.866875,-1.1593953371047974,-3.1375691890716553,9.222125053405762
1701910859699869700,15.88386962890625,-1.102950930595398,-3.3054158687591553,9.170269012451172
1701910859716861000,15.90086083984375,-1.045920729637146,-3.4815008640289307,9.111603736877441
1701910859733854200,15.917854248046876,-1.0056304931640625,-3.6795716285705566,9.038006782531738
1701910859750847000,15.934846923828125,-0.988597571849823,-3.8879778385162354,8.952228546142578
1701910859767835600,15.951835693359374,-0.9790905714035034,-4.080257415771484,8.86729907989502
1701910859784828200,15.968828125,-0.9575652480125427,-4.237241744995117,8.795736312866211
1701910859801824800,15.98582470703125,-0.9138245582580566,-4.36668062210083,8.736885070800781
1701910859818805500,16.002805419921874,-0.8438783884048462,-4.482211589813232,8.685260772705078
1701910859835804200,16.01980419921875,-0.755453884601593,-4.596798896789551,8.633357048034668
1701910859852803000,16.036802978515624,-0.6600121259689331,-4.711477756500244,8.579188346862793
1701910859869796600,16.053796630859374,-0.5722699165344238,-4.807796478271484,8.531925201416016
1701910859886788600,16.07078857421875,-0.49425989389419556,-4.861970901489258,8.506060600280762
1701910859903781600,16.08778173828125,-0.4283360540866852,-4.878965377807617,8.499902725219727
1701910859920771300,16.104771240234374,-0.3637623190879822,-4.879621982574463,8.502532958984375
1701910859937767000,16.121766845703124,-0.28418871760368347,-4.877803802490234,8.506608963012695
1701910859954759400,16.138759521484374,-0.19250497221946716,-4.870665550231934,8.513264656066895
1701910859971753000,16.1557529296875,-0.10079488903284073,-4.850778579711914,8.526189804077148
1701910859988745500,16.172745361328126,-0.02258545532822609,-4.809169769287109,8.55029296875
1701910860005735400,16.1897353515625,0.03388519957661629,-4.743170738220215,8.587043762207031
1701910860022723800,16.206723876953124,0.06243598833680153,-4.663912296295166,8.630187034606934
1701910860039724000,16.22372412109375,0.07751011103391647,-4.5969157218933105,8.665936470031738
1701910860056716500,16.240716552734376,0.08609791845083237,-4.545360088348389,8.693009376525879
1701910860073709600,16.25770947265625,0.06930939108133316,-4.485354423522949,8.724271774291992
1701910860090691600,16.274691650390626,0.03638722375035286,-4.401914119720459,8.766865730285645
1701910860107684400,16.291684326171875,-0.022736314684152603,-4.293309688568115,8.82060718536377
1701910860124671000,16.3086708984375,-0.14324042201042175,-4.165493965148926,8.880556106567383
1701910860141681000,16.325680908203125,-0.3155210316181183,-4.051325798034668,8.928792953491211
1701910860158672600,16.342672607421875,-0.45984670519828796,-4.010735988616943,8.940842628479004
1701910860175666200,16.359666259765625,-0.48162466287612915,-4.064188003540039,8.915522575378418
1701910860192657400,16.376657470703126,-0.4427932798862457,-4.123623847961426,8.890207290649414
1701910860209649700,16.393649658203124,-0.4442749619483948,-4.111300468444824,8.89583969116211
1701910860226646500,16.410646484375,-0.5044732093811035,-4.011515140533447,8.938085556030273
1701910860243637000,16.427636962890624,-0.5563654899597168,-3.8453471660614014,9.007768630981445
1701910860260629800,16.444629638671874,-0.5559012293815613,-3.6484639644622803,9.089323997497559
1701910860277623000,16.461623046875,-0.5051047205924988,-3.4491209983825684,9.16976261138916
1701910860294612700,16.47861279296875,-0.4361058175563812,-3.2449965476989746,9.247482299804688
1701910860311609300,16.495609375,-0.379887193441391,-3.0277059078216553,9.323348045349121
1701910860328598500,16.5125986328125,-0.3582489788532257,-2.78353214263916,9.399985313415527
1701910860345593600,16.529593505859374,-0.38128000497817993,-2.502690315246582,9.477725982666016
1701910860362585900,16.5465859375,-0.4395422339439392,-2.196704387664795,9.550780296325684
1701910860379579100,16.5635791015625,-0.5153408646583557,-1.8872458934783936,9.612953186035156
1701910860396576300,16.580576171875,-0.5967235565185547,-1.5893206596374512,9.66199016571045
1701910860413565000,16.59756494140625,-0.6736998558044434,-1.3098517656326294,9.698787689208984
1701910860430557000,16.614556884765626,-0.7476747035980225,-1.0488694906234741,9.725069046020508
1701910860447550000,16.631550048828124,-0.8276857137680054,-0.805570662021637,9.741771697998047
1701910860464532000,16.648531982421876,-0.9397908449172974,-0.5859784483909607,9.747284889221191
1701910860481536000,16.665535888671876,-1.1225075721740723,-0.4046068787574768,9.737166404724121
1701910860498527700,16.68252783203125,-1.3425021171569824,-0.27386021614074707,9.713846206665039
1701910860515518200,16.699518310546875,-1.4734264612197876,-0.17134037613868713,9.697205543518066
1701910860532513500,16.716513427734377,-1.43729829788208,-0.0783737450838089,9.70382022857666
1701910860549506800,16.7335068359375,-1.2772663831710815,-0.001760596758686006,9.726496696472168
1701910860566499000,16.7504990234375,-1.130530595779419,0.05876890569925308,9.744462013244629
1701910860583492600,16.76749267578125,-1.0646557807922363,0.08702382445335388,9.751669883728027
1701910860600482000,16.78448193359375,-1.078157663345337,0.03464329242706299,9.750514030456543
1701910860617479400,16.8014794921875,-1.1425278186798096,-0.12891268730163574,9.742388725280762
1701910860634463500,16.81846337890625,-1.2152677774429321,-0.36878564953804016,9.727449417114258
1701910860651452200,16.8354521484375,-1.2387373447418213,-0.6319156289100647,9.710939407348633
1701910860668455700,16.85245556640625,-1.1782443523406982,-0.9224120378494263,9.695206642150879
1701910860685449000,16.869448974609377,-1.0169612169265747,-1.3174426555633545,9.667794227600098
1701910860702440200,16.886440185546874,-0.7882356643676758,-1.8297706842422485,9.605559349060059
1701910860719418400,16.90341845703125,-0.5388273596763611,-2.3814263343811035,9.501293182373047
1701910860736426500,16.920426513671874,-0.31596308946609497,-2.896320343017578,9.367368698120117
1701910860753419800,16.937419677734376,-0.1525164395570755,-3.3251283168792725,9.228021621704102
1701910860770402000,16.954402099609375,-0.05540821701288223,-3.670165777206421,9.097414016723633
1701910860787405600,16.971405517578123,0.007576237432658672,-3.972093105316162,8.969866752624512
1701910860804397800,16.988397705078125,0.06571978330612183,-4.264181137084961,8.834510803222656
1701910860821391000,17.00539111328125,0.1266416311264038,-4.563336372375488,8.683088302612305
1701910860838379800,17.0223798828125,0.19633401930332184,-4.853933334350586,8.522729873657227
1701910860855376600,17.039376708984374,0.27662593126296997,-5.0875396728515625,8.383110046386719
1701910860872368600,17.05636865234375,0.3599616289138794,-5.225116729736328,8.29486083984375
1701910860889362000,17.07336181640625,0.43725597858428955,-5.301408767700195,8.242572784423828
1701910860906354200,17.090354248046875,0.49217915534973145,-5.363810062408447,8.198989868164062
1701910860923347700,17.10734765625,0.5195561051368713,-5.4371724128723145,8.148825645446777
1701910860940338400,17.12433837890625,0.5276510119438171,-5.537629127502441,8.080368995666504
1701910860957334800,17.141334716796877,0.5237684845924377,-5.6658101081848145,7.991269588470459
1701910860974325200,17.1583251953125,0.5195420980453491,-5.810046195983887,7.887302875518799
1701910860991318500,17.175318603515624,0.5189111828804016,-5.946404457092285,7.785057544708252
1701910861008310800,17.192310791015625,0.5133984088897705,-6.05779504776001,7.699069499969482
1701910861025300200,17.20930029296875,0.5010640025138855,-6.147592067718506,7.628378868103027
1701910861042299100,17.226299072265626,0.4804590046405792,-6.2134575843811035,7.576161861419678
1701910861059287600,17.24328759765625,0.435930997133255,-6.235296726226807,7.560896873474121
1701910861076282000,17.2602822265625,0.36998260021209717,-6.202988624572754,7.590925693511963
1701910861093274600,17.277274658203126,0.2935977876186371,-6.119452953338623,7.661737442016602
1701910861110268200,17.29426806640625,0.2063327580690384,-5.993250846862793,7.7636637687683105
1701910861127260700,17.3112607421875,0.08406864106655121,-5.839245796203613,7.882401466369629
1701910861144253200,17.328253173828124,-0.062195081263780594,-5.683650493621826,7.995521545410156
1701910861161235700,17.345235595703127,-0.17653709650039673,-5.549124240875244,8.08777904510498
1701910861178238500,17.362238525390627,-0.24494805932044983,-5.407580852508545,8.181330680847168
1701910861195231700,17.379231689453125,-0.28839579224586487,-5.2170186042785645,8.302750587463379
1701910861212223200,17.39622314453125,-0.3238968849182129,-4.965793132781982,8.454117774963379
1701910861229218000,17.413218017578124,-0.35268622636795044,-4.6690473556518555,8.620424270629883
1701910861246199000,17.430198974609375,-0.3752243220806122,-4.3528594970703125,8.7833890914917
1701910861263192600,17.447192626953125,-0.3850643038749695,-4.049892902374268,8.926712989807129
1701910861280192300,17.464192138671876,-0.37816283106803894,-3.7672054767608643,9.049932479858398
1701910861297191200,17.481191162109376,-0.35429975390434265,-3.4917616844177246,9.160688400268555
1701910861314170600,17.498170654296874,-0.3198111355304718,-3.2090485095977783,9.264764785766602
1701910861331171600,17.515171630859374,-0.288385272026062,-2.9161062240600586,9.3621187210083
1701910861348159000,17.532158935546875,-0.269199401140213,-2.618943452835083,9.45012092590332
1701910861365150700,17.549150634765624,-0.25953570008277893,-2.3240013122558594,9.527213096618652
1701910861382146800,17.566146728515626,-0.24423469603061676,-2.0246310234069824,9.595695495605469
1701910861399138000,17.583137939453124,-0.21658790111541748,-1.7096484899520874,9.657449722290039
1701910861416126700,17.600126708984376,-0.1903771609067917,-1.380993366241455,9.710445404052734
1701910861433122000,17.6171220703125,-0.17742031812667847,-1.0573164224624634,9.751242637634277
1701910861450125300,17.634125244140623,-0.1717444211244583,-0.7628722190856934,9.778786659240723
1701910861467116000,17.651115966796876,-0.16360627114772797,-0.5203525424003601,9.794824600219727
1701910861484111000,17.668111083984375,-0.1493186056613922,-0.33857983350753784,9.803018569946289
1701910861501098800,17.6850986328125,-0.12253367155790329,-0.21154437959194183,9.806954383850098
1701910861518093600,17.702093505859374,-0.07657338678836823,-0.1240764632821083,9.808917045593262
1701910861535086300,17.71908642578125,-0.02168966270983219,-0.06571364402770996,9.8097562789917
1701910861552074800,17.73607470703125,0.026033559814095497,-0.03983065113425255,9.809885025024414
1701910861569078500,17.75307861328125,0.04078316316008568,-0.039956074208021164,9.809836387634277
1701910861586072800,17.77007275390625,0.015083477832376957,-0.05405984818935394,9.809840202331543
1701910861603057200,17.78705712890625,-0.04321150854229927,-0.07471689581871033,9.809621810913086
1701910861620044000,17.8040439453125,-0.11526031792163849,-0.11794974654912949,9.808615684509277
1701910861637043500,17.82104345703125,-0.17714491486549377,-0.19251081347465515,9.806510925292969
1701910861654025500,17.838025390625,-0.22976809740066528,-0.29876554012298584,9.80275821685791
1701910861671029200,17.855029296875,-0.29611703753471375,-0.4861232042312622,9.793472290039062
1701910861688021200,17.872021240234375,-0.40465131402015686,-0.8208669424057007,9.767217636108398
1701910861705014300,17.88901416015625,-0.5253852009773254,-1.3218406438827515,9.706328392028809
1701910861721993500,17.905993408203123,-0.5862494707107544,-1.9139899015426636,9.603597640991211
1701910861738997200,17.922997314453124,-0.5466591119766235,-2.4913601875305176,9.472614288330078
1701910861755995100,17.9399951171875,-0.4394364058971405,-2.988952875137329,9.333230018615723
1701910861772985900,17.95698583984375,-0.3364417850971222,-3.4012787342071533,9.195338249206543
1701910861789977600,17.9739775390625,-0.2790858745574951,-3.7443251609802246,9.063015937805176
1701910861806971100,17.99097119140625,-0.27120789885520935,-4.046091079711914,8.93262004852295
1701910861823963100,18.007963134765625,-0.2934650480747223,-4.318368911743164,8.80350399017334
1701910861840953600,18.02495361328125,-0.30698323249816895,-4.552619457244873,8.684212684631348
1701910861857949200,18.04194921875,-0.2734874486923218,-4.7330121994018555,8.588360786437988
1701910861874940000,18.05893994140625,-0.16735754907131195,-4.847426891326904,8.52704906463623
1701910861891937000,18.07593701171875,0.0003575572627596557,-4.911262035369873,8.49209213256836
1701910861908927700,18.092927734375,0.1976686418056488,-4.957767009735107,8.462716102600098
1701910861925917000,18.1099169921875,0.39761242270469666,-5.005313873291016,8.427623748779297
1701910861942913300,18.126913330078125,0.5767655968666077,-5.055412292480469,8.387267112731934
1701910861959905500,18.143905517578126,0.7132156491279602,-5.104451656341553,8.346976280212402
1701910861976898800,18.16089892578125,0.789528489112854,-5.142602443695068,8.316635131835938
1701910861993891000,18.17789111328125,0.8075475692749023,-5.1839447021484375,8.289191246032715
1701910862010883800,18.1948837890625,0.7811561822891235,-5.262246608734131,8.242249488830566
1701910862027877000,18.211877197265625,0.720296323299408,-5.3883280754089355,8.165979385375977
1701910862044870000,18.228869873046875,0.6277620792388916,-5.528893947601318,8.079192161560059
1701910862061865200,18.245865234375,0.5164960026741028,-5.638022422790527,8.011370658874512
1701910862078852400,18.262852294921874,0.4109344482421875,-5.682587623596191,7.985954284667969
1701910862095845000,18.27984521484375,0.320164293050766,-5.669410228729248,7.999461650848389
1701910862112842500,18.296842529296875,0.23129042983055115,-5.613354206085205,8.041943550109863
1701910862129831200,18.3138310546875,0.1438991129398346,-5.528533458709717,8.102514266967773
1701910862146818600,18.330818603515624,0.0723060891032219,-5.4290266036987305,8.1704683303833
1701910862163818800,18.34781884765625,0.007795508019626141,-5.311976909637451,8.24736213684082
1701910862180812000,18.36481201171875,-0.09366070479154587,-5.173501014709473,8.334399223327637
1701910862197804000,18.381803955078126,-0.23015344142913818,-5.043889045715332,8.410846710205078
1701910862214797600,18.398797607421876,-0.33950310945510864,-4.948914051055908,8.463397979736328
1701910862231789800,18.415789794921874,-0.3808800280094147,-4.856409072875977,8.51506519317627
1701910862248780000,18.432780029296875,-0.3821301758289337,-4.715544700622559,8.593820571899414
1701910862265772800,18.449772705078125,-0.3788943290710449,-4.523573875427246,8.696541786193848
1701910862282771000,18.46677099609375,-0.38989439606666565,-4.308518886566162,8.804586410522461
1701910862299760600,18.4837607421875,-0.4166211485862732,-4.085473537445068,8.909065246582031
1701910862316754200,18.500754150390627,-0.4467962980270386,-3.870631694793701,9.003037452697754
1701910862333747000,18.517746826171877,-0.46826258301734924,-3.6679000854492188,9.08643913269043
1701910862350742800,18.53474267578125,-0.47986873984336853,-3.4695467948913574,9.163409233093262
1701910862367728600,18.551728759765624,-0.48804956674575806,-3.2674643993377686,9.236969947814941
1701910862384711400,18.56871142578125,-0.49512821435928345,-3.0575625896453857,9.308182716369629
1701910862401717500,18.585717529296875,-0.49488556385040283,-2.8417112827301025,9.376346588134766
1701910862418710500,18.60271044921875,-0.4921771287918091,-2.6315128803253174,9.437638282775879
1701910862435697400,18.619697509765626,-0.4791325628757477,-2.422663927078247,9.494063377380371
1701910862452698400,18.636698486328125,-0.4616815447807312,-2.20717191696167,9.547322273254395
1701910862469688300,18.653688232421874,-0.44471409916877747,-1.993369698524475,9.595041275024414
1701910862486681600,18.670681640625,-0.42709001898765564,-1.7920708656311035,9.635465621948242
1701910862503673900,18.687673828125,-0.3984064757823944,-1.6172560453414917,9.667567253112793
1701910862520665900,18.704665771484375,-0.3565959632396698,-1.473896861076355,9.69208812713623
1701910862537658000,18.721658203125,-0.31397852301597595,-1.3545788526535034,9.710954666137695
1701910862554655500,18.738655517578124,-0.29334956407546997,-1.2503999471664429,9.72556209564209
1701910862571645000,18.75564501953125,-0.3072320222854614,-1.1570298671722412,9.736684799194336
1701910862588638000,18.772637939453126,-0.34520792961120605,-1.079693078994751,9.744293212890625
1701910862605630500,18.78963037109375,-0.366178959608078,-1.0284650325775146,9.749067306518555
1701910862622623000,18.806623046875,-0.3477883040904999,-1.020323634147644,9.750596046447754
1701910862639616300,18.8236162109375,-0.3084804117679596,-1.0404839515686035,9.749788284301758
1701910862656609300,18.840609375,-0.2788239121437073,-1.0584607124328613,9.748746871948242
1701910862673589200,18.85758935546875,-0.28596803545951843,-1.0858949422836304,9.74552059173584
1701910862690585000,18.874585205078127,-0.3374890089035034,-1.1556885242462158,9.735841751098633
1701910862707589400,18.89158935546875,-0.3842269778251648,-1.2722848653793335,9.719557762145996
1701910862724572700,18.90857275390625,-0.4072468876838684,-1.4387978315353394,9.695365905761719
1701910862741572600,18.925572509765626,-0.410053551197052,-1.6738460063934326,9.65744400024414
1701910862758562800,18.942562744140623,-0.3918856680393219,-2.020284652709961,9.591715812683105
1701910862775551500,18.959551513671876,-0.34837594628334045,-2.4818825721740723,9.484461784362793
1701910862792543200,18.976543212890626,-0.281939297914505,-3.0011487007141113,9.33540153503418
1701910862809533000,18.993532958984375,-0.19782300293445587,-3.5101373195648193,9.158378601074219
1701910862826526700,19.010526611328125,-0.12073565274477005,-3.9615466594696045,8.973723411560059
1701910862843521000,19.02752099609375,-0.06237751618027687,-4.347667694091797,8.793746948242188
1701910862860514000,19.04451416015625,-0.013081391341984272,-4.6902265548706055,8.616129875183105
1701910862877506600,19.061506591796874,0.032632436603307724,-5.004055500030518,8.43768310546875
1701910862894501000,19.078501220703124,0.08438234031200409,-5.284393310546875,8.264634132385254
1701910862911489500,19.095489501953125,0.1450764387845993,-5.519994735717773,8.10831356048584
1701910862928486400,19.112486328125,0.2198021113872528,-5.686492443084717,7.990719318389893
1701910862945475600,19.1294755859375,0.30130529403686523,-5.775252342224121,7.924127578735352
1701910862962481000,19.14648095703125,0.3790755867958069,-5.8108134269714355,7.894737243652344
1701910862979471000,19.16347119140625,0.43246182799339294,-5.819092750549316,7.885890007019043
1701910862996464600,19.180464599609376,0.4601381719112396,-5.814196586608887,7.887934684753418
1701910863013453000,19.197453125,0.4770781397819519,-5.802603244781494,7.895460605621338
1701910863030452700,19.21445263671875,0.49805504083633423,-5.797849178314209,7.89765739440918
1701910863047442400,19.2314423828125,0.5240087509155273,-5.800883769989014,7.8937482833862305
1701910863064431900,19.248431884765626,0.5412647724151611,-5.799991607666016,7.893240451812744
1701910863081427700,19.265427734375,0.5413320064544678,-5.8000807762146,7.8931708335876465
1701910863098421200,19.282421142578126,0.5243455767631531,-5.813145160675049,7.884702205657959
1701910863115414000,19.2994140625,0.49420785903930664,-5.834938049316406,7.870537281036377
1701910863132406000,19.316406005859374,0.45854276418685913,-5.841069221496582,7.868146896362305
1701910863149399600,19.333399658203124,0.4164887070655823,-5.800805568695068,7.900210857391357
1701910863166392000,19.35039208984375,0.3503713309764862,-5.69903564453125,7.977114677429199
1701910863183384300,19.36738427734375,0.23849038779735565,-5.551065444946289,8.084856033325195
1701910863200379000,19.38437890625,0.12113910913467407,-5.393762588500977,8.193214416503906
1701910863217368600,19.40136865234375,0.019651615992188454,-5.244359970092773,8.290501594543457
1701910863234363000,19.41836279296875,-0.10992824286222458,-5.07816743850708,8.392629623413086
1701910863251356000,19.43535595703125,-0.26395443081855774,-4.89893102645874,8.495113372802734
1701910863268345600,19.452345703125,-0.381233811378479,-4.747445106506348,8.576278686523438
1701910863285341000,19.4693408203125,-0.43590235710144043,-4.623126983642578,8.641342163085938
1701910863302334200,19.486334228515624,-0.4627363979816437,-4.477264881134033,8.716425895690918
1701910863319326700,19.50332666015625,-0.5022255778312683,-4.287474632263184,8.809168815612793
1701910863336316700,19.520316650390626,-0.557810366153717,-4.065256118774414,8.910592079162598
1701910863353312000,19.53731201171875,-0.6208088397979736,-3.8233067989349365,9.012938499450684
1701910863370305300,19.55430517578125,-0.6752335429191589,-3.582000970840454,9.107659339904785
1701910863387297500,19.571297607421876,-0.7062940001487732,-3.3517005443573,9.192570686340332
1701910863404286700,19.58828662109375,-0.7095333337783813,-3.1273033618927,9.271065711975098
1701910863421293600,19.60529345703125,-0.6918431520462036,-2.9061782360076904,9.344067573547363
1701910863438276400,19.6222763671875,-0.6629181504249573,-2.6919002532958984,9.41011905670166
1701910863455264500,19.639264404296874,-0.6238371133804321,-2.4922232627868652,9.467617988586426
1701910863472262400,19.656262451171877,-0.5705321431159973,-2.3129992485046387,9.516335487365723
1701910863489265000,19.673264892578125,-0.5124821662902832,-2.157442808151245,9.556093215942383
1701910863506237000,19.69023681640625,-0.4566968083381653,-2.0203802585601807,9.588828086853027
1701910863523239000,19.707239013671874,-0.4130198359489441,-1.8899736404418945,9.61735725402832
1701910863540236000,19.724236083984376,-0.39608338475227356,-1.7676444053649902,9.641301155090332
1701910863557222700,19.74122265625,-0.4169468283653259,-1.665727138519287,9.658552169799805
1701910863574218500,19.758218505859375,-0.4841021001338959,-1.592445969581604,9.667774200439453
1701910863591210800,19.775210693359377,-0.6002365946769714,-1.5561976432800293,9.667163848876953
1701910863608203800,19.792203857421875,-0.7523981332778931,-1.5455820560455322,9.658219337463379
1701910863625193500,19.809193359375,-0.9250921010971069,-1.556654930114746,9.64142894744873
1701910863642189300,19.826189208984374,-1.100906252861023,-1.5952725410461426,9.616612434387207
1701910863659178800,19.8431787109375,-1.2714052200317383,-1.6616244316101074,9.584290504455566
1701910863676175000,19.860175048828125,-1.4367228746414185,-1.7506520748138428,9.545007705688477
1701910863693167400,19.87716748046875,-1.5915724039077759,-1.8493410348892212,9.501733779907227
1701910863710160600,19.89416064453125,-1.7238919734954834,-1.9520514011383057,9.458003997802734
1701910863727153000,19.91115283203125,-1.8175386190414429,-2.0667881965637207,9.416000366210938
1701910863744146000,19.92814599609375,-1.8535019159317017,-2.1968510150909424,9.379471778869629
1701910863761138200,19.94513818359375,-1.82369863986969,-2.3257696628570557,9.35419750213623
1701910863778128400,19.96212841796875,-1.7395426034927368,-2.425447940826416,9.34490966796875
1701910863795124000,19.9791240234375,-1.6107062101364136,-2.5295798778533936,9.340394020080566
1701910863812119600,19.99611962890625,-1.4488284587860107,-2.7159886360168457,9.314528465270996
1701910863829109200,20.013109130859377,-1.2606714963912964,-3.038818597793579,9.241883277893066
1701910863846092800,20.0300927734375,-1.0412997007369995,-3.4793806076049805,9.112944602966309
1701910863863078700,20.04707861328125,-0.8014082908630371,-3.954726457595825,8.941699981689453
1701910863880088000,20.064088134765626,-0.5542447566986084,-4.409586429595947,8.7455415725708
1701910863897080600,20.08108056640625,-0.3236241042613983,-4.813008785247803,8.542034149169922
1701910863914073900,20.098073974609374,-0.12346571683883667,-5.146822929382324,8.35051441192627
1701910863931066000,20.115066162109375,0.04046039655804634,-5.426326751708984,8.172481536865234
1701910863948059100,20.13205908203125,0.17194059491157532,-5.673496723175049,8.00112247467041
1701910863965048800,20.149048828125,0.2845500707626343,-5.887302875518799,7.841863632202148
1701910863982045000,20.166044921875,0.38759058713912964,-6.05391788482666,7.70947265625
1701910863999039700,20.183039794921875,0.4841752052307129,-6.150733947753906,7.6269378662109375
1701910864016030200,20.2000302734375,0.568429172039032,-6.17861270904541,7.598536491394043
1701910864033021400,20.217021484375,0.6342127323150635,-6.166145324707031,7.60345458984375
1701910864050025500,20.234025390625,0.6848981380462646,-6.143929958343506,7.617030143737793
1701910864067008000,20.251008056640625,0.7332122325897217,-6.134066104888916,7.620482921600342
1701910864084000000,20.268,0.7736361026763916,-6.1446404457092285,7.607956409454346
1701910864100995000,20.2849951171875,0.8005136847496033,-6.166208267211914,7.587699890136719
1701910864117986800,20.30198681640625,0.80721515417099,-6.182529926300049,7.573695659637451
1701910864134976300,20.318976318359375,0.793150007724762,-6.186962604522705,7.571561813354492
1701910864151975000,20.335974853515626,0.7601272463798523,-6.18729829788208,7.574671745300293
1701910864168961500,20.35296142578125,0.7134708762168884,-6.192446231842041,7.5750041007995605
1701910864185958000,20.3699580078125,0.6549133062362671,-6.190785884857178,7.5816473960876465
1701910864202950400,20.386950439453123,0.580061674118042,-6.155457973480225,7.616428852081299
1701910864219943700,20.403943603515625,0.4753561317920685,-6.0676727294921875,7.693731784820557
1701910864236935200,20.42093505859375,0.3450363278388977,-5.944605827331543,7.796071529388428
1701910864253931500,20.437931640625,0.20262211561203003,-5.824029922485352,7.891498565673828
1701910864270918000,20.45491796875,0.0331282801926136,-5.7175397872924805,7.971495628356934
1701910864287915300,20.471915283203124,-0.151968851685524,-5.615272045135498,8.042494773864746
1701910864304904000,20.488904052734377,-0.29515838623046875,-5.507838249206543,8.112504005432129
1701910864321901600,20.505901611328124,-0.36441370844841003,-5.376429080963135,8.19739818572998
1701910864338893600,20.5228935546875,-0.39404329657554626,-5.195502281188965,8.311895370483398
1701910864355882200,20.53988232421875,-0.43384355306625366,-4.966800689697266,8.448596954345703
1701910864372877800,20.5568779296875,-0.49863478541374207,-4.702703952789307,8.59488582611084
1701910864389871000,20.57387109375,-0.5830352306365967,-4.417877197265625,8.739482879638672
1701910864406863400,20.59086328125,-0.6648997664451599,-4.128716945648193,8.873991966247559
1701910864423856600,20.607856689453126,-0.7265586853027344,-3.8380918502807617,8.998739242553711
1701910864440838400,20.62483837890625,-0.7685025334358215,-3.545827627182007,9.114418029785156
1701910864457842000,20.641842041015625,-0.7939770817756653,-3.2512614727020264,9.221445083618164
1701910864474832100,20.65883203125,-0.8036501407623291,-2.9578142166137695,9.318883895874023
1701910864491827000,20.675826904296876,-0.8000108003616333,-2.6691343784332275,9.40594482421875
1701910864508822300,20.692822265625,-0.7855190634727478,-2.387899875640869,9.48245906829834
1701910864525803500,20.709803466796874,-0.7586990594863892,-2.106842041015625,9.551005363464355
1701910864542804500,20.726804443359374,-0.7314504384994507,-1.817061185836792,9.61246109008789
1701910864559799600,20.743799560546876,-0.7074581384658813,-1.520693063735962,9.665563583374023
1701910864576790800,20.760790771484373,-0.680113673210144,-1.2340110540390015,9.708285331726074
1701910864593784300,20.777784423828123,-0.6449894309043884,-0.9740836024284363,9.74018669128418
1701910864610776600,20.794776611328125,-0.6033952832221985,-0.7524685859680176,9.762469291687012
1701910864627769600,20.81176953125,-0.562950074672699,-0.5643054246902466,9.77756404876709
1701910864644751600,20.828751708984374,-0.5307698845863342,-0.4054029881954193,9.787238121032715
1701910864661751300,20.845751220703125,-0.5184860825538635,-0.2825623154640198,9.79221248626709
1701910864678747600,20.86274755859375,-0.5201759338378906,-0.21003492176532745,9.79394817352295
1701910864695740700,20.87974072265625,-0.5167389512062073,-0.19384631514549255,9.794464111328125
1701910864712727800,20.896727783203126,-0.51054847240448,-0.21763484179973602,9.79428768157959
1701910864729726200,20.913726318359377,-0.5023553967475891,-0.2678384482860565,9.793469429016113
1701910864746718500,20.930718505859375,-0.5037019848823547,-0.3518965542316437,9.790740966796875
1701910864763711700,20.947711669921876,-0.5113483667373657,-0.49290013313293457,9.784256935119629
1701910864780703700,20.964703857421874,-0.5006807446479797,-0.6980470418930054,9.772317886352539
1701910864797685500,20.981685546875,-0.4502332806587219,-0.9633732438087463,9.75219440460205
1701910864814681000,20.99868115234375,-0.36993172764778137,-1.3175002336502075,9.714086532592773
1701910864831673900,21.015673828125,-0.30213090777397156,-1.795807123184204,9.639496803283691
1701910864848664000,21.0326640625,-0.27447766065597534,-2.422588586807251,9.502202033996582
1701910864865657900,21.049657958984376,-0.2777024209499359,-3.1605772972106934,9.282766342163086
1701910864882652000,21.06665185546875,-0.2755114436149597,-3.9114956855773926,8.992241859436035
1701910864899645200,21.083645263671876,-0.24862566590309143,-4.586110591888428,8.668442726135254
1701910864916637400,21.100637451171874,-0.21578097343444824,-5.144921779632568,8.349810600280762
1701910864933630700,21.117630615234376,-0.18686971068382263,-5.591545104980469,8.058277130126953
1701910864950632200,21.134632080078124,-0.14573892951011658,-5.953442096710205,7.7956013679504395
1701910864967624700,21.151624755859373,-0.08851106464862823,-6.264732837677002,7.548603057861328
1701910864984626700,21.168626708984377,-0.02308802492916584,-6.525872230529785,7.324517726898193
1701910865001610800,21.18561083984375,0.05292315036058426,-6.704677581787109,7.161050319671631
1701910865018602500,21.2026025390625,0.14676277339458466,-6.770161151885986,7.097850799560547
1701910865035595800,21.219595703125,0.22437375783920288,-6.740508079528809,7.123997211456299
1701910865052587300,21.236587158203125,0.26268354058265686,-6.6669392585754395,7.191594123840332
1701910865069582000,21.25358203125,0.27374473214149475,-6.59390115737915,7.258213520050049
1701910865086573800,21.27057373046875,0.2718043327331543,-6.530453205108643,7.315423011779785
1701910865103567000,21.287567138671875,0.2682957053184509,-6.457447528839111,7.3800764083862305
1701910865120556800,21.304556884765624,0.26689091324806213,-6.360273838043213,7.464035511016846
1701910865137555200,21.32155517578125,0.2690754234790802,-6.243649005889893,7.5617828369140625
1701910865154542300,21.338542236328124,0.275828093290329,-6.122442245483398,7.660008430480957
1701910865171540500,21.35554052734375,0.2882247567176819,-6.007400035858154,7.750108242034912
1701910865188520000,21.37252001953125,0.3063347637653351,-5.895741939544678,7.834698677062988
1701910865205523500,21.3895234375,0.2988789677619934,-5.774430751800537,7.92481803894043
1701910865222515700,21.406515625,0.22956842184066772,-5.643737316131592,8.020699501037598
1701910865239509200,21.42350927734375,0.10314664244651794,-5.539296627044678,8.095782279968262
1701910865256498000,21.440497802734374,-0.02501438930630684,-5.50966215133667,8.116596221923828
1701910865273494800,21.457494873046876,-0.0923444926738739,-5.539995193481445,8.09543514251709
1701910865290486800,21.47448681640625,-0.13051512837409973,-5.553578853607178,8.085596084594727
1701910865307480000,21.49147998046875,-0.18239834904670715,-5.497442245483398,8.1228666305542
1701910865324461600,21.508461669921875,-0.24023081362247467,-5.363370895385742,8.210521697998047
1701910865341465300,21.52546533203125,-0.270813524723053,-5.169490814208984,8.333016395568848
1701910865358447400,21.542447265625,-0.2666245698928833,-4.937708377838135,8.472549438476562
1701910865375447000,21.559447021484374,-0.2483707219362259,-4.681515693664551,8.617298126220703
1701910865392444200,21.576444091796876,-0.23230725526809692,-4.404417037963867,8.762604713439941
1701910865409436700,21.593436767578126,-0.22115252912044525,-4.108876705169678,8.905299186706543
1701910865426429000,21.610428955078124,-0.21402066946029663,-3.793851375579834,9.044170379638672
1701910865443421200,21.627421142578125,-0.21122950315475464,-3.4595038890838623,9.177326202392578
1701910865460416800,21.644416748046876,-0.21477466821670532,-3.1086738109588623,9.301942825317383
