time,seconds_elapsed,z,y,x
1702070651758608600,0.114608642578125,9.065526008605957,3.3379123210906982,1.706071376800537
1702070651775594200,0.13159423828125,9.004048347473145,3.4107043743133545,1.8789156675338745
1702070651792586800,0.148586669921875,8.957228660583496,3.445701837539673,2.0325591564178467
1702070651809567700,0.165567626953125,8.911672592163086,3.462573289871216,2.1974527835845947
1702070651826565000,0.182565185546875,8.83937931060791,3.4955458641052246,2.425417900085449
1702070651843554600,0.199554443359375,8.703611373901367,3.5857107639312744,2.7615113258361816
1702070651860551200,0.21655126953125,8.467865943908691,3.7585361003875732,3.2256429195404053
1702070651877528300,0.2335283203125,8.129842758178711,3.98412823677063,3.77736496925354
1702070651894523400,0.2505234375,7.730720043182373,4.198391914367676,4.341149806976318
1702070651911519700,0.267519775390625,7.303502559661865,4.370932579040527,4.877490520477295
1702070651928510500,0.284510498046875,6.835905075073242,4.49630069732666,5.412003993988037
1702070651945495300,0.301495361328125,6.3125200271606445,4.5517168045043945,5.972444534301758
1702070651962488800,0.31848876953125,5.759347438812256,4.514936447143555,6.533099174499512
1702070651979479800,0.335479736328125,5.222378730773926,4.373494625091553,7.059419631958008
1702070651996467000,0.352467041015625,4.763503551483154,4.128668308258057,7.516598224639893
1702070652013458200,0.369458251953125,4.442242622375488,3.7785050868988037,7.888313293457031
1702070652030450700,0.38645068359375,4.252846717834473,3.3398244380950928,8.185046195983887
1702070652047440400,0.4034404296875,4.0913519859313965,2.8492603302001953,8.448589324951172
1702070652064424000,0.420423828125,3.8800528049468994,2.3417062759399414,8.70044231414795
1702070652081422300,0.43742236328125,3.6031644344329834,1.8297911882400513,8.938969612121582
1702070652098404400,0.454404296875,3.2919580936431885,1.310312271118164,9.147798538208008
1702070652115397000,0.471397216796875,2.983269453048706,0.809799075126648,9.310233116149902
1702070652132390400,0.488390380859375,2.6655006408691406,0.36768901348114014,9.433772087097168
1702070652149371000,0.505370849609375,2.318413496017456,-0.03635711222887039,9.532037734985352
1702070652166371000,0.52237109375,1.9868032932281494,-0.4432440996170044,9.596470832824707
1702070652183350800,0.539350830078125,1.7128442525863647,-0.8773010969161987,9.619388580322266
1702070652200349000,0.556348876953125,1.5048027038574219,-1.3397237062454224,9.600875854492188
1702070652217346800,0.573346923828125,1.318111538887024,-1.805763840675354,9.551855087280273
1702070652234331100,0.5903310546875,1.1205090284347534,-2.26735520362854,9.478378295898438
1702070652251320600,0.607320556640625,0.9357235431671143,-2.707224130630493,9.382508277893066
1702070652268313600,0.624313720703125,0.7671939134597778,-3.1175408363342285,9.26976203918457
1702070652285298700,0.641298583984375,0.604814350605011,-3.52229905128479,9.135848999023438
1702070652302292200,0.658292236328125,0.437295138835907,-3.9341530799865723,8.975932121276855
1702070652319272700,0.675272705078125,0.2547786831855774,-4.350684642791748,8.788785934448242
1702070652336268500,0.6922685546875,0.0540604330599308,-4.768578052520752,8.572856903076172
1702070652353264400,0.709264404296875,-0.1516072005033493,-5.178248882293701,8.330598831176758
1702070652370253000,0.726253173828125,-0.34269624948501587,-5.5665130615234375,8.070478439331055
1702070652387241500,0.743241455078125,-0.4992353022098541,-5.913437843322754,7.811410903930664
1702070652404227000,0.76022705078125,-0.6091015338897705,-6.204685211181641,7.574099540710449
1702070652421222400,0.777222412109375,-0.6582357287406921,-6.445909023284912,7.365671634674072
1702070652438215200,0.794215087890625,-0.6421540975570679,-6.654956340789795,7.178808689117432
1702070652455200500,0.811200439453125,-0.571803629398346,-6.852436542510986,6.996661186218262
1702070652472197000,0.828197021484375,-0.4694022238254547,-7.050262451171875,6.805114269256592
1702070652489185000,0.84518505859375,-0.3577260971069336,-7.2434821128845215,6.606067657470703
1702070652506171600,0.862171630859375,-0.2479267716407776,-7.418624401092529,6.413943290710449
1702070652523161600,0.87916162109375,-0.14138992130756378,-7.568864345550537,6.239264488220215
1702070652540157400,0.896157470703125,-0.03446129709482193,-7.693396091461182,6.086592197418213
1702070652557145600,0.9131455078125,0.07306139916181564,-7.794495582580566,5.95622444152832
1702070652574135800,0.9301357421875,0.1731860637664795,-7.874369144439697,5.848114967346191
1702070652591124700,0.947124755859375,0.2566644251346588,-7.93125581741333,5.7676191329956055
1702070652608120800,0.964120849609375,0.32495638728141785,-7.961649417877197,5.722120761871338
1702070652625097000,0.981096923828125,0.38709285855293274,-7.966298580169678,5.711776256561279
1702070652642098000,0.998097900390625,0.45041996240615845,-7.950324535369873,5.729360580444336
1702070652659086000,1.015086181640625,0.515566885471344,-7.920951843261719,5.764443397521973
1702070652676073000,1.032072998046875,0.5762874484062195,-7.876046657562256,5.819955825805664
1702070652693059600,1.0490595703125,0.6324086785316467,-7.803213596343994,5.91151762008667
1702070652710054100,1.06605419921875,0.6900109648704529,-7.692302703857422,6.048842430114746
1702070652727045000,1.083045166015625,0.7500827312469482,-7.537933826446533,6.23322057723999
1702070652744035600,1.10003564453125,0.8111681938171387,-7.343986988067627,6.453216075897217
1702070652761028900,1.11702880859375,0.866794228553772,-7.1198272705078125,6.692744255065918
1702070652778015200,1.13401513671875,0.9021670818328857,-6.876648902893066,6.937860012054443
1702070652795001000,1.1510009765625,0.9035685062408447,-6.622354507446289,7.180814266204834
1702070652812000000,1.168,0.874589741230011,-6.358606815338135,7.418849468231201
1702070652828988400,1.184988525390625,0.8268010020256042,-6.085245609283447,7.649988651275635
1702070652845975000,1.20197509765625,0.7588531374931335,-5.803996562957764,7.872350215911865
1702070652862967800,1.2189677734375,0.6672518253326416,-5.518157958984375,8.083366394042969
1702070652879958000,1.2359580078125,0.5618960857391357,-5.217495918273926,8.288433074951172
1702070652896945700,1.252945556640625,0.48192930221557617,-4.895288467407227,8.487638473510742
1702070652913941500,1.26994140625,0.4279065728187561,-4.5428595542907715,8.684206008911133
1702070652930927400,1.28692724609375,0.35985490679740906,-4.146016597747803,8.883533477783203
1702070652947917800,1.303917724609375,0.3034363090991974,-3.7747251987457275,9.049612998962402
1702070652964908000,1.320907958984375,0.28147152066230774,-3.49017071723938,9.163819313049316
1702070652981899000,1.33789892578125,0.23973847925662994,-3.2280497550964355,9.260581016540527
1702070652998890000,1.354889892578125,0.13430558145046234,-2.9184646606445312,9.364861488342285
1702070653015877000,1.371877197265625,-0.01060392614454031,-2.5722179412841797,9.466767311096191
1702070653032870700,1.38887060546875,-0.13742946088314056,-2.228248357772827,9.552597999572754
1702070653049859600,1.405859619140625,-0.18993979692459106,-1.9237773418426514,9.617647171020508
1702070653066846200,1.42284619140625,-0.16623517870903015,-1.6690807342529297,9.665538787841797
1702070653083840800,1.4398408203125,-0.09718423336744308,-1.457905650138855,9.700575828552246
1702070653100829200,1.4568291015625,-0.009200594387948513,-1.2867869138717651,9.725235939025879
1702070653117823700,1.47382373046875,0.08690834045410156,-1.1560468673706055,9.74125862121582
1702070653134804700,1.4908046875,0.1976587027311325,-1.0772547721862793,9.748671531677246
1702070653151790800,1.507790771484375,0.322544127702713,-1.0585702657699585,9.747385025024414
1702070653168790500,1.52479052734375,0.446126788854599,-1.0893281698226929,9.739119529724121
1702070653185775400,1.541775390625,0.5493646264076233,-1.1490983963012695,9.726967811584473
1702070653202770400,1.5587705078125,0.61879563331604,-1.2082996368408203,9.715618133544922
1702070653219762200,1.57576220703125,0.6476984620094299,-1.2465457916259766,9.70889949798584
1702070653236748000,1.592748046875,0.6486223340034485,-1.2669752836227417,9.706193923950195
1702070653253732000,1.609732177734375,0.6471312642097473,-1.2898279428482056,9.703283309936523
1702070653270729200,1.626729248046875,0.6474061012268066,-1.3354049921035767,9.697096824645996
1702070653287725800,1.643725830078125,0.6425178050994873,-1.420959711074829,9.685256004333496
1702070653304708900,1.660708984375,0.626815676689148,-1.5566136837005615,9.665411949157715
1702070653321702400,1.677702392578125,0.5881024599075317,-1.7482719421386719,9.635030746459961
1702070653338682600,1.6946826171875,0.5056329965591431,-1.988724946975708,9.592988967895508
1702070653355680500,1.711680419921875,0.3569684326648712,-2.2695467472076416,9.53718376159668
1702070653372671700,1.728671630859375,0.14742760360240936,-2.5889647006988525,9.461058616638184
1702070653389664500,1.74566455078125,-0.08461154997348785,-2.926659107208252,9.362884521484375
1702070653406642400,1.762642333984375,-0.3094358444213867,-3.231131076812744,9.257437705993652
1702070653423641600,1.7796416015625,-0.49019843339920044,-3.489931344985962,9.15511703491211
1702070653440635100,1.79663525390625,-0.5785937309265137,-3.7449941635131836,9.048556327819824
1702070653457625300,1.813625244140625,-0.5756493210792542,-4.027543544769287,8.926568984985352
1702070653474603500,1.830603515625,-0.5174826979637146,-4.339354515075684,8.782842636108398
1702070653491604000,1.84760400390625,-0.445419579744339,-4.698890686035156,8.599892616271973
1702070653508595200,1.86459521484375,-0.3711070120334625,-5.142814636230469,8.345647811889648
1702070653525582000,1.88158203125,-0.2797910273075104,-5.656319618225098,8.010235786437988
1702070653542573600,1.898573486328125,-0.1590811163187027,-6.180141925811768,7.616866588592529
1702070653559566300,1.91556640625,-0.006482808385044336,-6.651814937591553,7.210368633270264
1702070653576551400,1.932551513671875,0.15323463082313538,-7.030961513519287,6.839461326599121
1702070653593547800,1.9495478515625,0.28847619891166687,-7.317887783050537,6.5269775390625
1702070653610532400,1.966532470703125,0.3825097978115082,-7.535922050476074,6.268945217132568
1702070653627527200,1.983527099609375,0.4346434473991394,-7.71278190612793,6.046503067016602
1702070653644512000,2.000511962890625,0.46550869941711426,-7.862783432006836,5.84774112701416
1702070653661506000,2.017506103515625,0.505062460899353,-7.9829301834106445,5.679248809814453
1702070653678496800,2.034496826171875,0.5719541907310486,-8.065146446228027,5.555393695831299
1702070653695483600,2.051483642578125,0.6643210053443909,-8.109210014343262,5.48046875
1702070653712467200,2.06846728515625,0.7715739011764526,-8.123859405517578,5.4446024894714355
1702070653729468200,2.08546826171875,0.8782219886779785,-8.11741828918457,5.438047409057617
1702070653746454500,2.10245458984375,0.9682676196098328,-8.093022346496582,5.459081649780273
1702070653763446500,2.119446533203125,1.0389223098754883,-8.050694465637207,5.508455276489258
1702070653780435700,2.136435791015625,1.0888184309005737,-7.991037368774414,5.585150718688965
1702070653797428700,2.1534287109375,1.112536907196045,-7.915642738342285,5.6869120597839355
1702070653814414000,2.1704140625,1.1170576810836792,-7.829850196838379,5.8035969734191895
1702070653831405600,2.187405517578125,1.1166805028915405,-7.739010810852051,5.92426061630249
1702070653848400000,2.20439990234375,1.1055598258972168,-7.644435405731201,6.047847747802734
1702070653865385200,2.22138525390625,1.0741591453552246,-7.5475640296936035,6.173862457275391
1702070653882379000,2.23837890625,1.0355963706970215,-7.450593948364258,6.297007083892822
1702070653899372300,2.255372314453125,1.0020043849945068,-7.341379642486572,6.429328918457031
1702070653916348700,2.2723486328125,0.987808346748352,-7.2077155113220215,6.5809712409973145
1702070653933349400,2.289349365234375,1.0148004293441772,-7.062525272369385,6.732536315917969
1702070653950342000,2.306341796875,1.0189392566680908,-6.912839412689209,6.8855299949646
1702070653967334000,2.323333984375,0.9116547703742981,-6.764235496520996,7.046284198760986
1702070653984315600,2.340315673828125,0.7301276922225952,-6.655245780944824,7.170129776000977
1702070654001309000,2.357308837890625,0.6337304711341858,-6.618562698364258,7.213120937347412
1702070654018300200,2.374300048828125,0.6621276140213013,-6.567121982574463,7.257452011108398
1702070654035287300,2.391287353515625,0.7351899147033691,-6.402876377105713,7.395862102508545
1702070654052278800,2.40827880859375,0.7604766488075256,-6.117492198944092,7.631125450134277
1702070654069267700,2.425267822265625,0.7040737867355347,-5.742623329162598,7.922290325164795
1702070654086258000,2.4422578125,0.6122915148735046,-5.354650020599365,8.19688606262207
1702070654103248400,2.459248291015625,0.5487614870071411,-5.00417947769165,8.419807434082031
1702070654120242000,2.476241943359375,0.531152606010437,-4.696710109710693,8.596214294433594
1702070654137232000,2.49323193359375,0.5332327485084534,-4.415955066680908,8.743633270263672
1702070654154219000,2.510218994140625,0.517326295375824,-4.147134780883789,8.87523365020752
1702070654171210800,2.527210693359375,0.4632948040962219,-3.8842716217041016,8.996328353881836
1702070654188199200,2.54419921875,0.37719571590423584,-3.6320347785949707,9.105061531066895
1702070654205191200,2.561191162109375,0.28904426097869873,-3.3935348987579346,9.199810981750488
1702070654222179800,2.578179931640625,0.23377695679664612,-3.167668342590332,9.281560897827148
1702070654239173600,2.595173583984375,0.22766485810279846,-2.9406232833862305,9.356122970581055
1702070654256158000,2.612157958984375,0.25715646147727966,-2.6959259510040283,9.428784370422363
1702070654273152500,2.629152587890625,0.30002591013908386,-2.417963743209839,9.502608299255371
1702070654290131700,2.646131591796875,0.3339935541152954,-2.099797487258911,9.576815605163574
1702070654307134200,2.66313427734375,0.35384368896484375,-1.7610474824905396,9.644148826599121
1702070654324122600,2.68012255859375,0.3776582181453705,-1.4387127161026,9.696577072143555
1702070654341113600,2.697113525390625,0.42023181915283203,-1.1679997444152832,9.731151580810547
1702070654358099200,2.71409912109375,0.4842120409011841,-0.9719362258911133,9.749717712402344
1702070654375092200,2.73109228515625,0.5495716333389282,-0.8543282151222229,9.757264137268066
1702070654392081000,2.748080810546875,0.5875212550163269,-0.8137175440788269,9.758524894714355
1702070654409075000,2.765074951171875,0.5823020339012146,-0.8415757417678833,9.756475448608398
1702070654426060800,2.782060791015625,0.5548949241638184,-0.9193068742752075,9.751055717468262
1702070654443050800,2.79905078125,0.5743047595024109,-1.0243760347366333,9.739453315734863
1702070654460040000,2.8160400390625,0.672654926776886,-1.16448175907135,9.717390060424805
1702070654477034200,2.8330341796875,0.7778288125991821,-1.3740332126617432,9.682103157043457
1702070654494024700,2.850024658203125,0.7803320288658142,-1.6861622333526611,9.632447242736816
1702070654511015000,2.867014892578125,0.6578503847122192,-2.100023031234741,9.559982299804688
1702070654528002000,2.884001953125,0.5161545276641846,-2.5564279556274414,9.456974983215332
1702070654544995000,2.9009951171875,0.43865111470222473,-2.9550466537475586,9.344057083129883
1702070654561982000,2.91798193359375,0.43274250626564026,-3.2446587085723877,9.247758865356445
1702070654578978300,2.934978271484375,0.4718826115131378,-3.474543809890747,9.161930084228516
1702070654595961600,2.951961669921875,0.5279539227485657,-3.712203025817871,9.06514835357666
1702070654612956000,2.968955810546875,0.5677626132965088,-3.977555274963379,8.949459075927734
1702070654629944300,2.9859443359375,0.5813872218132019,-4.244937896728516,8.824886322021484
1702070654646933800,3.002933837890625,0.5564333200454712,-4.474771022796631,8.712227821350098
1702070654663925200,3.01992529296875,0.49686044454574585,-4.663302898406982,8.616429328918457
1702070654680927000,3.036927001953125,0.4363689422607422,-4.835788249969482,8.524133682250977
1702070654697906700,3.05390673828125,0.40261006355285645,-5.0049262046813965,8.427617073059082
1702070654714894800,3.070894775390625,0.4081350862979889,-5.171849727630615,8.32595443725586
1702070654731885300,3.08788525390625,0.44747018814086914,-5.337342262268066,8.218799591064453
1702070654748878300,3.10487841796875,0.5016610026359558,-5.506473541259766,8.103283882141113
1702070654765863200,3.12186328125,0.5538105964660645,-5.6828203201293945,7.977153301239014
1702070654782864100,3.138864013671875,0.6016411185264587,-5.865546226501465,7.840250015258789
1702070654799840500,3.155840576171875,0.6466547250747681,-6.052308082580566,7.693342208862305
1702070654816838400,3.17283837890625,0.6838738322257996,-6.236790180206299,7.54127836227417
1702070654833827300,3.189827392578125,0.7111794948577881,-6.408659934997559,7.393200874328613
1702070654850816500,3.20681640625,0.7439233064651489,-6.565800189971924,7.2507219314575195
1702070654867809800,3.223809814453125,0.7954150438308716,-6.707875728607178,7.113919258117676
1702070654884799000,3.240799072265625,0.8625236749649048,-6.823740482330322,6.994907855987549
1702070654901776400,3.2577763671875,0.9310124516487122,-6.9106831550598145,6.9001312255859375
1702070654918768600,3.2747685546875,0.9893234968185425,-6.983652591705322,6.818061828613281
1702070654935770600,3.2917705078125,1.0393749475479126,-7.0641326904296875,6.727097511291504
1702070654952765200,3.30876513671875,1.0835683345794678,-7.153195858001709,6.625238418579102
1702070654969748500,3.32574853515625,1.1262034177780151,-7.238035678863525,6.525230407714844
1702070654986739700,3.34273974609375,1.1507394313812256,-7.296200275421143,6.4558024406433105
1702070655003729000,3.35972900390625,1.1287264823913574,-7.301665306091309,6.45350980758667
1702070655020720000,3.37672021484375,1.0646839141845703,-7.255073070526123,6.516631603240967
1702070655037709300,3.393709228515625,0.9771082401275635,-7.164720058441162,6.629342555999756
1702070655054700500,3.410700439453125,0.8568993806838989,-7.013856410980225,6.80497407913208
1702070655071689700,3.427689697265625,0.7135398387908936,-6.8128533363342285,7.022252559661865
1702070655088681000,3.444680908203125,0.6101551055908203,-6.625265121459961,7.2089996337890625
1702070655105670000,3.461669921875,0.5619230270385742,-6.4640655517578125,7.357731342315674
1702070655122658600,3.478658447265625,0.5075181722640991,-6.275702953338623,7.522905349731445
1702070655139652900,3.49565283203125,0.4206022322177887,-6.028519153594971,7.727624416351318
1702070655156626000,3.5126259765625,0.32712891697883606,-5.732490539550781,7.95409631729126
1702070655173630500,3.52963037109375,0.2805687189102173,-5.422307968139648,8.170433044433594
1702070655190621700,3.54662158203125,0.2986038625240326,-5.123084545135498,8.36068058013916
1702070655207611100,3.563611083984375,0.35652491450309753,-4.8396897315979,8.52563190460205
1702070655224602000,3.58060205078125,0.42052096128463745,-4.565887451171875,8.672483444213867
1702070655241591000,3.597591064453125,0.4631512463092804,-4.302051544189453,8.80420207977295
1702070655258585300,3.61458544921875,0.4771801829338074,-4.059712886810303,8.91779899597168
1702070655275565000,3.63156494140625,0.48097357153892517,-3.854795217514038,9.00806999206543
1702070655292562400,3.6485625,0.49378859996795654,-3.6852316856384277,9.078070640563965
1702070655309552000,3.66555224609375,0.5231860876083374,-3.534238338470459,9.136277198791504
1702070655326532600,3.68253271484375,0.5612935423851013,-3.387317657470703,9.18951416015625
1702070655343532300,3.6995322265625,0.593557596206665,-3.2363839149475098,9.24173355102539
1702070655360523300,3.716523193359375,0.61191725730896,-3.084869384765625,9.292214393615723
1702070655377502000,3.733501953125,0.6178694367408752,-2.946255922317505,9.336698532104492
1702070655394504000,3.75050390625,0.6274217367172241,-2.8322126865386963,9.371288299560547
1702070655411492900,3.767492919921875,0.6445605158805847,-2.7538723945617676,9.393446922302246
1702070655428484000,3.784484130859375,0.6558061838150024,-2.7240238189697266,9.401366233825684
1702070655445473000,3.80147314453125,0.6502749919891357,-2.757681131362915,9.391935348510742
1702070655462464500,3.818464599609375,0.6327529549598694,-2.859877109527588,9.362524032592773
1702070655479453700,3.83545361328125,0.613299548625946,-3.0056843757629395,9.318038940429688
1702070655496434200,3.85243408203125,0.5649375319480896,-3.1610147953033447,9.269570350646973
1702070655513433900,3.869433837890625,0.465862900018692,-3.3258559703826904,9.217255592346191
1702070655530412000,3.886412109375,0.2885788083076477,-3.5128862857818604,9.154914855957031
1702070655547416800,3.903416748046875,0.019527362659573555,-3.6958391666412354,9.087162017822266
1702070655564405200,3.9204052734375,-0.2562045454978943,-3.8866488933563232,9.003578186035156
1702070655581394700,3.937394775390625,-0.4241538345813751,-4.139570236206055,8.883703231811523
1702070655598386000,3.954385986328125,-0.39272797107696533,-4.474564552307129,8.721247673034668
1702070655615375000,3.971375,-0.17616520822048187,-4.81357479095459,8.546027183532715
1702070655632366000,3.988365966796875,0.09814756363630295,-5.07635498046875,8.393874168395996
1702070655649355300,4.005355224609375,0.2992754280567169,-5.2486982345581055,8.282373428344727
1702070655666346200,4.02234619140625,0.39428287744522095,-5.376713752746582,8.195829391479492
1702070655683335700,4.039335693359375,0.4099152684211731,-5.505364894866943,8.109195709228516
1702070655700326700,4.05632666015625,0.37991979718208313,-5.633580684661865,8.02212905883789
1702070655717305300,4.073305419921875,0.3333072364330292,-5.749954700469971,7.941223621368408
1702070655734304500,4.090304443359375,0.2953673005104065,-5.862435817718506,7.860070705413818
1702070655751288300,4.107288330078125,0.2897598147392273,-5.971881866455078,7.777453422546387
1702070655768287200,4.124287353515625,0.33116161823272705,-6.070383071899414,7.699148654937744
1702070655785263400,4.141263427734375,0.40522506833076477,-6.158834457397461,7.625003337860107
1702070655802270500,4.1582705078125,0.49412086606025696,-6.242525577545166,7.551347732543945
1702070655819257000,4.175257080078125,0.5786292552947998,-6.326114654541016,7.475399971008301
1702070655836248000,4.192248046875,0.649250864982605,-6.410945415496826,7.396917343139648
1702070655853237200,4.2092373046875,0.709656298160553,-6.483698844909668,7.327629089355469
1702070655870210600,4.22621044921875,0.7574275732040405,-6.52235746383667,7.28843355178833
1702070655887215000,4.243215087890625,0.7792552709579468,-6.520901679992676,7.287436485290527
1702070655904211500,4.26021142578125,0.7574806809425354,-6.503004550933838,7.305702209472656
1702070655921197800,4.27719775390625,0.6987524032592773,-6.504988670349121,7.309787750244141
1702070655938189300,4.294189208984375,0.6297553777694702,-6.532475471496582,7.291521072387695
1702070655955178200,4.31117822265625,0.5576744079589844,-6.570767879486084,7.262928485870361
1702070655972169200,4.328169189453125,0.45948269963264465,-6.606294631958008,7.2375311851501465
1702070655989148000,4.34514794921875,0.34150663018226624,-6.640667915344238,7.212560653686523
1702070656006147300,4.362147216796875,0.22903573513031006,-6.686977863311768,7.174118995666504
1702070656023141600,4.3791416015625,0.1032065749168396,-6.738144397735596,7.129016399383545
1702070656040125700,4.396125732421875,-0.0068491362035274506,-6.786480903625488,7.083766460418701
1702070656057123600,4.41312353515625,-0.03954647481441498,-6.818395137786865,7.052946090698242
1702070656074110500,4.4301103515625,-0.02693549171090126,-6.7652668952941895,7.1039814949035645
1702070656091106600,4.4471064453125,-0.0650227963924408,-6.571586608886719,7.28327751159668
1702070656108093700,4.46409375,-0.15784852206707,-6.2494659423828125,7.560118675231934
1702070656125080000,4.481080078125,-0.21737639605998993,-5.866807460784912,7.859352111816406
1702070656142062300,4.498062255859375,-0.21663057804107666,-5.486809253692627,8.1292142868042
1702070656159060500,4.515060546875,-0.17713643610477448,-5.138975620269775,8.354381561279297
1702070656176054500,4.532054443359375,-0.11702822893857956,-4.832307815551758,8.53646469116211
1702070656193037600,4.54903759765625,-0.05073395371437073,-4.560038089752197,8.685598373413086
1702070656210026000,4.56602587890625,0.013347439467906952,-4.304500102996826,8.815169334411621
1702070656227018200,4.583018310546875,0.074210524559021,-4.056412220001221,8.931748390197754
1702070656244014800,4.600014892578125,0.13740022480487823,-3.8170719146728516,9.035883903503418
1702070656261001200,4.617001220703125,0.20289985835552216,-3.600283622741699,9.12320613861084
1702070656277992400,4.633992431640625,0.26615095138549805,-3.415200710296631,9.192479133605957
1702070656294979000,4.65097900390625,0.32143256068229675,-3.2491953372955322,9.250704765319824
1702070656311975400,4.667975341796875,0.3731471002101898,-3.0674502849578857,9.310619354248047
1702070656328961800,4.6849619140625,0.40748369693756104,-2.882437229156494,9.368118286132812
1702070656345951500,4.701951416015625,0.4211825728416443,-2.6903610229492188,9.42447280883789
1702070656362943500,4.718943603515625,0.4191904067993164,-2.4996237754821777,9.476932525634766
1702070656379930600,4.7359306640625,0.40747493505477905,-2.3274192810058594,9.521197319030762
1702070656396925000,4.752925048828125,0.407179057598114,-2.1884028911590576,9.554119110107422
1702070656413913600,4.76991357421875,0.42779460549354553,-2.0938055515289307,9.5743989944458
1702070656430902800,4.78690283203125,0.45187753438949585,-2.043166399002075,9.584226608276367
1702070656447894300,4.803894287109375,0.43613213300704956,-2.0344698429107666,9.586806297302246
1702070656464883200,4.82088330078125,0.36421722173690796,-2.071355104446411,9.581907272338867
1702070656481874200,4.837874267578125,0.2501427233219147,-2.186094045639038,9.560047149658203
1702070656498863400,4.85486328125,0.11427389085292816,-2.4087412357330322,9.50899600982666
1702070656515854800,4.871854736328125,-0.03544114530086517,-2.733388662338257,9.421436309814453
1702070656532844000,4.888843994140625,-0.18424402177333832,-3.1121935844421387,9.301421165466309
1702070656549835300,4.905835205078125,-0.3358132243156433,-3.507581949234009,9.155338287353516
1702070656566821600,4.922821533203125,-0.5294437408447266,-3.908029079437256,8.982378005981445
1702070656583817700,4.939817626953125,-0.7272322773933411,-4.307482719421387,8.783670425415039
1702070656600807700,4.9568076171875,-0.7888566851615906,-4.702457904815674,8.573256492614746
1702070656617795600,4.973795654296875,-0.6192087531089783,-5.098113059997559,8.358345985412598
1702070656634785000,4.990784912109375,-0.2672756612300873,-5.479275226593018,8.132786750793457
1702070656651773400,5.0077734375,0.135122150182724,-5.816863536834717,7.8982253074646
1702070656668750000,5.02475,0.4245818555355072,-6.11895227432251,7.655996799468994
1702070656685756400,5.04175634765625,0.5259373188018799,-6.411730766296387,7.406026363372803
1702070656702745600,5.05874560546875,0.4782990515232086,-6.711062431335449,7.139256477355957
1702070656719736600,5.075736572265625,0.36700183153152466,-7.01022481918335,6.852602481842041
1702070656736728600,5.092728515625,0.2663361430168152,-7.279695510864258,6.570481300354004
1702070656753714400,5.10971435546875,0.21210995316505432,-7.500560760498047,6.319234371185303
1702070656770706200,5.1267060546875,0.2139958292245865,-7.667948246002197,6.114973545074463
1702070656787697400,5.143697509765625,0.26247406005859375,-7.7898054122924805,5.95702600479126
1702070656804687400,5.160687255859375,0.33101996779441833,-7.882759094238281,5.829979419708252
1702070656821676500,5.177676513671875,0.39539942145347595,-7.961102485656738,5.718445777893066
1702070656838656000,5.194656005859375,0.44540560245513916,-8.029272079467773,5.618587493896484
1702070656855657700,5.21165771484375,0.47312667965888977,-8.093145370483398,5.5238823890686035
1702070656872647200,5.228647216796875,0.4709230661392212,-8.156599998474121,5.429937362670898
1702070656889638400,5.245638427734375,0.4420224726200104,-8.223246574401855,5.330944061279297
1702070656906627300,5.26262744140625,0.39830920100212097,-8.292119026184082,5.226686477661133
1702070656923618600,5.27961865234375,0.3577999770641327,-8.352557182312012,5.132534027099609
1702070656940607700,5.296607666015625,0.32668301463127136,-8.396505355834961,5.0624165534973145
1702070656957599200,5.31359912109375,0.29455605149269104,-8.413044929504395,5.036869049072266
1702070656974588400,5.33058837890625,0.2629620134830475,-8.394986152648926,5.068648815155029
1702070656991579400,5.347579345703125,0.24987725913524628,-8.353367805480957,5.137601375579834
1702070657008568300,5.364568359375,0.2434694468975067,-8.286370277404785,5.245275974273682
1702070657025559600,5.3815595703125,0.15054672956466675,-8.169113159179688,5.429459571838379
1702070657042546400,5.39854638671875,-0.07261554896831512,-8.012923240661621,5.658968448638916
1702070657059542800,5.415542724609375,-0.312969446182251,-7.871017932891846,5.846816062927246
1702070657076525600,5.432525634765625,-0.4316729009151459,-7.749228477478027,5.999935626983643
1702070657093523700,5.449523681640625,-0.42471733689308167,-7.598354816436768,6.190376281738281
1702070657110509300,5.46650927734375,-0.35839179158210754,-7.373763561248779,6.460284233093262
1702070657127500800,5.483500732421875,-0.27535226941108704,-7.068453788757324,6.796855449676514
1702070657144489500,5.500489501953125,-0.20698076486587524,-6.701259613037109,7.161452293395996
1702070657161481200,5.517481201171875,-0.17341862618923187,-6.303721904754639,7.5145955085754395
1702070657178470100,5.53447021484375,-0.188310906291008,-5.893406391143799,7.840178489685059
1702070657195461000,5.551461181640625,-0.2417736053466797,-5.468646049499512,8.140734672546387
1702070657212450300,5.5684501953125,-0.30702707171440125,-5.024569511413574,8.41994857788086
1702070657229441500,5.585441650390625,-0.3606685698032379,-4.570973873138428,8.672499656677246
1702070657246430500,5.602430419921875,-0.36735543608665466,-4.150028228759766,8.881353378295898
1702070657263422000,5.619421875,-0.31136366724967957,-3.7941911220550537,9.041200637817383
1702070657280411100,5.6364111328125,-0.20797114074230194,-3.510333299636841,9.158079147338867
1702070657297402000,5.653402099609375,-0.08622538298368454,-3.3015456199645996,9.237342834472656
1702070657314391000,5.67039111328125,0.03549464792013168,-3.155766010284424,9.288488388061523
1702070657331382500,5.687382568359375,0.13525837659835815,-3.0482583045959473,9.323408126831055
1702070657348371700,5.704371826171875,0.18927554786205292,-2.9644012451171875,9.349472999572754
1702070657365363000,5.721363037109375,0.1835145801305771,-2.9063422679901123,9.367796897888184
1702070657382352000,5.738351806640625,0.12327627092599869,-2.8815619945526123,9.376435279846191
1702070657399343400,5.75534326171875,0.02062225341796875,-2.892076253890991,9.373984336853027
1702070657416328400,5.772328369140625,-0.12415071576833725,-2.911195755004883,9.367264747619629
1702070657433327000,5.7893271484375,-0.314018577337265,-2.915350914001465,9.361529350280762
1702070657450297900,5.8062978515625,-0.5299901962280273,-2.9010376930236816,9.356239318847656
1702070657467306200,5.82330615234375,-0.7406481504440308,-2.867215633392334,9.352360725402832
1702070657484290800,5.840290771484375,-0.8903166651725769,-2.8418872356414795,9.347037315368652
1702070657501284000,5.8572841796875,-0.9469896554946899,-2.840928554534912,9.341758728027344
1702070657518271000,5.87427099609375,-0.9312290549278259,-2.841386079788208,9.343204498291016
1702070657535267000,5.89126708984375,-0.8738687634468079,-2.8548965454101562,9.344626426696777
1702070657552253700,5.908253662109375,-0.7944568395614624,-2.946476697921753,9.323263168334961
1702070657569245000,5.925244873046875,-0.6529355049133301,-3.136401891708374,9.272150039672852
1702070657586233000,5.942233154296875,-0.41770464181900024,-3.374650716781616,9.201813697814941
1702070657603226000,5.95922607421875,-0.13709264993667603,-3.6384572982788086,9.109278678894043
1702070657620214300,5.97621435546875,0.11325004696846008,-3.948371648788452,8.979625701904297
1702070657637205200,5.993205322265625,0.29100891947746277,-4.291006088256836,8.81695556640625
1702070657654194400,6.0101943359375,0.4100048840045929,-4.629961013793945,8.638951301574707
1702070657671181600,6.027181640625,0.5137581825256348,-4.945983409881592,8.456324577331543
1702070657688175000,6.044175048828125,0.6343827247619629,-5.232919216156006,8.273467063903809
1702070657705166000,6.061166015625,0.7828992605209351,-5.485243320465088,8.095388412475586
1702070657722155500,6.078155517578125,0.9469067454338074,-5.698642730712891,7.928741931915283
1702070657739146500,6.095146484375,1.1093292236328125,-5.872200965881348,7.779637813568115
1702070657756135700,6.1121357421875,1.256847858428955,-6.005667686462402,7.654305934906006
1702070657773115100,6.129115234375,1.3790948390960693,-6.103918552398682,7.554891586303711
1702070657790119400,6.146119384765625,1.4734857082366943,-6.17744779586792,7.476905345916748
1702070657807107000,6.163107177734375,1.5433971881866455,-6.237765312194824,7.412444114685059
1702070657824096300,6.18009619140625,1.5949864387512207,-6.288534641265869,7.35842752456665
1702070657841087200,6.197087158203125,1.6248373985290527,-6.319344520568848,7.325427532196045
1702070657858076700,6.21407666015625,1.6149766445159912,-6.314877033233643,7.331460952758789
1702070657875065000,6.231065185546875,1.549941062927246,-6.278514385223389,7.376589298248291
1702070657892070000,6.24806982421875,1.4343247413635254,-6.221402645111084,7.448017597198486
1702070657909047800,6.2650478515625,1.2973109483718872,-6.133252143859863,7.545616149902344
1702070657926029800,6.28202978515625,1.180363655090332,-5.993111610412598,7.676291465759277
1702070657943025400,6.299025390625,1.0965131521224976,-5.798183441162109,7.836761474609375
1702070657960017200,6.31601708984375,1.0314207077026367,-5.59764289855957,7.989912509918213
1702070657977008600,6.333008544921875,0.948884904384613,-5.458670616149902,8.095593452453613
1702070657993998000,6.349998046875,0.8433218598365784,-5.4056901931762695,8.142690658569336
1702070658010989000,6.366989013671875,0.7168569564819336,-5.378415584564209,8.172813415527344
1702070658027978200,6.383978271484375,0.5902388691902161,-5.289574146270752,8.240639686584473
1702070658044969200,6.40096923828125,0.4822331964969635,-5.109022617340088,8.360709190368652
1702070658061955800,6.417955810546875,0.39207619428634644,-4.877005100250244,8.502777099609375
1702070658078940700,6.434940673828125,0.3068797290325165,-4.6417036056518555,8.636929512023926
1702070658095923700,6.451923828125,0.2090858817100525,-4.423954010009766,8.753344535827637
1702070658112932000,6.46893212890625,0.09544962644577026,-4.213259220123291,8.858637809753418
1702070658129918500,6.48591845703125,-0.028763076290488243,-3.9893758296966553,8.962151527404785
1702070658146911700,6.502911865234375,-0.15617859363555908,-3.739400625228882,9.067998886108398
1702070658163898600,6.519898681640625,-0.291656494140625,-3.4591310024261475,9.175264358520508
1702070658180890600,6.536890625,-0.4287692904472351,-3.1686360836029053,9.274267196655273
1702070658197879800,6.5538798828125,-0.5553877353668213,-2.88988995552063,9.35821533203125
1702070658214870800,6.570870849609375,-0.6544235944747925,-2.6363956928253174,9.426413536071777
1702070658231873300,6.587873291015625,-0.7218201756477356,-2.4021451473236084,9.483922004699707
1702070658248851500,6.6048515625,-0.7721017599105835,-2.183133125305176,9.532781600952148
1702070658265837800,6.621837890625,-0.8129443526268005,-1.9737334251403809,9.574947357177734
1702070658282835200,6.638835205078125,-0.8517778515815735,-1.7685600519180298,9.61159610748291
1702070658299819800,6.65581982421875,-0.8877028226852417,-1.5873231887817383,9.63994312286377
1702070658316812000,6.67281201171875,-0.9150680899620056,-1.4491851329803467,9.659123420715332
1702070658333801000,6.689801025390625,-0.93216872215271,-1.35005521774292,9.671841621398926
1702070658350792200,6.706792236328125,-0.9429096579551697,-1.2643250226974487,9.682382583618164
1702070658367781400,6.723781494140625,-0.9512016773223877,-1.1678775548934937,9.693678855895996
1702070658384772600,6.740772705078125,-0.9479265809059143,-1.0775319337844849,9.704455375671387
1702070658401761500,6.757761474609375,-0.9094760417938232,-1.0425559282302856,9.711955070495605
1702070658418740200,6.774740234375,-0.7973970174789429,-1.1143162250518799,9.713833808898926
1702070658435731700,6.791731689453125,-0.7445409893989563,-1.1848865747451782,9.709675788879395
1702070658452724700,6.808724853515625,-0.6420485973358154,-1.3918743133544922,9.689507484436035
1702070658469719000,6.825718994140625,-0.5962905287742615,-1.5719555616378784,9.6648588180542
1702070658486707700,6.842707763671875,-0.5852620005607605,-1.7753113508224487,9.630257606506348
1702070658503702300,6.859702392578125,-0.5952906608581543,-2.0186355113983154,9.581589698791504
1702070658520684500,6.8766845703125,-0.625485360622406,-2.302511215209961,9.515425682067871
1702070658537677600,6.893677490234375,-0.6751028299331665,-2.6140949726104736,9.431164741516113
1702070658554663700,6.91066357421875,-0.7377712726593018,-2.918126106262207,9.336828231811523
1702070658571653400,6.9276533203125,-0.8221819400787354,-3.1839215755462646,9.242444038391113
1702070658588648700,6.944648681640625,-0.9556190371513367,-3.4236812591552734,9.143376350402832
1702070658605638000,6.961637939453125,-1.1518365144729614,-3.65911602973938,9.028858184814453
1702070658622627000,6.978626953125,-1.3910728693008423,-3.88834810256958,8.89841365814209
1702070658639617800,6.99561767578125,-1.6157475709915161,-4.100290775299072,8.764309883117676
1702070658656616000,7.012615966796875,-1.7616363763809204,-4.2825608253479,8.648260116577148
1702070658673595100,7.02959521484375,-1.8030080795288086,-4.409641742706299,8.575566291809082
1702070658690584300,7.046584228515625,-1.7595044374465942,-4.4475016593933105,8.565044403076172
1702070658707586600,7.063586669921875,-1.6621652841567993,-4.400835990905762,8.608481407165527
1702070658724580600,7.08058056640625,-1.5425169467926025,-4.3209638595581055,8.670989036560059
1702070658741556000,7.097555908203125,-1.4368492364883423,-4.2569780349731445,8.720651626586914
1702070658758555600,7.1145556640625,-1.3827168941497803,-4.235687732696533,8.739747047424316
1702070658775546600,7.131546630859375,-1.3901753425598145,-4.25517463684082,8.729089736938477
1702070658792536300,7.148536376953125,-1.425420880317688,-4.28879451751709,8.706925392150879
1702070658809525200,7.165525146484375,-1.4347501993179321,-4.304733753204346,8.697522163391113
1702070658826516500,7.1825166015625,-1.3853583335876465,-4.288512706756592,8.713528633117676
1702070658843505700,7.199505615234375,-1.2764370441436768,-4.24636173248291,8.750728607177734
1702070658860497000,7.216496826171875,-1.1248217821121216,-4.194666385650635,8.796344757080078
1702070658877485800,7.23348583984375,-0.9581879377365112,-4.14550256729126,8.839276313781738
1702070658894473700,7.2504736328125,-0.805306077003479,-4.098735809326172,8.876258850097656
1702070658911466500,7.267466552734375,-0.6818916201591492,-4.053164482116699,8.907468795776367
1702070658928457500,7.28445751953125,-0.584845244884491,-4.007088661193848,8.935173034667969
1702070658945446400,7.3014462890625,-0.49785301089286804,-3.9720396995544434,8.95606803894043
1702070658962427100,7.31842724609375,-0.41068536043167114,-3.9553277492523193,8.967879295349121
1702070658979427000,7.335427001953125,-0.3263323903083801,-3.9476308822631836,8.974733352661133
1702070658996418300,7.352418212890625,-0.24303236603736877,-3.944788932800293,8.97862434387207
1702070659013407500,7.369407470703125,-0.15134963393211365,-3.94714093208313,8.979605674743652
1702070659030388200,7.38638818359375,-0.04235430806875229,-3.9592151641845703,8.9754638671875
1702070659047387400,7.403387451171875,0.07801472395658493,-3.9858438968658447,8.963430404663086
1702070659064378600,7.420378662109375,0.2013392299413681,-4.026760578155518,8.943197250366211
1702070659081367800,7.437367919921875,0.3217056393623352,-4.074060440063477,8.918219566345215
1702070659098359000,7.454359130859375,0.4316481947898865,-4.122400760650635,8.891324043273926
1702070659115348200,7.47134814453125,0.5391662120819092,-4.1691670417785645,8.863603591918945
1702070659132339500,7.48833935546875,0.6555156111717224,-4.210023403167725,8.836408615112305
1702070659149328600,7.50532861328125,0.7595191597938538,-4.243094444274902,8.812230110168457
1702070659166318000,7.522318115234375,0.8233824372291565,-4.281485080718994,8.787890434265137
1702070659183308800,7.539308837890625,0.8396812677383423,-4.356493949890137,8.749402046203613
1702070659200300300,7.55630029296875,0.8163046836853027,-4.483928680419922,8.687012672424316
1702070659217289000,7.5732890625,0.7775352597236633,-4.628664970397949,8.614350318908691
1702070659234280400,7.590280517578125,0.749009370803833,-4.7161102294921875,8.569330215454102
1702070659251259100,7.607259033203125,0.7540891170501709,-4.704587936401367,8.575214385986328
1702070659268260600,7.624260498046875,0.7798411250114441,-4.620106220245361,8.618733406066895
1702070659285249300,7.641249267578125,0.798703670501709,-4.5015692710876465,8.679518699645996
1702070659302242000,7.658241943359375,0.782419741153717,-4.379720687866211,8.743109703063965
1702070659319230200,7.675230224609375,0.7233067750930786,-4.268249988555908,8.80312442779541
1702070659336211000,7.6922109375,0.6268311738967896,-4.161293983459473,8.861536026000977
1702070659353199600,7.70919970703125,0.502600371837616,-4.045510768890381,8.922855377197266
1702070659370194400,7.7261943359375,0.3574642837047577,-3.9067907333374023,8.991402626037598
1702070659387188200,7.743188232421875,0.1930592805147171,-3.74772047996521,9.06385326385498
1702070659404184300,7.760184326171875,0.015411507338285446,-3.580934762954712,9.133061408996582
1702070659421170000,7.777169921875,-0.15719479322433472,-3.4145328998565674,9.195237159729004
1702070659438163500,7.79416357421875,-0.3063938319683075,-3.245990037918091,9.252339363098145
1702070659455151400,7.8111513671875,-0.42309489846229553,-3.0700128078460693,9.307638168334961
1702070659472142600,7.828142578125,-0.5046203136444092,-2.8787877559661865,9.364510536193848
1702070659489129200,7.845129150390625,-0.5495052933692932,-2.670924663543701,9.423392295837402
1702070659506123000,7.862123046875,-0.5549817681312561,-2.459242820739746,9.480518341064453
1702070659523114500,7.879114501953125,-0.5175692439079285,-2.264394521713257,9.531041145324707
1702070659540098800,7.896098876953125,-0.4537732005119324,-2.0918822288513184,9.57362174987793
1702070659557096400,7.913096435546875,-0.3902212679386139,-1.9400650262832642,9.608329772949219
1702070659574076000,7.930075927734375,-0.3506975769996643,-1.8041067123413086,9.636303901672363
1702070659591061800,7.947061767578125,-0.33966419100761414,-1.678783655166626,9.659319877624512
1702070659608064000,7.96406396484375,-0.341019868850708,-1.5679736137390137,9.677876472473145
1702070659625052700,7.981052734375,-0.3431333303451538,-1.4739398956298828,9.6925687789917
1702070659642044000,7.9980439453125,-0.34650397300720215,-1.3937044143676758,9.704310417175293
1702070659659033000,8.015033203125,-0.3676711916923523,-1.3239315748214722,9.713297843933105
1702070659676024300,8.0320244140625,-0.41616564989089966,-1.260486364364624,9.719779968261719
1702070659693004300,8.04900439453125,-0.47952958941459656,-1.211559534072876,9.7230806350708
1702070659710004500,8.06600439453125,-0.5373477339744568,-1.19282066822052,9.722373008728027
1702070659726991400,8.082991455078124,-0.5830442905426025,-1.2061235904693604,9.718097686767578
1702070659743968300,8.09996826171875,-0.6150850057601929,-1.246418833732605,9.711036682128906
1702070659760974800,8.116974853515625,-0.6354318857192993,-1.3139106035232544,9.700823783874512
1702070659777965000,8.133965087890624,-0.6479817628860474,-1.4079604148864746,9.686787605285645
1702070659794941400,8.15094140625,-0.6529486775398254,-1.5206880569458008,9.669400215148926
1702070659811948300,8.1679482421875,-0.6551063060760498,-1.6459009647369385,9.64872932434082
1702070659828934700,8.1849345703125,-0.6574109792709351,-1.7907832860946655,9.622735977172852
1702070659845926000,8.20192578125,-0.6563657522201538,-1.9593576192855835,9.589902877807617
1702070659862915000,8.2189150390625,-0.6652669906616211,-2.142338514328003,9.55007553100586
1702070659879906300,8.23590625,-0.7140769362449646,-2.3371500968933105,9.500733375549316
1702070659896895500,8.2528955078125,-0.8181219696998596,-2.5514681339263916,9.436992645263672
1702070659913886700,8.26988671875,-0.9701372981071472,-2.783113718032837,9.35677433013916
1702070659930865000,8.286864990234376,-1.1536539793014526,-3.0215330123901367,9.261507987976074
1702070659947867000,8.303866943359376,-1.3286815881729126,-3.2735695838928223,9.15174674987793
1702070659964854000,8.32085400390625,-1.4204045534133911,-3.5489397048950195,9.034577369689941
1702070659981847000,8.337846923828126,-1.3838108777999878,-3.816047430038452,8.930788040161133
1702070659998836000,8.3548359375,-1.2672793865203857,-4.0319905281066895,8.852864265441895
1702070660015827500,8.371827392578124,-1.1399000883102417,-4.199914932250977,8.79189682006836
1702070660032816600,8.388816650390625,-1.0549529790878296,-4.348381042480469,8.730108261108398
1702070660049807600,8.4058076171875,-1.0104328393936157,-4.518442630767822,8.648632049560547
1702070660066800400,8.42280029296875,-0.972836971282959,-4.733741760253906,8.53705883026123
1702070660083784700,8.43978466796875,-0.9243044853210449,-4.980931758880615,8.40071964263916
1702070660100777000,8.45677685546875,-0.860266387462616,-5.22920560836792,8.255389213562012
1702070660117768200,8.473768310546875,-0.7989986538887024,-5.444329738616943,8.121390342712402
1702070660134757400,8.49075732421875,-0.7552077174186707,-5.600892543792725,8.018465995788574
1702070660151748600,8.50774853515625,-0.7356113195419312,-5.702884197235107,7.948087692260742
1702070660168737800,8.52473779296875,-0.7343494892120361,-5.7701029777526855,7.89954137802124
1702070660185729000,8.54172900390625,-0.7344120740890503,-5.813044548034668,7.867988109588623
1702070660202718000,8.558718017578125,-0.7278532385826111,-5.838629722595215,7.849634647369385
1702070660219709400,8.57570947265625,-0.7211295366287231,-5.850773811340332,7.8412065505981445
1702070660236698400,8.592698486328125,-0.7180679440498352,-5.851774215698242,7.840741157531738
1702070660253689300,8.609689453125,-0.7160137891769409,-5.841516017913818,7.848576545715332
1702070660270678500,8.626678466796875,-0.7058238387107849,-5.8249335289001465,7.861812114715576
1702070660287667500,8.64366748046875,-0.6765620708465576,-5.804318428039551,7.879611492156982
1702070660304661500,8.66066162109375,-0.6285768747329712,-5.770932674407959,7.908057689666748
1702070660321650000,8.67764990234375,-0.5794029831886292,-5.721247673034668,7.947813987731934
1702070660338639600,8.6946396484375,-0.5324351787567139,-5.6586480140686035,7.995769500732422
1702070660355630300,8.71163037109375,-0.4808826446533203,-5.590386390686035,8.046890258789062
1702070660372619500,8.72861962890625,-0.42454004287719727,-5.519503593444824,8.09882640838623
1702070660389610800,8.74561083984375,-0.3722483813762665,-5.447446346282959,8.150023460388184
1702070660406591200,8.76259130859375,-0.3277113139629364,-5.374353885650635,8.200307846069336
1702070660423591000,8.7795908203125,-0.2771714925765991,-5.300214767456055,8.250272750854492
1702070660440581600,8.79658154296875,-0.21256734430789948,-5.2238359451293945,8.300751686096191
1702070660457571000,8.813571044921876,-0.1586279571056366,-5.144718170166016,8.351218223571777
1702070660474564600,8.830564697265626,-0.1497126966714859,-5.062178611755371,8.401671409606934
1702070660491541500,8.84754150390625,-0.18400955200195312,-4.982123851776123,8.448710441589355
1702070660508540700,8.864540771484375,-0.23821966350078583,-4.912336826324463,8.488127708435059
1702070660525532200,8.8815322265625,-0.2937822639942169,-4.8483476638793945,8.523104667663574
1702070660542520800,8.898520751953125,-0.371837317943573,-4.7470622062683105,8.576903343200684
1702070660559512000,8.915511962890625,-0.4775397777557373,-4.587308883666992,8.65821361541748
1702070660576501500,8.93250146484375,-0.5416761636734009,-4.406666278839111,8.747798919677734
1702070660593492700,8.94949267578125,-0.5405377149581909,-4.226691722869873,8.836234092712402
1702070660610475500,8.9664755859375,-0.5528127551078796,-4.032769203186035,8.925654411315918
1702070660627475200,8.98347509765625,-0.6418424844741821,-3.8085575103759766,9.017708778381348
1702070660644461800,9.0004619140625,-0.7831635475158691,-3.568991184234619,9.104124069213867
1702070660661453000,9.017453125,-0.9136131405830383,-3.3381240367889404,9.179234504699707
1702070660678445600,9.034445556640625,-0.9754855036735535,-3.148897886276245,9.239535331726074
1702070660695430000,9.051429931640625,-0.9661629796028137,-3.0042378902435303,9.288553237915039
1702070660712419800,9.068419921875,-0.9259507656097412,-2.8776583671569824,9.332621574401855
1702070660729416400,9.08541650390625,-0.8974213600158691,-2.747128486633301,9.374649047851562
1702070660746402800,9.10240283203125,-0.9015026688575745,-2.5967442989349365,9.417022705078125
1702070660763394000,9.11939404296875,-0.9304525852203369,-2.42195463180542,9.460683822631836
1702070660780380400,9.13638037109375,-0.9600169658660889,-2.2390174865722656,9.502699851989746
1702070660797377000,9.153376953125,-0.9595383405685425,-2.0693957805633545,9.541122436523438
1702070660814363600,9.17036376953125,-0.9206655025482178,-1.9206820726394653,9.575984954833984
1702070660831352000,9.18735205078125,-0.8555947542190552,-1.791276454925537,9.607050895690918
1702070660848345300,9.204345458984376,-0.7848629951477051,-1.6744905710220337,9.634115219116211
1702070660865335800,9.221335693359375,-0.7243016362190247,-1.5622652769088745,9.657682418823242
1702070660882324000,9.238323974609376,-0.6814404129981995,-1.4569683074951172,9.67724323272705
1702070660899315200,9.255315185546875,-0.6492064595222473,-1.3720836639404297,9.691853523254395
1702070660916304600,9.2723046875,-0.615530252456665,-1.3267338275909424,9.700363159179688
1702070660933295600,9.289295654296875,-0.5812571048736572,-1.3381842374801636,9.70090389251709
1702070660950297600,9.306297607421875,-0.5597168207168579,-1.4076149463653564,9.692340850830078
1702070660967273200,9.323273193359375,-0.5540111064910889,-1.520868182182312,9.675543785095215
1702070660984267800,9.340267822265625,-0.5606153011322021,-1.6636557579040527,9.651637077331543
1702070661001256200,9.357256103515626,-0.574180543422699,-1.8415125608444214,9.618486404418945
1702070661018245000,9.3742451171875,-0.5913207530975342,-2.0700550079345703,9.570857048034668
1702070661035236400,9.391236328125,-0.6070319414138794,-2.3424108028411865,9.506878852844238
1702070661052225800,9.408225830078125,-0.6455621719360352,-2.6274306774139404,9.429526329040527
1702070661069216800,9.425216796875,-0.7007783055305481,-2.906582832336426,9.343276023864746
1702070661086203400,9.442203369140625,-0.7368211150169373,-3.182154655456543,9.250249862670898
1702070661103199500,9.459199462890625,-0.7333332896232605,-3.431454658508301,9.160974502563477
1702070661120182000,9.47618212890625,-0.7162681818008423,-3.608896017074585,9.093897819519043
1702070661137171000,9.4931708984375,-0.710882306098938,-3.7268457412719727,9.046622276306152
1702070661154166500,9.51016650390625,-0.6725654602050781,-3.8601789474487305,8.993486404418945
1702070661171145700,9.527145751953125,-0.5644499063491821,-4.0537590980529785,8.915411949157715
1702070661188147000,9.54414697265625,-0.4092010259628296,-4.28534460067749,8.81501579284668
1702070661205138000,9.561137939453126,-0.2656109631061554,-4.511716365814209,8.706892967224121
1702070661222127000,9.578127197265625,-0.16971369087696075,-4.710002422332764,8.603673934936523
1702070661239118300,9.595118408203126,-0.11082813143730164,-4.888627052307129,8.504420280456543
1702070661256107500,9.612107421875,-0.06248919665813446,-5.071479797363281,8.397161483764648
1702070661273097200,9.62909716796875,-0.0104823037981987,-5.270840644836426,8.273709297180176
1702070661290078000,9.646077880859375,0.046850234270095825,-5.477889537811279,8.137975692749023
1702070661307076000,9.663076171875,0.11068487167358398,-5.673587322235107,8.002140998840332
1702070661324070400,9.6800703125,0.17907215654850006,-5.843274116516113,7.8778300285339355
1702070661341059300,9.697059326171875,0.2435523271560669,-5.987749099731445,7.76683235168457
1702070661358048300,9.71404833984375,0.29322442412376404,-6.117801666259766,7.663071155548096
1702070661375039500,9.73103955078125,0.319985955953598,-6.240694999694824,7.562239646911621
1702070661392028400,9.7480283203125,0.32770663499832153,-6.347198486328125,7.47273588180542
1702070661409019400,9.765019287109375,0.33214759826660156,-6.4284467697143555,7.402761459350586
1702070661426007600,9.782007568359376,0.33942270278930664,-6.488316535949707,7.350012302398682
1702070661443001000,9.7990009765625,0.3522403836250305,-6.526927947998047,7.315140247344971
1702070661459989200,9.8159892578125,0.37241679430007935,-6.5443644523620605,7.29854154586792
1702070661476980000,9.83297998046875,0.3840603530406952,-6.535865783691406,7.3055524826049805
1702070661493969400,9.849969482421875,0.3771711587905884,-6.5009660720825195,7.336981296539307
1702070661510950100,9.8669501953125,0.3498067557811737,-6.443694114685059,7.3886799812316895
1702070661527949300,9.88394921875,0.30299803614616394,-6.367892265319824,7.4561567306518555
1702070661544940500,9.9009404296875,0.23857343196868896,-6.284128189086914,7.529204368591309
1702070661561927400,9.917927490234375,0.14780767261981964,-6.193002700805664,7.60664176940918
1702070661578923500,9.934923583984375,0.014156694523990154,-6.080756187438965,7.69807243347168
1702070661595901200,9.951901123046875,-0.15287604928016663,-5.945268630981445,7.80170202255249
1702070661612901400,9.9689013671875,-0.3251899778842926,-5.795605659484863,7.908308506011963
1702070661629890600,9.985890625,-0.5314277410507202,-5.5964274406433105,8.039508819580078
1702070661646878700,10.002878662109374,-0.7685165405273438,-5.33604621887207,8.1958589553833
1702070661663873800,10.019873779296875,-0.9156728386878967,-5.091298580169678,8.335247039794922
1702070661680861700,10.03686181640625,-0.9010916352272034,-4.878665447235107,8.46302318572998
1702070661697851100,10.05385107421875,-0.8300929665565491,-4.609389781951904,8.619778633117676
1702070661714842400,10.07084228515625,-0.8170840740203857,-4.243067264556885,8.807092666625977
1702070661731828700,10.087828857421876,-0.8694757223129272,-3.809309482574463,8.998294830322266
1702070661748822500,10.104822509765626,-0.9173358082771301,-3.403275489807129,9.1549072265625
1702070661765813800,10.121813720703125,-0.9113622903823853,-3.103059768676758,9.261564254760742
1702070661782803200,10.13880322265625,-0.8829839825630188,-2.88688588142395,9.33393669128418
1702070661799791900,10.1557919921875,-0.8554383516311646,-2.706967353820801,9.39024543762207
1702070661816782800,10.172782958984374,-0.8309402465820312,-2.5269007682800293,9.442479133605957
1702070661833772300,10.189772216796875,-0.8052396774291992,-2.3414628505706787,9.492379188537598
1702070661850763500,10.206763427734375,-0.7811889052391052,-2.1579830646514893,9.537766456604004
1702070661867752400,10.22375244140625,-0.7628947496414185,-1.986315369606018,9.57646369934082
1702070661884743700,10.24074365234375,-0.7514923810958862,-1.82943594455719,9.608567237854004
1702070661901732900,10.25773291015625,-0.7698783874511719,-1.6885265111923218,9.632875442504883
1702070661918711600,10.274711669921874,-0.8361620903015137,-1.5617077350616455,9.648730278015137
1702070661935715300,10.29171533203125,-0.957041323184967,-1.4522353410720825,9.654595375061035
1702070661961188000,10.31718798828125,-1.1936559677124023,-1.3224598169326782,9.64688777923584
1702070661978187000,10.33418701171875,-1.3682146072387695,-1.2631865739822388,9.63163948059082
1702070661995174000,10.351173828125,-1.526720643043518,-1.2167518138885498,9.61378002166748
1702070662012159700,10.36815966796875,-1.646756649017334,-1.1762797832489014,9.598993301391602
1702070662029155000,10.385155029296875,-1.7187262773513794,-1.1390198469161987,9.590866088867188
1702070662046142500,10.402142578125,-1.7460240125656128,-1.1086642742156982,9.589493751525879
1702070662063130000,10.419130126953124,-1.7382609844207764,-1.0923625230789185,9.592772483825684
1702070662080121000,10.43612109375,-1.700797200202942,-1.1131640672683716,9.597098350524902
1702070662097111600,10.453111572265625,-1.6482489109039307,-1.1877751350402832,9.597320556640625
1702070662114104300,10.470104248046875,-1.6117137670516968,-1.3197338581085205,9.586283683776855
1702070662131090200,10.487090087890625,-1.6193995475769043,-1.5110418796539307,9.556695938110352
1702070662148085800,10.504085693359375,-1.6757310628890991,-1.7441145181655884,9.507161140441895
1702070662165076000,10.521075927734374,-1.733131766319275,-2.007228136062622,9.444757461547852
1702070662182065000,10.53806494140625,-1.7140464782714844,-2.328597068786621,9.374211311340332
1702070662199051500,10.555051513671875,-1.5478171110153198,-2.737555503845215,9.292265892028809
1702070662216049200,10.572049072265624,-1.2650556564331055,-3.179954767227173,9.19367504119873
1702070662233030700,10.58903076171875,-0.9414479732513428,-3.5895605087280273,9.081016540527344
1702070662250022400,10.6060224609375,-0.6411904692649841,-3.9504475593566895,8.956502914428711
1702070662267015200,10.62301513671875,-0.41196441650390625,-4.268793106079102,8.822914123535156
1702070662284010200,10.64001025390625,-0.2591860294342041,-4.580644130706787,8.671022415161133
1702070662300999400,10.65699951171875,-0.15595225989818573,-4.916774749755859,8.487469673156738
1702070662317987300,10.6739873046875,-0.07064489275217056,-5.273892879486084,8.271468162536621
1702070662334969300,10.69096923828125,0.02117861621081829,-5.614542484283447,8.044414520263672
1702070662351959300,10.707959228515625,0.1304478794336319,-5.907018184661865,7.831106662750244
1702070662368966000,10.7249658203125,0.25844109058380127,-6.147054195404053,7.6408796310424805
1702070662385950200,10.7419501953125,0.389992356300354,-6.343222141265869,7.473123073577881
1702070662402944000,10.758944091796875,0.4996264576911926,-6.507847309112549,7.32355260848999
1702070662419932000,10.775931884765624,0.5758244395256042,-6.650219917297363,7.188817977905273
1702070662436922000,10.792922119140625,0.6237014532089233,-6.76896333694458,7.073066711425781
1702070662453912300,10.809912353515625,0.6459846496582031,-6.865643501281738,6.977232456207275
1702070662470902800,10.82690283203125,0.6464372277259827,-6.947225570678711,6.895963191986084
1702070662487892500,10.843892578125,0.6393930315971375,-7.030979633331299,6.811212539672852
1702070662504882700,10.860882568359376,0.6379265785217285,-7.127486228942871,6.710299015045166
1702070662521873200,10.877873046875,0.6409238576889038,-7.236011981964111,6.592833995819092
1702070662538863400,10.89486328125,0.6454373002052307,-7.343854904174805,6.472041130065918
1702070662555853000,10.91185302734375,0.6501361727714539,-7.442720413208008,6.35762357711792
1702070662572843300,10.92884326171875,0.650837242603302,-7.525445938110352,6.259409427642822
1702070662589833200,10.945833251953125,0.6258807182312012,-7.581632137298584,6.193806171417236
1702070662606813200,10.962813232421874,0.5551978349685669,-7.593036651611328,6.186572074890137
1702070662623816200,10.979816162109374,0.4552344083786011,-7.548455238342285,6.248976230621338
1702070662640804000,10.99680419921875,0.3844088315963745,-7.460789203643799,6.3580641746521
1702070662657790500,11.01379052734375,0.31074559688568115,-7.327866077423096,6.514747619628906
1702070662674788000,11.0307880859375,0.16974174976348877,-7.136531829833984,6.728833198547363
1702070662691774000,11.04777392578125,0.01191721111536026,-6.954593181610107,6.918787002563477
1702070662708764700,11.0647646484375,-0.06528767198324203,-6.816873550415039,7.054224967956543
1702070662725746200,11.08174609375,-0.07285689562559128,-6.652867317199707,7.2090349197387695
1702070662742747600,11.09874755859375,-0.09402966499328613,-6.393948554992676,7.439401149749756
1702070662759734300,11.115734375,-0.13256749510765076,-6.044952869415283,7.725094318389893
1702070662776725200,11.132725341796874,-0.1363617479801178,-5.64713716506958,8.02043342590332
1702070662793712600,11.149712646484375,-0.10042300820350647,-5.240129470825195,8.29259204864502
1702070662810708000,11.1667080078125,-0.06374751776456833,-4.8406453132629395,8.532305717468262
1702070662827695000,11.183695068359375,-0.06933218985795975,-4.450063705444336,8.742325782775879
1702070662844685600,11.200685546875,-0.12479069828987122,-4.065793514251709,8.926918029785156
1702070662861675800,11.21767578125,-0.20856258273124695,-3.6860387325286865,9.088769912719727
1702070662878666200,11.234666259765625,-0.2887934148311615,-3.3149166107177734,9.228436470031738
1702070662895655700,11.25165576171875,-0.34413787722587585,-2.9653685092926025,9.344745635986328
1702070662912646100,11.268646240234375,-0.376936674118042,-2.642157554626465,9.439970016479492
1702070662929636400,11.28563623046875,-0.3962664008140564,-2.3395750522613525,9.518691062927246
1702070662946626600,11.30262646484375,-0.41156506538391113,-2.0471417903900146,9.585193634033203
1702070662963614200,11.3196142578125,-0.43577808141708374,-1.7489548921585083,9.642996788024902
1702070662980607500,11.336607421875,-0.4607965648174286,-1.43826425075531,9.693047523498535
1702070662997597700,11.35359765625,-0.4612962305545807,-1.1174240112304688,9.735228538513184
1702070663014587400,11.37058740234375,-0.41198021173477173,-0.7964089512825012,9.768938064575195
1702070663031576800,11.387576904296875,-0.29637256264686584,-0.4899733066558838,9.793272972106934
1702070663048569300,11.4045693359375,-0.11626662313938141,-0.2124778926372528,9.807012557983398
1702070663065555700,11.4215556640625,0.0953219011425972,0.01997438259422779,9.809515953063965
1702070663082547500,11.43854736328125,0.27885138988494873,0.1989746242761612,9.804018020629883
1702070663099534600,11.45553466796875,0.370795339345932,0.317229300737381,9.797858238220215
1702070663116530200,11.4725302734375,0.3765244483947754,0.35856208205223083,9.796213150024414
1702070663133517800,11.489517822265626,0.36606699228286743,0.3174169957637787,9.798028945922852
1702070663150508300,11.50650830078125,0.3616780638694763,0.20125210285186768,9.80126667022705
1702070663167498000,11.523498046875,0.3083617091178894,0.030843187123537064,9.80510425567627
1702070663184488200,11.54048828125,0.19806654751300812,-0.17191019654273987,9.806493759155273
1702070663201478400,11.557478515625,0.08258432149887085,-0.4048580229282379,9.801295280456543
1702070663218468600,11.574468505859375,0.006300375331193209,-0.6790377497673035,9.786470413208008
1702070663235458300,11.591458251953124,0.002311989199370146,-1.0501538515090942,9.753628730773926
1702070663252448800,11.60844873046875,0.03264676034450531,-1.5579982995986938,9.68543815612793
1702070663269439000,11.62543896484375,0.02996581234037876,-2.1695361137390137,9.567044258117676
1702070663286429700,11.6424296875,-0.005822072736918926,-2.7999401092529297,9.401936531066895
1702070663303419100,11.659419189453125,-0.05244952812790871,-3.3875670433044434,9.206398963928223
1702070663320409600,11.67640966796875,-0.09399867057800293,-3.91487717628479,8.994501113891602
1702070663337399600,11.693399658203125,-0.11925923079252243,-4.379025936126709,8.777586936950684
1702070663354390000,11.71039013671875,-0.1255660355091095,-4.778469562530518,8.566596031188965
1702070663371379500,11.72737939453125,-0.11819153279066086,-5.120617866516113,8.366684913635254
1702070663388370200,11.7443701171875,-0.10351911187171936,-5.413066387176514,8.180715560913086
1702070663405360000,11.761360107421876,-0.07957300543785095,-5.640756607055664,8.025687217712402
1702070663422350600,11.7783505859375,-0.05223025754094124,-5.799412727355957,7.912027835845947
1702070663439340300,11.79534033203125,-0.03002077527344227,-5.900922775268555,7.836730003356934
1702070663456330200,11.812330322265625,-0.01743873581290245,-5.959981441497803,7.791945934295654
1702070663473320400,11.829320556640624,-0.022452140226960182,-5.994632244110107,7.765308380126953
1702070663490297900,11.8462978515625,-0.04489492252469063,-6.019893646240234,7.745644569396973
1702070663507290400,11.863290283203124,-0.06796453148126602,-6.046832084655762,7.724461078643799
1702070663524291000,11.880291015625,-0.0776510238647461,-6.0819091796875,7.696784019470215
1702070663541281300,11.89728125,-0.07443096488714218,-6.12060022354126,7.6660847663879395
1702070663558271700,11.914271728515626,-0.06505203247070312,-6.154918670654297,7.638641357421875
1702070663575261200,11.93126123046875,-0.06239096447825432,-6.186913013458252,7.612776279449463
1702070663592258000,11.948258056640626,-0.06461407244205475,-6.227238178253174,7.579805850982666
1702070663609241900,11.965241943359375,-0.06726403534412384,-6.279714584350586,7.5363640785217285
1702070663626235000,11.98223486328125,-0.07640615850687027,-6.333324909210205,7.4912800788879395
1702070663643217000,11.999216796875,-0.0947050154209137,-6.3739542961120605,7.4565324783325195
1702070663660214000,12.016214111328125,-0.13149219751358032,-6.38069486618042,7.450206279754639
1702070663677192000,12.03319189453125,-0.1972435563802719,-6.340859413146973,7.482694625854492
1702070663694192600,12.050192626953125,-0.26687395572662354,-6.278966903686523,7.532561302185059
1702070663711181000,12.06718115234375,-0.302319198846817,-6.21654748916626,7.582827568054199
1702070663728172500,12.084172607421875,-0.3109917938709259,-6.130423545837402,7.652274131774902
1702070663745162800,12.101162841796874,-0.34436067938804626,-5.986249923706055,7.764171123504639
1702070663762142700,12.118142822265625,-0.40870401263237,-5.804498672485352,7.8979034423828125
1702070663779142700,12.135142578125,-0.45217105746269226,-5.635574817657471,8.01698112487793
1702070663796133000,12.152133056640626,-0.44690972566604614,-5.464371681213379,8.134927749633789
1702070663813123600,12.16912353515625,-0.41540491580963135,-5.230733394622803,8.288726806640625
1702070663830120000,12.186119873046875,-0.37332192063331604,-4.909868240356445,8.484688758850098
1702070663847100000,12.203099853515624,-0.3275224566459656,-4.509818077087402,8.705766677856445
1702070663864097300,12.22009716796875,-0.2813253402709961,-4.057044506072998,8.927339553833008
1702070663881083600,12.237083740234375,-0.237243190407753,-3.605454206466675,9.12033748626709
1702070663898074400,12.254074462890625,-0.18976204097270966,-3.211087465286255,9.267633438110352
1702070663915063800,12.271063720703125,-0.13885675370693207,-2.896632194519043,9.371570587158203
1702070663932054300,12.28805419921875,-0.09513712674379349,-2.642564058303833,9.446900367736816
1702070663949044200,12.305044189453126,-0.07577933371067047,-2.4260406494140625,9.504981994628906
1702070663966038000,12.3220380859375,-0.08748253434896469,-2.2417056560516357,9.550037384033203
1702070663983021300,12.339021240234375,-0.11666014045476913,-2.085326910018921,9.585088729858398
1702070664000013600,12.356013671875,-0.15458430349826813,-1.950566053390503,9.612883567810059
1702070664017004800,12.3730048828125,-0.19823670387268066,-1.8252739906311035,9.636658668518066
1702070664033995300,12.389995361328126,-0.2433348149061203,-1.6966232061386108,9.659109115600586
1702070664050985000,12.40698486328125,-0.2838618755340576,-1.568633794784546,9.67961311340332
1702070664067975400,12.423975341796876,-0.3092016577720642,-1.4623384475708008,9.695467948913574
1702070664084962800,12.440962890625,-0.31794118881225586,-1.3996340036392212,9.70443344116211
1702070664101958400,12.45795849609375,-0.31375136971473694,-1.397786259651184,9.704838752746582
1702070664118945300,12.4749453125,-0.31282633543014526,-1.4574004411697388,9.696094512939453
1702070664135925800,12.49192578125,-0.3414350152015686,-1.5579190254211426,9.679486274719238
1702070664152925700,12.50892578125,-0.409817636013031,-1.6753085851669312,9.657201766967773
1702070664169906400,12.525906494140624,-0.4861603379249573,-1.8243942260742188,9.626595497131348
1702070664186907400,12.542907470703126,-0.527559220790863,-2.0293521881103516,9.583294868469238
1702070664203894800,12.559894775390624,-0.51656174659729,-2.2764594554901123,9.52822208404541
1702070664220886800,12.57688671875,-0.4610617458820343,-2.520707607269287,9.469402313232422
1702070664237876700,12.593876708984375,-0.3878961205482483,-2.7380447387695312,9.412161827087402
1702070664254855700,12.610855712890626,-0.3134359121322632,-2.972999334335327,9.343400955200195
1702070664271854300,12.627854248046875,-0.22386124730110168,-3.302384376525879,9.234731674194336
1702070664288849400,12.644849365234375,-0.08794037252664566,-3.744719982147217,9.066722869873047
1702070664305834800,12.661834716796875,0.11128012090921402,-4.242797374725342,8.844344139099121
1702070664322829800,12.678829833984375,0.3637973964214325,-4.703191757202148,8.6013822555542
1702070664339817500,12.6958173828125,0.6330885887145996,-5.060601711273193,8.380074501037598
1702070664356807700,12.7128076171875,0.8447923064231873,-5.302271366119385,8.210259437561035
1702070664373787400,12.729787353515626,0.9480366110801697,-5.467386722564697,8.089810371398926
1702070664390787600,12.74678759765625,0.945747971534729,-5.604026794433594,7.996035575866699
1702070664407777800,12.76377783203125,0.8929476141929626,-5.7350969314575195,7.908692836761475
1702070664424768300,12.780768310546875,0.8482047319412231,-5.869785785675049,7.814236164093018
1702070664441758500,12.797758544921875,0.8281102180480957,-5.996264934539795,7.719790458679199
1702070664458742800,12.81474267578125,0.821699321269989,-6.082207202911377,7.652953147888184
1702070664475730700,12.831730712890625,0.8074040412902832,-6.112968921661377,7.629929065704346
1702070664492728800,12.848728759765624,0.774744987487793,-6.102334499359131,7.641820430755615
1702070664509718800,12.86571875,0.725820779800415,-6.077202320098877,7.666611194610596
1702070664526708500,12.88270849609375,0.665643572807312,-6.060802936553955,7.685031890869141
1702070664543688400,12.8996884765625,0.5995214581489563,-6.055940628051758,7.694302082061768
1702070664560689400,12.916689453125,0.5420106053352356,-6.04630184173584,7.706138610839844
1702070664577679600,12.9336796875,0.4707552492618561,-6.004775047302246,7.74320125579834
1702070664594666800,12.950666748046874,0.3692622184753418,-5.942302703857422,7.796716690063477
1702070664611662300,12.967662353515625,0.23324836790561676,-5.882500171661377,7.847160339355469
1702070664628649700,12.984649658203125,0.07044082880020142,-5.833546161651611,7.886754035949707
1702070664645640200,13.00164013671875,-0.05428789183497429,-5.781064033508301,7.925431251525879
1702070664662629600,13.018629638671875,-0.0873807966709137,-5.690622806549072,7.990324974060059
1702070664679617500,13.035617431640626,-0.0412035770714283,-5.523712635040283,8.106974601745605
1702070664696612900,13.05261279296875,0.027074947953224182,-5.285525321960449,8.264297485351562
1702070664713600500,13.0696005859375,0.05608883500099182,-5.021177768707275,8.42738151550293
1702070664730590200,13.086590087890626,0.032656699419021606,-4.771721839904785,8.571216583251953
1702070664747580700,13.10358056640625,-0.03084464929997921,-4.532618999481201,8.700029373168945
1702070664764567300,13.1205673828125,-0.1101001501083374,-4.283197402954102,8.82486343383789
1702070664781564700,13.137564697265624,-0.17357927560806274,-4.011824607849121,8.950488090515137
1702070664798550800,13.15455078125,-0.20262649655342102,-3.713393211364746,9.077762603759766
1702070664815531300,13.17153125,-0.19359079003334045,-3.4003913402557373,9.19978141784668
1702070664832533800,13.18853369140625,-0.1639290302991867,-3.0884087085723877,9.309725761413574
1702070664849519000,13.20551904296875,-0.13924559950828552,-2.7875900268554688,9.40457820892334
1702070664866511000,13.222510986328125,-0.1366523653268814,-2.502027988433838,9.484582901000977
1702070664883501800,13.239501708984376,-0.16211698949337006,-2.2317264080047607,9.551399230957031
1702070664900491500,13.256491455078125,-0.20992089807987213,-1.9774588346481323,9.606338500976562
1702070664917478700,13.273478759765625,-0.26539403200149536,-1.7489537000656128,9.649188995361328
1702070664934474800,13.290474853515626,-0.31322014331817627,-1.554916262626648,9.68092155456543
1702070664951462100,13.307462158203125,-0.35228773951530457,-1.3930416107177734,9.70419692993164
1702070664968441600,13.324441650390625,-0.39107057452201843,-1.2540767192840576,9.721651077270508
1702070664985445000,13.341445068359375,-0.4318367838859558,-1.1358702182769775,9.73444652557373
1702070665002432300,13.358432373046876,-0.46958932280540466,-1.040666103363037,9.743338584899902
1702070665019422500,13.37542236328125,-0.4980892539024353,-0.9750249981880188,9.748709678649902
1702070665036412700,13.39241259765625,-0.5107554793357849,-0.9519118666648865,9.75033950805664
1702070665053403000,13.40940283203125,-0.5087767839431763,-0.9778600335121155,9.747872352600098
1702070665070382600,13.426382568359376,-0.4934366047382355,-1.0445817708969116,9.741739273071289
1702070665087383000,13.443383056640625,-0.47568798065185547,-1.1363917589187622,9.732339859008789
1702070665104373000,13.460373046875,-0.4739285409450531,-1.2471410036087036,9.718854904174805
1702070665121363700,13.47736376953125,-0.5153735876083374,-1.4050345420837402,9.695174217224121
1702070665138353200,13.494353271484375,-0.6111159324645996,-1.6606128215789795,9.649093627929688
1702070665155343600,13.511343505859376,-0.7072055339813232,-2.026303291320801,9.572360038757324
1702070665172333800,13.528333740234375,-0.7409703135490417,-2.422469139099121,9.477274894714355
1702070665189324000,13.545323974609374,-0.7091339826583862,-2.7516472339630127,9.389445304870605
1702070665206314000,13.56231396484375,-0.6476861834526062,-2.9722280502319336,9.326440811157227
1702070665223304400,13.579304443359375,-0.5810244083404541,-3.1148428916931152,9.284196853637695
1702070665240294400,13.59629443359375,-0.5248379111289978,-3.238649606704712,9.245097160339355
1702070665257284600,13.61328466796875,-0.48351797461509705,-3.391509771347046,9.192388534545898
1702070665274269700,13.630269775390625,-0.44059064984321594,-3.5642504692077637,9.128971099853516
1702070665291254300,13.647254150390625,-0.38772302865982056,-3.7224645614624023,9.068022727966309
1702070665308254700,13.664254638671874,-0.32565250992774963,-3.8529305458068848,9.015820503234863
1702070665325230600,13.681230712890626,-0.26339778304100037,-3.965420722961426,8.96895694732666
1702070665342235000,13.69823486328125,-0.2066207230091095,-4.075868606567383,8.92080307006836
1702070665359225000,13.71522509765625,-0.17479199171066284,-4.182949066162109,8.871780395507812
1702070665376215300,13.73221533203125,-0.17614854872226715,-4.284947872161865,8.822942733764648
1702070665393203200,13.749203125,-0.2030176818370819,-4.387104511260986,8.772012710571289
1702070665410179300,13.766179443359375,-0.24007733166217804,-4.496363639831543,8.71557331085205
1702070665427188000,13.78318798828125,-0.27015891671180725,-4.620616436004639,8.649452209472656
1702070665444160000,13.800159912109375,-0.2890518605709076,-4.747959136962891,8.579594612121582
1702070665461154000,13.817154052734375,-0.2983664572238922,-4.881575584411621,8.503959655761719
1702070665478146800,13.834146728515625,-0.29370683431625366,-4.941192626953125,8.469620704650879
1702070665495139800,13.851139892578125,-0.2724948823451996,-5.010576248168945,8.42947006225586
1702070665512129000,13.86812890625,-0.22719532251358032,-5.067385673522949,8.396791458129883
1702070665529123800,13.885123779296874,-0.14762583374977112,-5.1074395179748535,8.37427043914795
1702070665546111200,13.902111328125,-0.038985725492239,-5.123396873474121,8.365728378295898
1702070665563097900,13.919097900390625,0.08777431398630142,-5.11975622177124,8.36758804321289
1702070665580088600,13.936088623046874,0.21452265977859497,-5.111294746398926,8.370469093322754
1702070665597079800,13.953079833984376,0.329303503036499,-5.101694583892822,8.372597694396973
1702070665614070800,13.97007080078125,0.41668254137039185,-5.084856986999512,8.378945350646973
1702070665631056400,13.987056396484375,0.45703884959220886,-5.059598922729492,8.392120361328125
1702070665648054800,14.0040546875,0.45863163471221924,-5.0283894538879395,8.410772323608398
1702070665665042700,14.021042724609375,0.46113309264183044,-4.986183166503906,8.435724258422852
1702070665682030600,14.038030517578125,0.48942774534225464,-4.905640125274658,8.481230735778809
1702070665699019000,14.05501904296875,0.5430397391319275,-4.750968933105469,8.565601348876953
1702070665716012800,14.0720126953125,0.5982158184051514,-4.5096211433410645,8.691466331481934
1702070665733003800,14.089003662109375,0.6353941559791565,-4.204950332641602,8.840292930603027
1702070665749991400,14.105991455078126,0.646847665309906,-3.8779397010803223,8.987730026245117
1702070665766982700,14.122982666015625,0.6456729769706726,-3.5654852390289307,9.116278648376465
1702070665783969300,14.13996923828125,0.6407467126846313,-3.2771153450012207,9.224210739135742
1702070665800961000,14.1569609375,0.6350146532058716,-2.9956414699554443,9.319817543029785
1702070665817943300,14.173943359375,0.6243107318878174,-2.7111852169036865,9.407220840454102
1702070665834936600,14.1909365234375,0.5999863147735596,-2.4399502277374268,9.482762336730957
1702070665851928300,14.20792822265625,0.5644814372062683,-2.198976516723633,9.543688774108887
1702070665868931600,14.224931640625,0.5131511092185974,-1.989693284034729,9.592389106750488
1702070665885918500,14.24191845703125,0.4441013038158417,-1.8093379735946655,9.631468772888184
1702070665902909200,14.2589091796875,0.35772740840911865,-1.6540411710739136,9.662934303283691
1702070665919899400,14.2758994140625,0.25655946135520935,-1.527940273284912,9.686881065368652
1702070665936889600,14.2928896484375,0.15593881905078888,-1.4375101327896118,9.70285415649414
1702070665953879600,14.309879638671875,0.07557351142168045,-1.3899035453796387,9.71074390411377
1702070665970867200,14.3268671875,0.024743663147091866,-1.3848541975021362,9.711729049682617
1702070665987859700,14.343859619140625,0.005123330745846033,-1.4165918827056885,9.707180976867676
1702070666004850000,14.360849853515624,0.010826705023646355,-1.475199818611145,9.698444366455078
1702070666021824000,14.377823974609376,0.03798234462738037,-1.5562175512313843,9.685705184936523
1702070666038830300,14.394830322265625,0.0839093029499054,-1.6629046201705933,9.667670249938965
1702070666055820300,14.4118203125,0.14439992606639862,-1.8001741170883179,9.64233684539795
1702070666072810800,14.428810791015625,0.2273707389831543,-1.957866907119751,9.609952926635742
1702070666089800200,14.44580029296875,0.32420238852500916,-2.1198089122772217,9.57274341583252
1702070666106787000,14.462787109375,0.4126596748828888,-2.2863576412200928,9.530919075012207
1702070666123784000,14.479783935546875,0.4771515429019928,-2.469625949859619,9.482056617736816
1702070666140771300,14.496771240234375,0.5110788345336914,-2.6717302799224854,9.425326347351074
1702070666157760800,14.5137607421875,0.5136100649833679,-2.8865175247192383,9.361640930175781
1702070666174751200,14.530751220703126,0.4793524146080017,-3.100585460662842,9.294767379760742
1702070666191741200,14.5477412109375,0.4034631550312042,-3.3016440868377686,9.228894233703613
1702070666208731400,14.5647314453125,0.2942143678665161,-3.5019490718841553,9.158926010131836
1702070666225721000,14.58172119140625,0.1849415898323059,-3.7337169647216797,9.069801330566406
1702070666242711800,14.5987119140625,0.11922473460435867,-4.001287937164307,8.956093788146973
1702070666259701800,14.61570166015625,0.1052902340888977,-4.253299713134766,8.839369773864746
1702070666276692200,14.632692138671874,0.11175725609064102,-4.423308849334717,8.755453109741211
1702070666293678800,14.649678955078125,0.1145966574549675,-4.4832916259765625,8.724855422973633
1702070666310664200,14.666664306640625,0.11005980521440506,-4.460577487945557,8.736547470092773
1702070666327662000,14.683662109375,0.10259583592414856,-4.414606094360352,8.759958267211914
1702070666344652300,14.70065234375,0.0976046547293663,-4.405150413513184,8.76477336883545
1702070666361642200,14.717642333984376,0.09357591718435287,-4.45454216003418,8.73981761932373
1702070666378632400,14.734632568359375,0.0945313572883606,-4.546937942504883,8.692095756530762
1702070666395622700,14.75162255859375,0.10990134626626968,-4.647745609283447,8.638431549072266
1702070666412612900,14.76861279296875,0.14826960861682892,-4.721000671386719,8.598039627075195
1702070666429592000,14.785592041015626,0.20327085256576538,-4.76046895980835,8.57512378692627
1702070666446593300,14.80259326171875,0.26726222038269043,-4.780331611633301,8.562308311462402
1702070666463580400,14.819580322265624,0.3327896296977997,-4.797142028808594,8.550602912902832
1702070666480576000,14.836575927734375,0.39265692234039307,-4.8233795166015625,8.533286094665527
1702070666497563400,14.8535634765625,0.4376056492328644,-4.858999729156494,8.510860443115234
1702070666514551000,14.870551025390625,0.4683620035648346,-4.89613151550293,8.48791217803955
1702070666531546400,14.88754638671875,0.4896318316459656,-4.92825984954834,8.468095779418945
1702070666548534300,14.9045341796875,0.508466899394989,-4.955499649047852,8.451071739196777
1702070666565523700,14.921523681640625,0.531204342842102,-4.983760833740234,8.433035850524902
1702070666582514200,14.93851416015625,0.5615730285644531,-5.020328998565674,8.409344673156738
1702070666599504100,14.955504150390626,0.5962622165679932,-5.065731048583984,8.37967586517334
1702070666616495900,14.972495849609375,0.6342466473579407,-5.112574100494385,8.348380088806152
1702070666633483000,14.98948291015625,0.6761851906776428,-5.149555206298828,8.322318077087402
1702070666650481700,15.006481689453125,0.7102057933807373,-5.163756847381592,8.310675621032715
1702070666667464700,15.023464599609374,0.7084875702857971,-5.153589248657227,8.317132949829102
1702070666684455000,15.040454833984375,0.6764129400253296,-5.1461944580078125,8.324377059936523
1702070666701444900,15.05744482421875,0.6488962173461914,-5.169294357299805,8.312248229980469
1702070666718419500,15.07441943359375,0.644711971282959,-5.208827018737793,8.287857055664062
1702070666735414500,15.09141455078125,0.6401500105857849,-5.21992826461792,8.281225204467773
1702070666752404700,15.10840478515625,0.6121023297309875,-5.168319225311279,8.315643310546875
1702070666769405200,15.1254052734375,0.5635590553283691,-5.046003341674805,8.393830299377441
1702070666786395400,15.1423955078125,0.5010976195335388,-4.8775224685668945,8.49675178527832
1702070666803385900,15.1593857421875,0.4222894310951233,-4.703521728515625,8.598526954650879
1702070666820376000,15.1763759765625,0.3293461799621582,-4.553982257843018,8.68267822265625
1702070666837365800,15.19336572265625,0.2242477536201477,-4.431352138519287,8.749226570129395
1702070666854356000,15.21035595703125,0.10915348678827286,-4.321198463439941,8.806330680847168
1702070666871342800,15.2273427734375,-0.00922222901135683,-4.211198806762695,8.860126495361328
1702070666888335600,15.244335693359375,-0.12422995269298553,-4.0951924324035645,8.91347885131836
1702070666905326000,15.261326171875,-0.22485527396202087,-3.9712231159210205,8.967438697814941
1702070666922302200,15.27830224609375,-0.29760926961898804,-3.8428797721862793,9.021078109741211
1702070666939306500,15.295306396484374,-0.33450284600257874,-3.716210126876831,9.07270622253418
1702070666956297000,15.312296875,-0.33725863695144653,-3.5977656841278076,9.120223045349121
1702070666973286700,15.32928662109375,-0.31757456064224243,-3.4868240356445312,9.16391372680664
1702070666990269400,15.34626953125,-0.2907148003578186,-3.379020929336548,9.205098152160645
1702070667007264300,15.36326416015625,-0.2678077518939972,-3.2716217041015625,9.244504928588867
1702070667024260000,15.380260009765625,-0.25112682580947876,-3.1660828590393066,9.281645774841309
1702070667041247200,15.397247314453125,-0.24064217507839203,-3.0643246173858643,9.316014289855957
1702070667058237400,15.414237548828124,-0.23560479283332825,-2.969419240951538,9.346824645996094
1702070667075223600,15.4312236328125,-0.24123507738113403,-2.8806917667388916,9.374407768249512
1702070667092221700,15.4482216796875,-0.26048409938812256,-2.7937474250793457,9.400172233581543
1702070667109207300,15.465207275390625,-0.2934413552284241,-2.704638957977295,9.425228118896484
1702070667126195000,15.48219482421875,-0.33415141701698303,-2.6111953258514404,9.450190544128418
1702070667143188200,15.499188232421876,-0.36742091178894043,-2.523574113845825,9.472732543945312
1702070667160180700,15.5161806640625,-0.3866167366504669,-2.4564261436462402,9.489606857299805
1702070667177158400,15.533158447265626,-0.3960319459438324,-2.421041488647461,9.498306274414062
1702070667194158600,15.55015869140625,-0.4038110673427582,-2.417051076889038,9.498997688293457
1702070667211159800,15.567159912109375,-0.40107807517051697,-2.434100866317749,9.494756698608398
1702070667228139000,15.584138916015625,-0.36753085255622864,-2.454765796661377,9.49079418182373
1702070667245134000,15.601134033203126,-0.3048335015773773,-2.478630781173706,9.486810684204102
1702070667262118700,15.61811865234375,-0.2460566908121109,-2.53198504447937,9.474420547485352
1702070667279108900,15.63510888671875,-0.23941484093666077,-2.6420063972473145,9.444499969482422
1702070667296099000,15.65209912109375,-0.30136433243751526,-2.814255952835083,9.392830848693848
1702070667313088800,15.6690888671875,-0.3848426938056946,-3.032320022583008,9.321642875671387
1702070667330066200,15.686066162109375,-0.4223625361919403,-3.26932954788208,9.239544868469238
1702070667347069400,15.7030693359375,-0.3595961630344391,-3.5074656009674072,9.15447998046875
1702070667364070100,15.720070068359375,-0.2084517776966095,-3.744713068008423,9.0647554397583
1702070667381049000,15.737049072265625,-0.0355382077395916,-4.004536151885986,8.955364227294922
1702070667398037000,15.754037109375,0.10382199287414551,-4.302294731140137,8.815644264221191
1702070667415032600,15.771032470703124,0.18162447214126587,-4.613006114959717,8.6558256149292
1702070667432020200,15.788020263671875,0.20668914914131165,-4.906064510345459,8.492581367492676
1702070667449010000,15.805010009765626,0.21351021528244019,-5.181524753570557,8.327204704284668
1702070667466001400,15.82200146484375,0.24685104191303253,-5.453487396240234,8.150745391845703
1702070667482989300,15.8389892578125,0.3201134502887726,-5.713918209075928,7.967734336853027
1702070667499980500,15.85598046875,0.4128192961215973,-5.936684608459473,7.798811435699463
1702070667516967400,15.872967529296876,0.49445489048957825,-6.117103576660156,7.6532793045043945
1702070667533963300,15.88996337890625,0.5469520688056946,-6.262948513031006,7.530767917633057
1702070667550950700,15.90695068359375,0.567414402961731,-6.379214286804199,7.431000232696533
1702070667567941400,15.92394140625,0.5637111067771912,-6.46959114074707,7.352737903594971
1702070667584931000,15.94093115234375,0.5487390160560608,-6.53456974029541,7.296192169189453
1702070667601920800,15.957920654296874,0.5294241905212402,-6.574634075164795,7.261545181274414
1702070667618911000,15.974910888671875,0.5005506277084351,-6.5901360511779785,7.2495293617248535
1702070667635891200,15.99189111328125,0.45314696431159973,-6.581774711608887,7.260234355926514
1702070667652878300,16.00887841796875,0.39166727662086487,-6.567420959472656,7.276791095733643
1702070667669884400,16.025884521484375,0.33508992195129395,-6.569363594055176,7.2778639793396
1702070667686870800,16.042870849609375,0.2937702536582947,-6.589295387268066,7.261611461639404
1702070667703863000,16.059863037109373,0.26550978422164917,-6.612748622894287,7.241352558135986
1702070667720851700,16.076851806640626,0.24190546572208405,-6.621124267578125,7.234523773193359
1702070667737842200,16.09384228515625,0.21319825947284698,-6.605571746826172,7.2496256828308105
1702070667754832100,16.11083203125,0.1751808375120163,-6.567710876464844,7.284956455230713
1702070667771822600,16.127822509765625,0.1355741322040558,-6.519504070281982,7.328969478607178
1702070667788811500,16.1448115234375,0.09834461659193039,-6.463156223297119,7.379299163818359
1702070667805793500,16.16179345703125,0.05782691761851311,-6.387821197509766,7.445033073425293
1702070667822791000,16.178791015625,0.020257387310266495,-6.284048557281494,7.533024787902832
1702070667839783000,16.195782958984374,-0.014689960516989231,-6.145158290863037,7.646758079528809
1702070667856772400,16.2127724609375,-0.08618006855249405,-5.946816921234131,7.80154275894165
1702070667873744400,16.229744384765624,-0.2165411114692688,-5.682561874389648,7.993605613708496
1702070667890753000,16.2467529296875,-0.3399243950843811,-5.436703205108643,8.15860366821289
1702070667907743200,16.2637431640625,-0.38695821166038513,-5.278409957885742,8.259828567504883
1702070667924733200,16.280733154296875,-0.38844048976898193,-5.1469011306762695,8.342339515686035
1702070667941723400,16.297723388671876,-0.41646328568458557,-4.963689804077148,8.451300621032715
1702070667958712000,16.314712158203125,-0.49999600648880005,-4.7195658683776855,8.585559844970703
1702070667975705300,16.331705322265623,-0.6089076995849609,-4.454704284667969,8.719000816345215
1702070667992693500,16.348693603515624,-0.6729584336280823,-4.2429728507995605,8.819321632385254
1702070668009680400,16.365680419921876,-0.660544753074646,-4.1112060546875,8.88244342803955
1702070668026673700,16.382673583984374,-0.595184326171875,-4.01804256439209,8.92956829071045
1702070668043664400,16.399664306640624,-0.5156519412994385,-3.9255261421203613,8.97554874420166
1702070668060653600,16.416653564453124,-0.4451117217540741,-3.809084415435791,9.029335975646973
1702070668077644000,16.43364404296875,-0.3946627974510193,-3.6644129753112793,9.091339111328125
1702070668094634500,16.450634521484375,-0.3651060163974762,-3.505798101425171,9.154899597167969
1702070668111622000,16.467621826171875,-0.3468773066997528,-3.3541159629821777,9.212257385253906
1702070668128617500,16.484617431640626,-0.32875561714172363,-3.225494384765625,9.258736610412598
1702070668145604600,16.5016044921875,-0.3193761110305786,-3.1229846477508545,9.29414176940918
1702070668162594800,16.5185947265625,-0.33279547095298767,-3.041752815246582,9.320575714111328
1702070668179587600,16.535587646484377,-0.3771653175354004,-2.9743645191192627,9.340611457824707
1702070668196574700,16.55257470703125,-0.44840484857559204,-2.9156081676483154,9.355976104736328
1702070668213564400,16.569564453125,-0.5377970933914185,-2.8608343601226807,9.36816692352295
1702070668230556200,16.58655615234375,-0.6280184984207153,-2.8110625743865967,9.37761402130127
1702070668247551500,16.603551513671874,-0.7102057933807373,-2.7766001224517822,9.382014274597168
1702070668264535300,16.620535400390626,-0.776190996170044,-2.7694897651672363,9.378890037536621
1702070668281515000,16.637514892578125,-0.8163467645645142,-2.7907543182373047,9.369172096252441
1702070668298515500,16.654515380859376,-0.8306934833526611,-2.8269479274749756,9.357051849365234
1702070668315506200,16.671506103515625,-0.8260993361473083,-2.864713668823242,9.345966339111328
1702070668332496000,16.688495849609374,-0.8091102838516235,-2.905383825302124,9.334891319274902
1702070668349486300,16.705486328125,-0.784432053565979,-2.953958511352539,9.321744918823242
1702070668366476300,16.722476318359377,-0.7557976841926575,-3.0166821479797363,9.304004669189453
1702070668383466500,16.739466552734374,-0.7183088660240173,-3.095720052719116,9.280983924865723
1702070668400453600,16.75645361328125,-0.678584635257721,-3.16921329498291,9.259143829345703
1702070668417449000,16.773448974609376,-0.6525639295578003,-3.2078495025634766,9.247701644897461
1702070668434435800,16.790435791015625,-0.6537544131278992,-3.2335445880889893,9.238664627075195
1702070668451427800,16.807427734375,-0.662749171257019,-3.321171760559082,9.206884384155273
1702070668468416500,16.82441650390625,-0.646223783493042,-3.485433578491211,9.14714527130127
1702070668485407000,16.841406982421876,-0.6056885123252869,-3.6800084114074707,9.073410987854004
1702070668502397200,16.858397216796874,-0.5542312860488892,-3.8807919025421143,8.99268627166748
1702070668519387600,16.8753876953125,-0.5024816393852234,-4.082255840301514,8.906111717224121
1702070668536376800,16.892376953125,-0.4445030093193054,-4.287689685821533,8.812164306640625
1702070668553367000,16.909366943359377,-0.370963454246521,-4.498484134674072,8.709887504577637
1702070668570347000,16.926346923828124,-0.2947990894317627,-4.7076029777526855,8.60161018371582
1702070668587348000,16.943347900390624,-0.22249329090118408,-4.905003547668457,8.492793083190918
1702070668604337400,16.96033740234375,-0.14839385449886322,-5.063129901885986,8.401119232177734
1702070668621327600,16.97732763671875,-0.05700129270553589,-5.152806282043457,8.347542762756348
1702070668638318000,16.994318115234375,0.039960749447345734,-5.17365837097168,8.334733009338379
1702070668655297800,17.0112978515625,0.1244097501039505,-5.150423049926758,8.348278999328613
1702070668672295400,17.02829541015625,0.18839876353740692,-5.109403133392334,8.37225341796875
1702070668689290800,17.045290771484375,0.23386086523532867,-5.067884922027588,8.396306037902832
1702070668706278400,17.0622783203125,0.26745107769966125,-5.029844284057617,8.418149948120117
1702070668723268600,17.0792685546875,0.3088531494140625,-4.994032859802246,8.438032150268555
1702070668740258300,17.09625830078125,0.3572339117527008,-4.957390308380127,8.4577054977417
1702070668757249300,17.113249267578126,0.4036529064178467,-4.916579246520996,8.479413032531738
1702070668774238200,17.13023828125,0.449390709400177,-4.8797926902771,8.498339653015137
1702070668791218700,17.14721875,0.5086507797241211,-4.860964298248291,8.50578784942627
1702070668808219000,17.164218994140626,0.5737782120704651,-4.863743782043457,8.500052452087402
1702070668825209000,17.181208984375,0.6148303747177124,-4.872359752655029,8.492243766784668
1702070668842199300,17.19819921875,0.6122549772262573,-4.878881454467773,8.488685607910156
1702070668859189500,17.215189453125,0.5667966604232788,-4.880756855010986,8.490764617919922
1702070668876181500,17.232181396484375,0.5036718845367432,-4.8827714920043945,8.493585586547852
1702070668893156600,17.249156494140625,0.44308945536613464,-4.8890485763549805,8.493350982666016
1702070668910148900,17.26614892578125,0.397098183631897,-4.896271705627441,8.491463661193848
1702070668927152400,17.28315234375,0.3589222729206085,-4.886753559112549,8.49864387512207
1702070668944139500,17.300139404296875,0.30187010765075684,-4.833401203155518,8.5313081741333
1702070668961117400,17.317117431640625,0.22206351161003113,-4.743542194366455,8.58403205871582
1702070668978110000,17.33410986328125,0.14161869883537292,-4.64919900894165,8.637187004089355
1702070668995102500,17.3511025390625,0.04365560784935951,-4.536789417266846,8.69780158996582
1702070669012090000,17.368090087890625,-0.11854177713394165,-4.379461765289307,8.777377128601074
1702070669029080800,17.385080810546874,-0.2776983082294464,-4.21873140335083,8.852192878723145
1702070669046073900,17.402073974609376,-0.3380877673625946,-4.094860553741455,8.9080810546875
1702070669063067400,17.4190673828125,-0.32842934131622314,-3.989152193069458,8.956278800964355
1702070669080050400,17.436050537109374,-0.34501731395721436,-3.8656041622161865,9.009672164916992
1702070669097046800,17.453046875,-0.41745439171791077,-3.7139461040496826,9.070197105407715
1702070669114041000,17.470041015625,-0.5049334168434143,-3.5528202056884766,9.130095481872559
1702070669131017200,17.487017333984376,-0.5570273995399475,-3.413630723953247,9.180030822753906
1702070669148010500,17.504010498046874,-0.5581114888191223,-3.2975575923919678,9.222294807434082
1702070669165006600,17.521006591796876,-0.5184282064437866,-3.1855361461639404,9.263893127441406
1702070669181995500,17.53799560546875,-0.4444720149040222,-3.0668816566467285,9.3076753616333
1702070669198986500,17.554986572265626,-0.34496352076530457,-2.9401683807373047,9.352673530578613
1702070669215970600,17.571970458984374,-0.2314930260181427,-2.808717727661133,9.396469116210938
1702070669232967400,17.588967529296873,-0.11877625435590744,-2.674499273300171,9.437642097473145
1702070669249956900,17.605956787109374,-0.024087605997920036,-2.5374460220336914,9.47612476348877
1702070669266946800,17.62294677734375,0.04192453622817993,-2.3998727798461914,9.511833190917969
1702070669283938800,17.639938720703125,0.0726843997836113,-2.2652907371520996,9.544593811035156
1702070669300917800,17.656917724609375,0.07640966027975082,-2.1447277069091797,9.57237720489502
1702070669317916200,17.673916259765626,0.06458893418312073,-2.052105665206909,9.59274673461914
1702070669334906000,17.690906005859375,0.03983299061655998,-1.9987424612045288,9.604141235351562
1702070669351891700,17.7078916015625,0.0008191949455067515,-1.9941672086715698,9.605175971984863
1702070669368884000,17.724884033203125,-0.04506799951195717,-2.046612024307251,9.594032287597656
1702070669385884000,17.7418837890625,-0.0826387032866478,-2.1561179161071777,9.569766998291016
1702070669402873000,17.758873046875,-0.10572818666696548,-2.306717872619629,9.534358024597168
1702070669419862300,17.7758623046875,-0.12830720841884613,-2.468906879425049,9.493374824523926
1702070669436852700,17.792852783203124,-0.1733793020248413,-2.627615451812744,9.449957847595215
1702070669453843000,17.809843017578125,-0.2415572553873062,-2.7941935062408447,9.400544166564941
1702070669470833400,17.82683349609375,-0.3128412663936615,-2.9842300415039062,9.33984088897705
1702070669487820800,17.84382080078125,-0.3717145323753357,-3.189321517944336,9.269637107849121
1702070669504811800,17.860811767578124,-0.4046761691570282,-3.37154221534729,9.203535079956055
1702070669521807400,17.877807373046874,-0.43081584572792053,-3.4796152114868164,9.162030220031738
1702070669538791200,17.894791259765626,-0.44829699397087097,-3.544110059738159,9.136435508728027
1702070669555786200,17.9117861328125,-0.4319159984588623,-3.6626992225646973,9.090336799621582
1702070669572773600,17.928773681640624,-0.36835384368896484,-3.8908092975616455,8.99789047241211
1702070669589763600,17.945763671875,-0.2948736250400543,-4.19006872177124,8.865242004394531
1702070669606754300,17.96275439453125,-0.2371712625026703,-4.48115348815918,8.723481178283691
1702070669623744000,17.979743896484376,-0.20084279775619507,-4.735651016235352,8.588912010192871
1702070669640734200,17.996734130859377,-0.17285335063934326,-4.956340312957764,8.46409797668457
1702070669657724400,18.013724365234374,-0.14760711789131165,-5.151050090789795,8.347515106201172
1702070669674714600,18.030714599609375,-0.13481663167476654,-5.334475994110107,8.23172664642334
1702070669691704300,18.047704345703124,-0.1377352625131607,-5.519837856292725,8.108548164367676
1702070669708694500,18.064694580078125,-0.14806407690048218,-5.702771186828613,7.980762481689453
1702070669725674000,18.081674072265624,-0.14627863466739655,-5.854181289672852,7.870405673980713
1702070669742675000,18.098675048828124,-0.12930737435817719,-5.952162742614746,7.796868324279785
1702070669759654100,18.115654052734374,-0.10962506383657455,-6.007527828216553,7.7545928955078125
1702070669776655000,18.132655029296874,-0.09886092692613602,-6.039819717407227,7.729615211486816
1702070669793645000,18.14964501953125,-0.10257858783006668,-6.061933994293213,7.712234973907471
1702070669810635500,18.166635498046876,-0.11074568331241608,-6.08019495010376,7.697732448577881
1702070669827624700,18.183624755859373,-0.11229607462882996,-6.094936847686768,7.686041355133057
1702070669844615400,18.200615478515626,-0.09913457185029984,-6.103679656982422,7.679282188415527
1702070669861605600,18.217605712890624,-0.06937985122203827,-6.10330057144165,7.6799116134643555
1702070669878595600,18.234595703125,-0.03758619725704193,-6.088500022888184,7.691869735717773
1702070669895585300,18.251585205078126,-0.01984662003815174,-6.06159782409668,7.7131547927856445
1702070669912575700,18.26857568359375,-0.024141108617186546,-6.036360263824463,7.732909202575684
1702070669929563100,18.285563232421875,-0.05688142403960228,-6.015143394470215,7.749253273010254
1702070669946556400,18.302556396484373,-0.1216159537434578,-5.977556228637695,7.7775421142578125
1702070669963545900,18.3195458984375,-0.21716472506523132,-5.91103458404541,7.826149940490723
1702070669980535800,18.336535888671875,-0.30753374099731445,-5.844927787780762,7.87263298034668
1702070669997515500,18.353515625,-0.3755853772163391,-5.797544002532959,7.904651641845703
1702070670014516700,18.370516845703126,-0.45967742800712585,-5.735116481781006,7.945644855499268
1702070670031492600,18.38749267578125,-0.5770813226699829,-5.640885829925537,8.005216598510742
1702070670048500200,18.404500244140625,-0.6790409684181213,-5.540524005889893,8.067070960998535
1702070670065477600,18.4214775390625,-0.70784991979599,-5.4416937828063965,8.131608009338379
1702070670082477000,18.43847705078125,-0.683436930179596,-5.306438446044922,8.222575187683105
1702070670099466500,18.455466552734375,-0.6747821569442749,-5.088234901428223,8.360061645507812
1702070670116457000,18.47245703125,-0.7037115693092346,-4.778053283691406,8.538799285888672
1702070670133447200,18.489447265625,-0.7385846376419067,-4.402552604675293,8.735451698303223
1702070670150427000,18.506427001953124,-0.7428314685821533,-3.98945689201355,8.93132495880127
1702070670167426800,18.5234267578125,-0.7376128435134888,-3.5527095794677734,9.114291191101074
1702070670184417300,18.540417236328125,-0.7565847039222717,-3.0948572158813477,9.278228759765625
1702070670201409800,18.557409912109375,-0.8083881139755249,-2.6179099082946777,9.419615745544434
1702070670218395600,18.574395751953126,-0.8702189326286316,-2.1338748931884766,9.535481452941895
1702070670235387400,18.591387451171876,-0.8997514843940735,-1.673712968826294,9.624201774597168
1702070670252377900,18.6083779296875,-0.875176191329956,-1.2622753381729126,9.689005851745605
1702070670269365200,18.625365234375,-0.807666003704071,-0.9061816334724426,9.734609603881836
1702070670286361000,18.642361083984376,-0.7160816192626953,-0.6005272269248962,9.765382766723633
1702070670303347700,18.65934765625,-0.6209889650344849,-0.3338988423347473,9.784632682800293
1702070670320338400,18.67633837890625,-0.557830810546875,-0.08589823544025421,9.79375171661377
1702070670337328400,18.693328369140627,-0.5896525382995605,0.15856274962425232,9.790979385375977
1702070670354318600,18.710318603515624,-0.7396084666252136,0.3821561932563782,9.774613380432129
1702070670371297500,18.727297607421875,-0.9623236656188965,0.5662966966629028,9.746248245239258
1702070670388298800,18.744298828125,-1.190360426902771,0.7108826041221619,9.711528778076172
1702070670405288700,18.761288818359375,-1.3538439273834229,0.8220381736755371,9.681295394897461
1702070670422279000,18.77827880859375,-1.4082844257354736,0.900684654712677,9.666522979736328
1702070670439268400,18.795268310546874,-1.3781870603561401,0.9531818628311157,9.665824890136719
1702070670456258800,18.8122587890625,-1.2999541759490967,0.9665038585662842,9.675336837768555
1702070670473249000,18.8292490234375,-1.190411925315857,0.9113473892211914,9.6947660446167
1702070670490253000,18.846253173828124,-1.0998075008392334,0.7703853249549866,9.717666625976562
1702070670507228700,18.863228759765626,-1.0893064737319946,0.5421401262283325,9.73425006866455
1702070670524219100,18.88021923828125,-1.1401211023330688,0.2501044273376465,9.740312576293945
1702070670541209300,18.897209228515624,-1.1806522607803345,-0.08952701836824417,9.738283157348633
1702070670558199800,18.91419970703125,-1.1414923667907715,-0.502261221408844,9.73040771484375
1702070670575185700,18.931185546875,-0.9990079402923584,-0.9921731352806091,9.708433151245117
1702070670592183600,18.94818359375,-0.793072521686554,-1.5602129697799683,9.65261173248291
1702070670609169400,18.96516943359375,-0.5986990928649902,-2.185962438583374,9.544593811035156
1702070670626157300,18.9821572265625,-0.47574877738952637,-2.846923351287842,9.375757217407227
1702070670643152100,18.999152099609375,-0.4393434226512909,-3.5200233459472656,9.1461763381958
1702070670660140000,19.01614013671875,-0.4566356837749481,-4.177379131317139,8.864373207092285
1702070670677130200,19.033130126953125,-0.46264195442199707,-4.784985065460205,8.551373481750488
1702070670694110000,19.05010986328125,-0.41993504762649536,-5.324930667877197,8.228299140930176
1702070670711108000,19.067108154296875,-0.3237106502056122,-5.805881977081299,7.900825500488281
1702070670728098000,19.08409814453125,-0.18858382105827332,-6.213920593261719,7.588659286499023
1702070670745093000,19.101093017578126,-0.034813154488801956,-6.522793292999268,7.327215671539307
1702070670762084900,19.1180849609375,0.12454979121685028,-6.727896690368652,7.1383490562438965
1702070670779070700,19.13507080078125,0.2790197730064392,-6.854250431060791,7.012667655944824
1702070670796061000,19.15206103515625,0.42108914256095886,-6.933985233306885,6.926663398742676
1702070670813051000,19.16905078125,0.5407905578613281,-6.992555618286133,6.859140396118164
1702070670830022700,19.186022705078123,0.6284109354019165,-7.037709712982178,6.805281162261963
1702070670847022000,19.20302197265625,0.681018054485321,-7.064444065093994,6.772441864013672
1702070670864023300,19.220023193359374,0.7107909321784973,-7.078183650970459,6.755014896392822
1702070670881011500,19.237011474609375,0.7411046624183655,-7.094282627105713,6.734838008880615
1702070670898001700,19.254001708984376,0.7834598422050476,-7.120397090911865,6.702406406402588
1702070670914991400,19.270991455078125,0.8334210515022278,-7.155185699462891,6.65919303894043
1702070670931981600,19.287981689453126,0.8740646243095398,-7.181446552276611,6.62562894821167
1702070670948969200,19.30496923828125,0.8948368430137634,-7.1873273849487305,6.616472244262695
1702070670965963300,19.32196337890625,0.8848125338554382,-7.168664455413818,6.638031959533691
1702070670982953200,19.338953125,0.8253740072250366,-7.117870807647705,6.700059413909912
1702070670999942100,19.355942138671875,0.7301763296127319,-7.063900947570801,6.767885208129883
1702070671016929500,19.372929443359375,0.6082999110221863,-7.023617267608643,6.821648120880127
1702070671033924900,19.3899248046875,0.40476563572883606,-6.951347827911377,6.910213947296143
1702070671050912000,19.406912109375,0.14243057370185852,-6.847569942474365,7.023291110992432
1702070671067902200,19.423902099609375,-0.05062577873468399,-6.765946865081787,7.103204727172852
1702070671084882000,19.4408818359375,-0.13312093913555145,-6.679403305053711,7.183590888977051
1702070671101883000,19.4578828125,-0.19249823689460754,-6.506101608276367,7.339597702026367
1702070671118872300,19.474872314453126,-0.2552429735660553,-6.229494571685791,7.5739264488220215
1702070671135862500,19.491862548828124,-0.28534385561943054,-5.888340950012207,7.841054439544678
1702070671152853000,19.50885302734375,-0.26207220554351807,-5.532154083251953,8.097079277038574
1702070671169842200,19.52584228515625,-0.21280474960803986,-5.190024375915527,8.32192611694336
1702070671186830800,19.542830810546874,-0.1835525929927826,-4.865239143371582,8.516563415527344
1702070671203825700,19.55982568359375,-0.19916932284832,-4.5448784828186035,8.69140625
1702070671220813300,19.576813232421873,-0.24877214431762695,-4.224455833435059,8.850323677062988
1702070671237803800,19.5938037109375,-0.2990383207798004,-3.9065685272216797,8.993633270263672
1702070671254790700,19.610790771484375,-0.32884740829467773,-3.605165958404541,9.117607116699219
1702070671271781000,19.627781005859376,-0.3600353002548218,-3.349691152572632,9.213362693786621
1702070671288773400,19.6447734375,-0.43296995759010315,-3.15980863571167,9.277082443237305
1702070671305754400,19.66175439453125,-0.5445424318313599,-3.0298802852630615,9.314475059509277
1702070671322753500,19.67875341796875,-0.6565271615982056,-2.9444398880004883,9.334633827209473
1702070671339733500,19.6957333984375,-0.7449955344200134,-2.881129741668701,9.347738265991211
1702070671356734000,19.71273388671875,-0.8077875971794128,-2.8124639987945557,9.363419532775879
1702070671373713700,19.729713623046877,-0.8617538809776306,-2.716154098510742,9.387014389038086
1702070671390713900,19.7467138671875,-0.9062769412994385,-2.5906858444213867,9.418234825134277
1702070671407704000,19.7637041015625,-0.9254283308982849,-2.461862564086914,9.4508695602417
1702070671424683500,19.78068359375,-0.9123890399932861,-2.356644868850708,9.478918075561523
1702070671441684500,19.7976845703125,-0.8681817650794983,-2.3002517223358154,9.496905326843262
1702070671458674200,19.814674072265625,-0.8311834931373596,-2.3028571605682373,9.499584197998047
1702070671475664400,19.831664306640626,-0.8291112184524536,-2.367720365524292,9.483807563781738
1702070671492654600,19.848654541015627,-0.8579508662223816,-2.476940393447876,9.453296661376953
1702070671509645000,19.86564501953125,-0.8861859440803528,-2.606593132019043,9.415755271911621
1702070671526634500,19.882634521484373,-0.8917325735092163,-2.766010046005249,9.369638442993164
1702070671543624700,19.899624755859374,-0.8813835978507996,-2.9680018424987793,9.308611869812012
1702070671560606700,19.916606689453126,-0.8586572408676147,-3.2123868465423584,9.229269027709961
1702070671577601800,19.933601806640624,-0.8239972591400146,-3.471116065979004,9.138298034667969
1702070671594595000,19.950594970703126,-0.8008984327316284,-3.735936164855957,9.035346031188965
1702070671611585300,19.967585205078127,-0.7866417169570923,-4.045315265655518,8.902400970458984
1702070671628575200,19.9845751953125,-0.735626220703125,-4.421952247619629,8.725898742675781
1702070671645566000,20.00156591796875,-0.6268297433853149,-4.828498363494873,8.51638412475586
1702070671662555100,20.01855517578125,-0.4792398512363434,-5.214578151702881,8.295458793640137
1702070671679545600,20.035545654296875,-0.2997923195362091,-5.5532660484313965,8.081303596496582
1702070671696535600,20.05253564453125,-0.0770183578133583,-5.846005439758301,7.877462863922119
1702070671713526000,20.069526123046874,0.17162133753299713,-6.100181579589844,7.680783748626709
1702070671730515500,20.086515380859375,0.4063372015953064,-6.324043273925781,7.488490581512451
1702070671747503400,20.10350341796875,0.6037707924842834,-6.519229888916016,7.3055596351623535
1702070671764498700,20.120498779296874,0.7695587873458862,-6.673498153686523,7.149007320404053
1702070671781486300,20.137486328125,0.9136008620262146,-6.769458770751953,7.041015148162842
1702070671798476000,20.15447607421875,1.0391135215759277,-6.811001777648926,6.9833083152771
1702070671815466500,20.171466552734376,1.1498875617980957,-6.80656623840332,6.970259666442871
1702070671832456400,20.18845654296875,1.2374224662780762,-6.763314247131348,6.997318744659424
1702070671849446700,20.20544677734375,1.2946746349334717,-6.694339275360107,7.053067207336426
1702070671866436000,20.22243603515625,1.3226979970932007,-6.621065616607666,7.11674690246582
1702070671883426600,20.239426513671877,1.3273476362228394,-6.560227870941162,7.1720075607299805
1702070671900416800,20.256416748046874,1.3172056674957275,-6.517964839935303,7.212297439575195
1702070671917407000,20.273406982421875,1.2931385040283203,-6.490555763244629,7.241311550140381
1702070671934396700,20.290396728515624,1.2470791339874268,-6.466339588165283,7.270994186401367
1702070671951387000,20.307386962890625,1.1779900789260864,-6.443513870239258,7.302712440490723
1702070671968377300,20.32437744140625,1.0908044576644897,-6.421677589416504,7.335417747497559
1702070671985367600,20.341367431640624,0.9906825423240662,-6.386152744293213,7.380495071411133
1702070672002354200,20.358354248046876,0.8612093925476074,-6.307899475097656,7.463567733764648
1702070672019349800,20.375349853515626,0.7131162285804749,-6.178508758544922,7.586409568786621
1702070672036337400,20.39233740234375,0.5715180039405823,-6.0154829025268555,7.728094100952148
1702070672053328000,20.409327880859376,0.4037166237831116,-5.830767631530762,7.878786563873291
1702070672070311000,20.426310791015624,0.23855119943618774,-5.675268173217773,7.998157501220703
1702070672087307500,20.4433076171875,0.1539747416973114,-5.590641975402832,8.059597969055176
1702070672104298000,20.460298095703124,0.13180091977119446,-5.511419773101807,8.114371299743652
1702070672121299200,20.47729931640625,0.08461388945579529,-5.355574607849121,8.218685150146484
1702070672138278000,20.49427783203125,-0.03482426330447197,-5.131215572357178,8.360952377319336
1702070672155267000,20.51126708984375,-0.19644102454185486,-4.894949913024902,8.499235153198242
1702070672172259000,20.528259033203124,-0.36163759231567383,-4.687595844268799,8.609979629516602
1702070672189238500,20.545238525390626,-0.523687481880188,-4.492703437805176,8.705028533935547
1702070672206237700,20.56223779296875,-0.6869242191314697,-4.271007537841797,8.804698944091797
1702070672223228200,20.579228271484375,-0.8316729068756104,-4.013055801391602,8.912900924682617
1702070672240218600,20.596218505859376,-0.917596697807312,-3.7450106143951416,9.020479202270508
1702070672257208800,20.613208740234374,-0.9280515313148499,-3.496519088745117,9.118618965148926
1702070672274198300,20.6301982421875,-0.880709707736969,-3.2735817432403564,9.205657005310059
1702070672291180500,20.6471806640625,-0.8042349815368652,-3.0665600299835205,9.283616065979004
1702070672308179000,20.664178955078125,-0.7184851169586182,-2.8558883666992188,9.357553482055664
1702070672325169000,20.6811689453125,-0.6375327706336975,-2.6326019763946533,9.428630828857422
1702070672342158600,20.69815869140625,-0.5647138953208923,-2.404799461364746,9.493901252746582
1702070672359148800,20.715148681640624,-0.492809921503067,-2.1919913291931152,9.549263954162598
1702070672376138200,20.73213818359375,-0.4220856726169586,-2.012786865234375,9.592008590698242
1702070672393119000,20.749118896484376,-0.36509403586387634,-1.8754994869232178,9.622126579284668
1702070672410121700,20.766121826171876,-0.334934800863266,-1.7736397981643677,9.642518997192383
1702070672427109400,20.783109375,-0.3414364755153656,-1.704516887664795,9.654749870300293
1702070672444099300,20.800099365234374,-0.3765111565589905,-1.6784284114837646,9.658015251159668
1702070672461076700,20.81707666015625,-0.42142653465270996,-1.7117269039154053,9.650312423706055
1702070672478069200,20.8340693359375,-0.4797413945198059,-1.7993836402893066,9.631624221801758
1702070672495072300,20.851072265625,-0.5541421175003052,-1.9109364748001099,9.606110572814941
1702070672512046800,20.868046875,-0.6370066404342651,-2.020401954650879,9.578535079956055
1702070672529048800,20.885048828125,-0.7444208860397339,-2.139672040939331,9.544829368591309
1702070672546039000,20.9020390625,-0.8971843719482422,-2.322638511657715,9.488759994506836
1702070672563028000,20.919028076171877,-1.048161506652832,-2.6149518489837646,9.396780967712402
1702070672580015000,20.93601513671875,-1.113372802734375,-2.960582733154297,9.286088943481445
1702070672597004500,20.953004638671874,-1.0798404216766357,-3.2481513023376465,9.193453788757324
1702070672613988600,20.969988525390626,-0.9467187523841858,-3.4516968727111816,9.133763313293457
1702070672630980600,20.986980712890624,-0.7525618076324463,-3.6244616508483887,9.084770202636719
1702070672647974000,21.003973876953125,-0.5557405352592468,-3.8310728073120117,9.013886451721191
1702070672664968700,21.02096875,-0.4028637707233429,-4.093761920928955,8.90589427947998
1702070672681950700,21.03795068359375,-0.33216461539268494,-4.40066385269165,8.761276245117188
1702070672698942700,21.054942626953125,-0.32595157623291016,-4.731296539306641,8.587472915649414
1702070672715930600,21.0719306640625,-0.3389626741409302,-5.050386428833008,8.4032621383667
1702070672732923000,21.0889228515625,-0.3331815302371979,-5.320828437805176,8.234918594360352
1702070672749911800,21.105911865234376,-0.3039373457431793,-5.524389266967773,8.100918769836426
1702070672766906600,21.12290673828125,-0.2681492567062378,-5.676321506500244,7.996474742889404
1702070672783897300,21.1398974609375,-0.24061758816242218,-5.807897090911865,7.902314186096191
1702070672800884200,21.15688427734375,-0.2253025770187378,-5.941549777984619,7.802779197692871
1702070672817867500,21.173867431640623,-0.21506081521511078,-6.08237886428833,7.693798065185547
1702070672834864600,21.19086474609375,-0.2013980746269226,-6.218487739562988,7.584587574005127
1702070672851851800,21.207851806640626,-0.18720480799674988,-6.325162887573242,7.496225357055664
1702070672868847900,21.224847900390625,-0.18594110012054443,-6.395957946777344,7.4359450340271
1702070672885831000,21.241830810546876,-0.19827955961227417,-6.438772678375244,7.398582935333252
1702070672902829000,21.2588291015625,-0.2210708111524582,-6.461400985717773,7.378181457519531
1702070672919821800,21.27582177734375,-0.24290047585964203,-6.469722747802734,7.370197772979736
1702070672936812000,21.29281201171875,-0.24326924979686737,-6.466322422027588,7.373167991638184
1702070672953802000,21.309802001953123,-0.1925508677959442,-6.456215858459473,7.383516311645508
1702070672970792000,21.3267919921875,-0.07089932262897491,-6.443263530731201,7.396988391876221
1702070672987766300,21.343766357421874,0.09585275501012802,-6.426749229431152,7.411062717437744
1702070673004774700,21.360774658203123,0.25492164492607117,-6.397741794586182,7.432363510131836
1702070673021762000,21.377761962890624,0.3814255893230438,-6.357580661773682,7.461353302001953
1702070673038752300,21.394752197265625,0.46366581320762634,-6.3058600425720215,7.500484466552734
1702070673055742500,21.411742431640626,0.4838593006134033,-6.240518569946289,7.553670406341553
1702070673072732700,21.428732666015627,0.4634111523628235,-6.177767753601074,7.606349468231201
1702070673089722000,21.44572216796875,0.44571301341056824,-6.1338324546813965,7.642876148223877
1702070673106712300,21.46271240234375,0.44721144437789917,-6.088159561157227,7.6792216300964355
1702070673123702800,21.479702880859374,0.4426712393760681,-5.998332500457764,7.749849796295166
1702070673140693000,21.49669287109375,0.4054645895957947,-5.832327842712402,7.877542495727539
1702070673157682700,21.5136826171875,0.33441951870918274,-5.579980373382568,8.06152057647705
1702070673174673200,21.530673095703126,0.24091070890426636,-5.261942386627197,8.275871276855469
1702070673191663000,21.5476630859375,0.14015249907970428,-4.913280010223389,8.489768981933594
1702070673208653600,21.564653564453124,0.05722714215517044,-4.579370021820068,8.675379753112793
1702070673225642800,21.581642822265625,-0.010646610520780087,-4.275362491607666,8.829341888427734
1702070673242625000,21.598625,-0.08503229916095734,-3.987004280090332,8.962849617004395
1702070673259629600,21.615629638671876,-0.17805694043636322,-3.692490577697754,9.086800575256348
1702070673276613600,21.632613525390624,-0.2879934012889862,-3.384798288345337,9.203060150146484
1702070673293600800,21.649600830078125,-0.40080586075782776,-3.0708484649658203,9.308350563049316
1702070673310595800,21.666595947265623,-0.49513357877731323,-2.765779972076416,9.399012565612793
1702070673327583700,21.683583740234376,-0.5613659620285034,-2.480146646499634,9.474696159362793
