time,seconds_elapsed,z,y,x
1701911431460257500,0.144257568359375,6.67939567565918,6.791832447052002,2.3436710834503174
1701911431477251600,0.16125146484375,6.480111598968506,6.87151575088501,2.650763988494873
1701911431494242000,0.178241943359375,6.296716690063477,6.897966384887695,3.0009214878082275
1701911431511233800,0.19523388671875,6.099696159362793,6.883058547973633,3.4136955738067627
1701911431528224800,0.212224853515625,5.875064849853516,6.827052116394043,3.887298107147217
1701911431545218300,0.22921826171875,5.659108638763428,6.709950923919678,4.38031530380249
1701911431562214700,0.246214599609375,5.479613304138184,6.527904987335205,4.8576130867004395
1701911431579202300,0.263202392578125,5.281680107116699,6.308865070343018,5.342114448547363
1701911431596195300,0.2801953125,5.039394855499268,6.080080032348633,5.820072174072266
1701911431613189400,0.297189453125,4.742580413818359,5.825438499450684,6.309381484985352
1701911431630178300,0.31417822265625,4.387387752532959,5.51186466217041,6.82688045501709
1701911431647184100,0.33118408203125,3.944093942642212,5.139121055603027,7.366795539855957
1701911431664157000,0.348156982421875,3.4019505977630615,4.713397026062012,7.902324676513672
1701911431681156400,0.36515625,2.8384203910827637,4.227662086486816,8.384889602661133
1701911431698148000,0.382148193359375,2.32504940032959,3.679192304611206,8.791688919067383
1701911431715146000,0.39914599609375,1.8741549253463745,3.0767593383789062,9.124539375305176
1701911431732136000,0.416135986328125,1.4473835229873657,2.457224130630493,9.386332511901855
1701911431749125600,0.433125732421875,1.0107923746109009,1.8324098587036133,9.584189414978027
1701911431766118400,0.450118408203125,0.5924346446990967,1.1865588426589966,9.719940185546875
1701911431783113500,0.467113525390625,0.25149285793304443,0.504241406917572,9.793804168701172
1701911431800102700,0.4841025390625,0.017650406807661057,-0.1934431493282318,9.808076858520508
1701911431817095200,0.50109521484375,-0.128707155585289,-0.8889071941375732,9.76879596710205
1701911431834092000,0.518092041015625,-0.22103294730186462,-1.5697245597839355,9.681076049804688
1701911431851079200,0.5350791015625,-0.30220693349838257,-2.2026851177215576,9.554734230041504
1701911431868076500,0.55207666015625,-0.35627496242523193,-2.763472557067871,9.405976295471191
1701911431885064400,0.569064453125,-0.3936123549938202,-3.303083896636963,9.228803634643555
1701911431902059000,0.58605908203125,-0.4198523163795471,-3.8435375690460205,9.0159330368042
1701911431919050000,0.603050048828125,-0.4447672963142395,-4.372345924377441,8.770455360412598
1701911431936042500,0.62004248046875,-0.4737589657306671,-4.869697093963623,8.502806663513184
1701911431953037800,0.637037841796875,-0.492003470659256,-5.312482833862305,8.23235034942627
1701911431970025000,0.65402490234375,-0.480677992105484,-5.674410343170166,7.9878740310668945
1701911431987022800,0.67102294921875,-0.4301510155200958,-5.940983772277832,7.794599533081055
1701911432004011000,0.688010986328125,-0.33807316422462463,-6.125638008117676,7.654958724975586
1701911432021002800,0.705002685546875,-0.22558733820915222,-6.253204822540283,7.555306434631348
1701911432037991400,0.721991455078125,-0.11609267443418503,-6.338114261627197,7.4867167472839355
1701911432054992600,0.73899267578125,-0.023766301572322845,-6.386831283569336,7.44606876373291
1701911432071983000,0.755983154296875,0.044384755194187164,-6.40673828125,7.428852081298828
1701911432088972300,0.77297216796875,0.10596587508916855,-6.404308795928955,7.430324077606201
1701911432105966000,0.789966064453125,0.1759190410375595,-6.383630752563477,7.446772575378418
1701911432122961200,0.806961181640625,0.25342124700546265,-6.350499629974365,7.47282075881958
1701911432139948300,0.8239482421875,0.3193380832672119,-6.3044233322143555,7.509221076965332
1701911432156944100,0.840944091796875,0.3405272364616394,-6.2441253662109375,7.55850887298584
1701911432173937000,0.85793701171875,0.32553789019584656,-6.184738636016846,7.607832908630371
1701911432190926300,0.87492626953125,0.31597739458084106,-6.12614107131958,7.65549898147583
1701911432207917600,0.89191748046875,0.3020128011703491,-6.048245906829834,7.717746734619141
1701911432224913700,0.90891357421875,0.23654034733772278,-5.949860095977783,7.796108722686768
1701911432241907500,0.925907470703125,0.1540735512971878,-5.872960567474365,7.856254577636719
1701911432258894300,0.942894287109375,0.0971953496336937,-5.817467212677002,7.898337364196777
1701911432275889200,0.95988916015625,0.005045562516897917,-5.715743541717529,7.972851753234863
1701911432292883700,0.9768837890625,-0.16060665249824524,-5.524094104766846,8.10522747039795
1701911432309876700,0.993876708984375,-0.3634991943836212,-5.261531352996826,8.27165412902832
1701911432326867500,1.010867431640625,-0.5322661995887756,-4.969822406768799,8.44118881225586
1701911432343860200,1.027860107421875,-0.6392837166786194,-4.674977779388428,8.600698471069336
1701911432360849400,1.044849365234375,-0.7123610377311707,-4.358238220214844,8.759819030761719
1701911432377841400,1.06184130859375,-0.794966995716095,-3.996748685836792,8.923572540283203
1701911432394839600,1.078839599609375,-0.8905046582221985,-3.5847725868225098,9.088043212890625
1701911432411823400,1.0958232421875,-0.9783058762550354,-3.1335995197296143,9.244437217712402
1701911432428819000,1.11281884765625,-1.0346630811691284,-2.666637659072876,9.383742332458496
1701911432445802200,1.12980224609375,-1.0431772470474243,-2.2055563926696777,9.501758575439453
1701911432462807300,1.146807373046875,-1.0045756101608276,-1.7623225450515747,9.597977638244629
1701911432479794700,1.163794677734375,-0.9352306127548218,-1.341164231300354,9.672783851623535
1701911432496791600,1.18079150390625,-0.8568568825721741,-0.925700843334198,9.72856616973877
1701911432513782500,1.197782470703125,-0.7948377728462219,-0.5007026791572571,9.76491928100586
1701911432530772700,1.214772705078125,-0.7653660774230957,-0.061146676540374756,9.7799072265625
1701911432547764500,1.231764404296875,-0.7836087942123413,0.3797816336154938,9.771276473999023
1701911432564759800,1.248759765625,-0.8631256818771362,0.7830489277839661,9.740532875061035
1701911432581752800,1.2657529296875,-0.9877140522003174,1.1135411262512207,9.69642162322998
1701911432598743000,1.282742919921875,-1.1369174718856812,1.3536760807037354,9.649409294128418
1701911432615735000,1.299735107421875,-1.2932018041610718,1.4985624551773071,9.608229637145996
1701911432632731000,1.31673095703125,-1.4533979892730713,1.5614646673202515,9.575258255004883
1701911432649718300,1.33371826171875,-1.6093116998672485,1.5590652227401733,9.55068302154541
1701911432666713900,1.3507138671875,-1.7559797763824463,1.498665452003479,9.534497261047363
1701911432683706600,1.36770654296875,-1.8855657577514648,1.3939828872680664,9.525627136230469
1701911432700694300,1.3846943359375,-1.9773980379104614,1.2555068731307983,9.526266098022461
1701911432717705000,1.401705078125,-2.034794330596924,1.0914303064346313,9.53438663482666
1701911432734672000,1.418671875,-2.0571610927581787,0.9189414381980896,9.547761917114258
1701911432751674400,1.43567431640625,-2.024972677230835,0.7379414439201355,9.570322036743164
1701911432768667100,1.452667236328125,-1.9145749807357788,0.5292376279830933,9.606791496276855
1701911432785664300,1.469664306640625,-1.7282720804214478,0.26878073811531067,9.65282154083252
1701911432802656300,1.48665625,-1.5065854787826538,-0.06508418917655945,9.693405151367188
1701911432819642600,1.503642578125,-1.277965784072876,-0.47187235951423645,9.714951515197754
1701911432836620500,1.52062060546875,-1.0437835454940796,-0.9171384572982788,9.711101531982422
1701911432853619700,1.53761962890625,-0.8311811685562134,-1.3660677671432495,9.67879867553711
1701911432870619400,1.554619384765625,-0.6732437610626221,-1.8458958864212036,9.611218452453613
1701911432887611600,1.571611572265625,-0.5831059813499451,-2.4104673862457275,9.491353034973145
1701911432904609000,1.588609130859375,-0.5534436702728271,-3.059360980987549,9.304306983947754
1701911432921589000,1.605589111328125,-0.568518340587616,-3.7231364250183105,9.058208465576172
1701911432938589200,1.622589111328125,-0.6107820272445679,-4.331080913543701,8.780932426452637
1701911432955582500,1.63958251953125,-0.6437731981277466,-4.844822883605957,8.505841255187988
1701911432972577800,1.656577880859375,-0.6308110952377319,-5.260071754455566,8.25650405883789
1701911432989564700,1.673564697265625,-0.5577565431594849,-5.591653823852539,8.041046142578125
1701911433006560500,1.690560546875,-0.46328455209732056,-5.866050720214844,7.849263668060303
1701911433023553500,1.707553466796875,-0.372321754693985,-6.100715160369873,7.673251628875732
1701911433040540200,1.7245400390625,-0.2846769690513611,-6.3008131980896,7.51364278793335
1701911433057536800,1.741536865234375,-0.1967936009168625,-6.469355583190918,7.371893405914307
1701911433074529800,1.75852978515625,-0.10226956009864807,-6.609699249267578,7.24827766418457
1701911433091523000,1.775523193359375,0.004128134343773127,-6.722226619720459,7.144772529602051
1701911433108510000,1.792510009765625,0.1180187463760376,-6.811310768127441,7.058912754058838
1701911433125508000,1.809508056640625,0.225248783826828,-6.885829925537109,6.983604907989502
1701911433142501000,1.826501220703125,0.31511378288269043,-6.954218864440918,6.911994934082031
1701911433159488000,1.843488037109375,0.38084614276885986,-7.022562503814697,6.839201927185059
1701911433176483800,1.86048388671875,0.4260021448135376,-7.090490341186523,6.766062259674072
1701911433193476900,1.877476806640625,0.45357146859169006,-7.148185729980469,6.703270435333252
1701911433210466000,1.894466064453125,0.4627445638179779,-7.187864780426025,6.660074710845947
1701911433227460900,1.9114609375,0.46533867716789246,-7.213404655456543,6.632223129272461
1701911433244453400,1.928453369140625,0.4791848957538605,-7.231662750244141,6.611321926116943
1701911433261445000,1.945445068359375,0.5130782723426819,-7.241259574890137,6.598258972167969
1701911433278443300,1.962443359375,0.5723479986190796,-7.235515594482422,6.599684238433838
1701911433295426000,1.979426025390625,0.645600438117981,-7.210342884063721,6.6204447746276855
1701911433312424700,1.9964248046875,0.7191385626792908,-7.158421516418457,6.669029712677002
1701911433329414000,2.013413818359375,0.7778440117835999,-7.060956001281738,6.765646457672119
1701911433346403000,2.030403076171875,0.7834120392799377,-6.913759231567383,6.915368556976318
1701911433363400200,2.047400146484375,0.7335948944091797,-6.730778217315674,7.09891414642334
1701911433380389400,2.064389404296875,0.6783553957939148,-6.534727096557617,7.28514289855957
1701911433397374500,2.08137451171875,0.6112264394760132,-6.3162970542907715,7.481103897094727
1701911433414373000,2.098373046875,0.4908895492553711,-6.045176982879639,7.710445404052734
1701911433431369200,2.115369140625,0.343332439661026,-5.753747940063477,7.938048362731934
1701911433448359400,2.132359375,0.26585739850997925,-5.473130226135254,8.136969566345215
1701911433465355500,2.14935546875,0.2532581090927124,-5.180485248565674,8.326736450195312
1701911433482348000,2.16634814453125,0.23661461472511292,-4.8361124992370605,8.531830787658691
1701911433499334700,2.183334716796875,0.18725942075252533,-4.450092315673828,8.740580558776855
1701911433516320300,2.2003203125,0.10372083634138107,-4.033624649047852,8.941768646240234
1701911433533323500,2.217323486328125,-0.0026867957785725594,-3.6044249534606934,9.12382698059082
1701911433550312700,2.234312744140625,-0.0925082191824913,-3.187565803527832,9.277231216430664
1701911433567305000,2.251304931640625,-0.16321976482868195,-2.7850558757781982,9.404942512512207
1701911433584300000,2.268300048828125,-0.22974587976932526,-2.3862152099609375,9.51258659362793
1701911433601289200,2.285289306640625,-0.30486857891082764,-1.9830189943313599,9.602646827697754
1701911433618285300,2.302285400390625,-0.3914892375469208,-1.5814622640609741,9.673770904541016
1701911433635275800,2.31927587890625,-0.4750535488128662,-1.204183578491211,9.724215507507324
1701911433652270800,2.336270751953125,-0.5457814931869507,-0.8636466264724731,9.756656646728516
1701911433669258200,2.35325830078125,-0.6055359244346619,-0.5512743592262268,9.775763511657715
1701911433686252000,2.370251953125,-0.6600506901741028,-0.2447396069765091,9.784709930419922
1701911433703248400,2.387248291015625,-0.7319042086601257,0.06473774462938309,9.782444953918457
1701911433720238000,2.404238037109375,-0.8508166670799255,0.36734315752983093,9.766128540039062
1701911433737230800,2.42123095703125,-1.0340332984924316,0.6429458260536194,9.734142303466797
1701911433754223400,2.438223388671875,-1.282873272895813,0.8764646053314209,9.686184883117676
1701911433771212800,2.455212890625,-1.5781149864196777,1.0667035579681396,9.623295783996582
1701911433788208600,2.472208740234375,-1.8763118982315063,1.229709506034851,9.550048828125
1701911433805197300,2.489197265625,-2.13421630859375,1.369554877281189,9.476578712463379
1701911433822195200,2.5061953125,-2.325652837753296,1.465563178062439,9.416984558105469
1701911433839183000,2.52318310546875,-2.4388620853424072,1.5019069910049438,9.382553100585938
1701911433856174000,2.540174072265625,-2.4763104915618896,1.4901008605957031,9.37462329864502
1701911433873170000,2.557169921875,-2.4627280235290527,1.4535768032073975,9.383932113647461
1701911433890159400,2.574159423828125,-2.4115800857543945,1.390550971031189,9.40674114227295
1701911433907153200,2.591153076171875,-2.3245437145233154,1.2928223609924316,9.442523002624512
1701911433924148000,2.60814794921875,-2.199688673019409,1.1514039039611816,9.49061393737793
1701911433941135600,2.625135498046875,-2.0160558223724365,0.9508695602416992,9.5534029006958
1701911433958129200,2.642129150390625,-1.780304193496704,0.6917157173156738,9.622273445129395
1701911433975122400,2.659122314453125,-1.5575217008590698,0.4007263779640198,9.677276611328125
1701911433992120800,2.676120849609375,-1.3942511081695557,0.07876082509756088,9.710097312927246
1701911434009102600,2.6931025390625,-1.2697088718414307,-0.3508151173591614,9.72115707397461
1701911434026103800,2.710103759765625,-1.1142103672027588,-0.9714617133140564,9.697983741760254
1701911434043093500,2.727093505859375,-0.8907613754272461,-1.7575567960739136,9.610079765319824
1701911434060082700,2.744082763671875,-0.6817765831947327,-2.574735641479492,9.441505432128906
1701911434077076500,2.761076416015625,-0.5862324833869934,-3.3323545455932617,9.208032608032227
1701911434094071600,2.778071533203125,-0.5921890735626221,-4.004814624786377,8.935708999633789
1701911434111058400,2.795058349609375,-0.6084811687469482,-4.5884857177734375,8.649374961853027
1701911434128055000,2.812054931640625,-0.5838737487792969,-5.105888843536377,8.356142044067383
1701911434145045800,2.829045654296875,-0.5485565662384033,-5.570446014404297,8.056384086608887
1701911434162037000,2.846037109375,-0.5160506963729858,-5.936776161193848,7.792593002319336
1701911434179031800,2.86303173828125,-0.4788369834423065,-6.160358905792236,7.619503498077393
1701911434196028700,2.880028564453125,-0.42871496081352234,-6.279696464538574,7.524475574493408
1701911434213016000,2.89701611328125,-0.36482182145118713,-6.34441614151001,7.473381042480469
1701911434230006800,2.9140068359375,-0.30397599935531616,-6.392273426055908,7.4352240562438965
1701911434246999800,2.930999755859375,-0.26428714394569397,-6.448840141296387,7.387742042541504
1701911434264001000,2.9480009765625,-0.24883469939231873,-6.519819259643555,7.325719356536865
1701911434280982000,2.96498193359375,-0.23914089798927307,-6.594583034515381,7.258815765380859
1701911434297978600,2.981978515625,-0.22195856273174286,-6.666995525360107,7.192915439605713
1701911434314969600,2.998969482421875,-0.18967287242412567,-6.744102954864502,7.121602535247803
1701911434331963000,3.015962890625,-0.14244139194488525,-6.82954216003418,7.040823936462402
1701911434348952300,3.032952392578125,-0.09341658651828766,-6.922367095947266,6.950413703918457
1701911434365947100,3.049947021484375,-0.052166227251291275,-7.024427890777588,6.847687244415283
1701911434382937300,3.066937255859375,-0.008899754844605923,-7.134748935699463,6.7328596115112305
1701911434399919900,3.083919921875,0.059600088745355606,-7.241330623626709,6.617832660675049
1701911434416923100,3.100923095703125,0.1355922520160675,-7.328093528747559,6.520489692687988
1701911434433914000,3.1179140625,0.18652735650539398,-7.37351131439209,6.46781587600708
1701911434450912500,3.13491259765625,0.19055375456809998,-7.3748250007629395,6.466202735900879
1701911434467898600,3.151898681640625,0.1581464260816574,-7.350106716156006,6.495156288146973
1701911434484893400,3.1688935546875,0.08136079460382462,-7.296613693237305,6.5565948486328125
1701911434501886000,3.185885986328125,-0.035704854875802994,-7.178808212280273,6.685772895812988
1701911434518878700,3.202878662109375,-0.12248893827199936,-6.964725971221924,6.907511234283447
1701911434535870700,3.21987060546875,-0.14435343444347382,-6.643434047698975,7.216651916503906
1701911434552853000,3.23685302734375,-0.13311566412448883,-6.207889080047607,7.5947675704956055
1701911434569856000,3.25385595703125,-0.12076283991336823,-5.692035675048828,7.988883972167969
1701911434586836500,3.27083642578125,-0.11111464351415634,-5.159337520599365,8.342962265014648
1701911434603836400,3.28783642578125,-0.10783201456069946,-4.642453193664551,8.641304016113281
1701911434620821200,3.3048212890625,-0.1263197511434555,-4.138541221618652,8.893404006958008
1701911434637831000,3.321830810546875,-0.16593345999717712,-3.631427526473999,9.111602783203125
1701911434654809000,3.33880908203125,-0.21933141350746155,-3.1168694496154785,9.299093246459961
1701911434671800000,3.355800048828125,-0.283288836479187,-2.60416579246521,9.453792572021484
1701911434688797400,3.37279736328125,-0.3434444069862366,-2.1132619380950928,9.573521614074707
1701911434705798400,3.38979833984375,-0.39724990725517273,-1.6614513397216797,9.660117149353027
1701911434722785000,3.406784912109375,-0.44925621151924133,-1.2590783834457397,9.718487739562988
1701911434739780400,3.4237802734375,-0.5050029754638672,-0.9028536677360535,9.755303382873535
1701911434756770600,3.4407705078125,-0.5691364407539368,-0.5806890726089478,9.77624797821045
1701911434773763800,3.457763916015625,-0.6350345611572266,-0.2858753502368927,9.78525161743164
1701911434790755600,3.474755615234375,-0.696665346622467,-0.013153311796486378,9.785222053527832
1701911434807748900,3.491748779296875,-0.7531629204750061,0.2440958321094513,9.777998924255371
1701911434824741400,3.508741455078125,-0.792865514755249,0.4887334108352661,9.765685081481934
1701911434841721000,3.52572119140625,-0.7918457388877869,0.7163675427436829,9.751714706420898
1701911434858723600,3.5427236328125,-0.743861734867096,0.9161370992660522,9.738761901855469
1701911434875718100,3.55971826171875,-0.6573516130447388,1.080103874206543,9.72817611694336
1701911434892705800,3.576705810546875,-0.5499470233917236,1.196756362915039,9.721185684204102
1701911434909706200,3.593706298828125,-0.428779274225235,1.2589391469955444,9.71943187713623
1701911434926694000,3.61069384765625,-0.3165062963962555,1.2637587785720825,9.723111152648926
1701911434943687200,3.627687255859375,-0.2268298715353012,1.2047737836837769,9.733095169067383
1701911434960669200,3.644669189453125,-0.18464981019496918,1.0996140241622925,9.746428489685059
1701911434977666300,3.661666259765625,-0.20379126071929932,0.960864782333374,9.760702133178711
1701911434994666200,3.678666259765625,-0.27884262800216675,0.7845449447631836,9.774603843688965
1701911435011656700,3.69565673828125,-0.37010887265205383,0.588323175907135,9.785346031188965
1701911435028648000,3.71264794921875,-0.4565710723400116,0.38225120306015015,9.791913032531738
1701911435045638700,3.729638671875,-0.5334888696670532,0.13637110590934753,9.794535636901855
1701911435062635000,3.746635009765625,-0.5997694134712219,-0.1767011135816574,9.790055274963379
1701911435079615500,3.763615478515625,-0.6514049768447876,-0.5453295111656189,9.773148536682129
1701911435096618800,3.78061865234375,-0.6711855530738831,-0.9673739075660706,9.739086151123047
1701911435113609200,3.797609130859375,-0.647169828414917,-1.4760463237762451,9.676703453063965
1701911435130602000,3.81460205078125,-0.5921849608421326,-2.0871012210845947,9.567103385925293
1701911435147595300,3.83159521484375,-0.5301951169967651,-2.7523741722106934,9.401034355163574
1701911435164581600,3.84858154296875,-0.49304425716400146,-3.4065585136413574,9.18631649017334
1701911435181580000,3.865580078125,-0.487750768661499,-4.0065016746521,8.941261291503906
1701911435198571300,3.8825712890625,-0.49216485023498535,-4.524946212768555,8.690153121948242
1701911435215564500,3.899564453125,-0.48198074102401733,-4.958603382110596,8.45080280303955
1701911435232555300,3.91655517578125,-0.4582030475139618,-5.340198993682861,8.216352462768555
1701911435249548800,3.933548828125,-0.4232688546180725,-5.692161560058594,7.97848653793335
1701911435266542000,3.9505419921875,-0.3723524510860443,-5.99608850479126,7.755280494689941
1701911435283521800,3.967521728515625,-0.2984892725944519,-6.236145973205566,7.566869258880615
1701911435300522000,3.98452197265625,-0.2088157683610916,-6.42500638961792,7.41024923324585
1701911435317518300,4.001518310546875,-0.11792080104351044,-6.583743572235107,7.2716264724731445
1701911435334509600,4.018509521484375,-0.030872130766510963,-6.728986740112305,7.138340950012207
1701911435351503400,4.03550341796875,0.04799044132232666,-6.866487979888916,7.006081581115723
1701911435368489000,4.052489013671875,0.11698086559772491,-6.997538089752197,6.874364376068115
1701911435385480000,4.06947998046875,0.17134593427181244,-7.116659164428711,6.749808311462402
1701911435402479000,4.08647900390625,0.21373240649700165,-7.224277973175049,6.633266448974609
1701911435419472600,4.10347265625,0.24414552748203278,-7.3256072998046875,6.520122051239014
1701911435436465400,4.12046533203125,0.2543720304965973,-7.420970439910889,6.410976409912109
1701911435453457200,4.13745703125,0.24153445661067963,-7.506173610687256,6.3115081787109375
1701911435470445800,4.15444580078125,0.22554290294647217,-7.576954364776611,6.226957321166992
1701911435487444700,4.17144482421875,0.2163928896188736,-7.62552547454834,6.167709827423096
1701911435504433400,4.188433349609375,0.2036927342414856,-7.629268169403076,6.163511276245117
1701911435521426400,4.205426513671875,0.1520492434501648,-7.577757835388184,6.22821044921875
1701911435538417700,4.222417724609375,0.06864894926548004,-7.480813026428223,6.345775127410889
1701911435555412500,4.23941259765625,-0.020908182486891747,-7.333756923675537,6.515494346618652
1701911435572401000,4.25640087890625,-0.1293480098247528,-7.113708019256592,6.753852367401123
1701911435589396000,4.27339599609375,-0.2785189747810364,-6.819275379180908,7.046703815460205
1701911435606387200,4.29038720703125,-0.44847121834754944,-6.50111722946167,7.332836151123047
1701911435623380500,4.30738037109375,-0.5410572290420532,-6.199029922485352,7.583889961242676
1701911435640361200,4.324361328125,-0.5308079123497009,-5.891593933105469,7.825821399688721
1701911435657365000,4.341364990234375,-0.47586366534233093,-5.527379035949707,8.090597152709961
1701911435674356200,4.358356201171875,-0.43589210510253906,-5.10183572769165,8.367640495300293
1701911435691350000,4.37535009765625,-0.4429400563240051,-4.648940563201904,8.627123832702637
1701911435708338700,4.392338623046875,-0.4740033745765686,-4.213883399963379,8.846165657043457
1701911435725337000,4.409337158203125,-0.49309980869293213,-3.80875301361084,9.026981353759766
1701911435742314500,4.426314453125,-0.5037090182304382,-3.411205768585205,9.184011459350586
1701911435759309800,4.443309814453125,-0.5238187313079834,-3.013319969177246,9.321032524108887
1701911435776310500,4.460310546875,-0.569963812828064,-2.6284990310668945,9.434101104736328
1701911435793303600,4.477303466796875,-0.6349304914474487,-2.278547763824463,9.520566940307617
1701911435810295300,4.49429541015625,-0.6900983452796936,-1.9708316326141357,9.585182189941406
1701911435827285800,4.51128564453125,-0.7221697568893433,-1.6976441144943237,9.634966850280762
1701911435844279800,4.52827978515625,-0.735238254070282,-1.442426323890686,9.675482749938965
1701911435861273000,4.545273193359375,-0.7482974529266357,-1.1918613910675049,9.708534240722656
1701911435878261200,4.56226123046875,-0.7758390307426453,-0.9445621967315674,9.733550071716309
1701911435895257600,4.579257568359375,-0.8176314234733582,-0.6991139054298401,9.750838279724121
1701911435912249300,4.596249267578125,-0.8706364035606384,-0.44988566637039185,9.7609281539917
1701911435929242000,4.6132421875,-0.9440832734107971,-0.19919681549072266,9.762435913085938
1701911435946233600,4.630233642578125,-1.0388754606246948,0.05310295149683952,9.754693984985352
1701911435963227100,4.64722705078125,-1.1294535398483276,0.29906579852104187,9.740175247192383
1701911435980218000,4.664218017578125,-1.1937530040740967,0.5188570618629456,9.723264694213867
1701911435997212000,4.6812119140625,-1.2314558029174805,0.6936242580413818,9.707653045654297
1701911436014203100,4.698203125,-1.2487425804138184,0.8051204085350037,9.696832656860352
1701911436031196700,4.71519677734375,-1.2827025651931763,0.855859637260437,9.68804931640625
1701911436048187600,4.732187744140625,-1.380771517753601,0.8751691579818726,9.672832489013672
1701911436065180200,4.74918017578125,-1.5672093629837036,0.8868820071220398,9.643309593200684
1701911436082162400,4.766162353515625,-1.7964296340942383,0.8616287708282471,9.605548858642578
1701911436099165700,4.783165771484375,-1.9341765642166138,0.784389078617096,9.585395812988281
1701911436116151600,4.800151611328125,-1.8587474822998047,0.668762743473053,9.609054565429688
1701911436133152000,4.817152099609375,-1.5841493606567383,0.48334139585494995,9.669175148010254
1701911436150142500,4.834142578125,-1.2439531087875366,0.1698174774646759,9.729330062866211
1701911436167135200,4.85113525390625,-0.9563109874725342,-0.31249481439590454,9.758275985717773
1701911436184129500,4.868129638671875,-0.7231205105781555,-0.944479763507843,9.737615585327148
1701911436201116400,4.885116455078125,-0.5591979026794434,-1.6574023962020874,9.65279483795166
1701911436218101800,4.902101806640625,-0.4814164936542511,-2.3959596157073975,9.500722885131836
1701911436235107000,4.919107177734375,-0.4698793590068817,-3.14444899559021,9.28050422668457
1701911436252084200,4.936084228515625,-0.4856013357639313,-3.886176109313965,8.994327545166016
1701911436269075000,4.953074951171875,-0.5007251501083374,-4.587170600891113,8.656977653503418
1701911436286080500,4.97008056640625,-0.5045977830886841,-5.22029447555542,8.290358543395996
1701911436303073500,4.987073486328125,-0.4846575856208801,-5.77846097946167,7.9126877784729
1701911436320053800,5.0040537109375,-0.42574426531791687,-6.222557544708252,7.571964263916016
1701911436337058300,5.021058349609375,-0.3378927707672119,-6.518091678619385,7.3236894607543945
1701911436354049500,5.038049560546875,-0.23851554095745087,-6.695525169372559,7.165832042694092
1701911436371044900,5.055044921875,-0.14193327724933624,-6.802891731262207,7.066584587097168
1701911436388026000,5.072026123046875,-0.06228308379650116,-6.871220111846924,7.001326084136963
1701911436405030700,5.08903076171875,-0.00567735405638814,-6.926506042480469,6.946913719177246
1701911436422018800,5.106018798828125,0.03476725518703461,-6.984670162200928,6.888346195220947
1701911436439012400,5.123012451171875,0.059786029160022736,-7.049897193908691,6.82139778137207
1701911436456002300,5.140002197265625,0.07267621904611588,-7.117486953735352,6.7507195472717285
1701911436472998000,5.156997802734375,0.09206119924783707,-7.190505504608154,6.67264986038208
1701911436489988400,5.17398828125,0.13338756561279297,-7.290831565856934,6.562171459197998
1701911436506981600,5.190981689453125,0.20048758387565613,-7.42586612701416,6.407216548919678
1701911436523972900,5.207972900390625,0.268262654542923,-7.576014995574951,6.226408958435059
1701911436540966400,5.22496630859375,0.30070769786834717,-7.706014633178711,6.063253402709961
1701911436557956900,5.241956787109375,0.28278976678848267,-7.781936168670654,5.966375350952148
1701911436574952700,5.25895263671875,0.24059392511844635,-7.808967590332031,5.932815074920654
1701911436591942100,5.275942138671875,0.1955466866493225,-7.805561542510986,5.938948154449463
1701911436608936000,5.29293603515625,0.09098326414823532,-7.758805274963379,6.002397060394287
1701911436625936400,5.309936279296875,-0.09039181470870972,-7.652087211608887,6.13787317276001
1701911436642919400,5.32691943359375,-0.24205252528190613,-7.50507926940918,6.3127899169921875
1701911436659912200,5.343912109375,-0.28849169611930847,-7.319854736328125,6.524770259857178
1701911436676904700,5.36090478515625,-0.31679046154022217,-7.048079013824463,6.816181659698486
1701911436693896000,5.37789599609375,-0.4121766686439514,-6.668200492858887,7.183405876159668
1701911436710879000,5.39487890625,-0.5416498184204102,-6.201104640960693,7.582150936126709
1701911436727880700,5.411880615234375,-0.6475054621696472,-5.6836724281311035,7.96948766708374
1701911436744874200,5.428874267578125,-0.704153299331665,-5.156529426574707,8.315677642822266
1701911436761866000,5.445865966796875,-0.7279181480407715,-4.643834114074707,8.61052131652832
1701911436778855000,5.46285498046875,-0.7596889734268188,-4.15104341506958,8.855948448181152
1701911436795847700,5.47984765625,-0.823794960975647,-3.6736268997192383,9.05880355834961
1701911436812845800,5.496845703125,-0.9067172408103943,-3.2022697925567627,9.228187561035156
1701911436829834800,5.513834716796875,-0.9974765777587891,-2.7380874156951904,9.367178916931152
1701911436846814700,5.530814697265625,-1.1009992361068726,-2.254848003387451,9.483647346496582
1701911436863815700,5.547815673828125,-1.2354997396469116,-1.7350233793258667,9.575976371765137
1701911436880816600,5.564816650390625,-1.4044655561447144,-1.1902682781219482,9.635706901550293
1701911436897801000,5.581801025390625,-1.5913554430007935,-0.6396746039390564,9.658909797668457
1701911436914797300,5.59879736328125,-1.760585069656372,-0.10308028012514114,9.650172233581543
1701911436931788800,5.615788818359375,-1.8780076503753662,0.40055620670318604,9.62022876739502
1701911436948781800,5.63278173828125,-1.9380848407745361,0.8584128022193909,9.578262329101562
1701911436965772300,5.649772216796875,-1.9685990810394287,1.270808458328247,9.526058197021484
1701911436982767600,5.666767578125,-1.9933165311813354,1.637718915939331,9.464707374572754
1701911436999758000,5.683758056640625,-1.9912536144256592,1.946270227432251,9.406542778015137
1701911437016751400,5.70075146484375,-1.9527151584625244,2.1956915855407715,9.35959243774414
1701911437033742800,5.717742919921875,-1.878235101699829,2.3946399688720703,9.32598876953125
1701911437050736000,5.734736083984375,-1.7737231254577637,2.5299675464630127,9.310708999633789
1701911437067727600,5.7517275390625,-1.6914031505584717,2.5724503993988037,9.314384460449219
1701911437084720600,5.768720703125,-1.648863434791565,2.509874105453491,9.3390531539917
1701911437101712100,5.785712158203125,-1.599117636680603,2.3349356651306152,9.392925262451172
1701911437118705700,5.80270556640625,-1.5071637630462646,2.007411003112793,9.4833984375
1701911437135696400,5.8196962890625,-1.371645212173462,1.491827368736267,9.598392486572266
1701911437152689200,5.836689208984375,-1.1867480278015137,0.8147007822990417,9.703815460205078
1701911437169682200,5.85368212890625,-0.9557303786277771,0.053914837539196014,9.76318645477295
1701911437186670000,5.870670166015625,-0.7260341644287109,-0.7193288803100586,9.756616592407227
1701911437203670500,5.88767041015625,-0.5740305185317993,-1.5050321817398071,9.67685317993164
1701911437220654600,5.904654541015625,-0.5361575484275818,-2.317125082015991,9.51733112335205
1701911437237652000,5.92165185546875,-0.5848817825317383,-3.152167797088623,9.271347045898438
1701911437254640400,5.938640380859375,-0.6437392830848694,-3.994171380996704,8.936907768249512
1701911437271635200,5.95563525390625,-0.6589075326919556,-4.778872489929199,8.54191780090332
1701911437288625400,5.97262548828125,-0.6172376871109009,-5.417823314666748,8.154895782470703
1701911437305620000,5.989619873046875,-0.5287783741950989,-5.901137828826904,7.818765640258789
1701911437322613200,6.00661328125,-0.4052141010761261,-6.2819037437438965,7.5239338874816895
1701911437339604500,6.0236044921875,-0.25034505128860474,-6.610156059265137,7.244258403778076
1701911437356597800,6.04059765625,-0.07838631421327591,-6.91055965423584,6.962336540222168
1701911437373589000,6.057589111328125,0.08893410861492157,-7.178482532501221,6.685624599456787
1701911437390582300,6.074582275390625,0.25083446502685547,-7.379941940307617,6.458299160003662
1701911437407574000,6.091573974609375,0.3942055404186249,-7.508423328399658,6.30113410949707
1701911437424567300,6.1085673828125,0.49265921115875244,-7.593840599060059,6.19088077545166
1701911437441558500,6.12555859375,0.5282456874847412,-7.666050910949707,6.098258018493652
1701911437458552000,6.142552001953125,0.5082128047943115,-7.751488208770752,5.991017818450928
1701911437475542300,6.159542236328125,0.4622563421726227,-7.864038944244385,5.846310138702393
1701911437492537000,6.176537109375,0.422466903924942,-7.9853363037109375,5.682608127593994
1701911437509527600,6.193527587890625,0.38376477360725403,-8.08621883392334,5.5409321784973145
1701911437526521300,6.210521240234375,0.3490144610404968,-8.153334617614746,5.444026947021484
1701911437543512300,6.22751220703125,0.3459244966506958,-8.198201179504395,5.376427173614502
1701911437560506400,6.24450634765625,0.37401890754699707,-8.227784156799316,5.32914924621582
1701911437577497000,6.2614970703125,0.374236136674881,-8.230587005615234,5.324803352355957
1701911437594490600,6.27849072265625,0.284645676612854,-8.18538761138916,5.3994927406311035
1701911437611481900,6.29548193359375,0.11566933244466782,-8.080290794372559,5.561624526977539
1701911437628475000,6.312474853515625,-0.0484430156648159,-7.920498847961426,5.787874221801758
1701911437645453000,6.329453125,-0.13746921718120575,-7.703403472900391,6.072463035583496
1701911437662461400,6.34646142578125,-0.15985147655010223,-7.419807434082031,6.415372848510742
1701911437679435800,6.363435791015625,-0.16545544564723969,-7.079239845275879,6.789190769195557
1701911437696444700,6.380444580078125,-0.1792765110731125,-6.700229167938232,7.163161754608154
1701911437713435600,6.397435546875,-0.19406354427337646,-6.3051323890686035,7.512906074523926
1701911437730426400,6.41442626953125,-0.18331372737884521,-5.9145660400390625,7.8243489265441895
1701911437747422700,6.431422607421875,-0.15124964714050293,-5.5395660400390625,8.094841957092285
1701911437764403200,6.4484033203125,-0.1316211223602295,-5.177422523498535,8.331451416015625
1701911437781392100,6.46539208984375,-0.13884185254573822,-4.827829837799072,8.538670539855957
1701911437798397400,6.4823974609375,-0.17469756305217743,-4.492995262145996,8.718864440917969
1701911437815389700,6.4993896484375,-0.2306799739599228,-4.174571514129639,8.87445068359375
1701911437832382700,6.5163828125,-0.30413591861724854,-3.8737165927886963,9.007659912109375
1701911437849374500,6.53337451171875,-0.3931901752948761,-3.5841310024261475,9.123351097106934
1701911437866367700,6.55036767578125,-0.4979173243045807,-3.2946009635925293,9.226797103881836
1701911437883361800,6.56736181640625,-0.6227922439575195,-2.9989430904388428,9.319581985473633
1701911437900339500,6.58433935546875,-0.7545464038848877,-2.702955484390259,9.400043487548828
1701911437917347000,6.60134716796875,-0.8675929307937622,-2.42002272605896,9.467146873474121
1701911437934336800,6.618336669921875,-0.9375665783882141,-2.1643083095550537,9.522228240966797
1701911437951317500,6.6353173828125,-0.955644965171814,-1.9528870582580566,9.566038131713867
1701911437968321800,6.65232177734375,-0.9374174475669861,-1.7984474897384644,9.59807014465332
1701911437985312000,6.66931201171875,-0.9165563583374023,-1.6857041120529175,9.620522499084473
1701911438002296300,6.68629638671875,-0.8993597030639648,-1.617534875869751,9.633838653564453
1701911438019303000,6.703302978515625,-0.8970231413841248,-1.609204649925232,9.635451316833496
1701911438036276700,6.72027685546875,-0.9099893569946289,-1.6511924266815186,9.627127647399902
1701911438053281300,6.73728125,-0.9163703918457031,-1.7553400993347168,9.608078956604004
1701911438070276000,6.754276123046875,-0.9044654965400696,-1.9586710929870605,9.569832801818848
1701911438087266800,6.771266845703125,-0.8666602969169617,-2.251052141189575,9.50882625579834
1701911438104247000,6.7882470703125,-0.789444625377655,-2.5833144187927246,9.430768013000488
1701911438121241300,6.805241455078125,-0.6599448323249817,-2.9206972122192383,9.34184741973877
1701911438138240500,6.822240478515625,-0.5074266791343689,-3.2633066177368164,9.237396240234375
1701911438155232300,6.839232177734375,-0.34618207812309265,-3.6396594047546387,9.103249549865723
1701911438172224000,6.85622412109375,-0.1686331182718277,-4.053903102874756,8.931604385375977
1701911438189218000,6.873218017578125,0.029531655833125114,-4.477416515350342,8.728572845458984
1701911438206212600,6.890212646484375,0.22100107371807098,-4.863574504852295,8.516626358032227
1701911438223192800,6.90719287109375,0.37326958775520325,-5.181610584259033,8.321521759033203
1701911438240189700,6.924189697265625,0.5088703632354736,-5.425253391265869,8.157438278198242
1701911438257181400,6.941181396484375,0.6447409391403198,-5.618401527404785,8.015859603881836
1701911438274182000,6.958181884765625,0.7897325754165649,-5.787312984466553,7.881589889526367
1701911438291164000,6.975163818359375,0.9333310127258301,-5.9374847412109375,7.753147602081299
1701911438308160000,6.992159912109375,1.059207558631897,-6.066758632659912,7.636009216308594
1701911438325147400,7.0091474609375,1.1486047506332397,-6.173898696899414,7.536564826965332
1701911438342147800,7.02614794921875,1.202189326286316,-6.267148971557617,7.450751304626465
1701911438359136300,7.04313623046875,1.2243858575820923,-6.356575012207031,7.370953559875488
1701911438376132900,7.0601328125,1.2219277620315552,-6.449113845825195,7.290538787841797
1701911438393120800,7.077120849609375,1.2059781551361084,-6.5426859855651855,7.2093706130981445
1701911438410113300,7.09411328125,1.1820123195648193,-6.628425121307373,7.13463020324707
1701911438427103000,7.11110302734375,1.1707559823989868,-6.6907958984375,7.078044414520264
1701911438444095200,7.12809521484375,1.1831547021865845,-6.714712142944336,7.053290843963623
1701911438461100000,7.14510009765625,1.2082725763320923,-6.701520919799805,7.0615739822387695
1701911438478088700,7.162088623046875,1.2331639528274536,-6.659378528594971,7.097048759460449
1701911438495084300,7.179084228515625,1.2541240453720093,-6.594448566436768,7.153778553009033
1701911438512076500,7.19607666015625,1.2643569707870483,-6.494349479675293,7.242991924285889
1701911438529057800,7.213057861328125,1.2739360332489014,-6.3529133796691895,7.365711688995361
1701911438546060300,7.230060302734375,1.2838258743286133,-6.167669296264648,7.519825458526611
1701911438563051000,7.247051025390625,1.2652779817581177,-5.9187822341918945,7.720310688018799
1701911438580045800,7.2640458984375,1.203784704208374,-5.5937957763671875,7.9684672355651855
1701911438597036300,7.281036376953125,1.1042572259902954,-5.20871639251709,8.239296913146973
1701911438614029800,7.29802978515625,0.9854410290718079,-4.791690349578857,8.503217697143555
1701911438631021300,7.315021240234375,0.8728092908859253,-4.374157905578613,8.737337112426758
1701911438648014300,7.332014404296875,0.771280825138092,-3.9628236293792725,8.940764427185059
1701911438665001700,7.349001708984375,0.6698096990585327,-3.548022508621216,9.121349334716797
1701911438681999000,7.3659990234375,0.5567904710769653,-3.1219658851623535,9.283288955688477
1701911438698987300,7.3829873046875,0.43061017990112305,-2.679706573486328,9.427082061767578
1701911438715984600,7.399984619140625,0.3046184480190277,-2.226577043533325,9.54911994934082
1701911438732963600,7.416963623046875,0.20347170531749725,-1.7843738794326782,9.644207000732422
1701911438749968400,7.433968505859375,0.14646779000759125,-1.3679169416427612,9.713057518005371
1701911438766959600,7.450959716796875,0.1341332346200943,-0.9957641959190369,9.758411407470703
1701911438783953000,7.467952880859375,0.14843377470970154,-0.6796625256538391,9.78530216217041
1701911438800944000,7.484944091796875,0.1576383113861084,-0.42339104413986206,9.799592018127441
1701911438817929200,7.50192919921875,0.13353988528251648,-0.22708305716514587,9.806464195251465
1701911438834931200,7.51893115234375,0.0668671503663063,-0.09514355659484863,9.809311866760254
1701911438851920000,7.535919921875,-0.016142994165420532,-0.03441144898533821,9.80992603302002
1701911438868916000,7.552916015625,-0.09387324750423431,-0.04008909687399864,9.809468269348145
1701911438885906200,7.56990625,-0.15663155913352966,-0.10549371689558029,9.808184623718262
1701911438902899000,7.58689892578125,-0.20886971056461334,-0.22149808704853058,9.805274963378906
1701911438919891500,7.603891357421875,-0.26150986552238464,-0.37820231914520264,9.799219131469727
1701911438936882700,7.620882568359375,-0.3063226342201233,-0.5608476996421814,9.789165496826172
1701911438953866000,7.637865966796875,-0.33647826313972473,-0.7638565897941589,9.774426460266113
1701911438970867200,7.6548671875,-0.35195833444595337,-1.0015625953674316,9.75239086151123
1701911438987860700,7.67186083984375,-0.35245561599731445,-1.2863231897354126,9.718914985656738
1701911439004852200,7.688852294921875,-0.3324488699436188,-1.614395022392273,9.670536994934082
1701911439021845800,7.705845703125,-0.30330759286880493,-1.97044038772583,9.605284690856934
1701911439038836500,7.72283642578125,-0.2875625193119049,-2.3337135314941406,9.524033546447754
1701911439055832300,7.739832275390625,-0.30025067925453186,-2.6832141876220703,9.431135177612305
1701911439072818200,7.756818115234375,-0.35854199528694153,-3.0239665508270264,9.325407028198242
1701911439089815600,7.773815673828125,-0.454548716545105,-3.380234956741333,9.198018074035645
1701911439106805800,7.7908056640625,-0.5325208306312561,-3.7693417072296143,9.04127311706543
1701911439123799300,7.80779931640625,-0.567285418510437,-4.172234058380127,8.860405921936035
1701911439140788200,7.824788330078125,-0.5871809124946594,-4.533778190612793,8.679643630981445
1701911439157786400,7.841786376953125,-0.6102695465087891,-4.807198524475098,8.529627799987793
1701911439174775000,7.858775146484375,-0.6345928311347961,-4.987254619598389,8.42381763458252
1701911439191768600,7.8757685546875,-0.6295336484909058,-5.107374668121338,8.351919174194336
1701911439208749300,7.892749267578125,-0.5657885670661926,-5.2184600830078125,8.28756046295166
1701911439225753300,7.90975341796875,-0.46158793568611145,-5.359469890594482,8.203604698181152
1701911439242742000,7.926741943359375,-0.3618759214878082,-5.522768020629883,8.099642753601074
1701911439259740200,7.943740234375,-0.291054368019104,-5.679922580718994,7.993115425109863
1701911439276718600,7.960718505859375,-0.24082423746585846,-5.814754486083984,7.8972601890563965
1701911439293722400,7.977722412109375,-0.1864023655653,-5.924233913421631,7.816958904266357
1701911439310713600,7.994713623046875,-0.1055217832326889,-6.021358966827393,7.743916034698486
1701911439327707000,8.011706787109375,0.004103868268430233,-6.1194376945495605,7.667369842529297
1701911439344698400,8.028698486328125,0.11840860545635223,-6.227431774139404,7.5789971351623535
1701911439361691600,8.045691650390625,0.21740840375423431,-6.345479965209961,7.478219032287598
1701911439378672600,8.062672607421876,0.28464657068252563,-6.470452308654785,7.3680620193481445
1701911439395675600,8.079675537109376,0.3179549276828766,-6.606973171234131,7.244511127471924
1701911439412666000,8.096666015625,0.3287547528743744,-6.758002758026123,7.103339195251465
1701911439429663500,8.11366357421875,0.32499879598617554,-6.917074203491211,6.948711395263672
1701911439446652200,8.130652099609375,0.3148338496685028,-7.07435417175293,6.78900146484375
1701911439463645700,8.147645751953124,0.30855509638786316,-7.225476264953613,6.628227710723877
1701911439480637000,8.164636962890626,0.3146003782749176,-7.362924098968506,6.474912643432617
1701911439497630200,8.181630126953126,0.3402164578437805,-7.474782466888428,6.344130992889404
1701911439514621400,8.198621337890625,0.3863314092159271,-7.554426193237305,6.246400833129883
1701911439531615200,8.215615234375,0.45404624938964844,-7.597700595855713,6.189096927642822
1701911439548606200,8.232606201171874,0.5360809564590454,-7.600776672363281,6.17874813079834
1701911439565599500,8.249599609375,0.6239286065101624,-7.5579352378845215,6.222898483276367
1701911439582590000,8.26658984375,0.7112322449684143,-7.463179588317871,6.327022552490234
1701911439599585000,8.2835849609375,0.7840040922164917,-7.323159694671631,6.4801859855651855
1701911439616575500,8.300575439453125,0.8330785632133484,-7.155612945556641,6.65877628326416
1701911439633568800,8.31756884765625,0.8655382394790649,-6.982318878173828,6.836240768432617
1701911439650560000,8.33456005859375,0.8813450336456299,-6.8074421882629395,7.008429050445557
1701911439667553500,8.351553466796876,0.8554968237876892,-6.6100687980651855,7.198002338409424
1701911439684544800,8.368544677734375,0.7662140727043152,-6.36780309677124,7.422945976257324
1701911439701538000,8.3855380859375,0.6166701912879944,-6.072668075561523,7.679749965667725
1701911439718526200,8.402526123046876,0.4278711974620819,-5.726765155792236,7.953441619873047
1701911439735522600,8.4195224609375,0.2306295484304428,-5.347556114196777,8.221105575561523
1701911439752514000,8.43651416015625,0.06616958230733871,-4.968131065368652,8.45868968963623
1701911439769507600,8.453507568359376,-0.059023406356573105,-4.609743118286133,8.659268379211426
1701911439786496000,8.47049609375,-0.16226989030838013,-4.272270679473877,8.829355239868164
1701911439803494700,8.48749462890625,-0.26361411809921265,-3.9459333419799805,8.97754192352295
1701911439820473000,8.50447314453125,-0.37478694319725037,-3.6187245845794678,9.11046028137207
1701911439837476600,8.5214765625,-0.48275214433670044,-3.278728723526001,9.233255386352539
1701911439854468900,8.53846875,-0.5630256533622742,-2.9191572666168213,9.348671913146973
1701911439871460000,8.555460205078125,-0.6041134595870972,-2.538923501968384,9.4564790725708
1701911439888452400,8.572452392578125,-0.6574353575706482,-2.1460061073303223,9.549793243408203
1701911439905445000,8.589445068359375,-0.8017551302909851,-1.7675490379333496,9.61608600616455
1701911439922443300,8.606443359375,-1.0532605648040771,-1.4197992086410522,9.649401664733887
1701911439939430400,8.623430419921876,-1.372206449508667,-1.0994333028793335,9.65113639831543
1701911439956421600,8.640421630859375,-1.6846767663955688,-0.813662588596344,9.629952430725098
1701911439973414100,8.6574140625,-1.906863808631897,-0.5697048902511597,9.606011390686035
1701911439990407200,8.6744072265625,-2.0264477729797363,-0.36423054337501526,9.591503143310547
1701911440007399700,8.691399658203125,-2.0592453479766846,-0.20811878144741058,9.589178085327148
1701911440024391000,8.708390869140626,-2.044827461242676,-0.11242237687110901,9.593859672546387
1701911440041378600,8.725378662109375,-2.0216305255889893,-0.08108363300561905,9.599091529846191
1701911440058375700,8.742375732421875,-1.998584508895874,-0.10389713197946548,9.603693962097168
1701911440075366400,8.759366455078125,-1.962510108947754,-0.16549798846244812,9.610271453857422
1701911440092360200,8.776360107421874,-1.8994247913360596,-0.25855013728141785,9.620887756347656
1701911440109356000,8.79335595703125,-1.8055535554885864,-0.3733115494251251,9.63518238067627
1701911440126345000,8.810344970703126,-1.6953867673873901,-0.5011295080184937,9.649388313293457
1701911440143338200,8.827338134765625,-1.5935888290405273,-0.643700122833252,9.658271789550781
1701911440160325400,8.844325439453126,-1.5259407758712769,-0.816068708896637,9.656170845031738
1701911440177320000,8.86131982421875,-1.4995050430297852,-1.0210578441619873,9.640801429748535
1701911440194316800,8.87831689453125,-1.4801604747772217,-1.2570120096206665,9.61588191986084
1701911440211299600,8.895299560546874,-1.4262363910675049,-1.525007724761963,9.585211753845215
1701911440228292900,8.91229296875,-1.3565770387649536,-1.807978868484497,9.546046257019043
1701911440245292500,8.92929248046875,-1.2845704555511475,-2.0907862186431885,9.498137474060059
1701911440262278700,8.946278564453126,-1.1976498365402222,-2.4064042568206787,9.434563636779785
1701911440279259000,8.9632587890625,-1.0911781787872314,-2.8476531505584717,9.323965072631836
1701911440296264200,8.98026416015625,-0.9182718992233276,-3.451998233795166,9.136551856994629
1701911440313258000,8.997258056640625,-0.6849197745323181,-4.149528980255127,8.862753868103027
1701911440330257000,9.0142568359375,-0.4512384235858917,-4.849552631378174,8.515535354614258
1701911440347246000,9.03124609375,-0.27429232001304626,-5.490945816040039,8.124678611755371
1701911440364237300,9.0482373046875,-0.1625286340713501,-6.030540943145752,7.735779285430908
1701911440381230600,9.065230712890624,-0.06991048157215118,-6.4813456535339355,7.363655090332031
1701911440398222000,9.08222216796875,0.049020133912563324,-6.8904852867126465,6.982472896575928
1701911440415214300,9.09921435546875,0.2112072855234146,-7.268513202667236,6.584849834442139
1701911440432207400,9.116207275390625,0.4274361729621887,-7.5818586349487305,6.210381984710693
1701911440449200000,9.1332001953125,0.6768339276313782,-7.803060531616211,5.906797885894775
1701911440466182700,9.1501826171875,0.9306358695030212,-7.931539535522461,5.697432518005371
1701911440483173000,9.167173095703125,1.1768474578857422,-7.990137577056885,5.568558216094971
1701911440500176400,9.18417626953125,1.3913239240646362,-8.006207466125488,5.495542526245117
1701911440517169200,9.201169189453125,1.5618427991867065,-8.010763168334961,5.442832946777344
1701911440534160400,9.218160400390625,1.6790016889572144,-8.02156925201416,5.391798496246338
1701911440551154000,9.23515380859375,1.7407892942428589,-8.040327072143555,5.344053745269775
1701911440568143000,9.25214306640625,1.7560341358184814,-8.0584077835083,5.311734199523926
1701911440585140500,9.269140380859374,1.7350414991378784,-8.065909385681152,5.307247161865234
1701911440602121700,9.286121826171875,1.6959306001663208,-8.067793846130371,5.317013740539551
1701911440619119600,9.30311962890625,1.6559935808181763,-8.075905799865723,5.317287445068359
1701911440636115200,9.320115234375,1.6223164796829224,-8.096229553222656,5.296722888946533
1701911440653110300,9.3371103515625,1.5986878871917725,-8.121004104614258,5.265891075134277
1701911440670099000,9.354098876953126,1.595024585723877,-8.135207176208496,5.245037078857422
1701911440687092200,9.37109228515625,1.5880073308944702,-8.133575439453125,5.249692916870117
1701911440704083500,9.38808349609375,1.485932469367981,-8.1014986038208,5.328588962554932
1701911440721079600,9.40507958984375,1.2561737298965454,-8.019158363342285,5.509194850921631
1701911440738059800,9.422059814453124,1.014967918395996,-7.941977024078369,5.668416976928711
1701911440755063800,9.439063720703125,0.8840972781181335,-7.885440349578857,5.768389701843262
1701911440772052700,9.456052734375,0.8321751952171326,-7.77898645401001,5.918699264526367
1701911440789046300,9.47304638671875,0.8031876087188721,-7.567742824554443,6.190338611602783
1701911440806036700,9.49003662109375,0.7904629111289978,-7.233917713165283,6.578884601593018
1701911440823031600,9.507031494140625,0.7861201763153076,-6.803866386413574,7.023213863372803
1701911440840022000,9.52402197265625,0.7633628249168396,-6.3416547775268555,7.445590019226074
1701911440857022000,9.54102197265625,0.7189207673072815,-5.9008073806762695,7.803829193115234
1701911440874006500,9.558006591796875,0.6397705078125,-5.488034248352051,8.10606575012207
1701911440890999800,9.574999755859375,0.5082999467849731,-5.076040744781494,8.379234313964844
1701911440907980800,9.591980712890624,0.3091101348400116,-4.649321556091309,8.632750511169434
1701911440924984800,9.60898486328125,0.0650876984000206,-4.214219093322754,8.858455657958984
1701911440941976000,9.62597607421875,-0.17337404191493988,-3.786217212677002,9.048237800598145
1701911440958956000,9.6429560546875,-0.36793139576911926,-3.3707005977630615,9.205385208129883
1701911440975950600,9.65995068359375,-0.5010865330696106,-2.967644453048706,9.33692455291748
1701911440992957700,9.676957763671876,-0.5824066996574402,-2.5760886669158936,9.447787284851074
1701911441009943600,9.693943603515624,-0.6254369020462036,-2.201035499572754,9.539411544799805
1701911441026927900,9.710927978515626,-0.6534921526908875,-1.8574780225753784,9.6103515625
1701911441043929900,9.727929931640626,-0.7054658532142639,-1.5667898654937744,9.658343315124512
1701911441060924000,9.744923828125,-0.8023777604103088,-1.3213465213775635,9.687431335449219
1701911441077911000,9.7619111328125,-0.9267939329147339,-1.1037406921386719,9.703550338745117
1701911441094909700,9.77890966796875,-1.0419795513153076,-0.9162446856498718,9.711379051208496
1701911441111897900,9.79589794921875,-1.1373133659362793,-0.7722391486167908,9.713202476501465
1701911441128890000,9.81289013671875,-1.2484475374221802,-0.6857866048812866,9.706040382385254
1701911441145883400,9.82988330078125,-1.4081746339797974,-0.6605249047279358,9.685911178588867
1701911441162877000,9.846876953125,-1.601952075958252,-0.6700526475906372,9.655097007751465
1701911441179857400,9.863857421875,-1.7545703649520874,-0.7294305562973022,9.624215126037598
1701911441196861700,9.88086181640625,-1.7535525560379028,-0.8879523873329163,9.61107349395752
1701911441213853000,9.89785302734375,-1.5756345987319946,-1.1781827211380005,9.610690116882324
1701911441230846000,9.914845947265626,-1.3213897943496704,-1.614240050315857,9.5856294631958
1701911441247837200,9.931837158203125,-1.1060870885849,-2.176813840866089,9.50127124786377
1701911441264830700,9.948830810546875,-0.9837209582328796,-2.821673631668091,9.343798637390137
1701911441281822200,9.965822265625,-0.9308159351348877,-3.5113306045532227,9.112642288208008
1701911441298815500,9.9828154296875,-0.8906923532485962,-4.207211494445801,8.817151069641113
1701911441315805200,9.99980517578125,-0.8287206292152405,-4.8644609451293945,8.478583335876465
1701911441332802800,10.016802734375,-0.7497715353965759,-5.461390495300293,8.11462688446045
1701911441349792800,10.033792724609375,-0.6590946912765503,-5.998593807220459,7.734246730804443
1701911441366783000,10.050782958984374,-0.5400775074958801,-6.463577747344971,7.35979700088501
1701911441383775700,10.067775634765624,-0.3826231062412262,-6.826431751251221,7.0348801612854
1701911441400769300,10.084769287109374,-0.19170156121253967,-7.077606201171875,6.790202617645264
1701911441417755000,10.1017548828125,-0.0018664313247427344,-7.242359161376953,6.616974353790283
1701911441434756400,10.11875634765625,0.15984241664409637,-7.361882209777832,6.4817657470703125
1701911441451745300,10.135745361328125,0.268332839012146,-7.465690612792969,6.3582682609558105
1701911441468738600,10.152738525390625,0.3188825845718384,-7.5684814453125,6.233180522918701
1701911441485729800,10.169729736328126,0.3335351347923279,-7.682798385620117,6.090933799743652
1701911441502722300,10.186722412109376,0.3555399775505066,-7.816845893859863,5.91663932800293
1701911441519715000,10.203715087890625,0.43477675318717957,-7.949665546417236,5.7314839363098145
1701911441536707600,10.22070751953125,0.5769108533859253,-8.052780151367188,5.572795391082764
1701911441553698800,10.23769873046875,0.7216686606407166,-8.112434387207031,5.468430995941162
1701911441570689800,10.254689697265626,0.7937536835670471,-8.135496139526367,5.4240007400512695
1701911441587686100,10.27168603515625,0.7834520936012268,-8.143632888793945,5.413276672363281
1701911441604664300,10.288664306640625,0.7577769756317139,-8.149911880493164,5.407479763031006
1701911441621657600,10.30565771484375,0.7007227540016174,-8.12594223022461,5.451071262359619
1701911441638655700,10.32265576171875,0.5176633596420288,-8.028300285339355,5.61378288269043
1701911441655644400,10.33964453125,0.23975397646427155,-7.869086742401123,5.852871894836426
1701911441672636400,10.356636474609376,0.014319831505417824,-7.700558185577393,6.077608585357666
1701911441689631000,10.373630859375,-0.10322324186563492,-7.546809673309326,6.266668796539307
1701911441706625300,10.390625244140624,-0.19827382266521454,-7.380828857421875,6.459114074707031
1701911441723615200,10.407615234375,-0.32790660858154297,-7.173016548156738,6.684043884277344
1701911441740604200,10.424604248046874,-0.4717954695224762,-6.924047946929932,6.9333319664001465
1701911441757601000,10.44160107421875,-0.5949273109436035,-6.643810749053955,7.193187713623047
1701911441774598400,10.458598388671875,-0.670259952545166,-6.34561014175415,7.451181411743164
1701911441791584500,10.47558447265625,-0.7039375305175781,-6.0349225997924805,7.701967239379883
1701911441808574200,10.49257421875,-0.7181772589683533,-5.707390785217285,7.94644832611084
1701911441825574400,10.509574462890624,-0.7387287616729736,-5.357333183288574,8.184704780578613
1701911441842557700,10.5265576171875,-0.7784173488616943,-4.986067295074463,8.41245174407959
1701911441859555800,10.543555908203125,-0.8373821377754211,-4.5977678298950195,8.625279426574707
1701911441876550400,10.56055029296875,-0.9108497500419617,-4.1952738761901855,8.820778846740723
1701911441893540900,10.577540771484376,-0.9956420063972473,-3.7796764373779297,8.997715950012207
1701911441910527700,10.59452783203125,-1.095591425895691,-3.353631019592285,9.1536283493042
1701911441927524400,10.6115244140625,-1.2190170288085938,-2.9327259063720703,9.281659126281738
1701911441944520700,10.628520751953126,-1.376400113105774,-2.5490763187408447,9.372503280639648
1701911441961507300,10.64550732421875,-1.5720118284225464,-2.2449288368225098,9.419403076171875
1701911441978502000,10.662501953125,-1.8023338317871094,-2.009654998779297,9.431279182434082
1701911441995494700,10.67949462890625,-2.060811758041382,-1.79347825050354,9.421921730041504
1701911442012488400,10.696488525390626,-2.347892999649048,-1.5559358596801758,9.39694595336914
1701911442029479700,10.713479736328125,-2.6462085247039795,-1.2904925346374512,9.357795715332031
1701911442046478800,10.730478759765624,-2.9440982341766357,-1.0304721593856812,9.300890922546387
1701911442063468300,10.74746826171875,-3.2040083408355713,-0.8148449063301086,9.236151695251465
1701911442080450800,10.764450927734375,-3.3917887210845947,-0.6823976039886475,9.17966365814209
1701911442097452000,10.7814521484375,-3.509777307510376,-0.6308078765869141,9.138909339904785
1701911442114446800,10.79844677734375,-3.578009605407715,-0.6211450695991516,9.11307430267334
1701911442131437600,10.8154375,-3.617351531982422,-0.6511170268058777,9.09543514251709
1701911442148427800,10.832427734375,-3.609102249145508,-0.7706611752510071,9.089365005493164
1701911442165421800,10.849421875,-3.515024423599243,-0.9982279539108276,9.10407829284668
1701911442182404600,10.866404541015624,-3.3271493911743164,-1.2798330783843994,9.13937759399414
1701911442199396400,10.883396240234376,-3.0566251277923584,-1.5408377647399902,9.19342041015625
1701911442216396300,10.900396240234375,-2.7279274463653564,-1.7655736207962036,9.256203651428223
1701911442233392000,10.91739208984375,-2.358652114868164,-1.9986804723739624,9.310111045837402
1701911442250384600,10.934384521484375,-1.9655073881149292,-2.3019251823425293,9.33134651184082
1701911442267375900,10.9513759765625,-1.5833150148391724,-2.6990578174591064,9.297540664672852
1701911442284369200,10.968369140625,-1.2738978862762451,-3.1766083240509033,9.193608283996582
1701911442301360400,10.9853603515625,-1.06294584274292,-3.7068541049957275,9.020283699035645
1701911442318353700,11.002353759765626,-0.9485687017440796,-4.261076927185059,8.78519058227539
1701911442335344400,11.019344482421875,-0.9038702249526978,-4.803223133087158,8.50577449798584
1701911442352339000,11.0363388671875,-0.8932440876960754,-5.3135857582092285,8.197806358337402
1701911442369329700,11.05332958984375,-0.8829468488693237,-5.789434432983398,7.870133876800537
1701911442386320100,11.070320068359376,-0.840722918510437,-6.225348949432373,7.534876346588135
1701911442403316000,11.08731591796875,-0.7401213049888611,-6.605680465698242,7.2148003578186035
1701911442420299300,11.10429931640625,-0.5692130327224731,-6.902076244354248,6.947911262512207
1701911442437298700,11.121298583984375,-0.3510212302207947,-7.099640846252441,6.760770320892334
1701911442454292700,11.138292724609375,-0.1212981566786766,-7.229182720184326,6.6302571296691895
1701911442471281200,11.15528125,0.0844542607665062,-7.329565048217773,6.519698143005371
1701911442488279300,11.172279296875,0.25292423367500305,-7.4343719482421875,6.395488262176514
1701911442505250600,11.18925048828125,0.3933316767215729,-7.558620929718018,6.24088716506958
1701911442522255600,11.206255615234374,0.5101842284202576,-7.686264514923096,6.074304580688477
1701911442539249700,11.223249755859374,0.6103107333183289,-7.794320583343506,5.925558090209961
1701911442556249300,11.240249267578125,0.6963063478469849,-7.876167297363281,5.806657791137695
1701911442573233700,11.257233642578125,0.7460871934890747,-7.931501388549805,5.724573612213135
1701911442590227500,11.2742275390625,0.7590796947479248,-7.9700798988342285,5.6690168380737305
1701911442607228700,11.291228759765625,0.7221925854682922,-7.995792865753174,5.637539863586426
1701911442624214800,11.30821484375,0.5853180289268494,-7.985865116119385,5.667405605316162
1701911442641206800,11.325206787109375,0.3663274943828583,-7.926880359649658,5.767712116241455
1701911442658192600,11.342192626953125,0.18451766669750214,-7.849145889282227,5.8815813064575195
1701911442675188200,11.359188232421875,0.08778483420610428,-7.753824710845947,6.008878707885742
1701911442692187000,11.376186767578124,0.011679229326546192,-7.598419189453125,6.204838752746582
1701911442709175600,11.393175537109375,-0.08560733497142792,-7.356408596038818,6.489379405975342
1701911442726166000,11.410166015625,-0.18334472179412842,-7.038630962371826,6.830824851989746
1701911442743168000,11.42716796875,-0.2678118348121643,-6.687097072601318,7.172666549682617
1701911442760155100,11.444155029296875,-0.3484218418598175,-6.352188587188721,7.467555999755859
1701911442777145000,11.46114501953125,-0.4372241199016571,-6.053742408752441,7.706955432891846
1701911442794137900,11.478137939453125,-0.5469281077384949,-5.782852649688721,7.9054155349731445
1701911442811129600,11.495129638671875,-0.675546407699585,-5.521134376525879,8.080643653869629
1701911442828120000,11.5121201171875,-0.8165557980537415,-5.252584934234619,8.244979858398438
1701911442845116700,11.52911669921875,-0.9556227922439575,-4.969419479370117,8.404034614562988
1701911442862099200,11.54609912109375,-1.0772264003753662,-4.668854713439941,8.560227394104004
1701911442879098600,11.5630986328125,-1.1759732961654663,-4.350318908691406,8.713664054870605
1701911442896088300,11.58008837890625,-1.2547335624694824,-4.018478870391846,8.860790252685547
1701911442913086000,11.5970859375,-1.314822793006897,-3.6727490425109863,9.001015663146973
1701911442930077400,11.614077392578125,-1.355600357055664,-3.3113648891448975,9.134185791015625
1701911442947068000,11.63106787109375,-1.377673625946045,-2.940929651260376,9.256839752197266
1701911442964061200,11.648061279296876,-1.3910719156265259,-2.572371482849121,9.363971710205078
1701911442981052700,11.665052734375,-1.4063197374343872,-2.2219114303588867,9.451004981994629
1701911442998043100,11.682043212890624,-1.419926404953003,-1.9121112823486328,9.516499519348145
1701911443015039500,11.69903955078125,-1.4311895370483398,-1.669718861579895,9.56032657623291
1701911443032030500,11.716030517578124,-1.4482043981552124,-1.5230845212936401,9.582223892211914
1701911443049017000,11.73301708984375,-1.483504295349121,-1.4868249893188477,9.58251953125
1701911443066016300,11.750016357421876,-1.5372763872146606,-1.5450010299682617,9.564824104309082
1701911443083002400,11.76700244140625,-1.586658239364624,-1.6677227020263672,9.53610610961914
1701911443099999200,11.783999267578125,-1.5625206232070923,-1.8459023237228394,9.507225036621094
1701911443116992000,11.800991943359374,-1.3993502855300903,-2.0882959365844727,9.48245620727539
1701911443133984300,11.817984375,-1.1121034622192383,-2.386338233947754,9.450116157531738
1701911443150973000,11.834972900390625,-0.7875868082046509,-2.696859359741211,9.39908504486084
1701911443167971600,11.8519716796875,-0.5083853006362915,-2.949991464614868,9.342120170593262
1701911443184960300,11.868960205078125,-0.33070462942123413,-3.092750310897827,9.303853034973145
1701911443201955300,11.885955322265625,-0.2616000473499298,-3.1999480724334717,9.269737243652344
1701911443218942700,11.902942626953125,-0.17481420934200287,-3.4248037338256836,9.1910982131958
1701911443235926500,11.919926513671875,0.05219604820013046,-3.859726667404175,9.01864242553711
1701911443252930300,11.936930419921875,0.33311617374420166,-4.419413089752197,8.751797676086426
1701911443269924400,11.95392431640625,0.5329713821411133,-4.957711696624756,8.448263168334961
1701911443286901800,11.97090185546875,0.5973162055015564,-5.431398391723633,8.147346496582031
1701911443303907000,11.987906982421874,0.5754470229148865,-5.857003688812256,7.848597526550293
1701911443320898600,12.004898681640626,0.5330830812454224,-6.251707553863525,7.541092872619629
1701911443337887000,12.021886962890624,0.49860554933547974,-6.617565631866455,7.224635124206543
1701911443354883600,12.038883544921875,0.48033827543258667,-6.936266899108887,6.9205193519592285
1701911443371880200,12.055880126953125,0.4886997938156128,-7.190354347229004,6.6555304527282715
1701911443388859100,12.072859130859374,0.5333245396614075,-7.384660243988037,6.4357194900512695
1701911443405861000,12.089861083984376,0.6168988347053528,-7.535747528076172,6.250444412231445
1701911443422851600,12.1068515625,0.7380706667900085,-7.657773971557617,6.086860656738281
1701911443439846400,12.123846435546875,0.8949690461158752,-7.757180690765381,5.938122749328613
1701911443456833300,12.140833251953126,1.0727512836456299,-7.840588092803955,5.797455310821533
1701911443473833700,12.157833740234375,1.251607060432434,-7.905296325683594,5.672377586364746
1701911443490821400,12.1748212890625,1.4096626043319702,-7.945037364959717,5.579009532928467
1701911443507796700,12.191796630859375,1.5311689376831055,-7.9755144119262695,5.5029826164245605
1701911443524806100,12.20880615234375,1.6198214292526245,-8.015440940856934,5.418949604034424
1701911443541799400,12.22579931640625,1.6888175010681152,-8.073575019836426,5.310498237609863
1701911443558784800,12.24278466796875,1.754892110824585,-8.150527000427246,5.169661998748779
1701911443575786500,12.259786376953125,1.8191478252410889,-8.228877067565918,5.021193981170654
1701911443592766200,12.27676611328125,1.8538943529129028,-8.284343719482422,4.916182041168213
1701911443609768400,12.2937685546875,1.8263434171676636,-8.313087463378906,4.8778228759765625
1701911443626759700,12.310759765625,1.7179757356643677,-8.331032752990723,4.886571407318115
1701911443643753200,12.327753173828125,1.515709400177002,-8.343769073486328,4.931554317474365
1701911443660744400,12.344744384765624,1.2276008129119873,-8.331961631774902,5.030659198760986
1701911443677738000,12.361738037109374,0.9447007775306702,-8.282539367675781,5.171382427215576
1701911443694729000,12.37872900390625,0.7577436566352844,-8.19234561920166,5.342979907989502
1701911443711722500,12.395722412109375,0.6746266484260559,-8.040860176086426,5.579030990600586
1701911443728711000,12.4127109375,0.6377447247505188,-7.810710906982422,5.901034832000732
1701911443745708800,12.429708740234375,0.6092009544372559,-7.517552852630615,6.273069381713867
1701911443762709000,12.446708984375,0.5943601131439209,-7.1886701583862305,6.648750305175781
1701911443779691500,12.46369140625,0.5909634828567505,-6.839259147644043,7.007956027984619
1701911443796683000,12.48068310546875,0.5790463089942932,-6.469698905944824,7.351449489593506
1701911443813675000,12.497675048828125,0.5292534232139587,-6.076764106750488,7.683030605316162
1701911443830668300,12.514668212890625,0.43463847041130066,-5.668198585510254,7.994919776916504
1701911443847660800,12.531660888671874,0.32265639305114746,-5.262451648712158,8.272765159606934
1701911443864652300,12.54865234375,0.2309436798095703,-4.8739094734191895,8.510452270507812
1701911443881645600,12.5656455078125,0.17304834723472595,-4.505699157714844,8.712339401245117
1701911443898636800,12.58263671875,0.12478338927030563,-4.1519598960876465,8.88716983795166
1701911443915630000,12.599630126953125,0.050178173929452896,-3.804004192352295,9.042298316955566
1701911443932620500,12.61662060546875,-0.05125552415847778,-3.4537301063537598,9.18178939819336
1701911443949613800,12.63361376953125,-0.13144804537296295,-3.1099143028259277,9.303078651428223
1701911443966607400,12.650607421875,-0.15599772334098816,-2.7898902893066406,9.403631210327148
1701911443983598800,12.667598876953125,-0.14708290994167328,-2.5086615085601807,9.482673645019531
1701911444000589000,12.684589111328124,-0.15112583339214325,-2.2707016468048096,9.542387008666992
1701911444017574700,12.70157470703125,-0.19652098417282104,-2.0788052082061768,9.585200309753418
1701911444034575000,12.7185751953125,-0.2899740934371948,-1.9419020414352417,9.611506462097168
1701911444051568600,12.735568603515626,-0.4195605516433716,-1.8595569133758545,9.623000144958496
1701911444068556500,12.752556640625,-0.56349778175354,-1.8266369104385376,9.621952056884766
1701911444085543700,12.769543701171875,-0.7007015347480774,-1.8447195291519165,9.609482765197754
1701911444102544400,12.78654443359375,-0.8373442888259888,-1.9066860675811768,9.586424827575684
1701911444119537400,12.803537353515624,-1.0099003314971924,-1.9612985849380493,9.558740615844727
1701911444136517400,12.820517333984375,-1.2102184295654297,-1.9892551898956299,9.529658317565918
1701911444153517800,12.837517822265625,-1.395826816558838,-2.0529744625091553,9.49068546295166
1701911444170510000,12.854510009765624,-1.4708583354949951,-2.245983123779297,9.435482025146484
1701911444187510500,12.871510498046876,-1.3523972034454346,-2.635232925415039,9.352150917053223
1701911444204487700,12.88848779296875,-1.115295648574829,-3.1595849990844727,9.220046043395996
1701911444221489000,12.905489013671875,-0.8911835551261902,-3.7037055492401123,9.040159225463867
1701911444238485000,12.922485107421876,-0.7405864596366882,-4.236775875091553,8.816880226135254
1701911444255475000,12.939474853515625,-0.6479633450508118,-4.76120138168335,8.552616119384766
1701911444272465200,12.956465087890624,-0.5673819780349731,-5.238865852355957,8.274568557739258
1701911444289463300,12.97346337890625,-0.4669218361377716,-5.648107528686523,8.007308006286621
1701911444306451700,12.99045166015625,-0.34127479791641235,-5.999710559844971,7.753912448883057
1701911444323444200,13.0074443359375,-0.2015029489994049,-6.3338942527771,7.488478183746338
1701911444340427000,13.024427001953125,-0.05172330141067505,-6.658611297607422,7.203911304473877
1701911444357429500,13.041429443359375,0.11704722791910172,-6.928055286407471,6.944385528564453
1701911444374421000,13.0584208984375,0.2972993552684784,-7.117428302764893,6.744624614715576
1701911444391414300,13.075414306640624,0.4711745083332062,-7.219693660736084,6.624965190887451
1701911444408395000,13.09239501953125,0.5968527793884277,-7.255295276641846,6.575756072998047
1701911444425398800,13.109398681640625,0.649811327457428,-7.266284942626953,6.558581352233887
1701911444442379500,13.126379638671875,0.6242008209228516,-7.2861714363098145,6.538976669311523
1701911444459380200,13.143380126953126,0.5576305389404297,-7.334025859832764,6.4913201332092285
1701911444476364300,13.1603642578125,0.48629072308540344,-7.4103684425354,6.409840106964111
1701911444493367800,13.177367919921876,0.42309343814849854,-7.487005710601807,6.324702262878418
1701911444510359000,13.194359130859375,0.38681846857070923,-7.540648937225342,6.26299524307251
1701911444527352800,13.211352783203125,0.37727582454681396,-7.577286243438721,6.219208240509033
1701911444544344000,13.228343994140625,0.33297789096832275,-7.594853401184082,6.200277805328369
1701911444561327900,13.245327880859374,0.21975299715995789,-7.607712268829346,6.189551830291748
1701911444578325200,13.2623251953125,0.12066490203142166,-7.684043884277344,6.097297191619873
1701911444595321900,13.27932177734375,0.08013550937175751,-7.823683261871338,5.9177422523498535
1701911444612310500,13.296310546875,0.029754143208265305,-7.916128158569336,5.793977737426758
1701911444629307100,13.31330712890625,-0.0965006947517395,-7.883584976196289,5.837457656860352
1701911444646293800,13.330293701171875,-0.22832676768302917,-7.7278056144714355,6.038627624511719
1701911444663281400,13.347281494140624,-0.2697531282901764,-7.500370502471924,6.317261695861816
1701911444680275200,13.364275146484376,-0.19310665130615234,-7.251720905303955,6.6038899421691895
1701911444697275100,13.381275146484375,-0.045415911823511124,-6.990878582000732,6.881979942321777
1701911444714267100,13.39826708984375,0.11139180511236191,-6.707550525665283,7.157683849334717
1701911444731257900,13.4152578125,0.23766359686851501,-6.401444435119629,7.429748058319092
1701911444748254000,13.43225390625,0.32430005073547363,-6.081430435180664,7.690718173980713
1701911444765244700,13.44924462890625,0.3762671649456024,-5.756954669952393,7.934231281280518
1701911444782226000,13.466225830078125,0.4069676995277405,-5.433979511260986,8.157350540161133
1701911444799229400,13.4832294921875,0.4108949601650238,-5.110708236694336,8.36348819732666
1701911444816218000,13.500218017578124,0.37707027792930603,-4.782012462615967,8.55723762512207
1701911444833215700,13.5172158203125,0.2870497703552246,-4.445167064666748,8.740377426147461
1701911444850205700,13.534205810546876,0.131887748837471,-4.1016154289245605,8.910414695739746
1701911444867196200,13.551196044921875,-0.08151983469724655,-3.764145851135254,9.058734893798828
1701911444884192300,13.568192138671876,-0.3315654993057251,-3.4483766555786133,9.177956581115723
1701911444901180700,13.5851806640625,-0.586557924747467,-3.1597201824188232,9.268671035766602
1701911444918175000,13.602175048828125,-0.8311507701873779,-2.8960423469543457,9.335857391357422
1701911444935152600,13.619152587890625,-1.0507125854492188,-2.665163278579712,9.382379531860352
1701911444952159000,13.636158935546876,-1.2425309419631958,-2.4774928092956543,9.41032886505127
1701911444969149200,13.653149169921875,-1.4030687808990479,-2.3380396366119385,9.423432350158691
1701911444986140200,13.67014013671875,-1.5558630228042603,-2.231015682220459,9.425389289855957
1701911445003127000,13.687126953125,-1.7071623802185059,-2.142117500305176,9.419821739196777
1701911445020117500,13.704117431640626,-1.8493530750274658,-2.069202423095703,9.40927505493164
1701911445037121500,13.72112158203125,-1.9352290630340576,-2.047689437866211,9.396699905395508
1701911445054112500,13.738112548828125,-1.8830026388168335,-2.134734869003296,9.387932777404785
1701911445071106000,13.75510595703125,-1.6630589962005615,-2.345510959625244,9.379176139831543
1701911445088097300,13.77209716796875,-1.3495216369628906,-2.6378889083862305,9.35181713104248
1701911445105078300,13.789078369140626,-1.0554689168930054,-2.952784299850464,9.295331001281738
1701911445122082800,13.806082763671874,-0.85593181848526,-3.266658306121826,9.210453987121582
1701911445139065000,13.823065185546875,-0.7529547810554504,-3.5771310329437256,9.103477478027344
1701911445156057000,13.84005712890625,-0.703656017780304,-3.8807101249694824,8.98226547241211
1701911445173052400,13.857052490234375,-0.6713322997093201,-4.173283576965332,8.852633476257324
1701911445190040000,13.8740400390625,-0.641926646232605,-4.460852146148682,8.71348762512207
1701911445207039200,13.891039306640625,-0.6018264293670654,-4.745822429656982,8.564526557922363
1701911445224030500,13.908030517578124,-0.5471725463867188,-5.0003156661987305,8.422207832336426
1701911445241019100,13.92501904296875,-0.48151999711990356,-5.210766792297363,8.297721862792969
1701911445258015500,13.942015380859376,-0.403861939907074,-5.403306007385254,8.177854537963867
1701911445275012000,13.95901220703125,-0.3224569857120514,-5.604823112487793,8.044754028320312
1701911445292002000,13.976001953125,-0.24083805084228516,-5.819873332977295,7.893492221832275
1701911445308992300,13.9929921875,-0.1740458905696869,-6.0341572761535645,7.732708930969238
1701911445325981200,14.009981201171875,-0.12368440628051758,-6.233063697814941,7.574283123016357
1701911445342975700,14.026975830078126,-0.07273059338331223,-6.404691696166992,7.430395603179932
1701911445359967700,14.0439677734375,-0.023913944140076637,-6.537258148193359,7.314356803894043
1701911445376960800,14.060960693359375,0.0447089821100235,-6.630180358886719,7.2301344871521
1701911445393952000,14.077951904296874,0.1108287125825882,-6.700822830200195,7.163994312286377
1701911445410943700,14.09494384765625,0.09380863606929779,-6.74965238571167,7.118250846862793
1701911445427935500,14.111935546875,0.05149994045495987,-6.810719966888428,7.060279846191406
1701911445444926500,14.128926513671875,0.06830951571464539,-6.918168544769287,6.954885005950928
1701911445461921300,14.14592138671875,0.10105977207422256,-6.979977607727051,6.892444133758545
1701911445478913300,14.162913330078124,0.06250439584255219,-6.898983478546143,6.973970890045166
1701911445495914800,14.179914794921874,0.004849680699408054,-6.665024280548096,7.198163032531738
1701911445512905500,14.196905517578125,0.009145630523562431,-6.321181774139404,7.501912593841553
1701911445529897000,14.21389697265625,0.06953451037406921,-5.931959629058838,7.813011169433594
1701911445546878200,14.230878173828126,0.11492235213518143,-5.549502372741699,8.088630676269531
1701911445563881500,14.247881591796874,0.09795606881380081,-5.189032077789307,8.324690818786621
1701911445580864300,14.2648642578125,0.053015537559986115,-4.8365607261657715,8.534693717956543
1701911445597866000,14.281865966796875,0.023334484547376633,-4.4493560791015625,8.742927551269531
1701911445614859300,14.298859375,0.018433932214975357,-4.01225471496582,8.951960563659668
1701911445631851000,14.31585107421875,0.050706472247838974,-3.5449609756469727,9.146955490112305
1701911445648844000,14.332843994140624,0.1040055975317955,-3.0726728439331055,9.315792083740234
1701911445665834800,14.349834716796876,0.14412860572338104,-2.619361162185669,9.452740669250488
1701911445682829600,14.36682958984375,0.16102179884910583,-2.203124761581421,9.55805492401123
1701911445699819800,14.38381982421875,0.15241995453834534,-1.8222568035125732,9.63806438446045
1701911445716813000,14.40081298828125,0.11581522226333618,-1.468477725982666,9.698777198791504
1701911445733803800,14.4178037109375,0.05164085701107979,-1.135359525680542,9.743942260742188
1701911445750787800,14.434787841796876,-0.032838549464941025,-0.8174477815628052,9.775829315185547
1701911445767789000,14.4517890625,-0.1235358864068985,-0.5184805393218994,9.795510292053223
1701911445784780000,14.468780029296875,-0.20821526646614075,-0.25955674052238464,9.804354667663574
1701911445801776400,14.4857763671875,-0.28870803117752075,-0.0693582147359848,9.805506706237793
1701911445818766800,14.502766845703125,-0.3818237781524658,0.024198411032557487,9.80253791809082
1701911445835758000,14.519758056640624,-0.5220774412155151,0.021086813881993294,9.796076774597168
1701911445852750800,14.536750732421876,-0.7114722728729248,-0.054974060505628586,9.784013748168945
1701911445869743400,14.553743408203125,-0.9039088487625122,-0.20854592323303223,9.766042709350586
1701911445886736000,14.57073583984375,-1.055837631225586,-0.46305009722709656,9.742018699645996
1701911445903727400,14.587727294921875,-1.1719598770141602,-0.8190891146659851,9.705243110656738
1701911445920721000,14.604720947265625,-1.288191318511963,-1.226768136024475,9.647369384765625
1701911445937709000,14.621708984375,-1.4145011901855469,-1.602765440940857,9.574257850646973
1701911445954708000,14.6387080078125,-1.529994249343872,-1.9111101627349854,9.499625205993652
1701911445971681000,14.655680908203125,-1.597248911857605,-2.1833858489990234,9.429621696472168
1701911445988686800,14.672686767578124,-1.5710433721542358,-2.470935583114624,9.362821578979492
1701911446005681200,14.68968115234375,-1.4659554958343506,-2.794884443283081,9.288471221923828
1701911446022669000,14.7066689453125,-1.3381067514419556,-3.1584184169769287,9.190754890441895
1701911446039665700,14.723665771484375,-1.2345975637435913,-3.5450758934020996,9.063350677490234
1701911446056655000,14.740655029296875,-1.1820024251937866,-3.928638458251953,8.91093635559082
1701911446073651000,14.75765087890625,-1.176309585571289,-4.289912223815918,8.743515014648438
1701911446090643500,14.7746435546875,-1.2008912563323975,-4.612735271453857,8.574186325073242
1701911446107634700,14.791634765625,-1.2397775650024414,-4.9045915603637695,8.40500259399414
1701911446124628200,14.808628173828126,-1.2856431007385254,-5.177102088928223,8.232913970947266
1701911446141619500,14.825619384765625,-1.3289142847061157,-5.441701412200928,8.053446769714355
1701911446158612700,14.84261279296875,-1.3640122413635254,-5.698636531829834,7.867729187011719
1701911446175603000,14.85960302734375,-1.3944785594940186,-5.934441089630127,7.68596076965332
1701911446192598300,14.876598388671875,-1.4192309379577637,-6.144532203674316,7.514427661895752
1701911446209578200,14.893578125,-1.447818636894226,-6.329583168029785,7.353661060333252
1701911446226581800,14.910581787109376,-1.4845788478851318,-6.500496864318848,7.195531845092773
1701911446243572500,14.927572509765625,-1.5239452123641968,-6.662118434906006,7.03774881362915
1701911446260567300,14.9445673828125,-1.5538086891174316,-6.803248405456543,6.894749164581299
1701911446277569000,14.961569091796875,-1.5590274333953857,-6.916380405426025,6.780060768127441
1701911446294551300,14.97855126953125,-1.520196557044983,-7.003376007080078,6.699094295501709
1701911446311542800,14.995542724609376,-1.4365819692611694,-7.071394920349121,6.645880222320557
1701911446328535600,15.01253564453125,-1.316110610961914,-7.126806735992432,6.6115522384643555
1701911446345527000,15.029527099609375,-1.1748974323272705,-7.172377586364746,6.5888352394104
1701911446362520300,15.046520263671875,-1.0364371538162231,-7.199728965759277,6.5822367668151855
1701911446379508500,15.063508544921875,-0.9138011336326599,-7.202601909637451,6.597243785858154
1701911446396504800,15.0805048828125,-0.7999757528305054,-7.1882147789001465,6.627649307250977
1701911446413494800,15.097494873046875,-0.6805785298347473,-7.165145397186279,6.665853977203369
1701911446430491100,15.1144912109375,-0.5409008264541626,-7.121819019317627,6.724821090698242
1701911446447480800,15.131480712890625,-0.4084286093711853,-7.029631614685059,6.830345630645752
1701911446464473900,15.148473876953124,-0.3290240168571472,-6.871517658233643,6.993575572967529
1701911446481465300,15.16546533203125,-0.32441407442092896,-6.652909278869629,7.202059745788574
1701911446498455300,15.182455322265625,-0.35847175121307373,-6.384113311767578,7.4398064613342285
1701911446515449900,15.199449951171875,-0.39366382360458374,-6.077404975891113,7.690664291381836
1701911446532443400,15.216443359375,-0.4075404107570648,-5.754317760467529,7.934598922729492
1701911446549435600,15.233435546875,-0.3984620273113251,-5.424279689788818,8.16422176361084
1701911446566422800,15.2504228515625,-0.3832230269908905,-5.073598384857178,8.387362480163574
1701911446583419600,15.267419677734376,-0.392220139503479,-4.693681716918945,8.605325698852539
1701911446600402200,15.284402099609375,-0.45081624388694763,-4.293686866760254,8.808923721313477
1701911446617403600,15.301403564453125,-0.5618560314178467,-3.8881311416625977,8.989043235778809
1701911446634397000,15.31839697265625,-0.7111740708351135,-3.488051176071167,9.141327857971191
1701911446651388000,15.335387939453126,-0.8705154061317444,-3.10111141204834,9.266144752502441
1701911446668381400,15.35238134765625,-1.0115209817886353,-2.7336008548736572,9.366982460021973
1701911446685377000,15.369376953125,-1.117782473564148,-2.3961143493652344,9.446974754333496
1701911446702356000,15.38635595703125,-1.1985886096954346,-2.0967767238616943,9.508049964904785
1701911446719357200,15.403357177734375,-1.2721682786941528,-1.833123803138733,9.552872657775879
1701911446736350500,15.4203505859375,-1.3457361459732056,-1.598109245300293,9.584941864013672
1701911446753341200,15.437341064453125,-1.4128972291946411,-1.3902071714401245,9.607661247253418
1701911446770336000,15.4543359375,-1.4648240804672241,-1.2128297090530396,9.62389850616455
1701911446787326700,15.47132666015625,-1.49492609500885,-1.0714303255081177,9.636043548583984
1701911446804320000,15.488320068359375,-1.5065234899520874,-0.9686309099197388,9.645116806030273
1701911446821311200,15.505311279296874,-1.504362940788269,-0.9081560373306274,9.651336669921875
1701911446838304300,15.52230419921875,-1.4876487255096436,-0.8925801515579224,9.655378341674805
1701911446855295500,15.53929541015625,-1.4492242336273193,-0.9194802641868591,9.658698081970215
1701911446872292900,15.55629296875,-1.3842500448226929,-0.9926448464393616,9.660984992980957
1701911446889277200,15.573277099609374,-1.3059529066085815,-1.1160736083984375,9.658413887023926
1701911446906273500,15.5902734375,-1.227203130722046,-1.2969449758529663,9.646138191223145
1701911446923265000,15.60726513671875,-1.1668938398361206,-1.5359803438186646,9.618483543395996
1701911446940246800,15.624246826171875,-1.1481119394302368,-1.8173929452896118,9.571573257446289
1701911446957250600,15.64125048828125,-1.1811861991882324,-2.111762046813965,9.506911277770996
1701911446974242600,15.65824267578125,-1.254521369934082,-2.409656286239624,9.426339149475098
1701911446991234000,15.675234130859375,-1.3404462337493896,-2.7304627895355225,9.326516151428223
1701911447008227600,15.6922275390625,-1.432000756263733,-3.086345672607422,9.20108413696289
1701911447025216300,15.70921630859375,-1.5141576528549194,-3.4628281593322754,9.052748680114746
1701911447042203600,15.72620361328125,-1.5579357147216797,-3.8313074111938477,8.8955078125
1701911447059203000,15.743203125,-1.548477292060852,-4.17752742767334,8.739944458007812
1701911447076191200,15.760191162109376,-1.4881960153579712,-4.484494209289551,8.59713363647461
1701911447093190100,15.777190185546875,-1.3915537595748901,-4.7385334968566895,8.476201057434082
1701911447110176800,15.7941767578125,-1.2761647701263428,-4.9425153732299805,8.377293586730957
1701911447127172400,15.81117236328125,-1.155596375465393,-5.102181911468506,8.298701286315918
1701911447144165600,15.82816552734375,-1.0382030010223389,-5.230446815490723,8.234116554260254
1701911447161156900,15.845156982421875,-0.9299792051315308,-5.349643707275391,8.170223236083984
1701911447178147600,15.862147705078126,-0.8258485198020935,-5.481716156005859,8.093507766723633
1701911447195144200,15.879144287109375,-0.7130135893821716,-5.644295692443848,7.991849422454834
1701911447212135200,15.89613525390625,-0.5827651023864746,-5.838685989379883,7.861694812774658
1701911447229126100,15.913126220703125,-0.4326851963996887,-6.049356937408447,7.7106547355651855
1701911447246119200,15.930119140625,-0.26578694581985474,-6.257731914520264,7.550250053405762
1701911447263106600,15.9471064453125,-0.09897056221961975,-6.457606315612793,7.384149551391602
1701911447280095700,15.964095703125,0.03922487795352936,-6.642784595489502,7.2185869216918945
1701911447297082000,15.98108203125,0.1250041276216507,-6.815741539001465,7.054511547088623
1701911447314088700,15.998088623046876,0.1665579378604889,-6.978848457336426,6.892318248748779
1701911447331066600,16.015066650390626,0.1893462985754013,-7.12583589553833,6.739638805389404
1701911447348065300,16.032065185546877,0.23048672080039978,-7.254120826721191,6.600056171417236
1701911447365064400,16.049064453125,0.3119550943374634,-7.3575968742370605,6.4810919761657715
1701911447382053000,16.06605322265625,0.4331892430782318,-7.431161880493164,6.3895440101623535
1701911447399047200,16.083047119140623,0.5691285133361816,-7.469768047332764,6.333621978759766
1701911447416040200,16.100040283203125,0.6929608583450317,-7.473484992980957,6.316877365112305
1701911447433035500,16.117035400390623,0.7980251312255859,-7.452798843383789,6.328908443450928
1701911447450026800,16.13402685546875,0.8875254988670349,-7.419224739074707,6.356376647949219
1701911447467018000,16.15101806640625,0.9562498927116394,-7.376708030700684,6.3957695960998535
1701911447484009000,16.168009033203123,0.9977534413337708,-7.332394599914551,6.440232276916504
1701911447501005300,16.18500537109375,1.0126197338104248,-7.284393310546875,6.492175579071045
1701911447517998800,16.201998779296876,1.0013295412063599,-7.222856521606445,6.562303066253662
1701911447534982000,16.21898193359375,0.9578540921211243,-7.1457719802856445,6.652563095092773
1701911447551983000,16.235983154296875,0.9119654297828674,-7.068541049957275,6.740930557250977
1701911447568971800,16.2529716796875,0.8636343479156494,-6.997992992401123,6.820436954498291
1701911447585964300,16.26996435546875,0.7616677284240723,-6.924410343170166,6.907134532928467
1701911447602960600,16.286960693359376,0.5997834205627441,-6.853584289550781,6.993193626403809
1701911447619949800,16.30394970703125,0.4600285291671753,-6.817093372344971,7.039299011230469
1701911447636941000,16.320941162109374,0.3500622808933258,-6.775629043579102,7.085508346557617
1701911447653933300,16.337933349609376,0.20211194455623627,-6.657627582550049,7.202170372009277
1701911447670926300,16.35492626953125,0.01507002953439951,-6.440971374511719,7.399309158325195
1701911447687918800,16.3719189453125,-0.16632872819900513,-6.156824588775635,7.635573387145996
1701911447704910000,16.38891015625,-0.3027711808681488,-5.850404739379883,7.868750095367432
1701911447721901800,16.40590185546875,-0.38702547550201416,-5.547495365142822,8.081561088562012
1701911447738895000,16.42289501953125,-0.43933817744255066,-5.244790077209473,8.278604507446289
1701911447755892200,16.439892333984375,-0.4744834303855896,-4.930199146270752,8.467829704284668
1701911447772875300,16.456875244140626,-0.5004123449325562,-4.598668098449707,8.650893211364746
1701911447789873400,16.473873291015625,-0.5217733979225159,-4.2526092529296875,8.824919700622559
1701911447806863600,16.490863525390626,-0.5444015264511108,-3.899787187576294,8.985065460205078
1701911447823857700,16.507857666015624,-0.5789515376091003,-3.545619010925293,9.128499984741211
1701911447840848400,16.524848388671874,-0.6295843720436096,-3.193161725997925,9.254377365112305
1701911447857842000,16.541842041015624,-0.6973395347595215,-2.8478140830993652,9.361612319946289
1701911447874833200,16.558833251953125,-0.7784082889556885,-2.5158421993255615,9.449907302856445
1701911447891826200,16.575826171875,-0.861965000629425,-2.2025351524353027,9.520609855651855
1701911447908811500,16.5928115234375,-0.943034291267395,-1.9040790796279907,9.57712173461914
1701911447925808600,16.60980859375,-1.0196106433868408,-1.6199710369110107,9.621443748474121
1701911447942802000,16.626802001953124,-1.1108721494674683,-1.3536567687988281,9.652443885803223
1701911447959795500,16.64379541015625,-1.2747533321380615,-1.1232136487960815,9.661754608154297
1701911447976783600,16.66078369140625,-1.534654974937439,-0.9594427347183228,9.641596794128418
1701911447993780000,16.677780029296876,-1.8544316291809082,-0.8660415410995483,9.594121932983398
1701911448010771200,16.694771240234374,-2.1813926696777344,-0.8247880935668945,9.528764724731445
1701911448027762000,16.711761962890623,-2.4830944538116455,-0.8174794912338257,9.455267906188965
1701911448044758500,16.728758544921874,-2.7304463386535645,-0.8333582282066345,9.385431289672852
1701911448061749200,16.745749267578127,-2.895155429840088,-0.8757427930831909,9.332056999206543
1701911448078740500,16.762740478515624,-2.9672579765319824,-0.9561456441879272,9.301467895507812
1701911448095733000,16.77973291015625,-2.977672576904297,-1.0768349170684814,9.284934043884277
1701911448112723200,16.79672314453125,-2.9510669708251953,-1.2419781684875488,9.272799491882324
1701911448129721000,16.81372119140625,-2.868192672729492,-1.446362018585205,9.269177436828613
1701911448146699000,16.830698974609376,-2.7585995197296143,-1.6763548851013184,9.263694763183594
1701911448163708200,16.847708251953126,-2.6655118465423584,-1.929819107055664,9.241589546203613
1701911448180694800,16.86469482421875,-2.5907785892486572,-2.2165110111236572,9.198429107666016
1701911448197687300,16.881687255859376,-2.496349573135376,-2.5729076862335205,9.131512641906738
1701911448214678800,16.8986787109375,-2.3481805324554443,-3.0296661853790283,9.030131340026855
1701911448231672300,16.91567236328125,-2.1418912410736084,-3.5742318630218506,8.881065368652344
1701911448248663300,16.932663330078125,-1.9272148609161377,-4.163048267364502,8.671274185180664
1701911448265656300,16.94965625,-1.7452658414840698,-4.764220237731934,8.395975112915039
1701911448282647800,16.966647705078124,-1.5866063833236694,-5.354952812194824,8.064942359924316
1701911448299638000,16.983637939453125,-1.41704523563385,-5.906274318695068,7.703508377075195
1701911448316632300,17.00063232421875,-1.220307469367981,-6.38871431350708,7.343794822692871
1701911448333625900,17.0176259765625,-1.0158835649490356,-6.787918567657471,7.009155750274658
1701911448350606300,17.0346064453125,-0.8165134191513062,-7.069948196411133,6.751687049865723
1701911448367610400,17.0516103515625,-0.6458513140678406,-7.172669410705566,6.661218643188477
1701911448384590800,17.0685908203125,-0.5438249707221985,-7.118921279907227,6.727656841278076
1701911448401595000,17.085594970703124,-0.5311330556869507,-6.976395130157471,6.876332759857178
1701911448418582800,17.102582763671876,-0.5791202783584595,-6.808713912963867,7.0386199951171875
1701911448435579400,17.119579345703126,-0.6403204202651978,-6.658297061920166,7.17587423324585
1701911448452568600,17.136568603515624,-0.6808188557624817,-6.5411787033081055,7.279118537902832
1701911448469566000,17.15356591796875,-0.6864707469940186,-6.458969593048096,7.351637840270996
1701911448486552000,17.170552001953126,-0.6511489152908325,-6.417120456695557,7.391394138336182
1701911448503547600,17.187547607421877,-0.5800648927688599,-6.421197891235352,7.393772125244141
1701911448520541000,17.204541015625,-0.49310508370399475,-6.466045379638672,7.360925197601318
1701911448537533000,17.221532958984376,-0.42095044255256653,-6.548593521118164,7.292108535766602
1701911448554524400,17.2385244140625,-0.37872475385665894,-6.6631178855896,7.189960479736328
1701911448571507200,17.255507080078125,-0.36651811003685,-6.790255546569824,7.070659160614014
1701911448588496100,17.27249609375,-0.3815062940120697,-6.902005195617676,6.960813522338867
1701911448605494500,17.28949462890625,-0.4165223240852356,-6.983791828155518,6.876718997955322
1701911448622491400,17.306491455078124,-0.4613763391971588,-7.035039901733398,6.8214006423950195
1701911448639476200,17.323476318359376,-0.5098515152931213,-7.054668426513672,6.797634124755859
1701911448656480800,17.340480712890624,-0.5859910249710083,-7.02520227432251,6.821969509124756
1701911448673461500,17.35746142578125,-0.6862526535987854,-6.934350967407227,6.905066013336182
1701911448690452200,17.3744521484375,-0.793064296245575,-6.794992446899414,7.0310211181640625
1701911448707450000,17.3914501953125,-0.9596018195152283,-6.601158618927002,7.193052768707275
1701911448724437500,17.4084375,-1.1828081607818604,-6.353960990905762,7.379990100860596
1701911448741430300,17.42543017578125,-1.3293359279632568,-6.1069464683532715,7.561362266540527
1701911448758423000,17.442423095703123,-1.32998788356781,-5.865497589111328,7.7500433921813965
1701911448775417300,17.459417236328125,-1.2877393960952759,-5.558871746063232,7.97977352142334
1701911448792407000,17.476406982421874,-1.3026275634765625,-5.1587138175964355,8.241780281066895
1701911448809403000,17.49340283203125,-1.387000560760498,-4.69431734085083,8.50151252746582
1701911448826390800,17.510390869140625,-1.5054569244384766,-4.229311943054199,8.722537994384766
1701911448843384600,17.527384521484375,-1.613194227218628,-3.829641342163086,8.886368751525879
1701911448860374500,17.54437451171875,-1.6887706518173218,-3.5241081714630127,8.998046875
1701911448877371100,17.56137109375,-1.7463710308074951,-3.294254779815674,9.073821067810059
1701911448894361300,17.578361328125,-1.8087742328643799,-3.0953826904296875,9.131433486938477
1701911448911357200,17.595357177734375,-1.8919199705123901,-2.8923234939575195,9.181025505065918
1701911448928346400,17.612346435546876,-1.9897806644439697,-2.672644853591919,9.226801872253418
1701911448945340400,17.62934033203125,-2.0841407775878906,-2.4364421367645264,9.271257400512695
1701911448962328300,17.646328369140626,-2.1549482345581055,-2.1871447563171387,9.317120552062988
1701911448979335000,17.6633349609375,-2.199573516845703,-1.9201323986053467,9.3654203414917
1701911448996319700,17.68031982421875,-2.2312893867492676,-1.6164599657058716,9.415122985839844
1701911449013317600,17.697317626953126,-2.2626960277557373,-1.2829101085662842,9.458884239196777
1701911449030308000,17.71430810546875,-2.2915163040161133,-0.9396034479141235,9.492220878601074
1701911449047293700,17.731293701171875,-2.305382490158081,-0.6057940721511841,9.516005516052246
1701911449064275000,17.74827490234375,-2.296121597290039,-0.30367311835289,9.53266716003418
1701911449081286100,17.7652861328125,-2.2615182399749756,-0.04719814285635948,9.545649528503418
1701911449098274600,17.782274658203125,-2.212221622467041,0.15856800973415375,9.55599594116211
1701911449115273700,17.799273681640624,-2.15126371383667,0.3157689571380615,9.566006660461426
1701911449132262100,17.81626220703125,-2.075730562210083,0.42841148376464844,9.578307151794434
1701911449149255400,17.83325537109375,-1.9916938543319702,0.503715455532074,9.592473030090332
1701911449166246700,17.85024658203125,-1.9146333932876587,0.5441392660140991,9.605945587158203
1701911449183239200,17.8672392578125,-1.8525383472442627,0.5491199493408203,9.61783218383789
1701911449200223000,17.884222900390625,-1.793584942817688,0.4922826588153839,9.632073402404785
1701911449217224400,17.901224365234373,-1.7386351823806763,0.34104499220848083,9.648675918579102
1701911449234215700,17.918215576171875,-1.7191334962844849,0.094528429210186,9.657731056213379
1701911449251209000,17.935208984375,-1.7488017082214355,-0.22397907078266144,9.650266647338867
1701911449268200400,17.952200439453126,-1.8100630044937134,-0.6264774203300476,9.621190071105957
1701911449285193700,17.96919384765625,-1.8200242519378662,-1.17399001121521,9.567935943603516
1701911449302177500,17.986177490234375,-1.6889829635620117,-1.8753594160079956,9.4797945022583
1701911449319175200,18.003175048828126,-1.4572454690933228,-2.654968738555908,9.330794334411621
1701911449336168200,18.020168212890624,-1.2364330291748047,-3.414475917816162,9.113107681274414
1701911449353163500,18.03716357421875,-1.0873868465423584,-4.1145477294921875,8.838789939880371
1701911449370153700,18.05415380859375,-0.9839209318161011,-4.730113983154297,8.537800788879395
1701911449387147300,18.071147216796874,-0.8535134196281433,-5.278041839599609,8.224957466125488
1701911449404138500,18.088138427734375,-0.6677567362785339,-5.783090591430664,7.8959527015686035
1701911449421131800,18.1051318359375,-0.47211650013923645,-6.224246501922607,7.567825794219971
1701911449438120200,18.1221201171875,-0.2901020050048828,-6.5587382316589355,7.289368629455566
1701911449455108400,18.1391083984375,-0.10504026710987091,-6.773387432098389,7.095515251159668
1701911449472103000,18.15610302734375,0.08009311556816101,-6.899878978729248,6.972902774810791
1701911449489105200,18.173105224609376,0.26035168766975403,-6.978788375854492,6.889474391937256
1701911449506090200,18.19009033203125,0.41524967551231384,-7.030616283416748,6.828919410705566
1701911449523086300,18.20708642578125,0.5378546714782715,-7.0675859451293945,6.782040596008301
1701911449540087300,18.22408740234375,0.635289192199707,-7.095880031585693,6.743962287902832
1701911449557070000,18.241070068359374,0.7052172422409058,-7.116580486297607,6.715137004852295
1701911449574074400,18.258074462890626,0.7505804896354675,-7.135108470916748,6.690511703491211
1701911449591055600,18.2750556640625,0.7848334908485413,-7.160443305969238,6.6594462394714355
1701911449608046000,18.292046142578126,0.8223454356193542,-7.1989054679870605,6.613291263580322
1701911449625039000,18.3090390625,0.8709518909454346,-7.254489421844482,6.545987606048584
1701911449642030800,18.32603076171875,0.9326367974281311,-7.326441764831543,6.456745624542236
1701911449659023600,18.343023681640624,0.995530903339386,-7.414964199066162,6.345338344573975
1701911449676012800,18.3600126953125,1.0474945306777954,-7.518080234527588,6.214285850524902
1701911449693009700,18.377009765625,1.0832716226577759,-7.6310133934021,6.068795204162598
1701911449710000400,18.39400048828125,1.113148808479309,-7.7523651123046875,5.907439231872559
1701911449726992600,18.41099267578125,1.1483361721038818,-7.870482444763184,5.742205619812012
1701911449743984000,18.427984130859375,1.1753422021865845,-7.96574592590332,5.6037116050720215
1701911449760977400,18.444977294921873,1.1866246461868286,-8.014230728149414,5.531740665435791
1701911449777967400,18.46196728515625,1.178560733795166,-8.00013256072998,5.553827285766602
1701911449794963500,18.47896337890625,1.1070743799209595,-7.908050060272217,5.69852876663208
1701911449811955000,18.495954833984374,0.9384600520133972,-7.7304911613464355,5.9661478996276855
1701911449828941800,18.51294189453125,0.7276486158370972,-7.519198417663574,6.258457183837891
1701911449845937700,18.529937744140625,0.5890207290649414,-7.3340349197387695,6.488535404205322
1701911449862920700,18.546920654296876,0.5250983834266663,-7.138034820556641,6.7088623046875
1701911449879927000,18.563927001953125,0.46215224266052246,-6.862457275390625,6.994942665100098
1701911449896912400,18.580912353515625,0.3692820966243744,-6.48668098449707,7.350014686584473
1701911449913906700,18.59790673828125,0.24802662432193756,-6.024882793426514,7.737917900085449
1701911449930899000,18.61489892578125,0.10009673237800598,-5.539209842681885,8.095879554748535
1701911449947882500,18.631882568359377,-0.03233218193054199,-5.1074538230896,8.375499725341797
1701911449964884700,18.648884765625,-0.15021030604839325,-4.7320237159729,8.591944694519043
1701911449981875500,18.66587548828125,-0.26290953159332275,-4.376282215118408,8.77582836151123
1701911449998869800,18.682869873046876,-0.3886825740337372,-4.010141849517822,8.944485664367676
1701911450015857700,18.699857666015625,-0.5325942635536194,-3.63107967376709,9.097677230834961
1701911450032856600,18.716856689453124,-0.6732537150382996,-3.256939649581909,9.229042053222656
1701911450049845200,18.73384521484375,-0.7878392338752747,-2.9007272720336914,9.338157653808594
1701911450066836200,18.750836181640626,-0.8716772198677063,-2.563028573989868,9.429059028625488
1701911450083831000,18.7678310546875,-0.9263054132461548,-2.2379374504089355,9.506298065185547
1701911450100823800,18.78482373046875,-0.9562606811523438,-1.917786717414856,9.573076248168945
1701911450117811700,18.801811767578126,-0.9759950637817383,-1.6062575578689575,9.628264427185059
1701911450134810000,18.81881005859375,-1.0022783279418945,-1.3158574104309082,9.669544219970703
1701911450151799000,18.835799072265626,-1.040291666984558,-1.0637083053588867,9.696516036987305
1701911450168792300,18.852792236328124,-1.0861378908157349,-0.8660130500793457,9.711150169372559
1701911450185783300,18.869783203125,-1.1416717767715454,-0.7247606515884399,9.716348648071289
1701911450202776800,18.88677685546875,-1.2180873155593872,-0.638401985168457,9.713127136230469
1701911450219764700,18.9037646484375,-1.315515398979187,-0.612186849117279,9.70210075378418
1701911450236761000,18.920760986328126,-1.437674880027771,-0.6506202816963196,9.682246208190918
1701911450253752300,18.93775244140625,-1.5904204845428467,-0.7512441873550415,9.65102767944336
1701911450270745900,18.954745849609374,-1.7568567991256714,-0.9137064218521118,9.60805606842041
1701911450287737300,18.9717373046875,-1.9021368026733398,-1.1283965110778809,9.557442665100098
1701911450304730400,18.98873046875,-1.9951711893081665,-1.379423975944519,9.505399703979492
1701911450321719800,19.0057197265625,-2.0306410789489746,-1.6561460494995117,9.453557968139648
1701911450338706000,19.022705810546874,-2.0230612754821777,-1.9248274564743042,9.404168128967285
1701911450355706400,19.039706298828126,-1.977813720703125,-2.1564502716064453,9.363444328308105
1701911450372699400,19.056699462890624,-1.8608448505401611,-2.408484697341919,9.325908660888672
1701911450389690600,19.073690673828125,-1.6380332708358765,-2.7610671520233154,9.269815444946289
1701911450406680800,19.090680908203126,-1.3520704507827759,-3.238975763320923,9.160625457763672
1701911450423675100,19.107675048828124,-1.0907601118087769,-3.8013527393341064,8.977531433105469
1701911450440668700,19.124668701171874,-0.9187876582145691,-4.375548839569092,8.731925010681152
1701911450457660000,19.141659912109375,-0.8351841568946838,-4.904499053955078,8.454848289489746
1701911450474653200,19.158653076171873,-0.7774955034255981,-5.368319511413574,8.173907279968262
1701911450491644700,19.175644775390627,-0.6912683844566345,-5.777991771697998,7.897661209106445
1701911450508637400,19.192637451171876,-0.575364887714386,-6.1556291580200195,7.616645812988281
1701911450525625300,19.209625244140625,-0.45592203736305237,-6.509147644042969,7.3252482414245605
1701911450542615000,19.226614990234374,-0.34929484128952026,-6.813205242156982,7.049420356750488
1701911450559613700,19.24361376953125,-0.2508104741573334,-7.027113437652588,6.840530872344971
1701911450576607000,19.26060693359375,-0.1548515260219574,-7.150912284851074,6.713909149169922
1701911450593597200,19.27759716796875,-0.06275057047605515,-7.218157768249512,6.643070697784424
1701911450610581800,19.294581787109376,0.01702183112502098,-7.26022481918335,6.597346305847168
1701911450627580000,19.311579833984375,0.0868867039680481,-7.300929069519043,6.551717758178711
1701911450644578300,19.328578369140626,0.14926977455615997,-7.354863166809082,6.489981651306152
1701911450661565000,19.34556494140625,0.20830531418323517,-7.422942161560059,6.410356044769287
1701911450678563300,19.362563232421873,0.2755184769630432,-7.491567134857178,6.327449321746826
1701911450695552000,19.379552001953126,0.36170411109924316,-7.5534844398498535,6.249012470245361
1701911450712545300,19.396545166015624,0.4683368504047394,-7.623784065246582,6.155868053436279
1701911450729533200,19.413533203125,0.5980158448219299,-7.709243297576904,6.037057876586914
1701911450746529500,19.430529541015623,0.7360317707061768,-7.801372528076172,5.901946544647217
1701911450763520800,19.447520751953125,0.8603713512420654,-7.885216236114502,5.772284030914307
1701911450780526300,19.4645263671875,0.9667397737503052,-7.954605579376221,5.65913200378418
1701911450797510100,19.48151025390625,1.048662543296814,-8.012784004211426,5.5616302490234375
1701911450814498800,19.498498779296874,1.0961658954620361,-8.056586265563965,5.488711357116699
1701911450831490000,19.515489990234375,1.0894801616668701,-8.077274322509766,5.459559917449951
1701911450848483000,19.532483154296877,1.0445475578308105,-8.075714111328125,5.470639228820801
1701911450865481500,19.5494814453125,0.999695897102356,-8.049166679382324,5.51793909072876
1701911450882457300,19.566457275390626,0.9007004499435425,-7.973574638366699,5.643310546875
1701911450899458800,19.583458740234374,0.6910906434059143,-7.833996772766113,5.864043712615967
1701911450916448500,19.600448486328126,0.47528043389320374,-7.672858238220215,6.094050884246826
1701911450933444400,19.6174443359375,0.3487296998500824,-7.499173164367676,6.314818859100342
1701911450950437000,19.63443701171875,0.2745527923107147,-7.260159492492676,6.591724872589111
1701911450967417600,19.65141748046875,0.17414061725139618,-6.91597843170166,6.955215930938721
1701911450984417500,19.66841748046875,0.03190942481160164,-6.457917213439941,7.384470462799072
1701911451001416400,19.68541650390625,-0.14654117822647095,-5.915719985961914,7.824249744415283
1701911451018406000,19.702406005859373,-0.34310001134872437,-5.373756408691406,8.200069427490234
1701911451035386600,19.71938671875,-0.5144830942153931,-4.914618968963623,8.474546432495117
1701911451052391000,19.736390869140624,-0.6716550588607788,-4.529332160949707,8.675836563110352
1701911451069379300,19.75337939453125,-0.8399110436439514,-4.17910099029541,8.835484504699707
1701911451086377500,19.77037744140625,-1.0379884243011475,-3.834573745727539,8.969656944274902
1701911451103361300,19.787361328125,-1.2642686367034912,-3.479410409927368,9.08468246459961
1701911451120347100,19.80434716796875,-1.4791923761367798,-3.1213555335998535,9.18178653717041
1701911451137351700,19.8213515625,-1.6392260789871216,-2.774735450744629,9.265523910522461
1701911451154344000,19.838343994140626,-1.7290586233139038,-2.4415037631988525,9.342673301696777
1701911451171334400,19.85533447265625,-1.7599148750305176,-2.1160857677459717,9.415997505187988
1701911451188329000,19.872328857421873,-1.7604488134384155,-1.797205924987793,9.48193073272705
1701911451205320000,19.88931982421875,-1.7673817873001099,-1.485381007194519,9.534469604492188
1701911451222303000,19.906302978515626,-1.7950607538223267,-1.190184235572815,9.570649147033691
1701911451239299600,19.923299560546877,-1.8261077404022217,-0.930751621723175,9.59349536895752
1701911451256298000,19.940298095703124,-1.8467823266983032,-0.7205904126167297,9.607614517211914
1701911451273289000,19.9572890625,-1.8498836755752563,-0.5731666088104248,9.61694049835205
1701911451290282500,19.974282470703123,-1.850875973701477,-0.4942166209220886,9.62112808227539
1701911451307274000,19.99127392578125,-1.8844518661499023,-0.4641186594963074,9.616109848022461
1701911451324267000,20.00826708984375,-1.9404219388961792,-0.47370782494544983,9.604501724243164
1701911451341258200,20.02525830078125,-2.0052413940429688,-0.5235073566436768,9.588590621948242
1701911451358251800,20.042251708984374,-2.0775299072265625,-0.6068843007087708,9.568264961242676
1701911451375242800,20.05924267578125,-2.151171922683716,-0.7357794642448425,9.542913436889648
1701911451392236300,20.076236328125,-2.2300100326538086,-0.9090209007263184,9.5098295211792
1701911451409216800,20.093216796875,-2.3118863105773926,-1.1030521392822266,9.469666481018066
1701911451426216400,20.110216552734375,-2.3792409896850586,-1.2772517204284668,9.431011199951172
1701911451443212800,20.127212890625,-2.368171453475952,-1.4432604312896729,9.409830093383789
1701911451460205000,20.144205078125,-2.2246620655059814,-1.6774829626083374,9.406013488769531
1701911451477196500,20.161196533203125,-1.939344882965088,-2.0291974544525146,9.399861335754395
1701911451494188000,20.17818798828125,-1.5651248693466187,-2.4870266914367676,9.359550476074219
1701911451511182800,20.195182861328124,-1.1869889497756958,-3.0038557052612305,9.263046264648438
1701911451528174300,20.21217431640625,-0.916292667388916,-3.524505853652954,9.109027862548828
1701911451545165600,20.22916552734375,-0.7840888500213623,-4.016948223114014,8.915462493896484
1701911451562163000,20.246162841796874,-0.7266218066215515,-4.4732346534729,8.700478553771973
1701911451579150000,20.263150146484374,-0.6614481806755066,-4.885107040405273,8.481411933898926
1701911451596137500,20.280137451171875,-0.5624998211860657,-5.248969554901123,8.2684965133667
1701911451613136600,20.29713671875,-0.43969017267227173,-5.575028419494629,8.059891700744629
1701911451630128600,20.314128662109376,-0.30610525608062744,-5.862974166870117,7.85925817489624
1701911451647119000,20.331119140625,-0.1721654236316681,-6.094518661499023,7.685266017913818
1701911451664112600,20.348112548828126,-0.04588368907570839,-6.269016742706299,7.545425891876221
1701911451681103600,20.365103515625,0.08193586766719818,-6.410172939300537,7.425570487976074
1701911451698094600,20.382094482421873,0.22046226263046265,-6.545518398284912,7.303677082061768
1701911451715091000,20.399091064453124,0.36641284823417664,-6.691948413848877,7.163775444030762
1701911451732081400,20.416081298828125,0.5049538612365723,-6.853334426879883,7.000925540924072
1701911451749069300,20.4330693359375,0.6257348656654358,-7.018420696258545,6.8254194259643555
1701911451766066200,20.450066162109376,0.7349181771278381,-7.1796040534973145,6.6444926261901855
1701911451783057400,20.467057373046874,0.8433775901794434,-7.340622901916504,6.4529128074646
1701911451800050400,20.484050537109376,0.9598301649093628,-7.500229835510254,6.249912261962891
1701911451817038600,20.50103857421875,1.084291934967041,-7.644018173217773,6.052224636077881
1701911451834022000,20.51802197265625,1.1981498003005981,-7.752326965332031,5.890841007232666
1701911451851029000,20.535029052734377,1.2720293998718262,-7.822079658508301,5.782138824462891
1701911451868019700,20.552019775390626,1.2690876722335815,-7.858092784881592,5.7337517738342285
1701911451885011000,20.569010986328124,1.1910626888275146,-7.867365837097168,5.737773418426514
1701911451901994000,20.585993896484375,1.0738072395324707,-7.862767696380615,5.767144680023193
1701911451918995500,20.602995361328126,0.9296512007713318,-7.847312927246094,5.813051700592041
1701911451935988000,20.619988037109376,0.725521981716156,-7.807680606842041,5.894901275634766
1701911451952970200,20.63697021484375,0.5021665096282959,-7.754538059234619,5.987578868865967
1701911451969973200,20.65397314453125,0.35055139660835266,-7.698075294494629,6.07065486907959
1701911451986964500,20.670964599609373,0.2541913390159607,-7.589319705963135,6.210777759552002
1701911452003957200,20.687957275390627,0.1504792720079422,-7.3804826736450195,6.460800647735596
1701911452020950000,20.704949951171876,0.035646382719278336,-7.067952632904053,6.802858352661133
1701911452037940000,20.72193994140625,-0.0710115134716034,-6.691229820251465,7.173458576202393
1701911452054936600,20.7389365234375,-0.16562005877494812,-6.305534362792969,7.513250350952148
1701911452071926300,20.75592626953125,-0.25036025047302246,-5.9447503089904785,7.799574375152588
1701911452088908000,20.772907958984376,-0.33881986141204834,-5.600691318511963,8.046960830688477
1701911452105914000,20.7899140625,-0.44014331698417664,-5.244466304779053,8.278765678405762
1701911452122902800,20.80690283203125,-0.5595306158065796,-4.858739852905273,8.503864288330078
1701911452139883500,20.823883544921873,-0.6841967701911926,-4.454208850860596,8.713666915893555
1701911452156889900,20.840889892578126,-0.7792385816574097,-4.061498165130615,8.895681381225586
1701911452173871000,20.85787109375,-0.8262162804603577,-3.6991429328918457,9.048192024230957
1701911452190862800,20.87486279296875,-0.8362664580345154,-3.363161087036133,9.177469253540039
1701911452207855600,20.891855712890624,-0.8275213837623596,-3.0441362857818604,9.288947105407715
1701911452224853200,20.908853271484375,-0.8188400268554688,-2.7348551750183105,9.38542366027832
1701911452241840600,20.925840576171876,-0.8246492147445679,-2.4397168159484863,9.46592903137207
1701911452258833000,20.9428330078125,-0.8466488122940063,-2.178410530090332,9.527530670166016
1701911452275828700,20.959828857421876,-0.8779898881912231,-1.9716742038726807,9.569626808166504
1701911452292813800,20.976813720703124,-0.8931218981742859,-1.8142127990722656,9.599326133728027
1701911452309810700,20.993810791015626,-0.8701856136322021,-1.694382667541504,9.62330150604248
1701911452326801200,21.01080126953125,-0.8342450857162476,-1.5975371599197388,9.643028259277344
1701911452343796700,21.027796630859374,-0.828730583190918,-1.5097792148590088,9.657633781433105
1701911452360785400,21.044785400390627,-0.8901485800743103,-1.4350628852844238,9.663558006286621
1701911452377779200,21.061779296875,-1.0376585721969604,-1.3838354349136353,9.656311988830566
1701911452394771000,21.07877099609375,-1.2503224611282349,-1.367695927619934,9.63338851928711
1701911452411765800,21.095765869140624,-1.4599539041519165,-1.4198033809661865,9.596293449401855
1701911452428756200,21.112756103515625,-1.5813958644866943,-1.5584499835968018,9.55544662475586
1701911452445746400,21.129746337890627,-1.6282063722610474,-1.7327163219451904,9.517497062683105
1701911452462739200,21.1467392578125,-1.6655794382095337,-1.8670183420181274,9.485578536987305
1701911452479733000,21.16373291015625,-1.712516188621521,-2.012450695037842,9.447403907775879
1701911452496727000,21.18072705078125,-1.677827000617981,-2.300699472427368,9.387641906738281
1701911452513725000,21.197724853515624,-1.511440396308899,-2.7576279640197754,9.292317390441895
1701911452530718000,21.214718017578125,-1.2708438634872437,-3.286478281021118,9.15533447265625
1701911452547712000,21.2317119140625,-1.032959222793579,-3.7947869300842285,8.987140655517578
1701911452564703000,21.248702880859376,-0.8613697290420532,-4.247467517852783,8.800748825073242
1701911452581694200,21.265694091796874,-0.7538452744483948,-4.657576084136963,8.600861549377441
1701911452598686500,21.2826865234375,-0.6768327951431274,-5.0528154373168945,8.381352424621582
1701911452615679700,21.2996796875,-0.6196809411048889,-5.449697971343994,8.133443832397461
1701911452632671000,21.3166708984375,-0.5794020891189575,-5.846822738647461,7.85589599609375
1701911452649661000,21.333660888671876,-0.5407552123069763,-6.224605560302734,7.562933921813965
1701911452666655500,21.350655517578126,-0.47417354583740234,-6.554562568664551,7.283474445343018
1701911452683648800,21.367648681640624,-0.3692663013935089,-6.816095352172852,7.045609951019287
1701911452700640000,21.384639892578125,-0.2361544370651245,-7.009669303894043,6.858926296234131
1701911452717633000,21.401633056640627,-0.08473580330610275,-7.156656742095947,6.709037780761719
1701911452734624500,21.41862451171875,0.06376096606254578,-7.282634258270264,6.5723114013671875
1701911452751607000,21.43560693359375,0.20682859420776367,-7.4118757247924805,6.423195838928223
1701911452768606700,21.452606689453123,0.3437420427799225,-7.553508281707764,6.249998569488525
1701911452785604900,21.46960498046875,0.46162980794906616,-7.689028263092041,6.0746893882751465
1701911452802593500,21.486593505859375,0.5520107746124268,-7.801646709442139,5.921628952026367
1701911452819586000,21.5035859375,0.6287142634391785,-7.897146701812744,5.785837173461914
1701911452836575700,21.52057568359375,0.7012799978256226,-7.9854865074157715,5.654762268066406
1701911452853571300,21.5375712890625,0.7627804279327393,-8.07042407989502,5.524722576141357
1701911452870562800,21.554562744140625,0.7990851998329163,-8.148120880126953,5.404232501983643
1701911452887556000,21.57155615234375,0.8052113056182861,-8.209794998168945,5.309147357940674
1701911452904547000,21.588547119140625,0.7916498780250549,-8.246870994567871,5.253428936004639
1701911452921537800,21.605537841796874,0.7602729797363281,-8.253066062927246,5.248331546783447
1701911452938534400,21.622534423828125,0.699388861656189,-8.223428726196289,5.303037643432617
1701911452955524900,21.63952490234375,0.6214587688446045,-8.162800788879395,5.405423641204834
1701911452972513000,21.656512939453126,0.5350319743156433,-8.072554588317871,5.548308372497559
1701911452989507600,21.673507568359376,0.42494964599609375,-7.9404730796813965,5.744948863983154
1701911453006503000,21.6905029296875,0.26365330815315247,-7.766109466552734,5.987834453582764
