time,seconds_elapsed,z,y,x
1702070355839466500,0.099466552734375,7.856509685516357,4.7618608474731445,3.440354585647583
1702070355856440600,0.116440673828125,7.64946174621582,4.932956695556641,3.658932685852051
1702070355873445000,0.133445068359375,7.409323215484619,5.072794437408447,3.950291156768799
1702070355890439000,0.15043896484375,7.155768871307373,5.149409770965576,4.302867889404297
1702070355907424500,0.167424560546875,6.903472423553467,5.167200088500977,4.677416801452637
1702070355924418800,0.184418701171875,6.626972198486328,5.165860652923584,5.062927722930908
1702070355941409000,0.201408935546875,6.305587291717529,5.180225372314453,5.444347858428955
1702070355958399500,0.2183994140625,5.945966720581055,5.183341026306152,5.832200050354004
1702070355975384000,0.235384033203125,5.578897476196289,5.0937323570251465,6.258266925811768
1702070355992381700,0.252381591796875,5.077656269073486,4.983377933502197,6.754218578338623
1702070356009371600,0.26937158203125,4.401096343994141,4.8858723640441895,7.2797465324401855
1702070356026358500,0.286358642578125,3.6662113666534424,4.660438537597656,7.815070629119873
1702070356043351000,0.30335107421875,2.9479727745056152,4.369664669036865,8.273548126220703
1702070356060342800,0.3203427734375,2.2618937492370605,3.97529935836792,8.678532600402832
1702070356077331200,0.337331298828125,1.6112220287322998,3.458637237548828,9.037583351135254
1702070356094313700,0.354313720703125,1.0065555572509766,2.86745023727417,9.32741641998291
1702070356111313000,0.37131298828125,0.45557063817977905,2.23661208152771,9.540761947631836
1702070356128305400,0.388305419921875,0.004725719802081585,1.5845019817352295,9.68118953704834
1702070356145285400,0.405285400390625,-0.30562520027160645,0.9344964623451233,9.760605812072754
1702070356162287400,0.422287353515625,-0.49203503131866455,0.29759055376052856,9.793133735656738
1702070356179275300,0.439275146484375,-0.5809542536735535,-0.3252601623535156,9.787381172180176
1702070356196268000,0.45626806640625,-0.5875031352043152,-0.9523451328277588,9.745973587036133
1702070356213248000,0.473248046875,-0.6098277568817139,-1.5772236585617065,9.663156509399414
1702070356230244900,0.490244873046875,-0.6959415078163147,-2.1967620849609375,9.535512924194336
1702070356247240000,0.507239990234375,-0.8059170842170715,-2.8074774742126465,9.36507797241211
1702070356264233500,0.5242333984375,-0.8814531564712524,-3.3891615867614746,9.163662910461426
1702070356281218800,0.54121875,-0.8909811973571777,-3.9414637088775635,8.939078330993652
1702070356298212600,0.558212646484375,-0.8438906669616699,-4.46635627746582,8.693425178527832
1702070356315194400,0.5751943359375,-0.7588867545127869,-4.944703578948975,8.438608169555664
1702070356332179700,0.5921796875,-0.6438884139060974,-5.374638080596924,8.18136978149414
1702070356349181400,0.609181396484375,-0.5129593014717102,-5.756788730621338,7.926688194274902
1702070356366168300,0.626168212890625,-0.374703049659729,-6.094615936279297,7.677980422973633
1702070356383160800,0.643160888671875,-0.2549716532230377,-6.385939598083496,7.442505836486816
1702070356400153300,0.6601533203125,-0.16302505135536194,-6.63409423828125,7.2248406410217285
1702070356417139500,0.677139404296875,-0.07849711924791336,-6.845727443695068,7.026091575622559
1702070356434133800,0.6941337890625,0.012504271231591702,-7.025681495666504,6.846587657928467
1702070356451108400,0.7111083984375,0.097597636282444,-7.1732354164123535,6.691135883331299
1702070356468117200,0.7281171875,0.16173720359802246,-7.293863296508789,6.55816650390625
1702070356485101600,0.7451015625,0.19618403911590576,-7.392414093017578,6.445916652679443
1702070356502094800,0.7620947265625,0.20538580417633057,-7.469052791595459,6.356664657592773
1702070356519086300,0.77908642578125,0.19560106098651886,-7.524127960205078,6.291690349578857
1702070356536073500,0.796073486328125,0.17395350337028503,-7.558263778686523,6.251280784606934
1702070356553055500,0.813055419921875,0.14246302843093872,-7.568080425262451,6.2401909828186035
1702070356570059000,0.83005908203125,0.10774547606706619,-7.549911022186279,6.262853145599365
1702070356587043600,0.847043701171875,0.08110760897397995,-7.500343322753906,6.322530269622803
1702070356604038400,0.864038330078125,0.06568440794944763,-7.412658214569092,6.425286293029785
1702070356621027800,0.88102783203125,0.05883731693029404,-7.288140773773193,6.566251754760742
1702070356638022400,0.8980224609375,0.051898133009672165,-7.1307148933410645,6.736937046051025
1702070356655004000,0.91500390625,0.032640036195516586,-6.941659927368164,6.931696891784668
1702070356672003000,0.932003173828125,-0.005654842592775822,-6.724470138549805,7.14265775680542
1702070356688990500,0.948990478515625,-0.0600716657936573,-6.484490871429443,7.3609700202941895
1702070356705980000,0.96597998046875,-0.13386791944503784,-6.227900505065918,7.578354835510254
1702070356722969600,0.982969482421875,-0.2226497083902359,-5.961089611053467,7.787936210632324
1702070356739966500,0.999966552734375,-0.31492871046066284,-5.692147254943848,7.983509063720703
1702070356756943000,1.016943115234375,-0.39056652784347534,-5.432604789733887,8.15906810760498
1702070356773941000,1.03394091796875,-0.44748568534851074,-5.181426525115967,8.317974090576172
1702070356790930200,1.05093017578125,-0.496060848236084,-4.935015678405762,8.463784217834473
1702070356807923700,1.067923828125,-0.5431724190711975,-4.692119598388672,8.597970008850098
1702070356824901600,1.084901611328125,-0.5912336111068726,-4.459155082702637,8.717941284179688
1702070356841906000,1.101906005859375,-0.6392977237701416,-4.24344539642334,8.8215970993042
1702070356858896100,1.118896240234375,-0.6914794445037842,-4.05286169052124,8.906866073608398
1702070356875883500,1.135883544921875,-0.7511532306671143,-3.887028455734253,8.97568416595459
1702070356892869400,1.152869384765625,-0.8281271457672119,-3.7466847896575928,9.028437614440918
1702070356909868500,1.16986865234375,-0.907554566860199,-3.6467080116271973,9.061676025390625
1702070356926851600,1.1868515625,-0.9577646255493164,-3.6022939682006836,9.074264526367188
1702070356943851000,1.20385107421875,-0.9669172763824463,-3.611396312713623,9.06967544555664
1702070356960838000,1.220837890625,-0.9667704701423645,-3.6586837768554688,9.050719261169434
1702070356977827000,1.2378271484375,-1.0098615884780884,-3.733090877532959,9.015560150146484
1702070356994819600,1.254819580078125,-1.097575068473816,-3.8439526557922363,8.958541870117188
1702070357011809800,1.271809814453125,-1.1824462413787842,-4.007297515869141,8.875781059265137
1702070357028798700,1.288798828125,-1.2116495370864868,-4.222812175750732,8.771310806274414
1702070357045790700,1.305790771484375,-1.1743817329406738,-4.475397109985352,8.650304794311523
1702070357062776300,1.3227763671875,-1.085240364074707,-4.748485565185547,8.515295028686523
1702070357079776500,1.339776611328125,-0.9713599681854248,-5.02079439163208,8.371630668640137
1702070357096756200,1.356756103515625,-0.8619840145111084,-5.279627799987793,8.223053932189941
1702070357113755600,1.373755615234375,-0.767621636390686,-5.526748180389404,8.06857681274414
1702070357130741800,1.39074169921875,-0.6838614344596863,-5.7693562507629395,7.904618263244629
1702070357147731000,1.40773095703125,-0.5962008237838745,-6.010504245758057,7.730104923248291
1702070357164724500,1.424724365234375,-0.49646663665771484,-6.2440385818481445,7.5499420166015625
1702070357181714700,1.441714599609375,-0.3875259757041931,-6.454286098480225,7.377544403076172
1702070357198695400,1.4586953125,-0.28084734082221985,-6.63057279586792,7.224455833435059
1702070357215694300,1.4756943359375,-0.18370461463928223,-6.774748802185059,7.092611312866211
1702070357232685300,1.492685302734375,-0.09185361862182617,-6.8969550132751465,6.975650310516357
1702070357249677800,1.509677734375,-0.0037954277358949184,-7.003288269042969,6.86950159072876
1702070357266665200,1.526665283203125,0.07656051963567734,-7.093313694000244,6.776071071624756
1702070357283658800,1.54365869140625,0.14823013544082642,-7.163136005401611,6.701018333435059
1702070357300647200,1.560647216796875,0.20486363768577576,-7.20888090133667,6.650277614593506
1702070357317636400,1.57763623046875,0.24467089772224426,-7.232741355895996,6.62296724319458
1702070357334626800,1.594626708984375,0.26729318499565125,-7.242177963256836,6.611771583557129
1702070357351622100,1.6116220703125,0.2729857563972473,-7.240999221801758,6.612830638885498
1702070357368609800,1.62860986328125,0.2614234685897827,-7.230263710021973,6.6250319480896
1702070357385597700,1.64559765625,0.23787496984004974,-7.211252212524414,6.646607398986816
1702070357402592500,1.662592529296875,0.21530969440937042,-7.184604644775391,6.6761674880981445
1702070357419575000,1.679574951171875,0.18592625856399536,-7.142677307128906,6.721883296966553
1702070357436570000,1.696570068359375,0.14679494500160217,-7.086383819580078,6.782163143157959
1702070357453552400,1.713552490234375,0.09682609140872955,-7.028261661529541,6.843263626098633
1702070357470554000,1.73055419921875,-0.02013196423649788,-6.96956729888916,6.903685092926025
1702070357487535400,1.747535400390625,-0.20697623491287231,-6.920608043670654,6.949708461761475
1702070357504529700,1.76452978515625,-0.3777231276035309,-6.938513278961182,6.9246296882629395
1702070357521529900,1.78152978515625,-0.4981857240200043,-7.015303134918213,6.839112281799316
1702070357538513700,1.798513671875,-0.618755042552948,-7.068620204925537,6.774059772491455
1702070357555505700,1.815505615234375,-0.7550094723701477,-7.032837867736816,6.797445297241211
1702070357572495600,1.83249560546875,-0.8653306365013123,-6.877358436584473,6.941847324371338
1702070357589488000,1.849488037109375,-0.9020388722419739,-6.613027572631836,7.189598083496094
1702070357606467000,1.866467041015625,-0.8701984286308289,-6.276307582855225,7.4891133308410645
1702070357623465700,1.8834658203125,-0.8147954940795898,-5.902560234069824,7.793075084686279
1702070357640461000,1.9004609375,-0.7768728137016296,-5.507995128631592,8.080507278442383
1702070357657446000,1.91744580078125,-0.7711465954780579,-5.101093769073486,8.343876838684082
1702070357674434000,1.93443408203125,-0.7837122678756714,-4.699028491973877,8.575607299804688
1702070357691427300,1.95142724609375,-0.7830211520195007,-4.319088935852051,8.77316665649414
1702070357708407300,1.9684072265625,-0.7532044649124146,-3.9698002338409424,8.93921184539795
1702070357725406000,1.985406005859375,-0.7029938101768494,-3.645129919052124,9.080471992492676
1702070357742402600,2.002402587890625,-0.6464962363243103,-3.3392229080200195,9.201508522033691
1702070357759393000,2.01939306640625,-0.6041764616966248,-3.040724754333496,9.307257652282715
1702070357776379000,2.03637890625,-0.5875937342643738,-2.7419309616088867,9.400673866271973
1702070357793362000,2.05336181640625,-0.5841111540794373,-2.4531381130218506,9.480350494384766
1702070357810363600,2.07036376953125,-0.5868417620658875,-2.187563419342041,9.544960975646973
1702070357827354000,2.08735400390625,-0.5988081097602844,-1.952629804611206,9.595038414001465
1702070357844341500,2.104341552734375,-0.6345497965812683,-1.7469223737716675,9.632328033447266
1702070357861334300,2.121334228515625,-0.704167902469635,-1.568567156791687,9.658150672912598
1702070357878339600,2.138339599609375,-0.7957260012626648,-1.4425718784332275,9.670674324035645
1702070357895313000,2.15531298828125,-0.8957478404045105,-1.398475170135498,9.668402671813965
1702070357912305400,2.172305419921875,-1.0007224082946777,-1.4423125982284546,9.651652336120605
1702070357929296000,2.1892958984375,-1.102344036102295,-1.553467869758606,9.623291015625
1702070357946285800,2.206285888671875,-1.1873303651809692,-1.6947400569915771,9.589275360107422
1702070357963274200,2.223274169921875,-1.2545956373214722,-1.8505324125289917,9.551840782165527
1702070357980275500,2.240275390625,-1.300557017326355,-2.027503490447998,9.509675025939941
1702070357997248500,2.25724853515625,-1.3174993991851807,-2.235072374343872,9.46069622039795
1702070358014251500,2.27425146484375,-1.289032220840454,-2.461902379989624,9.40816593170166
1702070358031236900,2.29123681640625,-1.218320608139038,-2.702120304107666,9.351489067077637
1702070358048236300,2.308236328125,-1.1361491680145264,-3.0177080631256104,9.26491928100586
1702070358065218600,2.325218505859375,-1.0622496604919434,-3.47586727142334,9.111865043640137
1702070358082210300,2.342210205078125,-0.9998446702957153,-4.047786235809326,8.879857063293457
1702070358099202800,2.359202880859375,-0.9342418313026428,-4.642650127410889,8.591221809387207
1702070358116191500,2.37619140625,-0.8612768054008484,-5.186040878295898,8.282469749450684
1702070358133184800,2.393184814453125,-0.7788944840431213,-5.6431708335876465,7.986493110656738
1702070358150171100,2.410171142578125,-0.6897215247154236,-6.023490905761719,7.712196350097656
1702070358167163400,2.427163330078125,-0.6064136028289795,-6.355538845062256,7.448187351226807
1702070358184144000,2.444143798828125,-0.5403692722320557,-6.668264389038086,7.174843788146973
1702070358201144300,2.461144287109375,-0.4902808666229248,-6.968043804168701,6.887823104858398
1702070358218136000,2.478135986328125,-0.440068781375885,-7.230816841125488,6.614963531494141
1702070358235125000,2.495125,-0.3813691735267639,-7.444664001464844,6.377118110656738
1702070358252115200,2.512115234375,-0.3067089915275574,-7.619450092315674,6.171387195587158
1702070358269105700,2.529105712890625,-0.22367677092552185,-7.764663219451904,5.991333961486816
1702070358286093800,2.54609375,-0.14874762296676636,-7.8876214027404785,5.830902576446533
1702070358303087400,2.56308740234375,-0.09443546086549759,-7.988528251647949,5.6930341720581055
1702070358320079000,2.5800791015625,-0.06519587337970734,-8.062162399291992,5.588684558868408
1702070358337068300,2.597068359375,-0.058556944131851196,-8.10969066619873,5.519566535949707
1702070358354057000,2.614056884765625,-0.06727514415979385,-8.136829376220703,5.479379177093506
1702070358371040500,2.63104052734375,-0.08531380444765091,-8.15107536315918,5.457912921905518
1702070358388038100,2.6480380859375,-0.11223234236240387,-8.157556533813477,5.447731971740723
1702070358405031200,2.66503125,-0.15194429457187653,-8.158224105834961,5.445772171020508
1702070358422020600,2.6820205078125,-0.19670093059539795,-8.15042495727539,5.456005573272705
1702070358439015700,2.699015625,-0.23716746270656586,-8.128924369812012,5.486388206481934
1702070358455979500,2.7159794921875,-0.2743598520755768,-8.085102081298828,5.549051284790039
1702070358472987600,2.732987548828125,-0.3322162926197052,-8.00681209564209,5.6583333015441895
1702070358489984300,2.749984375,-0.4061455726623535,-7.899411678314209,5.8026251792907715
1702070358506968300,2.76696826171875,-0.47308772802352905,-7.773355484008789,5.965506076812744
1702070358523964200,2.783964111328125,-0.5561699271202087,-7.606576442718506,6.169828414916992
1702070358540952300,2.800952392578125,-0.7037872672080994,-7.369251251220703,6.43699836730957
1702070358557943600,2.817943603515625,-0.8678958415985107,-7.103915691375732,6.70949125289917
1702070358574925800,2.83492578125,-0.9408637881278992,-6.891899585723877,6.917558193206787
1702070358591923200,2.851923095703125,-0.9568074345588684,-6.703517913818359,7.0981316566467285
1702070358608921000,2.868921142578125,-1.021360993385315,-6.464838027954102,7.3074493408203125
1702070358625904400,2.885904296875,-1.1345528364181519,-6.1593403816223145,7.55059289932251
1702070358642897200,2.902897216796875,-1.233954906463623,-5.7930169105529785,7.820130348205566
1702070358659890400,2.919890380859375,-1.2658064365386963,-5.390617847442627,8.097843170166016
1702070358676874200,2.936874267578125,-1.230844259262085,-4.983463287353516,8.359798431396484
1702070358693869000,2.953869140625,-1.1760843992233276,-4.581171989440918,8.594522476196289
1702070358710858800,2.970858642578125,-1.1454567909240723,-4.176749229431152,8.802205085754395
1702070358727848200,2.98784814453125,-1.155027985572815,-3.769376039505005,8.9829740524292
1702070358744829700,3.00482958984375,-1.1806961297988892,-3.3732616901397705,9.135818481445312
1702070358761821400,3.021821533203125,-1.189523696899414,-3.0037598609924316,9.262751579284668
1702070358778819000,3.038819091796875,-1.1715259552001953,-2.6704440116882324,9.366556167602539
1702070358795800300,3.05580029296875,-1.1351767778396606,-2.374284505844116,9.450411796569824
1702070358812793300,3.07279345703125,-1.0962711572647095,-2.1079089641571045,9.51793098449707
1702070358829780700,3.08978076171875,-1.0678027868270874,-1.8550382852554321,9.573649406433105
1702070358846778000,3.106778076171875,-1.0586016178131104,-1.5965156555175781,9.621156692504883
1702070358863776300,3.1237763671875,-1.0697616338729858,-1.3460294008255005,9.658153533935547
1702070358880765200,3.14076513671875,-1.0958927869796753,-1.1346104145050049,9.68234634399414
1702070358897755100,3.157755126953125,-1.142482876777649,-0.9792426228523254,9.6939115524292
1702070358914748400,3.17474853515625,-1.2186726331710815,-0.8829281330108643,9.69388484954834
1702070358931733800,3.191733642578125,-1.3328255414962769,-0.8388640880584717,9.682768821716309
1702070358948730000,3.208730224609375,-1.4785434007644653,-0.8400899767875671,9.661484718322754
1702070358965717000,3.225717041015625,-1.614113450050354,-0.8815128207206726,9.636062622070312
1702070358982708200,3.242708251953125,-1.6954511404037476,-0.9499545097351074,9.615569114685059
1702070358999693300,3.259693359375,-1.7160619497299194,-1.0510590076446533,9.6013822555542
1702070359016701700,3.27670166015625,-1.6822171211242676,-1.2125693559646606,9.588323593139648
1702070359033676500,3.293676513671875,-1.6265534162521362,-1.4302480220794678,9.567906379699707
1702070359050672400,3.31067236328125,-1.5926424264907837,-1.6495256423950195,9.538272857666016
1702070359067660300,3.327660400390625,-1.5903204679489136,-1.8409643173217773,9.503571510314941
1702070359084651300,3.3446513671875,-1.5429539680480957,-2.0757970809936523,9.462900161743164
1702070359101651000,3.36165087890625,-1.3827805519104004,-2.4525909423828125,9.39727783203125
1702070359118632400,3.378632568359375,-1.1466021537780762,-2.974630117416382,9.277552604675293
1702070359135622100,3.3956220703125,-0.9255967140197754,-3.554745674133301,9.096325874328613
1702070359152612900,3.41261279296875,-0.7699491381645203,-4.112798690795898,8.872889518737793
1702070359169602800,3.429602783203125,-0.6780858635902405,-4.606768608093262,8.634465217590332
1702070359186594000,3.446593994140625,-0.6120637655258179,-5.039745807647705,8.394192695617676
1702070359203584000,3.463583984375,-0.5494751334190369,-5.434792995452881,8.148449897766113
1702070359220575000,3.480574951171875,-0.4944937825202942,-5.815108299255371,7.8851823806762695
1702070359237552400,3.497552490234375,-0.44721466302871704,-6.193142890930176,7.594807147979736
1702070359254548200,3.51454833984375,-0.39238211512565613,-6.551867961883545,7.290759563446045
1702070359271546000,3.531546142578125,-0.31176069378852844,-6.854370594024658,7.011171340942383
1702070359288524300,3.548524169921875,-0.2169404774904251,-7.085901260375977,6.780784606933594
1702070359305517600,3.565517578125,-0.12468515336513519,-7.264298439025879,6.591701030731201
1702070359322512600,3.5825126953125,-0.04722708463668823,-7.41441011428833,6.423428535461426
1702070359339499000,3.5994990234375,0.008941855281591415,-7.5564680099487305,6.255864143371582
1702070359356488700,3.61648876953125,0.04744138568639755,-7.701314449310303,6.07648229598999
1702070359373479700,3.633479736328125,0.08033256232738495,-7.847416877746582,5.886230945587158
1702070359390465800,3.6504658203125,0.11914579570293427,-7.9770965576171875,5.708576202392578
1702070359407463000,3.667462890625,0.16495931148529053,-8.081245422363281,5.558989524841309
1702070359424452400,3.684452392578125,0.213025763630867,-8.166322708129883,5.431568145751953
1702070359441440300,3.701440185546875,0.2565813958644867,-8.240989685058594,5.315672874450684
1702070359458433800,3.718433837890625,0.28214189410209656,-8.308730125427246,5.207833290100098
1702070359475424500,3.735424560546875,0.27091819047927856,-8.36251163482666,5.121632099151611
1702070359492413200,3.7524130859375,0.23815125226974487,-8.391828536987305,5.075098991394043
1702070359509403000,3.76940283203125,0.19865623116493225,-8.393917083740234,5.073343276977539
1702070359526397700,3.786397705078125,0.11626926064491272,-8.360099792480469,5.131404876708984
1702070359543385000,3.803385009765625,-0.0335674062371254,-8.291404724121094,5.24285888671875
1702070359560375600,3.82037548828125,-0.18438230454921722,-8.215688705444336,5.357666492462158
1702070359577364500,3.837364501953125,-0.2611357867717743,-8.1564302444458,5.444316864013672
1702070359594359600,3.854359619140625,-0.28341251611709595,-8.088704109191895,5.543344974517822
1702070359611353900,3.871353759765625,-0.3014175593852997,-7.978264808654785,5.700223922729492
1702070359628347100,3.88834716796875,-0.315615177154541,-7.817320346832275,5.918277740478516
1702070359645337000,3.905337158203125,-0.3076237738132477,-7.612245559692383,6.180227756500244
1702070359662327800,3.922327880859375,-0.27154237031936646,-7.379313945770264,6.4581828117370605
1702070359679302400,3.939302490234375,-0.22030292451381683,-7.138919830322266,6.7248358726501465
1702070359696294000,3.9562939453125,-0.17824243009090424,-6.898338317871094,6.972610950469971
1702070359713303600,3.973303466796875,-0.1702580600976944,-6.6549177169799805,7.205497741699219
1702070359730287600,3.99028759765625,-0.20705166459083557,-6.399919509887695,7.431975841522217
1702070359747282700,4.00728271484375,-0.28384315967559814,-6.128498554229736,7.654872894287109
1702070359764253200,4.024253173828125,-0.38398608565330505,-5.844614505767822,7.869508743286133
1702070359781260800,4.0412607421875,-0.4874204099178314,-5.5482563972473145,8.075603485107422
1702070359798251800,4.058251708984375,-0.5735276937484741,-5.23806619644165,8.274650573730469
1702070359815235800,4.07523583984375,-0.6327283978462219,-4.9208984375,8.462892532348633
1702070359832233700,4.092233642578125,-0.6639040112495422,-4.61203670501709,8.632756233215332
1702070359849223000,4.109222900390625,-0.6587607860565186,-4.332586288452148,8.77672290802002
1702070359866214100,4.126214111328125,-0.6351667046546936,-4.097413063049316,8.890661239624023
1702070359883204000,4.1432041015625,-0.6347270011901855,-3.915114402770996,8.972463607788086
1702070359900194800,4.16019482421875,-0.6766117811203003,-3.7869679927825928,9.02425479888916
1702070359917185000,4.17718505859375,-0.7644258141517639,-3.708742618560791,9.049697875976562
1702070359934176000,4.194176025390625,-0.9044128656387329,-3.676102638244629,9.0501070022583
1702070359951166000,4.211166015625,-1.0853023529052734,-3.683018684387207,9.027381896972656
1702070359968156700,4.22815673828125,-1.2792083024978638,-3.7219324111938477,8.985932350158691
1702070359985143300,4.245143310546875,-1.4513638019561768,-3.789799213409424,8.931241989135742
1702070360002138000,4.26213818359375,-1.5843446254730225,-3.8729588985443115,8.872776985168457
1702070360019128000,4.279128173828125,-1.6769733428955078,-3.9422686100006104,8.825100898742676
1702070360036119000,4.296119140625,-1.723545789718628,-3.9769928455352783,8.800515174865723
1702070360053098200,4.31309814453125,-1.7319979667663574,-3.9996166229248047,8.788591384887695
1702070360070099000,4.330098876953125,-1.7062597274780273,-4.074470043182373,8.759195327758789
1702070360087091000,4.347091064453125,-1.6383647918701172,-4.272067546844482,8.677634239196777
1702070360104081200,4.3640810546875,-1.5256491899490356,-4.621194839477539,8.517810821533203
1702070360121070600,4.381070556640625,-1.3645800352096558,-5.08291482925415,8.278768539428711
1702070360138051600,4.398051513671875,-1.1577913761138916,-5.5756354331970215,7.987987041473389
1702070360155051800,4.4150517578125,-0.9322888851165771,-6.045342922210693,7.669469356536865
1702070360172043000,4.43204296875,-0.7180293202400208,-6.48320198059082,7.327254295349121
1702070360189033000,4.449032958984375,-0.5367907881736755,-6.900031566619873,6.952520847320557
1702070360206024000,4.46602392578125,-0.3972627818584442,-7.305802345275879,6.534796237945557
1702070360223014000,4.483013916015625,-0.2918988764286041,-7.691227436065674,6.082428932189941
1702070360240004900,4.5000048828125,-0.1925283521413803,-8.030203819274902,5.63159704208374
1702070360256994800,4.516994873046875,-0.07853337377309799,-8.305562973022461,5.219921112060547
1702070360273989000,4.533989013671875,0.05292695015668869,-8.515584945678711,4.870127201080322
1702070360290972400,4.550972412109375,0.1898219734430313,-8.672767639160156,4.580738544464111
1702070360307963100,4.567963134765625,0.3262433707714081,-8.794469833374023,4.33439826965332
1702070360324960500,4.58496044921875,0.4530881941318512,-8.886725425720215,4.130004405975342
1702070360341947600,4.60194775390625,0.5636372566223145,-8.952512741088867,3.9712653160095215
1702070360358944300,4.6189443359375,0.6524903774261475,-8.994935989379883,3.8602454662323
1702070360375928800,4.6359287109375,0.7144052386283875,-9.01851749420166,3.7936878204345703
1702070360392911600,4.65291162109375,0.7462883591651917,-9.034464836120605,3.7493512630462646
1702070360409912300,4.669912353515625,0.7434863448143005,-9.052661895751953,3.7057602405548096
1702070360426899700,4.686899658203125,0.6892351508140564,-9.071990013122559,3.6687965393066406
1702070360443890700,4.703890625,0.5804829597473145,-9.080081939697266,3.6675968170166016
1702070360460881000,4.720880859375,0.44906458258628845,-9.069135665893555,3.712848663330078
1702070360477871900,4.737871826171875,0.31638744473457336,-9.034791946411133,3.809008836746216
1702070360494861800,4.75486181640625,0.1322464793920517,-8.958309173583984,3.995914936065674
1702070360511842000,4.771842041015625,-0.11715277284383774,-8.834478378295898,4.2631402015686035
1702070360528840000,4.78883984375,-0.34867942333221436,-8.694219589233398,4.530460357666016
1702070360545836300,4.805836181640625,-0.4846237003803253,-8.557316780090332,4.7721662521362305
1702070360562823000,4.822822998046875,-0.538025438785553,-8.40130615234375,5.036342144012451
1702070360579814700,4.839814697265625,-0.5503256320953369,-8.205978393554688,5.347447395324707
1702070360596803800,4.856803955078125,-0.5219423770904541,-7.979286193847656,5.6828436851501465
1702070360613796600,4.873796630859375,-0.4518652558326721,-7.738807678222656,6.011885643005371
1702070360630783000,4.890782958984375,-0.3573002815246582,-7.491925239562988,6.322936534881592
1702070360647779600,4.907779541015625,-0.27108892798423767,-7.237878322601318,6.616323947906494
1702070360664766700,4.9247666015625,-0.22720380127429962,-6.9751667976379395,6.894312381744385
1702070360681757700,4.9417578125,-0.2376215010881424,-6.701146602630615,7.160606384277344
1702070360698747600,4.95874755859375,-0.28041961789131165,-6.421410083770752,7.411004543304443
1702070360715739000,4.97573876953125,-0.31544268131256104,-6.147636890411377,7.638268947601318
1702070360732718000,4.992718017578125,-0.3266231417655945,-5.88282585144043,7.843583106994629
1702070360749719600,5.009719482421875,-0.31815871596336365,-5.621886253356934,8.033014297485352
1702070360766709500,5.02670947265625,-0.3003767430782318,-5.359074592590332,8.211346626281738
1702070360783700500,5.043700439453125,-0.2819012999534607,-5.085688591003418,8.384058952331543
1702070360800691000,5.06069091796875,-0.26858076453208923,-4.804425239562988,8.548768997192383
1702070360817681700,5.077681640625,-0.26529228687286377,-4.5215911865234375,8.70177936553955
1702070360834671900,5.094671875,-0.2713581919670105,-4.2447991371154785,8.839919090270996
1702070360851662600,5.11166259765625,-0.2772211730480194,-3.9837262630462646,8.96042537689209
1702070360868649500,5.1286494140625,-0.26870062947273254,-3.749509334564209,9.061186790466309
1702070360885646800,5.145646728515625,-0.26038822531700134,-3.5480823516845703,9.142179489135742
1702070360902633500,5.162633544921875,-0.28480035066604614,-3.381660223007202,9.204314231872559
1702070360919624700,5.179624755859375,-0.34956058859825134,-3.2661211490631104,9.243720054626465
1702070360936614700,5.19661474609375,-0.4411812126636505,-3.224130392074585,9.254537582397461
1702070360953605600,5.213605712890625,-0.5381543636322021,-3.2681868076324463,9.233929634094238
1702070360970595300,5.23059521484375,-0.6080882549285889,-3.382960081100464,9.188141822814941
1702070360987586600,5.247586669921875,-0.6547682881355286,-3.540783405303955,9.125252723693848
1702070361004572400,5.264572509765625,-0.6974337100982666,-3.747905969619751,9.038965225219727
1702070361021567500,5.2815673828125,-0.7392933368682861,-4.031162261962891,8.912873268127441
1702070361038559500,5.2985595703125,-0.7313142418861389,-4.388150691986084,8.743307113647461
1702070361055544300,5.31554443359375,-0.6310765743255615,-4.768733978271484,8.549680709838867
1702070361072541200,5.332541259765625,-0.42789340019226074,-5.115270614624023,8.359848022460938
1702070361089526800,5.34952685546875,-0.1533280313014984,-5.409822463989258,8.182080268859863
1702070361106519600,5.36651953125,0.11869029700756073,-5.667115688323975,8.006609916687012
1702070361123513000,5.38351318359375,0.3398597836494446,-5.9092512130737305,7.823130130767822
1702070361140500700,5.400500732421875,0.5166433453559875,-6.152156829833984,7.623658657073975
1702070361157491700,5.41749169921875,0.6820955872535706,-6.401302814483643,7.402309417724609
1702070361174471200,5.43447119140625,0.8543335199356079,-6.644729137420654,7.166155815124512
1702070361191472400,5.451472412109375,1.0265319347381592,-6.8581767082214355,6.938858509063721
1702070361208462000,5.468462158203125,1.1840667724609375,-7.031519412994385,6.73734712600708
1702070361225454300,5.485454345703125,1.307377815246582,-7.176594257354736,6.559218883514404
1702070361242443800,5.50244384765625,1.388757348060608,-7.311923503875732,6.390870094299316
1702070361259434500,5.5194345703125,1.428059458732605,-7.446927547454834,6.224148273468018
1702070361276424400,5.536424560546875,1.4269320964813232,-7.5766754150390625,6.065803050994873
1702070361293415700,5.553415771484375,1.3867824077606201,-7.68874454498291,5.932633399963379
1702070361310405600,5.570405517578125,1.3149338960647583,-7.774613857269287,5.8363037109375
1702070361327396600,5.587396728515625,1.2237623929977417,-7.833104133605957,5.777629375457764
1702070361344386600,5.604386474609375,1.126681923866272,-7.864022254943848,5.755331039428711
1702070361361377300,5.621377197265625,0.9982317090034485,-7.856691837310791,5.78895902633667
1702070361378366000,5.638365966796875,0.8292930722236633,-7.8049540519714355,5.8848185539245605
1702070361395356000,5.65535595703125,0.6495455503463745,-7.7129011154174805,6.027050971984863
1702070361412348700,5.6723486328125,0.455188512802124,-7.573468208312988,6.218642234802246
1702070361429339400,5.68933935546875,0.22967776656150818,-7.36550760269165,6.475542068481445
1702070361446327000,5.7063271484375,0.019359547644853592,-7.107365608215332,6.76173734664917
1702070361463327000,5.723326904296875,-0.0985194519162178,-6.846282958984375,7.025298118591309
1702070361480310300,5.740310302734375,-0.13853195309638977,-6.575873374938965,7.278380393981934
1702070361497301800,5.7573017578125,-0.18196916580200195,-6.262737274169922,7.548585414886475
1702070361514281000,5.774281005859375,-0.26438185572624207,-5.892731189727783,7.838490009307861
1702070361531282700,5.79128271484375,-0.38404104113578796,-5.466395854949951,8.136778831481934
1702070361548272400,5.8082724609375,-0.5124181509017944,-4.999594211578369,8.424820899963379
1702070361565263400,5.825263427734375,-0.6214011907577515,-4.5097575187683105,8.689767837524414
1702070361582253800,5.84225390625,-0.7005271911621094,-4.01349401473999,8.923972129821777
1702070361599244500,5.85924462890625,-0.7572243809700012,-3.5210328102111816,9.124967575073242
1702070361616232400,5.876232421875,-0.812946617603302,-3.036119222640991,9.292858123779297
1702070361633216800,5.893216796875,-0.875084400177002,-2.5728230476379395,9.426076889038086
1702070361650212900,5.910212890625,-0.946681797504425,-2.145512819290161,9.525582313537598
1702070361667206700,5.92720654296875,-1.0242983102798462,-1.763017177581787,9.59576416015625
1702070361684189000,5.94418896484375,-1.0963997840881348,-1.4299708604812622,9.643091201782227
1702070361701187300,5.961187255859375,-1.1578710079193115,-1.1459987163543701,9.673787117004395
1702070361718177300,5.97817724609375,-1.20992112159729,-0.9018096923828125,9.693242073059082
1702070361735158500,5.995158447265625,-1.2568292617797852,-0.6833425164222717,9.705131530761719
1702070361752157000,6.012156982421875,-1.2916792631149292,-0.48579078912734985,9.712450981140137
1702070361769148200,6.029148193359375,-1.3055570125579834,-0.31994298100471497,9.717474937438965
1702070361786142200,6.04614208984375,-1.303910493850708,-0.19739703834056854,9.720955848693848
1702070361803130600,6.063130615234375,-1.2860337495803833,-0.12780317664146423,9.724499702453613
1702070361820120300,6.080120361328125,-1.2592277526855469,-0.11949574947357178,9.728114128112793
1702070361837111600,6.097111572265625,-1.2443073987960815,-0.17308519780635834,9.729227066040039
1702070361854101200,6.114101318359375,-1.2435425519943237,-0.2807029187679291,9.726814270019531
1702070361871092200,6.13109228515625,-1.2363756895065308,-0.43465542793273926,9.722064971923828
1702070361888082400,6.14808251953125,-1.2094708681106567,-0.6342867016792297,9.714473724365234
1702070361905075200,6.1650751953125,-1.1632299423217773,-0.8997306823730469,9.699149131774902
1702070361922061800,6.182061767578125,-1.1155126094818115,-1.2548625469207764,9.665249824523926
1702070361939054600,6.1990546875,-1.1027588844299316,-1.679102897644043,9.602116584777832
1702070361956044300,6.216044189453125,-1.080679178237915,-2.098285675048828,9.521841049194336
1702070361973024800,6.233024658203125,-0.9860458374023438,-2.4234957695007324,9.454656600952148
1702070361990022700,6.250022705078125,-0.8163021802902222,-2.6194872856140137,9.418496131896973
1702070362007019300,6.267019287109375,-0.6034208536148071,-2.722456693649292,9.405328750610352
1702070362024006400,6.28400634765625,-0.4138828217983246,-2.7863547801971436,9.39686393737793
1702070362040997400,6.300997314453125,-0.3370096981525421,-2.8474538326263428,9.381606101989746
1702070362057987300,6.3179873046875,-0.42724642157554626,-2.9138834476470947,9.357503890991211
1702070362074978300,6.334978271484375,-0.6508107781410217,-2.9937868118286133,9.319324493408203
1702070362091965400,6.35196533203125,-0.917934238910675,-3.100663423538208,9.261717796325684
1702070362108961800,6.3689619140625,-1.1547473669052124,-3.24409556388855,9.18577766418457
1702070362125946600,6.385946533203125,-1.3249142169952393,-3.425457239151001,9.096537590026855
1702070362142941700,6.402941650390625,-1.4229170083999634,-3.6322638988494873,9.001005172729492
1702070362159931100,6.41993115234375,-1.471885323524475,-3.84567928314209,8.90395450592041
1702070362176910000,6.43691015625,-1.5053730010986328,-4.047478675842285,8.808401107788086
1702070362193899000,6.45389892578125,-1.5452790260314941,-4.234454154968262,8.713072776794434
1702070362210902800,6.47090283203125,-1.5948365926742554,-4.407236099243164,8.617939949035645
1702070362227894000,6.48789404296875,-1.644442081451416,-4.56278657913208,8.527186393737793
1702070362244870700,6.50487060546875,-1.68895423412323,-4.702950954437256,8.441906929016113
1702070362261865000,6.521864990234375,-1.7181648015975952,-4.828187465667725,8.36496639251709
1702070362278857000,6.53885693359375,-1.725424885749817,-4.93665885925293,8.299904823303223
1702070362295842300,6.55584228515625,-1.6925832033157349,-5.022358417510986,8.255131721496582
1702070362312833800,6.572833740234375,-1.608216643333435,-5.084010601043701,8.234232902526855
1702070362329827600,6.58982763671875,-1.4827300310134888,-5.132716655731201,8.227564811706543
1702070362346830600,6.60683056640625,-1.329399585723877,-5.182642459869385,8.222471237182617
1702070362363814700,6.623814697265625,-1.154700756072998,-5.239595413208008,8.212759971618652
1702070362380807200,6.64080712890625,-0.9688644409179688,-5.3061323165893555,8.194046020507812
1702070362397797400,6.65779736328125,-0.7719319462776184,-5.3918962478637695,8.158903121948242
1702070362414788000,6.6747880859375,-0.5559547543525696,-5.496571063995361,8.106463432312012
1702070362431778600,6.691778564453125,-0.30786818265914917,-5.603636264801025,8.046154975891113
1702070362448766700,6.7087666015625,-0.036768022924661636,-5.692306995391846,7.9895195960998535
1702070362465761800,6.72576171875,0.20221726596355438,-5.758737564086914,7.939279556274414
1702070362482750500,6.74275048828125,0.37294119596481323,-5.831207752227783,7.87997579574585
1702070362499737600,6.759737548828125,0.49097180366516113,-5.940977096557617,7.791012763977051
1702070362516740400,6.776740234375,0.6067337393760681,-6.06639289855957,7.6854987144470215
1702070362533721000,6.79372119140625,0.7137116193771362,-6.124900817871094,7.62969970703125
1702070362550701300,6.810701416015625,0.7952773571014404,-6.078193187713623,7.658931255340576
1702070362567702500,6.82770263671875,0.8596981763839722,-5.9382171630859375,7.76109504699707
1702070362584693000,6.84469287109375,0.9274440407752991,-5.732107639312744,7.906891345977783
1702070362601667300,6.861667236328125,0.988542914390564,-5.476186275482178,8.07900333404541
1702070362618674200,6.878674072265625,1.0203847885131836,-5.176217555999756,8.27053165435791
1702070362635659500,6.895659423828125,1.032789707183838,-4.834753036499023,8.473172187805176
1702070362652660000,6.912659912109375,1.0387284755706787,-4.456630229949951,8.6773042678833
1702070362669645000,6.92964501953125,1.0356042385101318,-4.049860000610352,8.874812126159668
1702070362686636000,6.946635986328125,1.0273091793060303,-3.6314876079559326,9.055002212524414
1702070362703626000,6.9636259765625,1.0193735361099243,-3.2163329124450684,9.211525917053223
1702070362720617000,6.980616943359375,0.9979024529457092,-2.814946413040161,9.344324111938477
1702070362737607200,6.997607177734375,0.9592763185501099,-2.4386491775512695,9.453511238098145
1702070362754588000,7.014587890625,0.9127405881881714,-2.0908749103546143,9.541031837463379
1702070362771588000,7.031588134765625,0.8593514561653137,-1.7735958099365234,9.609994888305664
1702070362788571400,7.0485712890625,0.7903222441673279,-1.493298888206482,9.663414001464844
1702070362805559800,7.065559814453125,0.6947465538978577,-1.258436918258667,9.704110145568848
1702070362822552300,7.08255224609375,0.5601498484611511,-1.0731436014175415,9.735025405883789
1702070362839542300,7.099542236328125,0.382562518119812,-0.9380835294723511,9.757549285888672
1702070362856532500,7.116532470703125,0.17645539343357086,-0.855688214302063,9.771018981933594
1702070362873521200,7.133521240234375,-0.03943276405334473,-0.8259893655776978,9.775086402893066
1702070362890514000,7.150513916015625,-0.2476622313261032,-0.8462719917297363,9.77029037475586
1702070362907503600,7.167503662109375,-0.4258159101009369,-0.9125146269798279,9.758182525634766
1702070362924493800,7.184493896484375,-0.5601576566696167,-1.0167322158813477,9.74107837677002
1702070362941483000,7.20148291015625,-0.6464977264404297,-1.1547349691390991,9.72032642364502
1702070362958476000,7.21847607421875,-0.6880934834480286,-1.322543740272522,9.69605827331543
1702070362975466000,7.235466064453125,-0.6885796785354614,-1.5238491296768188,9.666430473327637
1702070362992456000,7.2524560546875,-0.6515873074531555,-1.7645286321640015,9.62798023223877
1702070363009448000,7.269447998046875,-0.5901015996932983,-2.0411648750305176,9.577136039733887
1702070363026436000,7.28643603515625,-0.528530478477478,-2.3440632820129395,9.511159896850586
1702070363043427600,7.303427490234375,-0.4925937354564667,-2.6629481315612793,9.428794860839844
1702070363060419300,7.32041943359375,-0.4993540644645691,-2.9974255561828613,9.327496528625488
1702070363077416200,7.337416259765625,-0.5488287210464478,-3.354067087173462,9.202454566955566
1702070363094399500,7.3543994140625,-0.6407918334007263,-3.7273871898651123,9.051633834838867
1702070363111398000,7.37139794921875,-0.7658243179321289,-4.1105852127075195,8.874274253845215
1702070363128397800,7.388397705078125,-0.8790146112442017,-4.510034561157227,8.66735553741455
1702070363145378800,7.40537890625,-0.9131208062171936,-4.917591571807861,8.439172744750977
1702070363162370000,7.4223701171875,-0.8462499976158142,-5.274051189422607,8.228266716003418
1702070363179359700,7.43935986328125,-0.710436999797821,-5.506227970123291,8.087821960449219
1702070363196351000,7.45635107421875,-0.5336145758628845,-5.593470096588135,8.041421890258789
1702070363213341000,7.4733408203125,-0.3385900557041168,-5.580372333526611,8.061075210571289
1702070363230330400,7.490330322265625,-0.14775417745113373,-5.546307563781738,8.090286254882812
1702070363247323400,7.507323486328125,0.01931452378630638,-5.554967403411865,8.085672378540039
1702070363264313000,7.52431298828125,0.14235398173332214,-5.621434211730957,8.038366317749023
1702070363281292000,7.5412919921875,0.21235071122646332,-5.725838661193848,7.962775230407715
1702070363298294000,7.5582939453125,0.23701924085617065,-5.843348503112793,7.876244068145752
1702070363315283700,7.57528369140625,0.24332253634929657,-5.958767414093018,7.789094924926758
1702070363332273700,7.592273681640625,0.2623388469219208,-6.067094802856445,7.704392433166504
1702070363349251300,7.609251220703125,0.308766633272171,-6.167418956756592,7.6225810050964355
1702070363366255900,7.626255859375,0.37587425112724304,-6.256643295288086,7.546472549438477
1702070363383245600,7.64324560546875,0.4468372166156769,-6.331738471984863,7.479676723480225
1702070363400236500,7.660236572265625,0.5118158459663391,-6.394209384918213,7.422144889831543
1702070363417216300,7.67721630859375,0.5701579451560974,-6.445610046386719,7.373271465301514
1702070363434217700,7.6942177734375,0.6283882856369019,-6.484796524047852,7.334075927734375
1702070363451207200,7.711207275390625,0.6971501111984253,-6.505130767822266,7.309812545776367
1702070363468199200,7.72819921875,0.7833532691001892,-6.500864028930664,7.304877758026123
1702070363485188600,7.745188720703125,0.8762056231498718,-6.468779563903809,7.3227925300598145
1702070363502179600,7.7621796875,0.9646979570388794,-6.40920352935791,7.363938808441162
1702070363519169500,7.77916943359375,1.042667031288147,-6.329305171966553,7.422187328338623
1702070363536160800,7.796160888671875,1.1136916875839233,-6.243834495544434,7.484005451202393
1702070363553150700,7.813150634765625,1.1764293909072876,-6.169304370880127,7.536036491394043
1702070363570143200,7.830143310546875,1.2247780561447144,-6.116191387176514,7.571539878845215
1702070363587130000,7.847130126953125,1.2489525079727173,-6.083415508270264,7.593966007232666
1702070363604131600,7.864131591796875,1.2229033708572388,-6.0577168464660645,7.618707180023193
1702070363621112300,7.8811123046875,1.131082534790039,-6.031092643737793,7.653932571411133
1702070363638103800,7.898103759765625,0.9972257018089294,-6.014895915985107,7.6852240562438965
1702070363655093800,7.91509375,0.8148159384727478,-6.01122522354126,7.7095627784729
1702070363672084500,7.93208447265625,0.5587599277496338,-6.007101058959961,7.735543251037598
1702070363689074400,7.949074462890625,0.2992222011089325,-6.010990619659424,7.746908664703369
1702070363706065700,7.966065673828125,0.10263150185346603,-6.015825271606445,7.74825382232666
1702070363723055600,7.9830556640625,-0.056565966457128525,-5.9610066413879395,7.7909770011901855
1702070363740046600,8.000046630859375,-0.23375093936920166,-5.795205116271973,7.911831378936768
1702070363757036500,8.01703662109375,-0.41269007325172424,-5.529054641723633,8.09292221069336
1702070363774027800,8.03402783203125,-0.5497984886169434,-5.217358112335205,8.28933048248291
1702070363791017500,8.051017578125,-0.622290849685669,-4.910254001617432,8.46984577178955
1702070363808008400,8.068008544921875,-0.6543610692024231,-4.616185188293457,8.631265640258789
1702070363824998700,8.08499853515625,-0.6756334900856018,-4.317399978637695,8.782920837402344
1702070363841989400,8.1019892578125,-0.7061600685119629,-3.990725040435791,8.933732032775879
1702070363858979600,8.1189794921875,-0.7475887537002563,-3.6340126991271973,9.081364631652832
1702070363875970600,8.135970458984374,-0.7792581915855408,-3.2777271270751953,9.213325500488281
1702070363892957700,8.152957763671875,-0.774583637714386,-2.9609270095825195,9.320357322692871
1702070363909949000,8.169948974609374,-0.7339223623275757,-2.6958749294281006,9.403707504272461
1702070363926944000,8.186944091796875,-0.6794017553329468,-2.4748873710632324,9.468338012695312
1702070363943932400,8.203932373046875,-0.6399219632148743,-2.2838211059570312,9.51897144317627
1702070363960922600,8.220922607421874,-0.6380527019500732,-2.102884292602539,9.560694694519043
1702070363977913300,8.237913330078126,-0.6744849681854248,-1.923062801361084,9.595989227294922
1702070363994903600,8.254903564453125,-0.7344824075698853,-1.7410517930984497,9.6262845993042
1702070364011884300,8.27188427734375,-0.826211154460907,-1.553229570388794,9.650957107543945
1702070364028885800,8.2888857421875,-0.9723033905029297,-1.3722962141036987,9.66475772857666
1702070364045874400,8.30587451171875,-1.1630524396896362,-1.2280279397964478,9.663091659545898
1702070364062862800,8.32286279296875,-1.3612782955169678,-1.135788083076477,9.64847183227539
1702070364079859200,8.339859130859375,-1.5319255590438843,-1.092003583908081,9.627923011779785
1702070364096839000,8.3568388671875,-1.6528908014297485,-1.0814059972763062,9.609092712402344
1702070364113834000,8.373833984375,-1.7192718982696533,-1.090264916419983,9.596434593200684
1702070364130825700,8.39082568359375,-1.7278361320495605,-1.117546558380127,9.591756820678711
1702070364147820000,8.407820068359374,-1.673193097114563,-1.1780681610107422,9.594202041625977
1702070364164808400,8.424808349609375,-1.5596407651901245,-1.2867927551269531,9.599367141723633
1702070364181799200,8.441799072265624,-1.4028573036193848,-1.4476733207702637,9.600642204284668
1702070364198789400,8.458789306640625,-1.2343528270721436,-1.6599467992782593,9.589425086975098
1702070364215780400,8.4757802734375,-1.1019777059555054,-1.9202756881713867,9.55689811706543
1702070364232779800,8.49277978515625,-1.0614491701126099,-2.2262113094329834,9.494916915893555
1702070364249761000,8.509760986328125,-1.094496250152588,-2.621128559112549,9.389776229858398
1702070364266740500,8.526740478515626,-1.1245713233947754,-3.159574508666992,9.218923568725586
1702070364283742200,8.5437421875,-1.0823324918746948,-3.810845136642456,8.974526405334473
1702070364300732200,8.560732177734375,-0.9643105864524841,-4.456899166107178,8.685751914978027
1702070364317723100,8.57772314453125,-0.7911475896835327,-5.018408298492432,8.392007827758789
1702070364334727000,8.594726806640624,-0.6081028580665588,-5.466763973236084,8.122859001159668
1702070364351704000,8.6117041015625,-0.42725780606269836,-5.825490951538086,7.881449222564697
1702070364368686000,8.62868603515625,-0.24232850968837738,-6.143350601196289,7.644388198852539
1702070364385688000,8.64568798828125,-0.060194455087184906,-6.461754322052002,7.380937099456787
1702070364402675000,8.662675048828126,0.10598546266555786,-6.783277988433838,7.0860443115234375
1702070364419666400,8.67966650390625,0.25624018907546997,-7.059892654418945,6.806493759155273
1702070364436656400,8.696656494140624,0.3761601746082306,-7.255291938781738,6.592068195343018
1702070364453647000,8.713647216796875,0.4650793671607971,-7.384824752807617,6.440823554992676
1702070364470637000,8.730636962890625,0.5279737710952759,-7.482149124145508,6.322561740875244
1702070364487628000,8.7476279296875,0.568483293056488,-7.576943874359131,6.205068588256836
1702070364504607500,8.764607421875,0.5824025869369507,-7.676927089691162,6.079614162445068
1702070364521609200,8.781609130859374,0.5737106800079346,-7.768974781036377,5.962382793426514
1702070364538599000,8.798598876953125,0.5582290291786194,-7.838378429412842,5.872335433959961
1702070364555590100,8.815590087890625,0.5564929842948914,-7.871206283569336,5.828426361083984
1702070364572580400,8.832580322265626,0.579343318939209,-7.871057987213135,5.8264007568359375
1702070364589571000,8.849571044921875,0.6122134327888489,-7.850629806518555,5.850550651550293
1702070364606561300,8.866561279296874,0.629796028137207,-7.81640100479126,5.894348621368408
1702070364623552000,8.883552001953126,0.6115866303443909,-7.76041316986084,5.969764232635498
1702070364640542000,8.9005419921875,0.5566619634628296,-7.679234981536865,6.079110145568848
1702070364657533200,8.917533203125,0.4791436791419983,-7.579812049865723,6.209105491638184
1702070364674512400,8.934512451171875,0.38609927892684937,-7.465801239013672,6.35207462310791
1702070364691509500,8.951509521484375,0.23926807940006256,-7.326479434967041,6.51932430267334
1702070364708505900,8.968505859375,0.0269024558365345,-7.1595234870910645,6.706461429595947
1702070364725497600,8.98549755859375,-0.2115335613489151,-6.982002258300781,6.887887954711914
1702070364742485000,9.002485107421874,-0.49460548162460327,-6.78279972076416,7.070016860961914
1702070364759477800,9.019477783203126,-0.8151217699050903,-6.553676605224609,7.254035949707031
1702070364776466000,9.0364658203125,-1.052348017692566,-6.340438365936279,7.41131067276001
1702070364793457000,9.053456787109376,-1.1192665100097656,-6.170349597930908,7.543881416320801
1702070364810444500,9.070444580078124,-1.1174556016921997,-5.968435764312744,7.704880714416504
1702070364827440600,9.087440673828125,-1.1809107065200806,-5.678668022155762,7.911657333374023
1702070364844428000,9.104427978515625,-1.3224239349365234,-5.2998504638671875,8.148550987243652
1702070364861419000,9.1214189453125,-1.4768061637878418,-4.861817836761475,8.391535758972168
1702070364878408700,9.13840869140625,-1.5740619897842407,-4.4118452072143555,8.619402885437012
1702070364895399700,9.155399658203125,-1.5976850986480713,-3.985762357711792,8.820273399353027
1702070364912392700,9.172392822265625,-1.5800154209136963,-3.5881762504577637,8.99247932434082
1702070364929378000,9.1893779296875,-1.5697450637817383,-3.207784652709961,9.136855125427246
1702070364946370800,9.206370849609375,-1.6101750135421753,-2.839369535446167,9.25102424621582
1702070364963361800,9.22336181640625,-1.7162470817565918,-2.4977312088012695,9.33016300201416
1702070364980351700,9.240351806640625,-1.8667508363723755,-2.193732261657715,9.37757396697998
1702070364997342700,9.2573427734375,-2.041621446609497,-1.9205423593521118,9.401032447814941
1702070365014322000,9.274322021484375,-2.2217252254486084,-1.654991865158081,9.410690307617188
1702070365031321300,9.2913212890625,-2.383680582046509,-1.3822877407073975,9.415066719055176
1702070365048316700,9.308316650390625,-2.5080573558807373,-1.0988003015518188,9.420105934143066
1702070365065304800,9.325304931640625,-2.573207139968872,-0.8160792589187622,9.431264877319336
1702070365082294500,9.34229443359375,-2.5715231895446777,-0.557290256023407,9.450546264648438
1702070365099285800,9.35928564453125,-2.528435468673706,-0.3405509293079376,9.472444534301758
1702070365116275700,9.376275634765625,-2.4820876121520996,-0.17491507530212402,9.4891939163208
1702070365133266700,9.3932666015625,-2.452986001968384,-0.07272416353225708,9.498089790344238
1702070365150242800,9.410242919921876,-2.440452814102173,-0.04915754497051239,9.501470565795898
1702070365167250000,9.42725,-2.4338836669921875,-0.10393192619085312,9.502713203430176
1702070365184237300,9.4442373046875,-2.3733010292053223,-0.21152478456497192,9.516241073608398
1702070365201218000,9.461218017578124,-2.2262208461761475,-0.34216007590293884,9.547932624816895
1702070365218218500,9.478218505859376,-2.0246691703796387,-0.47917553782463074,9.586825370788574
1702070365235209500,9.49520947265625,-1.8348883390426636,-0.6293016672134399,9.616302490234375
1702070365252196900,9.51219677734375,-1.703108310699463,-0.8362042307853699,9.624775886535645
1702070365269193000,9.52919287109375,-1.6220881938934326,-1.132408618927002,9.608467102050781
1702070365286180600,9.5461806640625,-1.5707929134368896,-1.500954031944275,9.56639289855957
1702070365303171600,9.563171630859374,-1.5351446866989136,-1.9270888566970825,9.495567321777344
1702070365320161300,9.580161376953125,-1.4823548793792725,-2.4269871711730957,9.38874340057373
1702070365337152500,9.597152587890625,-1.386567234992981,-3.0044472217559814,9.235088348388672
1702070365354142500,9.614142578125,-1.2570595741271973,-3.6289751529693604,9.026985168457031
1702070365371127000,9.631126953125,-1.1160513162612915,-4.259355545043945,8.766324043273926
1702070365388125700,9.648125732421875,-0.9711386561393738,-4.855080604553223,8.46883773803711
1702070365405114600,9.665114501953125,-0.8168809413909912,-5.384795665740967,8.15921688079834
1702070365422104300,9.682104248046874,-0.6459378600120544,-5.840584754943848,7.8553466796875
1702070365439095600,9.699095458984376,-0.46808892488479614,-6.231874465942383,7.56179666519165
1702070365456085500,9.71608544921875,-0.30983519554138184,-6.5704498291015625,7.278002738952637
1702070365473066000,9.73306591796875,-0.18000420928001404,-6.860089302062988,7.010199069976807
1702070365490063600,9.750063720703125,-0.08068397641181946,-7.103201866149902,6.765657424926758
1702070365507055000,9.76705517578125,-0.0002794969186652452,-7.29281759262085,6.561318874359131
1702070365524047400,9.78404736328125,0.07604070752859116,-7.420693874359131,6.415886878967285
1702070365541038300,9.801038330078125,0.14485834538936615,-7.48590087890625,6.338486671447754
1702070365558028300,9.8180283203125,0.190578892827034,-7.500116348266602,6.320445537567139
1702070365575019300,9.835019287109375,0.2088175266981125,-7.478001117706299,6.3460259437561035
1702070365592009500,9.852009521484375,0.20344100892543793,-7.431845188140869,6.400186061859131
1702070365609000200,9.869000244140626,0.18731088936328888,-7.378786563873291,6.461775779724121
1702070365625987600,9.885987548828124,0.17316938936710358,-7.335322856903076,6.511465072631836
1702070365642983700,9.902983642578125,0.16042129695415497,-7.310910701751709,6.539186477661133
1702070365659971000,9.91997119140625,0.1447419822216034,-7.304378509521484,6.546850681304932
1702070365676962300,9.93696240234375,0.12038248032331467,-7.307144641876221,6.544254779815674
1702070365693952300,9.9539521484375,0.09575985372066498,-7.310680389404297,6.540711402893066
1702070365710943200,9.970943115234375,0.0746566653251648,-7.310628890991211,6.54104471206665
1702070365727931600,9.987931640625,0.06417670100927353,-7.303037643432617,6.549628734588623
1702070365744925700,10.00492578125,0.07320597022771835,-7.282371997833252,6.572506427764893
1702070365761901300,10.0219013671875,0.08591782301664352,-7.23676061630249,6.622541427612305
1702070365778896100,10.038896240234376,0.08972377330064774,-7.158925533294678,6.706554412841797
1702070365795884300,10.05588427734375,0.08671537786722183,-7.056003093719482,6.81479549407959
1702070365812880100,10.072880126953125,0.07350008934736252,-6.9249653816223145,6.948062896728516
1702070365829868500,10.08986865234375,0.015650657936930656,-6.756929397583008,7.111947059631348
1702070365846869500,10.106869384765625,-0.10512533783912659,-6.554907321929932,7.297825336456299
1702070365863857200,10.123857177734376,-0.2475079745054245,-6.350668907165527,7.472875595092773
1702070365880838100,10.140838134765625,-0.3621119558811188,-6.169745445251465,7.618349075317383
1702070365897837800,10.157837890625,-0.44645774364471436,-5.998055934906006,7.749847412109375
1702070365914829000,10.1748291015625,-0.5248346924781799,-5.810081958770752,7.886928081512451
1702070365931819000,10.191819091796875,-0.6029213666915894,-5.590567111968994,8.038542747497559
1702070365948807200,10.20880712890625,-0.671438455581665,-5.3334479331970215,8.206073760986328
1702070365965802500,10.225802490234376,-0.7210795283317566,-5.048639297485352,8.380180358886719
1702070365982786800,10.242786865234375,-0.7438489198684692,-4.762063026428223,8.544330596923828
1702070365999780600,10.259780517578125,-0.738281786441803,-4.491347789764404,8.690157890319824
1702070366016776200,10.276776123046876,-0.7178311347961426,-4.239402770996094,8.817500114440918
1702070366033761800,10.29376171875,-0.7020553350448608,-4.000155925750732,8.92983627319336
1702070366050754300,10.31075439453125,-0.6946252584457397,-3.7663393020629883,9.031517028808594
1702070366067743000,10.327742919921874,-0.6814857125282288,-3.5283124446868896,9.128128051757812
1702070366084733700,10.344733642578126,-0.6649316549301147,-3.28055477142334,9.221275329589844
1702070366101717800,10.3617177734375,-0.6447216272354126,-3.0354833602905273,9.306251525878906
1702070366118716400,10.37871630859375,-0.6197753548622131,-2.8058199882507324,9.37973403930664
1702070366135702800,10.395702880859375,-0.5772702097892761,-2.604980230331421,9.440177917480469
1702070366152686300,10.412686279296874,-0.5072819590568542,-2.443047523498535,9.487374305725098
1702070366169685500,10.429685546875,-0.42553406953811646,-2.3164713382720947,9.523077011108398
1702070366186676500,10.446676513671875,-0.3578791320323944,-2.2215805053710938,9.54843521118164
1702070366203666700,10.463666748046874,-0.3234577476978302,-2.1627824306488037,9.563153266906738
1702070366220657700,10.48065771484375,-0.3245503008365631,-2.1555027961730957,9.564757347106934
1702070366237647600,10.497647705078125,-0.35326188802719116,-2.2140328884124756,9.550360679626465
1702070366254628000,10.514628173828125,-0.4073849022388458,-2.3390908241271973,9.518342018127441
1702070366271615500,10.531615478515626,-0.4898712635040283,-2.5169618129730225,9.468951225280762
1702070366288611000,10.548611083984374,-0.6025024056434631,-2.7344775199890137,9.401901245117188
1702070366305599700,10.565599853515625,-0.741912305355072,-2.9962081909179688,9.311736106872559
1702070366322592500,10.582592529296875,-0.8891788125038147,-3.293998956680298,9.197556495666504
1702070366339580700,10.59958056640625,-1.0232419967651367,-3.5983288288116455,9.06869125366211
1702070366356572200,10.616572265625,-1.1040701866149902,-3.9096431732177734,8.929269790649414
1702070366373560800,10.633560791015626,-1.0662038326263428,-4.2673211097717285,8.768655776977539
1702070366390554000,10.65055419921875,-0.8842636346817017,-4.683591842651367,8.574273109436035
1702070366407543800,10.667543701171875,-0.6093012690544128,-5.110344886779785,8.351601600646973
1702070366424533800,10.68453369140625,-0.328130841255188,-5.5020928382873535,8.115137100219727
1702070366441523200,10.701523193359375,-0.10925289243459702,-5.832736015319824,7.8869123458862305
1702070366458520000,10.71852001953125,0.021807776764035225,-6.095883846282959,7.6860809326171875
1702070366475506000,10.735505859375,0.08325733989477158,-6.313492298126221,7.50792932510376
1702070366492494800,10.752494873046874,0.11313427239656448,-6.508563995361328,7.3390679359436035
1702070366509484500,10.769484619140625,0.14186690747737885,-6.67661190032959,7.186018943786621
1702070366526478000,10.78647802734375,0.18084971606731415,-6.800322532653809,7.068167686462402
1702070366543467800,10.8034677734375,0.23192046582698822,-6.874364852905273,6.9946722984313965
1702070366560459300,10.820459228515626,0.28630074858665466,-6.907573223114014,6.959854602813721
1702070366577449000,10.837448974609375,0.3303244411945343,-6.917115688323975,6.948416709899902
1702070366594437600,10.854437744140625,0.362539678812027,-6.921114921569824,6.942829132080078
1702070366611438300,10.871438232421875,0.3907150626182556,-6.930525302886963,6.931902885437012
1702070366628429000,10.888428955078124,0.4233688414096832,-6.94923210144043,6.911227703094482
1702070366645419300,10.905419189453125,0.45876261591911316,-6.967546463012695,6.890496253967285
1702070366662402300,10.92240234375,0.4853288531303406,-6.974422454833984,6.881716251373291
1702070366679400000,10.93939990234375,0.4914286732673645,-6.975594520568848,6.8800950050354
1702070366696391000,10.956390869140625,0.47610312700271606,-6.982882499694824,6.873776435852051
1702070366713381000,10.973381103515624,0.45071861147880554,-7.005740165710449,6.8521952629089355
1702070366730372000,10.9903720703125,0.4191085696220398,-7.034977436065674,6.824191093444824
1702070366747359700,11.00735986328125,0.3783937990665436,-7.051164150238037,6.809847354888916
1702070366764352500,11.0243525390625,0.32503271102905273,-7.04477071762085,6.819213390350342
1702070366781345500,11.041345458984376,0.2480470836162567,-7.01240348815918,6.855710983276367
1702070366798334000,11.058333984375,0.15665686130523682,-6.95758581161499,6.914013385772705
1702070366815324000,11.075323974609375,0.07549984008073807,-6.891025066375732,6.981705665588379
1702070366832315000,11.09231494140625,-0.015629608184099197,-6.801894187927246,7.068953037261963
1702070366849305000,11.10930517578125,-0.15042605996131897,-6.669749736785889,7.192213535308838
1702070366866295800,11.1262958984375,-0.2916497588157654,-6.516536712646484,7.327059745788574
1702070366883286000,11.1432861328125,-0.3791597783565521,-6.375869274139404,7.445849895477295
1702070366900276700,11.16027685546875,-0.43254488706588745,-6.225866317749023,7.568857669830322
1702070366917267000,11.177266845703125,-0.5055385828018188,-6.0271196365356445,7.723623752593994
1702070366934257700,11.194257568359374,-0.5835223197937012,-5.777533531188965,7.9066901206970215
1702070366951247600,11.21124755859375,-0.6313718557357788,-5.483553409576416,8.10975456237793
1702070366968238800,11.22823876953125,-0.6456843614578247,-5.157657146453857,8.319721221923828
1702070366985228800,11.245228759765626,-0.6513152122497559,-4.814854145050049,8.522269248962402
1702070367002219500,11.262219482421875,-0.6752204298973083,-4.466254234313965,8.70820140838623
1702070367019209700,11.279209716796874,-0.7262642979621887,-4.118175983428955,8.874080657958984
1702070367036200700,11.29620068359375,-0.7929593920707703,-3.7761120796203613,9.019329071044922
1702070367053190700,11.313190673828124,-0.854583740234375,-3.4538445472717285,9.1420316696167
1702070367070179000,11.330178955078125,-0.8936876058578491,-3.165163278579712,9.242250442504883
1702070367087174100,11.347174072265625,-0.9159514904022217,-2.9120373725891113,9.3229398727417
1702070367104162600,11.36416259765625,-0.9403542280197144,-2.689326286315918,9.387191772460938
1702070367121150000,11.38114990234375,-0.9791972637176514,-2.4914228916168213,9.43769645690918
1702070367138147300,11.398147216796875,-1.0387020111083984,-2.3148653507232666,9.476213455200195
1702070367155134000,11.415134033203126,-1.116074800491333,-2.158804416656494,9.5042142868042
1702070367172124000,11.4321240234375,-1.1923829317092896,-2.0290846824645996,9.523507118225098
1702070367189114400,11.4491142578125,-1.2523689270019531,-1.9266254901885986,9.537075996398926
1702070367206105300,11.466105224609375,-1.2959359884262085,-1.843450903892517,9.547688484191895
1702070367223095600,11.483095458984375,-1.3155665397644043,-1.7628587484359741,9.560216903686523
1702070367240086500,11.50008642578125,-1.3027105331420898,-1.6819829940795898,9.576533317565918
1702070367257076500,11.517076416015625,-1.2558168172836304,-1.6295225620269775,9.591856956481934
1702070367274067200,11.534067138671874,-1.1966540813446045,-1.6236153841018677,9.600417137145996
1702070367291057700,11.5510576171875,-1.158652424812317,-1.6630914211273193,9.598322868347168
1702070367308048100,11.568048095703125,-1.1464571952819824,-1.7478305101394653,9.58471965789795
1702070367325038000,11.5850380859375,-1.1203590631484985,-1.8941771984100342,9.559968948364258
1702070367342029300,11.602029296875,-1.0258270502090454,-2.099156141281128,9.527714729309082
1702070367359019300,11.619019287109374,-0.8763687610626221,-2.3262791633605957,9.489812850952148
1702070367375991300,11.6359912109375,-0.7581652402877808,-2.574923276901245,9.435629844665527
1702070367392989400,11.652989501953124,-0.7102592587471008,-2.899818181991577,9.3446626663208
1702070367409990700,11.66999072265625,-0.6921530961990356,-3.36027193069458,9.190519332885742
1702070367426981400,11.6869814453125,-0.6478405594825745,-3.9221882820129395,8.968438148498535
1702070367443972400,11.703972412109374,-0.5358833074569702,-4.474823951721191,8.71349048614502
1702070367460962300,11.72096240234375,-0.35440969467163086,-4.932784557342529,8.472198486328125
1702070367477953000,11.737953125,-0.15191008150577545,-5.281403064727783,8.265580177307129
1702070367494940400,11.7549404296875,0.01992906630039215,-5.562803268432617,8.080281257629395
1702070367511936800,11.771936767578126,0.1360764056444168,-5.818233489990234,7.897199630737305
1702070367528924200,11.788924072265624,0.19862933456897736,-6.058651447296143,7.712939739227295
1702070367545915100,11.8059150390625,0.23092643916606903,-6.263500213623047,7.54661226272583
1702070367562905000,11.822905029296875,0.2547982931137085,-6.4104695320129395,7.421393394470215
1702070367579898600,11.839898681640625,0.2920011878013611,-6.5007710456848145,7.341037273406982
1702070367596883500,11.856883544921875,0.34455305337905884,-6.550016403198242,7.294841766357422
1702070367613885000,11.873885009765624,0.4015248119831085,-6.578091621398926,7.266610145568848
1702070367630867000,11.890866943359375,0.45264291763305664,-6.602406024932861,7.241508960723877
1702070367647854300,11.907854248046876,0.49347811937332153,-6.628170013427734,7.21525764465332
1702070367664851200,11.924851318359375,0.5259681940078735,-6.6534504890441895,7.189650535583496
1702070367681838600,11.941838623046875,0.5524905920028687,-6.670321941375732,7.172008037567139
1702070367698829000,11.9588291015625,0.5769582390785217,-6.673974990844727,7.166680335998535
1702070367715820000,11.975820068359376,0.6106282472610474,-6.676538944244385,7.161499500274658
1702070367732809500,11.9928095703125,0.6617405414581299,-6.692887783050537,7.141671180725098
1702070367749798000,12.0097978515625,0.7318474650382996,-6.731181621551514,7.09871244430542
1702070367766790700,12.026790771484375,0.8102469444274902,-6.7716450691223145,7.051555156707764
1702070367783781600,12.04378173828125,0.855459988117218,-6.77600622177124,7.042019844055176
1702070367800769000,12.06076904296875,0.844189465045929,-6.748270511627197,7.069958209991455
1702070367817765000,12.07776513671875,0.7878784537315369,-6.732072353363037,7.0918660163879395
1702070367834752500,12.09475244140625,0.665781557559967,-6.735106468200684,7.101492881774902
1702070367851743500,12.111743408203125,0.4616605043411255,-6.743768215179443,7.109471321105957
1702070367868731600,12.128731689453126,0.2226795256137848,-6.760352611541748,7.105221748352051
1702070367885726500,12.1457265625,0.021486179903149605,-6.760237693786621,7.108786582946777
1702070367902714600,12.162714599609375,-0.12813062965869904,-6.680233478546143,7.182907581329346
1702070367919705300,12.179705322265624,-0.24303719401359558,-6.483017444610596,7.358499526977539
1702070367936692700,12.196692626953125,-0.2909112572669983,-6.189027786254883,7.60575008392334
1702070367953689000,12.213689208984375,-0.25176534056663513,-5.836655616760254,7.880748271942139
1702070367970676500,12.230676513671876,-0.16539902985095978,-5.460500717163086,8.148111343383789
1702070367987667000,12.2476669921875,-0.07897132635116577,-5.078287124633789,8.39290714263916
1702070368004657200,12.2646572265625,-0.02077457308769226,-4.696130275726318,8.612900733947754
1702070368021649700,12.281649658203126,0.005204606801271439,-4.33010721206665,8.802627563476562
1702070368038638000,12.29863818359375,0.027829531580209732,-3.996725082397461,8.958880424499512
1702070368055629300,12.31562939453125,0.06460325419902802,-3.7011141777038574,9.08480453491211
1702070368072608500,12.3326083984375,0.1077285185456276,-3.4422056674957275,9.185626983642578
1702070368089591300,12.34959130859375,0.1368459016084671,-3.2115185260772705,9.268417358398438
1702070368106600000,12.366599853515625,0.13216637074947357,-3.001319169998169,9.338668823242188
1702070368123591200,12.383591064453125,0.09441499412059784,-2.807297706604004,9.399271965026855
1702070368140581000,12.4005810546875,0.0296857301145792,-2.6359474658966064,9.449180603027344
1702070368157572000,12.417572021484375,-0.05729832872748375,-2.4937872886657715,9.487564086914062
1702070368174551600,12.434551513671876,-0.16464151442050934,-2.3748726844787598,9.516775131225586
1702070368191553300,12.45155322265625,-0.28422030806541443,-2.274535894393921,9.53843879699707
1702070368208543000,12.46854296875,-0.40304887294769287,-2.192913293838501,9.55325984954834
1702070368225533700,12.48553369140625,-0.5115787386894226,-2.139972448348999,9.560067176818848
1702070368242521900,12.50252197265625,-0.5998518466949463,-2.127676486968994,9.557682991027832
1702070368259517000,12.519516845703125,-0.6558514833450317,-2.1638295650482178,9.545877456665039
1702070368276504800,12.5365048828125,-0.6847516894340515,-2.241766929626465,9.525843620300293
1702070368293495800,12.553495849609375,-0.7071146368980408,-2.3375191688537598,9.501164436340332
1702070368310486000,12.570486083984376,-0.7280035018920898,-2.4314393997192383,9.475981712341309
1702070368327476700,12.587476806640625,-0.7222393155097961,-2.542836904525757,9.44714069366455
1702070368344467000,12.604467041015624,-0.669389545917511,-2.6839332580566406,9.411935806274414
1702070368361457700,12.621457763671875,-0.5834758281707764,-2.8301753997802734,9.374740600585938
1702070368378448000,12.63844775390625,-0.5090577602386475,-2.9840927124023438,9.331245422363281
1702070368395428000,12.655427978515625,-0.47006410360336304,-3.216135025024414,9.255897521972656
1702070368412428800,12.6724287109375,-0.4358842074871063,-3.5865988731384277,9.120440483093262
1702070368429419800,12.689419677734374,-0.40145522356033325,-4.070491313934326,8.91661548614502
1702070368446409500,12.706409423828125,-0.3695838153362274,-4.601633548736572,8.65589427947998
1702070368463395800,12.723395751953126,-0.2922877073287964,-5.123071193695068,8.360910415649414
1702070368480390400,12.740390380859376,-0.1269763857126236,-5.569063663482666,8.074995040893555
1702070368497381400,12.75738134765625,0.10552587360143661,-5.895182132720947,7.840394496917725
1702070368514384000,12.7743837890625,0.34353914856910706,-6.113530158996582,7.6643877029418945
1702070368531362600,12.791362548828126,0.5535617470741272,-6.262599945068359,7.530574798583984
1702070368548339500,12.80833935546875,0.7352897524833679,-6.386253833770752,7.410211563110352
1702070368565337300,12.82533740234375,0.8932850360870361,-6.509808540344238,7.284266471862793
1702070368582333400,12.84233349609375,1.0272190570831299,-6.631129264831543,7.156052112579346
1702070368599324400,12.859324462890624,1.1442393064498901,-6.722465991973877,7.05232572555542
1702070368616321800,12.87632177734375,1.2401658296585083,-6.769309997558594,6.991033554077148
1702070368633305300,12.893305419921875,1.3107043504714966,-6.793944358825684,6.954172611236572
1702070368650292500,12.91029248046875,1.3617212772369385,-6.822871685028076,6.915942192077637
1702070368667288600,12.92728857421875,1.4001989364624023,-6.875476837158203,6.855901718139648
1702070368684262000,12.944261962890625,1.4213494062423706,-6.944095134735107,6.781991958618164
1702070368701271300,12.961271240234375,1.417179822921753,-7.003849029541016,6.7211480140686035
1702070368718257400,12.97825732421875,1.3892885446548462,-7.033149242401123,6.696328639984131
1702070368735248100,12.995248046875,1.3488556146621704,-7.023629188537598,6.714562892913818
1702070368752227600,13.0122275390625,1.3088501691818237,-6.967867374420166,6.78025484085083
1702070368769229000,13.02922900390625,1.2725062370300293,-6.853594779968262,6.902542591094971
1702070368786219000,13.046218994140625,1.2282614707946777,-6.681610107421875,7.076975345611572
1702070368803210000,13.0632099609375,1.1443814039230347,-6.477397441864014,7.27803897857666
1702070368820200000,13.080199951171876,1.0243802070617676,-6.292229175567627,7.456180095672607
1702070368837191000,13.09719091796875,0.9419771432876587,-6.1519036293029785,7.583065986633301
1702070368854170400,13.11417041015625,0.8984861373901367,-5.973780155181885,7.729347229003906
1702070368871169000,13.1311689453125,0.8327364921569824,-5.684538841247559,7.951646327972412
1702070368888164000,13.1481640625,0.7518449425697327,-5.288239479064941,8.228327751159668
1702070368905152500,13.165152587890624,0.6802773475646973,-4.8223466873168945,8.515768051147461
1702070368922143000,13.18214306640625,0.6077420711517334,-4.329705715179443,8.781822204589844
1702070368939133400,13.199133544921875,0.48438045382499695,-3.841222047805786,9.01368522644043
1702070368956123600,13.21612353515625,0.28188666701316833,-3.3724019527435303,9.207799911499023
1702070368973101600,13.2331015625,0.009002958424389362,-2.926217555999756,9.36340045928955
1702070368990107100,13.250107177734375,-0.29427048563957214,-2.5029518604278564,9.480756759643555
1702070369007095600,13.267095458984375,-0.5651930570602417,-2.1095223426818848,9.56381607055664
1702070369024085500,13.28408544921875,-0.7595615386962891,-1.7557145357131958,9.621675491333008
1702070369041076500,13.301076416015626,-0.8646476864814758,-1.4422053098678589,9.664810180664062
1702070369058066400,13.31806640625,-0.9109880328178406,-1.164293885231018,9.69797134399414
1702070369075057400,13.335057373046874,-0.9370788931846619,-0.925270140171051,9.721208572387695
1702070369092047600,13.352047607421875,-0.9700800180435181,-0.72640460729599,9.734854698181152
1702070369109038000,13.3690380859375,-1.0261653661727905,-0.5789550542831421,9.738990783691406
1702070369126028300,13.3860283203125,-1.1140408515930176,-0.4943338632583618,9.733997344970703
1702070369143019300,13.403019287109375,-1.2281678915023804,-0.4761349856853485,9.721161842346191
1702070369160009200,13.42000927734375,-1.3492690324783325,-0.5139039158821106,9.703170776367188
1702070369177000200,13.437000244140625,-1.4634803533554077,-0.5932763814926147,9.682064056396484
1702070369193990100,13.453990234375,-1.554137945175171,-0.6991492509841919,9.660847663879395
1702070369210981000,13.470981201171876,-1.5960958003997803,-0.8220188617706299,9.644318580627441
1702070369227971000,13.48797119140625,-1.572810411453247,-0.9644640684127808,9.6349458694458
1702070369244959500,13.50495947265625,-1.4879796504974365,-1.1369887590408325,9.629605293273926
1702070369261942300,13.5219423828125,-1.36170494556427,-1.3398699760437012,9.622194290161133
1702070369278933200,13.538933349609374,-1.2249513864517212,-1.5718705654144287,9.605459213256836
1702070369295925500,13.555925537109376,-1.1023657321929932,-1.8325753211975098,9.574058532714844
1702070369312910600,13.57291064453125,-1.0097931623458862,-2.125148057937622,9.523663520812988
1702070369329908200,13.589908203125,-0.9446855783462524,-2.4583873748779297,9.449870109558105
1702070369346894800,13.606894775390625,-0.8876962661743164,-2.8270974159240723,9.351773262023926
1702070369363897000,13.62389697265625,-0.8291966319084167,-3.2142739295959473,9.231305122375488
1702070369380885800,13.6408857421875,-0.7831579446792603,-3.601248264312744,9.091414451599121
1702070369397875700,13.657875732421875,-0.7787298560142517,-3.979192018508911,8.932845115661621
1702070369414856200,13.674856201171876,-0.8285773992538452,-4.363631725311279,8.746901512145996
1702070369431846100,13.69184619140625,-0.9064143300056458,-4.785345554351807,8.51557445526123
1702070369448845000,13.708844970703124,-0.9538305997848511,-5.245645999908447,8.234652519226074
1702070369465835800,13.725835693359375,-0.9276795387268066,-5.7086005210876465,7.923851013183594
1702070369482833000,13.7428330078125,-0.8200334310531616,-6.112421989440918,7.629021167755127
1702070369499817700,13.759817626953126,-0.6636964082717896,-6.393896579742432,7.4103803634643555
1702070369516809500,13.7768095703125,-0.49505630135536194,-6.538961410522461,7.296097755432129
1702070369533799200,13.793799072265625,-0.3290088176727295,-6.593838691711426,7.255975246429443
1702070369550790100,13.8107900390625,-0.1722952276468277,-6.616208553314209,7.241009712219238
1702070369567780000,13.827780029296875,-0.04673796519637108,-6.643073081970215,7.218277931213379
1702070369584771300,13.844771240234374,0.03244561702013016,-6.678441047668457,7.185643672943115
1702070369601761000,13.861760986328125,0.07252302020788193,-6.711465358734131,7.154514312744141
1702070369618752300,13.878752197265625,0.09018512070178986,-6.7312493324279785,7.135703086853027
1702070369635742200,13.8957421875,0.1005001962184906,-6.731034278869629,7.135767459869385
1702070369652722700,13.91272265625,0.1044897511601448,-6.713351249694824,7.152351379394531
1702070369669723000,13.929722900390624,0.10468621551990509,-6.69008731842041,7.174112319946289
1702070369686713900,13.9467138671875,0.09879865497350693,-6.672761917114258,7.190311908721924
1702070369703703800,13.963703857421875,0.08403092622756958,-6.665881156921387,7.196880340576172
1702070369720695000,13.980695068359376,0.0680621787905693,-6.669166088104248,7.194004058837891
1702070369737685000,13.99768505859375,0.06299848854541779,-6.6786208152771,7.185275077819824
1702070369754673400,14.01467333984375,0.08357425779104233,-6.690080165863037,7.174398422241211
1702070369771658000,14.031657958984376,0.13592788577079773,-6.701539039611816,7.162891387939453
1702070369788647700,14.048647705078125,0.2166060209274292,-6.708645343780518,7.15424919128418
1702070369805639200,14.06563916015625,0.32065489888191223,-6.700461387634277,7.158011436462402
1702070369822627000,14.082626953125,0.43433353304862976,-6.672810077667236,7.177818775177002
1702070369839620900,14.099620849609375,0.5446751713752747,-6.631178855895996,7.208808898925781
1702070369856610300,14.1166103515625,0.6473090052604675,-6.5796613693237305,7.247425079345703
1702070369873598000,14.133597900390624,0.754321813583374,-6.522540092468262,7.288591384887695
1702070369890589200,14.150589111328125,0.8799521923065186,-6.4672088623046875,7.323731422424316
1702070369907581000,14.167580810546875,1.0004913806915283,-6.389876365661621,7.375948429107666
1702070369924571400,14.1845712890625,1.0785101652145386,-6.258705139160156,7.4767351150512695
1702070369941560600,14.201560546875,1.1104085445404053,-6.068374156951904,7.627448558807373
1702070369958554400,14.218554443359375,1.1087981462478638,-5.839580535888672,7.804230690002441
1702070369975541200,14.235541259765625,1.0622023344039917,-5.598855495452881,7.985026836395264
1702070369992534300,14.2525341796875,0.9650104641914368,-5.369546890258789,8.15308666229248
1702070370009525200,14.269525146484375,0.8247328400611877,-5.153398036956787,8.306529998779297
1702070370026516700,14.286516845703124,0.6735899448394775,-4.952042102813721,8.441545486450195
1702070370043506400,14.30350634765625,0.5354353785514832,-4.76597261428833,8.557741165161133
1702070370060506000,14.320506103515624,0.4086548984050751,-4.58710241317749,8.661849021911621
1702070370077494300,14.337494384765625,0.2828105390071869,-4.409972667694092,8.758325576782227
1702070370094475300,14.354475341796874,0.14498814940452576,-4.233516693115234,8.848301887512207
1702070370111474700,14.371474609375,-0.012332947924733162,-4.05878210067749,8.930971145629883
1702070370128467700,14.3884677734375,-0.18476267158985138,-3.8890037536621094,9.004311561584473
1702070370145453600,14.40545361328125,-0.36343780159950256,-3.7264106273651123,9.06740951538086
1702070370162449000,14.422448974609376,-0.5341185927391052,-3.568497896194458,9.122314453125
1702070370179436800,14.439436767578124,-0.6866666078567505,-3.410710334777832,9.172332763671875
1702070370196425500,14.456425537109375,-0.8132471442222595,-3.251035451889038,9.219843864440918
1702070370213410600,14.47341064453125,-0.91185462474823,-3.088456869125366,9.26639461517334
1702070370230398500,14.4903984375,-0.9861288666725159,-2.9247355461120605,9.311799049377441
1702070370247398700,14.507398681640625,-1.0428789854049683,-2.775076389312744,9.351334571838379
1702070370264390000,14.524389892578125,-1.0887486934661865,-2.656743049621582,9.3804292678833
1702070370281379800,14.5413798828125,-1.1329787969589233,-2.57983660697937,9.396645545959473
1702070370298369000,14.558369140625,-1.181949257850647,-2.543065309524536,9.400636672973633
1702070370315362300,14.5753623046875,-1.2332836389541626,-2.5364325046539307,9.395832061767578
1702070370332351500,14.5923515625,-1.2840012311935425,-2.544276237487793,9.386911392211914
1702070370349338600,14.609338623046876,-1.3336715698242188,-2.561323881149292,9.375343322753906
1702070370366319000,14.626319091796875,-1.363191843032837,-2.6022582054138184,9.359811782836914
1702070370383326500,14.643326416015626,-1.3535526990890503,-2.688663959503174,9.336760520935059
1702070370400313300,14.660313232421874,-1.2945069074630737,-2.8383219242095947,9.300768852233887
1702070370417301000,14.677301025390625,-1.1934583187103271,-3.0364105701446533,9.251594543457031
1702070370434298400,14.69429833984375,-1.0701370239257812,-3.239328384399414,9.197698593139648
1702070370451284200,14.7112841796875,-0.9609636068344116,-3.4180712699890137,9.144914627075195
1702070370468275200,14.728275146484375,-0.887488067150116,-3.576002359390259,9.091791152954102
1702070370485265400,14.745265380859376,-0.8345392346382141,-3.749387502670288,9.026725769042969
1702070370502256400,14.76225634765625,-0.7811909914016724,-3.972071647644043,8.935799598693848
1702070370519246000,14.77924609375,-0.7145479321479797,-4.254140853881836,8.81066608428955
1702070370536237000,14.796237060546876,-0.6380897164344788,-4.579493045806885,8.652005195617676
1702070370553227000,14.81322705078125,-0.5576595067977905,-4.922730922698975,8.4671049118042
1702070370570215200,14.830215087890625,-0.4744027554988861,-5.259361267089844,8.267416000366211
1702070370587210500,14.84721044921875,-0.38966724276542664,-5.576591968536377,8.061383247375488
1702070370604199000,14.864198974609375,-0.30424994230270386,-5.867722511291504,7.855785369873047
1702070370621175600,14.881175537109375,-0.22039619088172913,-6.1299638748168945,7.655790328979492
1702070370638179800,14.898179931640625,-0.13967332243919373,-6.361390113830566,7.466545104980469
1702070370655169800,14.915169677734376,-0.062470193952322006,-6.562509536743164,7.291481018066406
1702070370672160800,14.932160888671875,0.015245446003973484,-6.736841201782227,7.130978107452393
1702070370689150500,14.949150390625,0.10279113054275513,-6.886578559875488,6.985743522644043
1702070370706144500,14.96614453125,0.20611640810966492,-7.0117902755737305,6.857728481292725
1702070370723131400,14.98313134765625,0.31895655393600464,-7.103255271911621,6.758561134338379
1702070370740122600,15.00012255859375,0.42612433433532715,-7.155527114868164,6.697235107421875
1702070370757112600,15.017112548828125,0.5227089524269104,-7.175717353820801,6.668731689453125
1702070370774103600,15.034103515625,0.6036013960838318,-7.170172691345215,6.667862892150879
1702070370791090700,15.051090576171875,0.6638891100883484,-7.1491217613220215,6.684717178344727
1702070370808087300,15.06808740234375,0.7007563710212708,-7.123229503631592,6.708550453186035
1702070370825074400,15.085074462890624,0.7209804058074951,-7.098756790161133,6.732307434082031
1702070370842065200,15.102065185546875,0.7331432104110718,-7.077059745788574,6.75380277633667
1702070370859055000,15.11905517578125,0.7320848703384399,-7.055109024047852,6.776843070983887
1702070370876035600,15.13603564453125,0.6999924182891846,-7.027156352996826,6.809200286865234
1702070370893025500,15.153025634765624,0.6237877011299133,-6.991356372833252,6.853316307067871
1702070370910023700,15.170023681640625,0.5215204954147339,-6.955784797668457,6.897911071777344
1702070370927014400,15.187014404296875,0.4276762008666992,-6.924267292022705,6.935975074768066
1702070370944008000,15.204008056640625,0.34791576862335205,-6.877453327178955,6.986824989318848
1702070370960997600,15.22099755859375,0.24293427169322968,-6.780135631561279,7.085679531097412
1702070370977989000,15.237989013671875,0.10602814704179764,-6.632464408874512,7.227397918701172
1702070370994978600,15.254978515625,-0.016838520765304565,-6.471122741699219,7.372951507568359
1702070371011959300,15.271959228515625,-0.10068204253911972,-6.315035820007324,7.506415843963623
1702070371028959700,15.288959716796874,-0.1836288869380951,-6.142534255981445,7.6466779708862305
1702070371045940000,15.30593994140625,-0.30321088433265686,-5.9294047355651855,7.809376239776611
1702070371062940700,15.322940673828125,-0.444765567779541,-5.668154716491699,7.9943928718566895
1702070371079931600,15.339931640625,-0.5664694905281067,-5.3614091873168945,8.195762634277344
1702070371096921600,15.356921630859375,-0.636680543422699,-5.013526916503906,8.408050537109375
1702070371113912600,15.37391259765625,-0.6538152098655701,-4.631278991699219,8.623217582702637
1702070371130893800,15.390893798828126,-0.6346796154975891,-4.222135066986084,8.832148551940918
1702070371147893200,15.407893310546875,-0.5978883504867554,-3.7964699268341064,9.025823593139648
1702070371164883500,15.424883544921874,-0.5504750609397888,-3.3727805614471436,9.195513725280762
1702070371181874400,15.44187451171875,-0.48236316442489624,-2.9808125495910645,9.333714485168457
1702070371198864400,15.458864501953125,-0.384082555770874,-2.6363558769226074,9.441304206848145
1702070371215855000,15.475855224609376,-0.26806503534317017,-2.3369884490966797,9.523798942565918
1702070371232845000,15.492844970703125,-0.1519574522972107,-2.0695040225982666,9.588024139404297
1702070371249831000,15.509830810546875,-0.058743469417095184,-1.8234882354736328,9.63885498046875
1702070371266826000,15.526825927734375,-0.0030768050346523523,-1.5948635339736938,9.679490089416504
1702070371283817000,15.54381689453125,0.014619208872318268,-1.3952118158340454,9.710267066955566
1702070371300804400,15.560804443359375,-0.00331595609895885,-1.2418487071990967,9.731081008911133
1702070371317800700,15.57780078125,-0.04792144149541855,-1.149396300315857,9.742315292358398
1702070371334787800,15.594787841796874,-0.10273967683315277,-1.12191903591156,9.745092391967773
1702070371351778800,15.61177880859375,-0.16709764301776886,-1.1461397409439087,9.741384506225586
1702070371368752000,15.628752197265625,-0.24165724217891693,-1.2041826248168945,9.732813835144043
1702070371385762600,15.645762451171874,-0.3113531470298767,-1.2861247062683105,9.720341682434082
1702070371402750000,15.66275,-0.36645612120628357,-1.387078046798706,9.704526901245117
1702070371419740700,15.67974072265625,-0.3942900598049164,-1.5180039405822754,9.683818817138672
1702070371436730600,15.696730712890625,-0.3914588391780853,-1.6913905143737793,9.655158996582031
1702070371453719000,15.713718994140624,-0.373099148273468,-1.8862205743789673,9.61972427368164
1702070371470714400,15.73071435546875,-0.37366750836372375,-2.0623843669891357,9.583478927612305
1702070371487702300,15.747702392578125,-0.4079315960407257,-2.2478723526000977,9.540270805358887
1702070371504692500,15.7646923828125,-0.4285196363925934,-2.5405943393707275,9.465616226196289
1702070371521683700,15.78168359375,-0.3989233672618866,-2.980801820755005,9.337655067443848
1702070371538673400,15.79867333984375,-0.3269330561161041,-3.498843193054199,9.159003257751465
1702070371555664400,15.815664306640626,-0.22576627135276794,-4.009215354919434,8.950493812561035
1702070371572645000,15.83264501953125,-0.11157248169183731,-4.481061935424805,8.72603988647461
1702070371589643800,15.849643798828126,-0.016901962459087372,-4.909759998321533,8.492942810058594
1702070371606635000,15.866635009765625,0.039790887385606766,-5.297299385070801,8.256704330444336
1702070371623626000,15.8836259765625,0.058332409709692,-5.659969806671143,8.01233196258545
1702070371640616000,15.900615966796876,0.06068796291947365,-6.01295280456543,7.7509236335754395
1702070371657607200,15.917607177734375,0.07903330773115158,-6.347536087036133,7.479215145111084
1702070371674596900,15.934596923828124,0.14203648269176483,-6.641603469848633,7.218380928039551
1702070371691587600,15.951587646484375,0.2574818730354309,-6.884891510009766,6.9834160804748535
1702070371708577500,15.96857763671875,0.410129576921463,-7.081813335418701,6.776123523712158
1702070371725568500,15.985568603515626,0.5709759593009949,-7.242274284362793,6.59238862991333
1702070371742545700,16.002545654296874,0.7160687446594238,-7.367691993713379,6.4374260902404785
1702070371759542300,16.019542236328125,0.8387913107872009,-7.449201583862305,6.327870845794678
1702070371776539400,16.036539306640623,0.9361921548843384,-7.488874912261963,6.267090797424316
1702070371793530600,16.053530517578125,1.0203958749771118,-7.49761438369751,6.24345064163208
1702070371810520300,16.070520263671874,1.0950045585632324,-7.492306709289551,6.237180233001709
1702070371827511600,16.087511474609375,1.1572877168655396,-7.491098880767822,6.227380275726318
1702070371844501200,16.104501220703124,1.207268476486206,-7.509300708770752,6.195888519287109
1702070371861492200,16.1214921875,1.2426667213439941,-7.545756816864014,6.144381999969482
1702070371878482200,16.138482177734375,1.2548589706420898,-7.578453063964844,6.101515769958496
1702070371895473200,16.15547314453125,1.2383774518966675,-7.593364238739014,6.086325645446777
1702070371912458800,16.172458740234376,1.1871482133865356,-7.579513072967529,6.113738059997559
1702070371929454300,16.189454345703126,1.1134557723999023,-7.538515090942383,6.177954196929932
1702070371946444300,16.2064443359375,1.0197579860687256,-7.473390579223633,6.2725324630737305
1702070371963435000,16.22343505859375,0.8629335761070251,-7.36640739440918,6.4208664894104
1702070371980425000,16.240425048828126,0.6216943860054016,-7.217175483703613,6.615286827087402
1702070371997425700,16.25742578125,0.3928358554840088,-7.076533317565918,6.782658100128174
1702070372014397000,16.27439697265625,0.2558683156967163,-6.961966037750244,6.906641483306885
1702070372031381200,16.29138134765625,0.1657077670097351,-6.826942443847656,7.042834281921387
1702070372048386800,16.30838671875,0.06689595431089401,-6.63660192489624,7.224068641662598
1702070372065377800,16.325377685546876,-0.04752792418003082,-6.394312858581543,7.439530372619629
1702070372082367500,16.342367431640625,-0.1426650583744049,-6.14013147354126,7.649480819702148
1702070372099356200,16.359356201171874,-0.19374457001686096,-5.905696392059326,7.830794334411621
1702070372116351200,16.376351318359376,-0.2265264093875885,-5.6858439445495605,7.990993499755859
1702070372133339400,16.39333935546875,-0.25323355197906494,-5.463652610778809,8.143738746643066
1702070372150330600,16.41033056640625,-0.28206968307495117,-5.220634460449219,8.300695419311523
1702070372167319000,16.427319091796875,-0.31801193952560425,-4.959495544433594,8.458036422729492
1702070372184310500,16.444310546875,-0.3472655713558197,-4.703525543212891,8.60188102722168
1702070372201301200,16.46130126953125,-0.3432543873786926,-4.475526809692383,8.722841262817383
1702070372218291500,16.47829150390625,-0.2976537048816681,-4.286271572113037,8.819034576416016
1702070372235282400,16.495282470703124,-0.2331448644399643,-4.1260552406311035,8.897046089172363
1702070372252272000,16.512272216796877,-0.18197938799858093,-3.97991681098938,8.964556694030762
1702070372269262800,16.529262939453126,-0.16158488392829895,-3.8470282554626465,9.0227689743042
1702070372286243300,16.546243408203125,-0.19055141508579254,-3.737842321395874,9.067983627319336
1702070372303244000,16.563244140625,-0.27751997113227844,-3.6603033542633057,9.097321510314941
1702070372320231400,16.5802314453125,-0.41899511218070984,-3.6024677753448486,9.11497688293457
1702070372337227500,16.5972275390625,-0.5781657099723816,-3.557891368865967,9.123772621154785
1702070372354215000,16.61421484375,-0.7052519917488098,-3.520077705383301,9.129501342773438
1702070372371205600,16.63120556640625,-0.7807705402374268,-3.4723587036132812,9.141623497009277
1702070372388195600,16.648195556640626,-0.815688967704773,-3.4170761108398438,9.159387588500977
1702070372405186600,16.6651865234375,-0.8414085507392883,-3.385746717453003,9.168688774108887
1702070372422176500,16.682176513671877,-0.8708615303039551,-3.4048256874084473,9.158866882324219
1702070372439167700,16.699167724609374,-0.9095677733421326,-3.4908101558685303,9.12266731262207
1702070372456157700,16.71615771484375,-0.9630797505378723,-3.6343235969543457,9.060922622680664
1702070372473148400,16.7331484375,-1.020015835762024,-3.8080837726593018,8.982994079589844
1702070372490141000,16.750140869140626,-1.0731419324874878,-3.960476875305176,8.910618782043457
1702070372507127000,16.767126953125,-1.1352152824401855,-4.080596446990967,8.848508834838867
1702070372524119000,16.784119140625,-1.2418638467788696,-4.251034736633301,8.753433227539062
1702070372541110000,16.801110107421874,-1.3712294101715088,-4.560856342315674,8.576388359069824
1702070372558100200,16.818100341796875,-1.452979326248169,-4.974917888641357,8.329174995422363
1702070372575091000,16.835091064453124,-1.4238812923431396,-5.381391525268555,8.077704429626465
1702070372592081000,16.852080810546877,-1.2404184341430664,-5.708197116851807,7.8812408447265625
1702070372609059600,16.8690595703125,-0.9419513940811157,-5.952864170074463,7.740302562713623
1702070372626065200,16.886065185546876,-0.5984566807746887,-6.1463212966918945,7.622379779815674
1702070372643048000,16.9030478515625,-0.27413561940193176,-6.317911148071289,7.499663829803467
1702070372660041000,16.920041015625,0.01073607336729765,-6.480515956878662,7.364706993103027
1702070372677035300,16.93703515625,0.25801804661750793,-6.638687610626221,7.2178497314453125
1702070372694024200,16.954024169921876,0.46834269165992737,-6.7995734214782715,7.05567741394043
1702070372711014700,16.9710146484375,0.6414863467216492,-6.964756488800049,6.878720283508301
1702070372728004600,16.988004638671875,0.7783585786819458,-7.117493152618408,6.70608377456665
1702070372744995800,17.004995849609376,0.8827033042907715,-7.241300582885742,6.5590033531188965
1702070372761985300,17.0219853515625,0.9548734426498413,-7.334737300872803,6.444063663482666
1702070372778964000,17.0389638671875,0.9994014501571655,-7.4107747077941895,6.34962272644043
1702070372795956000,17.0559560546875,1.0244067907333374,-7.482418537139893,6.261000156402588
1702070372812958700,17.072958740234377,1.0439612865447998,-7.552840232849121,6.172591209411621
1702070372829937400,17.0899375,1.0705524682998657,-7.617575168609619,6.0879058837890625
1702070372846930000,17.106929931640625,1.1056991815567017,-7.667720794677734,6.0182719230651855
1702070372863929600,17.1239296875,1.1439162492752075,-7.707491874694824,5.960045337677002
1702070372880917800,17.140917724609373,1.167324185371399,-7.741684436798096,5.910987377166748
1702070372897911600,17.15791162109375,1.1549441814422607,-7.771721839904785,5.873886585235596
1702070372914900000,17.17489990234375,1.1132014989852905,-7.799300193786621,5.84532356262207
1702070372931889700,17.1918896484375,1.0547497272491455,-7.814715385437012,5.835568904876709
1702070372948883000,17.208883056640627,0.9855508804321289,-7.801719665527344,5.864977836608887
1702070372965868800,17.225868896484375,0.8936042785644531,-7.754341125488281,5.9420366287231445
1702070372982861800,17.24286181640625,0.7229684591293335,-7.6647210121154785,6.079925537109375
1702070372999853300,17.259853271484374,0.45387551188468933,-7.533838748931885,6.266688823699951
1702070373016841200,17.27684130859375,0.19898952543735504,-7.4106526374816895,6.424854278564453
1702070373033832700,17.293832763671876,0.051237691193819046,-7.326398849487305,6.523602485656738
1702070373050823700,17.31082373046875,-0.05213962495326996,-7.212359428405762,6.649457931518555
1702070373067811000,17.32781103515625,-0.17357899248600006,-7.019881248474121,6.850347518920898
1702070373084804600,17.3448046875,-0.2995949685573578,-6.750934600830078,7.111345291137695
1702070373101794300,17.361794189453125,-0.3858168423175812,-6.432824611663818,7.396353244781494
1702070373118785300,17.378785400390626,-0.4101202189922333,-6.109028339385986,7.6647047996521
1702070373135765000,17.395764892578125,-0.37831488251686096,-5.817817211151123,7.889613151550293
1702070373152755500,17.41275537109375,-0.3267470896244049,-5.55811071395874,8.07692813873291
1702070373169756200,17.429756103515626,-0.295170396566391,-5.309688568115234,8.243555068969727
1702070373186747100,17.4467470703125,-0.3014146387577057,-5.058985233306885,8.399519920349121
1702070373203736800,17.46373681640625,-0.3455955982208252,-4.805717468261719,8.54527759552002
1702070373220728000,17.48072802734375,-0.4042975604534149,-4.56240701675415,8.675085067749023
1702070373237718000,17.497718017578126,-0.44396740198135376,-4.338436126708984,8.78731918334961
1702070373254696000,17.514696044921877,-0.4557758569717407,-4.1327948570251465,8.885290145874023
1702070373271692300,17.5316923828125,-0.44807273149490356,-3.9374520778656006,8.973953247070312
1702070373288680000,17.548679931640624,-0.4272432029247284,-3.745102643966675,9.05691909790039
1702070373305669600,17.565669677734373,-0.3911430835723877,-3.563319206237793,9.131587982177734
1702070373322660600,17.58266064453125,-0.33716100454330444,-3.410001039505005,9.192079544067383
1702070373339652900,17.59965283203125,-0.2723603844642639,-3.295546531677246,9.235871315002441
1702070373356643600,17.6166435546875,-0.21554240584373474,-3.227907180786133,9.261224746704102
1702070373373630200,17.633630126953125,-0.19838960468769073,-3.2019903659820557,9.270601272583008
1702070373390626600,17.65062646484375,-0.24273313581943512,-3.2246437072753906,9.261688232421875
1702070373407612700,17.66761279296875,-0.32715699076652527,-3.3078017234802246,9.22970962524414
1702070373424604000,17.68460400390625,-0.4196622967720032,-3.431666135787964,9.180612564086914
1702070373441593600,17.701593505859375,-0.504621148109436,-3.5541062355041504,9.129611015319824
1702070373458584000,17.718583984375,-0.5738574862480164,-3.6540029048919678,9.085981369018555
1702070373475575300,17.7355751953125,-0.6165643334388733,-3.7434887886047363,9.046670913696289
1702070373492566800,17.75256689453125,-0.6157340407371521,-3.836033821105957,9.007877349853516
1702070373509558300,17.769558349609376,-0.5780633687973022,-3.9298179149627686,8.969866752624512
1702070373526549000,17.786549072265625,-0.5259523987770081,-4.055959701538086,8.916765213012695
1702070373543539700,17.803539794921875,-0.4760265350341797,-4.28555154800415,8.811559677124023
1702070373560536600,17.82053662109375,-0.4282395541667938,-4.65252161026001,8.625936508178711
1702070373577526500,17.837526611328126,-0.34805727005004883,-5.108712673187256,8.367558479309082
1702070373594508800,17.8545087890625,-0.1973637044429779,-5.561433792114258,8.078836441040039
1702070373611507700,17.8715078125,0.004980366211384535,-5.943640232086182,7.804437160491943
1702070373628495600,17.88849560546875,0.20220667123794556,-6.2325310707092285,7.573029041290283
1702070373645480400,17.90548046875,0.3425556421279907,-6.453278541564941,7.3806471824646
1702070373662479000,17.92247900390625,0.4096103310585022,-6.647230625152588,7.202960968017578
1702070373679469300,17.93946923828125,0.4199672043323517,-6.838303565979004,7.021206855773926
1702070373696460000,17.9564599609375,0.4088873267173767,-7.028949737548828,6.83101749420166
1702070373713451500,17.973451416015624,0.40874552726745605,-7.211912155151367,6.637573719024658
1702070373730441000,17.99044091796875,0.441975861787796,-7.367819309234619,6.461887359619141
1702070373747431200,18.00743115234375,0.5119979977607727,-7.4819416999816895,6.32412052154541
1702070373764422100,18.024422119140624,0.5975801944732666,-7.555654048919678,6.2282538414001465
1702070373781411800,18.041411865234377,0.6730063557624817,-7.605081558227539,6.160025596618652
1702070373798403000,18.058403076171874,0.7263367772102356,-7.648710250854492,6.099653244018555
1702070373815393000,18.07539306640625,0.7614662647247314,-7.698067665100098,6.032913684844971
1702070373832383700,18.0923837890625,0.7921463251113892,-7.75274658203125,5.9584856033325195
1702070373849374000,18.1093740234375,0.8249263763427734,-7.8055806159973145,5.884599685668945
1702070373866365700,18.12636572265625,0.8553804159164429,-7.849339962005615,5.8217082023620605
1702070373883341000,18.143341064453125,0.8691836595535278,-7.884968280792236,5.77130126953125
1702070373900348400,18.160348388671874,0.8623380661010742,-7.914575099945068,5.73166561126709
1702070373917336300,18.17733642578125,0.8383220434188843,-7.933481693267822,5.709044933319092
1702070373934316300,18.19431640625,0.7872712016105652,-7.9284820556640625,5.72324275970459
1702070373951316200,18.211316162109377,0.7117517590522766,-7.889139175415039,5.787143707275391
1702070373968294000,18.2282939453125,0.6444312930107117,-7.824110984802246,5.882525444030762
1702070373985300000,18.245300048828124,0.5952810645103455,-7.73237943649292,6.00766658782959
1702070374002288400,18.262288330078125,0.5165132284164429,-7.598832607269287,6.182804107666016
1702070374019278000,18.279278076171874,0.3705258071422577,-7.432089805603027,6.392406940460205
1702070374036269000,18.29626904296875,0.22401386499404907,-7.2881388664245605,6.562695503234863
1702070374053259000,18.313259033203124,0.12905624508857727,-7.1692376136779785,6.694888114929199
1702070374070247200,18.3302470703125,0.03586272895336151,-7.008172512054443,6.864425182342529
1702070374087242500,18.347242431640623,-0.0898272693157196,-6.77485466003418,7.0943217277526855
1702070374104231000,18.36423095703125,-0.22272396087646484,-6.466329097747803,7.373811721801758
1702070374121220900,18.381220947265625,-0.34248313307762146,-6.09438419342041,7.6796698570251465
1702070374138213000,18.398213134765626,-0.4314531981945038,-5.693826675415039,7.976861000061035
1702070374155200300,18.4152001953125,-0.47526052594184875,-5.300394058227539,8.241121292114258
1702070374172182500,18.4321826171875,-0.4724106192588806,-4.926052093505859,8.470357894897461
1702070374189182500,18.449182373046874,-0.444379061460495,-4.561803817749023,8.673442840576172
1702070374206173200,18.466173095703127,-0.41544994711875916,-4.195074558258057,8.858040809631348
1702070374223156500,18.483156494140626,-0.4031386375427246,-3.8235487937927246,9.025191307067871
1702070374240154400,18.500154296875,-0.4084385633468628,-3.455711603164673,9.17209529876709
1702070374257144300,18.517144287109375,-0.41825777292251587,-3.105774402618408,9.29598617553711
1702070374274135300,18.53413525390625,-0.4086560606956482,-2.7893009185791016,9.396218299865723
1702070374291125000,18.551125,-0.36049020290374756,-2.5116617679595947,9.476165771484375
1702070374308116200,18.5681162109375,-0.2823907136917114,-2.27195143699646,9.539109230041504
1702070374325103600,18.585103515625,-0.2161078304052353,-2.069002151489258,9.586898803710938
1702070374342099500,18.602099365234373,-0.20281361043453217,-1.9045501947402954,9.621209144592285
1702070374359087000,18.619087158203126,-0.2549070417881012,-1.791934847831726,9.641582489013672
1702070374376077800,18.636077880859375,-0.3583974838256836,-1.7412772178649902,9.647571563720703
1702070374393057500,18.6530576171875,-0.49517324566841125,-1.7461506128311157,9.640637397766113
1702070374410056200,18.67005615234375,-0.6460968852043152,-1.7828081846237183,9.624981880187988
1702070374427051500,18.687051513671875,-0.7795069813728333,-1.8430060148239136,9.603740692138672
1702070374444039700,18.704039794921876,-0.8739997148513794,-1.9339908361434937,9.577678680419922
1702070374461029400,18.721029296875,-0.924111545085907,-2.051076650619507,9.548572540283203
1702070374478020600,18.7380205078125,-0.9454147219657898,-2.1699326038360596,9.520174026489258
1702070374495019500,18.75501953125,-0.9302359223365784,-2.2728793621063232,9.497621536254883
1702070374512001500,18.77200146484375,-0.8740108609199524,-2.4122579097747803,9.468537330627441
1702070374528991500,18.788991455078126,-0.7748502492904663,-2.6496641635894775,9.413554191589355
1702070374545982200,18.805982177734375,-0.6308262944221497,-3.0185625553131104,9.312705039978027
1702070374562972400,18.822972412109376,-0.46801409125328064,-3.4748647212982178,9.162009239196777
1702070374579963100,18.839963134765625,-0.30713263154029846,-3.943006992340088,8.97744083404541
1702070374596953000,18.856953125,-0.1687418818473816,-4.386865615844727,8.772859573364258
1702070374613943800,18.87394384765625,-0.06806275993585587,-4.805290699005127,8.552230834960938
1702070374630923300,18.89092333984375,-0.009695853106677532,-5.1930832862854,8.322732925415039
1702070374647924700,18.9079248046875,0.024397509172558784,-5.539883136749268,8.096000671386719
1702070374664915000,18.9249150390625,0.04842810332775116,-5.83763313293457,7.883896350860596
1702070374681895700,18.941895751953126,0.06737805157899857,-6.076048374176025,7.7015061378479
1702070374698895400,18.958895263671874,0.08299216628074646,-6.253135681152344,7.558276176452637
1702070374715886600,18.975886474609375,0.09695882350206375,-6.386784553527832,7.445515155792236
1702070374732870400,18.992870361328126,0.1232549250125885,-6.495503902435303,7.350464344024658
1702070374749866800,19.00986669921875,0.16187256574630737,-6.581944465637207,7.272409915924072
1702070374766847500,19.026847412109376,0.20047296583652496,-6.647395610809326,7.211660861968994
1702070374783848200,19.04384814453125,0.23750601708889008,-6.702589511871338,7.1592607498168945
1702070374800838400,19.06083837890625,0.2756652534008026,-6.752971649169922,7.110379219055176
1702070374817826600,19.07782666015625,0.31510382890701294,-6.806619644165039,7.057390213012695
1702070374834822000,19.09482177734375,0.3509852886199951,-6.86395788192749,6.9999284744262695
1702070374851799600,19.111799560546874,0.38143405318260193,-6.918545722961426,6.9443769454956055
1702070374868797400,19.12879736328125,0.40928494930267334,-6.967042922973633,6.894120216369629
1702070374885791000,19.145791015625,0.430268257856369,-6.989322185516357,6.870253562927246
1702070374902783200,19.162783203125,0.45079198479652405,-6.984231948852539,6.874112129211426
1702070374919759000,19.179759033203126,0.4785560369491577,-6.974213123321533,6.882401943206787
1702070374936754000,19.19675390625,0.483874648809433,-6.941596031188965,6.914927005767822
1702070374953755100,19.213755126953124,0.4169044494628906,-6.874220371246338,6.986230373382568
1702070374970742800,19.23074267578125,0.30064308643341064,-6.843898296356201,7.021878242492676
1702070374987733500,19.2477333984375,0.21799969673156738,-6.88144063949585,6.988158226013184
1702070375004713200,19.264713134765625,0.16017775237560272,-6.9108967781066895,6.960601806640625
1702070375021714200,19.281714111328125,0.08524597436189651,-6.85382604598999,7.01811408996582
1702070375038687500,19.2986875,0.04643098637461662,-6.708522319793701,7.157491683959961
1702070375055695400,19.3156953125,0.08485888689756393,-6.513664245605469,7.334923267364502
1702070375072685300,19.332685302734376,0.16509994864463806,-6.309964179992676,7.509542465209961
1702070375089676300,19.34967626953125,0.23182924091815948,-6.118635654449463,7.664506435394287
1702070375106666000,19.366666015625,0.2524988651275635,-5.93809700012207,7.804574489593506
1702070375123657000,19.383656982421876,0.22302334010601044,-5.758512020111084,7.9388861656188965
1702070375140647000,19.40064697265625,0.1536952406167984,-5.576643943786621,8.069295883178711
1702070375157638100,19.41763818359375,0.0657794252038002,-5.3980817794799805,8.190999984741211
1702070375174627800,19.4346279296875,-0.017328225076198578,-5.230052947998047,8.299541473388672
1702070375191618000,19.4516181640625,-0.09017693251371384,-5.069221496582031,8.398270606994629
1702070375208608500,19.4686083984375,-0.16669125854969025,-4.898374080657959,8.497897148132324
1702070375225600000,19.48560009765625,-0.2672317922115326,-4.701904296875,8.605626106262207
1702070375242589400,19.50258935546875,-0.3988754451274872,-4.4955925941467285,8.7101469039917
1702070375259575800,19.519575927734376,-0.5421497821807861,-4.308140277862549,8.796711921691895
1702070375276560000,19.536559814453124,-0.6763468980789185,-4.148991584777832,8.863663673400879
1702070375293561300,19.553561279296876,-0.7946062088012695,-4.016529083251953,8.914719581604004
1702070375310562000,19.57056201171875,-0.904542088508606,-3.9017155170440674,8.955140113830566
1702070375327542000,19.5875419921875,-1.0189317464828491,-3.8036372661590576,8.985001564025879
1702070375344526300,19.6045263671875,-1.1310731172561646,-3.7264418601989746,9.003911972045898
1702070375361523200,19.621523193359376,-1.2258378267288208,-3.671177387237549,9.014204978942871
1702070375378513000,19.638512939453125,-1.3052839040756226,-3.6246681213378906,9.021869659423828
1702070375395504000,19.655504150390627,-1.3621931076049805,-3.5924997329711914,9.026323318481445
1702070375412493800,19.672493896484376,-1.3648542165756226,-3.5828001499176025,9.029773712158203
1702070375429484800,19.68948486328125,-1.2976638078689575,-3.609921455383301,9.028879165649414
1702070375446474500,19.706474609375,-1.1841694116592407,-3.7113609313964844,9.003313064575195
1702070375463465500,19.723465576171876,-1.0733394622802734,-3.892102003097534,8.94067096710205
1702070375480449300,19.74044921875,-0.9684916138648987,-4.117161750793457,8.851391792297363
1702070375497448700,19.75744873046875,-0.8744786381721497,-4.332376956939697,8.757963180541992
1702070375514423600,19.774423583984376,-0.7625482678413391,-4.523738861083984,8.67124080657959
1702070375531427600,19.791427490234376,-0.5853255987167358,-4.716817378997803,8.58167552947998
1702070375548417000,19.8084169921875,-0.36017417907714844,-4.907728672027588,8.486495018005371
1702070375565417000,19.8254169921875,-0.139662504196167,-5.083588600158691,8.388904571533203
1702070375582398200,19.842398193359376,0.03530197963118553,-5.235471248626709,8.296065330505371
1702070375599389400,19.859389404296873,0.16120365262031555,-5.360033988952637,8.214632987976074
1702070375616379100,19.876379150390626,0.26054492592811584,-5.461239814758301,8.145127296447754
1702070375633370000,19.8933701171875,0.35424041748046875,-5.551791191101074,8.080113410949707
1702070375650360000,19.910360107421877,0.44794994592666626,-5.641655921936035,8.012939453125
1702070375667350800,19.927350830078126,0.5342118740081787,-5.733965873718262,7.941810607910156
1702070375684340700,19.9443408203125,0.6119145154953003,-5.826818943023682,7.868282794952393
1702070375701331700,19.961331787109376,0.6769206523895264,-5.908824443817139,7.801517009735107
1702070375718321700,19.97832177734375,0.7105680108070374,-5.970208644866943,7.75163459777832
1702070375735312400,19.9953125,0.7185958027839661,-6.011223793029785,7.71912956237793
1702070375752302300,20.01230224609375,0.7275133728981018,-6.036371231079102,7.698641300201416
1702070375769295400,20.02929541015625,0.7349662184715271,-6.056412696838379,7.682175159454346
1702070375786281000,20.046281005859374,0.730638861656189,-6.070253849029541,7.67165470123291
1702070375803274500,20.0632744140625,0.7133309841156006,-6.0641279220581055,7.678126335144043
1702070375820264200,20.08026416015625,0.6957268714904785,-6.02593994140625,7.709742546081543
1702070375837255200,20.097255126953126,0.7016915082931519,-5.934118747711182,7.780100345611572
1702070375854242300,20.1142421875,0.7172598242759705,-5.777427673339844,7.895757675170898
1702070375871241000,20.131240966796874,0.7117200493812561,-5.56947660446167,8.044283866882324
1702070375888220400,20.148220458984376,0.6652852892875671,-5.341666221618652,8.201225280761719
1702070375905220000,20.16522021484375,0.6130320429801941,-5.1373748779296875,8.334726333618164
1702070375922206700,20.182206787109376,0.6018427014350891,-4.973471641540527,8.434364318847656
1702070375939197700,20.19919775390625,0.6196012496948242,-4.817711353302002,8.523019790649414
1702070375956187600,20.216187744140626,0.6100713014602661,-4.616053581237793,8.6345796585083
1702070375973175800,20.23317578125,0.5584715604782104,-4.340734004974365,8.779651641845703
1702070375990171100,20.250171142578125,0.496513694524765,-4.020045757293701,8.934698104858398
1702070376007159300,20.2671591796875,0.43765386939048767,-3.7013485431671143,9.07439136505127
1702070376024149200,20.284149169921875,0.3576190769672394,-3.4177544116973877,9.18842601776123
1702070376041140200,20.30114013671875,0.2190609723329544,-3.1819920539855957,9.277017593383789
1702070376058130000,20.3181298828125,0.02777237445116043,-2.9852542877197266,9.344709396362305
1702070376075121200,20.33512109375,-0.18231487274169922,-2.8061470985412598,9.398321151733398
1702070376092111000,20.352111083984376,-0.3819790184497833,-2.622072696685791,9.445366859436035
1702070376109101000,20.36910107421875,-0.5633666515350342,-2.4283034801483154,9.487998008728027
1702070376126092500,20.386092529296874,-0.7220086455345154,-2.236635446548462,9.524300575256348
1702070376143082800,20.403082763671875,-0.8394438624382019,-2.0662827491760254,9.55311107635498
1702070376160080000,20.420079833984374,-0.9030454754829407,-1.9368244409561157,9.574411392211914
1702070376177063400,20.4370634765625,-0.9525251984596252,-1.8547582626342773,9.585859298706055
1702070376194053600,20.4540537109375,-1.0449743270874023,-1.7970240116119385,9.587223052978516
1702070376211044400,20.47104443359375,-1.1953030824661255,-1.7399115562438965,9.580191612243652
1702070376228034300,20.488034423828125,-1.380139708518982,-1.6753010749816895,9.566855430603027
1702070376245025300,20.505025390625,-1.5423064231872559,-1.6160821914672852,9.55225944519043
1702070376262015200,20.52201513671875,-1.625606656074524,-1.5886598825454712,9.543045043945312
1702070376279006200,20.539006103515625,-1.648064136505127,-1.5958999395370483,9.537982940673828
1702070376295984400,20.555984375,-1.6482141017913818,-1.6233201026916504,9.533329010009766
1702070376312975000,20.57297509765625,-1.6468173265457153,-1.66778564453125,9.52589225769043
1702070376329974000,20.58997412109375,-1.6395617723464966,-1.6927473545074463,9.522738456726074
1702070376346967000,20.606967041015626,-1.6048163175582886,-1.7168238162994385,9.524348258972168
1702070376363953000,20.623952880859374,-1.5368256568908691,-1.7767648696899414,9.524568557739258
1702070376380951300,20.640951416015625,-1.4593364000320435,-1.895761251449585,9.513808250427246
1702070376397938700,20.657938720703125,-1.3924349546432495,-2.057201623916626,9.49026870727539
1702070376414929700,20.6749296875,-1.3426216840744019,-2.2285640239715576,9.458699226379395
1702070376431919400,20.69191943359375,-1.2943124771118164,-2.3976902961730957,9.424009323120117
1702070376448910600,20.70891064453125,-1.2290276288986206,-2.577622413635254,9.385174751281738
1702070376465900300,20.725900390625,-1.1460320949554443,-2.8035593032836914,9.330744743347168
1702070376482891500,20.7428916015625,-1.0654523372650146,-3.107030153274536,9.24377155303955
1702070376499881200,20.759881103515625,-0.9904599189758301,-3.480694532394409,9.118106842041016
1702070376516872200,20.7768720703125,-0.9333745837211609,-3.8882808685302734,8.958024024963379
1702070376533862100,20.793862060546875,-0.8880764842033386,-4.275032043457031,8.784732818603516
1702070376550852900,20.810852783203124,-0.8466095924377441,-4.592592716217041,8.627135276794434
1702070376567842800,20.8278427734375,-0.8059364557266235,-4.8228583335876465,8.504507064819336
1702070376584834000,20.844833984375,-0.7656261920928955,-4.980738162994385,8.416780471801758
1702070376601824000,20.861823974609376,-0.7120974659919739,-5.103817462921143,8.347458839416504
1702070376618815000,20.87881494140625,-0.6273883581161499,-5.2233805656433105,8.280025482177734
1702070376635801900,20.8958017578125,-0.5054778456687927,-5.355462074279785,8.203636169433594
1702070376652798200,20.912798095703124,-0.35034117102622986,-5.494682788848877,8.119227409362793
1702070376669785600,20.92978564453125,-0.17690058052539825,-5.629834175109863,8.031797409057617
1702070376686776300,20.9467763671875,-0.002439166186377406,-5.75447940826416,7.944938659667969
1702070376703766300,20.963766357421875,0.15911699831485748,-5.8683905601501465,7.859566688537598
1702070376720757200,20.98075732421875,0.30151641368865967,-5.980252742767334,7.770570278167725
1702070376737747200,20.997747314453125,0.4310733377933502,-6.100527763366699,7.670322418212891
1702070376754725600,21.0147255859375,0.5544451475143433,-6.231655120849609,7.556136608123779
1702070376771726000,21.03172607421875,0.6714350581169128,-6.367721080780029,7.432188034057617
1702070376788710400,21.04871044921875,0.7762948274612427,-6.496789455413818,7.309256076812744
1702070376805710800,21.0657109375,0.8653709292411804,-6.611182689666748,7.195798873901367
1702070376822693600,21.082693603515626,0.9374199509620667,-6.71212911605835,7.092581748962402
1702070376839682800,21.099682861328127,0.9902329444885254,-6.801397323608398,6.999754905700684
1702070376856676000,21.116676025390625,1.0216504335403442,-6.880971431732178,6.916975975036621
1702070376873659000,21.133658935546876,1.0332692861557007,-6.953641414642334,6.842174530029297
1702070376890656000,21.150656005859375,1.036777138710022,-7.016815185546875,6.776837348937988
1702070376907642400,21.167642333984375,1.0497848987579346,-7.066989421844482,6.722479820251465
1702070376924636000,21.184635986328125,1.0755321979522705,-7.104456424713135,6.678776741027832
1702070376941627400,21.20162744140625,1.108659029006958,-7.125713348388672,6.650656223297119
1702070376958610200,21.218610107421874,1.1436285972595215,-7.130893707275391,6.639171123504639
1702070376975609600,21.235609619140625,1.183852195739746,-7.122447967529297,6.641185760498047
1702070376992598800,21.252598876953126,1.2347720861434937,-7.098402976989746,6.657637596130371
1702070377009588700,21.269588623046875,1.290193796157837,-7.05073881149292,6.69765567779541
1702070377026577700,21.28657763671875,1.336972951889038,-6.973451137542725,6.769017219543457
1702070377043571500,21.303571533203126,1.3711148500442505,-6.874018669128418,6.86323881149292
1702070377060555000,21.320554931640626,1.3902168273925781,-6.769881248474121,6.962192058563232
1702070377077546500,21.33754638671875,1.3821818828582764,-6.676812648773193,7.053075313568115
1702070377094535000,21.354534912109376,1.3348667621612549,-6.594123363494873,7.1394524574279785
1702070377111538700,21.37153857421875,1.2563327550888062,-6.5102715492248535,7.230083465576172
1702070377128528100,21.388528076171873,1.157654881477356,-6.4117937088012695,7.333816051483154
1702070377145516500,21.4055166015625,1.0411155223846436,-6.28535795211792,7.459657669067383
1702070377162508300,21.42250830078125,0.9015862941741943,-6.123598575592041,7.61083459854126
1702070377179486000,21.43948583984375,0.7347242832183838,-5.932285308837891,7.778451919555664
1702070377196489000,21.456489013671874,0.549255907535553,-5.722022533416748,7.949394702911377
1702070377213479000,21.47347900390625,0.36178287863731384,-5.503384590148926,8.11283016204834
1702070377230470000,21.490469970703124,0.1905755251646042,-5.280652046203613,8.265260696411133
1702070377247459800,21.5074599609375,0.050009921193122864,-5.051479339599609,8.409293174743652
1702070377264450800,21.524450927734375,-0.05536246299743652,-4.804142951965332,8.552969932556152
1702070377281440800,21.541440673828124,-0.13023971021175385,-4.533266544342041,8.698773384094238
1702070377298431700,21.558431640625,-0.17673049867153168,-4.251030445098877,8.839323043823242
1702070377315421700,21.575421630859374,-0.2014741599559784,-3.9796879291534424,8.964240074157715
1702070377332412700,21.59241259765625,-0.21634918451309204,-3.742945671081543,9.065302848815918
1702070377349402000,21.609402099609376,-0.23803241550922394,-3.5487587451934814,9.142524719238281
1702070377366393000,21.62639306640625,-0.28100404143333435,-3.3919012546539307,9.200662612915039
1702070377383383300,21.64338330078125,-0.3517986238002777,-3.2587242126464844,9.246248245239258
1702070377400374300,21.660374267578124,-0.44329366087913513,-3.1392669677734375,9.283568382263184
