time,seconds_elapsed,z,y,x
1701054535162094300,0.10009423828125,0.12125158309936523,0.3903226852416992,0.5567107200622559
1701054535179086300,0.11708642578125,-0.33757781982421875,0.4606790542602539,0.7636222839355469
1701054535196080600,0.13408056640625,-0.6269164085388184,0.552116870880127,0.557898998260498
1701054535213067000,0.15106689453125,-0.46146726608276367,0.4810044765472412,0.4190340042114258
1701054535230076700,0.16807666015625,-0.37822628021240234,0.32457399368286133,0.3377690315246582
1701054535247058200,0.18505810546875,-0.40192556381225586,0.18526124954223633,0.3587064743041992
1701054535264050400,0.202050537109375,-0.36447620391845703,-0.037403106689453125,0.5236673355102539
1701054535281037300,0.219037353515625,-0.3032698631286621,-0.23825526237487793,0.6424827575683594
1701054535298031000,0.236031005859375,-0.3103365898132324,-0.379180908203125,0.7200751304626465
1701054535315022000,0.25302197265625,-0.2341151237487793,-0.4914131164550781,0.8351812362670898
1701054535332017000,0.270016845703125,-0.44748497009277344,-0.6338903903961182,0.865781307220459
1701054535349002800,0.287002685546875,-1.1174650192260742,-0.8810951709747314,0.7669200897216797
1701054535365995000,0.3039951171875,-1.140047550201416,-0.8863673210144043,1.1098723411560059
1701054535382982000,0.32098193359375,-1.6709485054016113,-0.879187822341919,1.2444391250610352
1701054535399976200,0.33797607421875,-2.1227469444274902,-1.0539746284484863,1.379601001739502
1701054535416965600,0.354965576171875,-0.849034309387207,-1.0122296810150146,1.3468518257141113
1701054535433955800,0.371955810546875,4.131796836853027,-1.1090123653411865,0.4336738586425781
1701054535450951200,0.388951171875,5.1436767578125,-1.4250190258026123,-1.3146090507507324
1701054535467938800,0.405938720703125,-3.4141883850097656,0.006606101989746094,-2.1100573539733887
1701054535484926700,0.4229267578125,-7.941842555999756,1.8678216934204102,2.8312296867370605
1701054535501919000,0.4399189453125,-4.252386093139648,2.0002999305725098,7.2645039558410645
1701054535518910200,0.45691015625,2.6219372749328613,0.8020210266113281,5.866479396820068
1701054535535902500,0.47390234375,1.641608715057373,-0.10913562774658203,1.2105212211608887
1701054535552887800,0.4908876953125,2.0659375190734863,0.43909597396850586,1.5153374671936035
1701054535569885700,0.5078857421875,0.5828948020935059,0.14147329330444336,-0.3355445861816406
1701054535586871300,0.524871337890625,-0.7224230766296387,-0.3187856674194336,-2.0559661388397217
1701054535603864800,0.54186474609375,-1.6577177047729492,-0.5200331211090088,-1.6558284759521484
1701054535620858600,0.558858642578125,-1.9405241012573242,-0.4421806335449219,-1.606797456741333
1701054535637858600,0.575858642578125,-3.285245895385742,-0.4005570411682129,-2.555100440979004
1701054535654838500,0.592838623046875,-3.44268536567688,-0.6617939472198486,-3.10980486869812
1701054535671828200,0.609828125,-3.028135299682617,-1.0731735229492188,-3.635498285293579
1701054535688815000,0.626815185546875,-2.768000602722168,-1.4777395725250244,-3.6037468910217285
1701054535705810700,0.643810791015625,-1.7693419456481934,-1.5473639965057373,-3.690582275390625
1701054535722797300,0.66079736328125,-1.1829042434692383,-1.4111371040344238,-3.2022476196289062
1701054535739780900,0.67778076171875,-0.3034048080444336,-0.9394583702087402,-2.3612489700317383
1701054535756781300,0.69478125,-0.0025572776794433594,-0.5388085842132568,-1.6601686477661133
1701054535773771500,0.711771484375,0.5258917808532715,-0.5259747505187988,-0.6615257263183594
1701054535790762200,0.72876220703125,0.2372889518737793,-0.5859453678131104,-0.1541910171508789
1701054535807740200,0.745740234375,-0.26174449920654297,-0.8153040409088135,-0.014160633087158203
1701054535824741400,0.762741455078125,2.0718135833740234,-0.5088000297546387,4.87693452835083
1701054535841737200,0.7797373046875,1.7368879318237305,1.5603952407836914,6.682026386260986
1701054535858726100,0.79672607421875,-5.428951263427734,2.8122105598449707,5.603127479553223
1701054535875715800,0.8137158203125,-7.842910289764404,1.9525423049926758,8.524199485778809
1701054535892707600,0.83070751953125,-5.795958995819092,1.064037561416626,10.30213737487793
1701054535909699000,0.847698974609375,0.01724720001220703,0.46274471282958984,8.556636810302734
1701054535926690800,0.86469091796875,-0.18012189865112305,0.5119190216064453,4.227402210235596
1701054535943676200,0.88167626953125,1.2436561584472656,-1.1252336502075195,1.3989863395690918
1701054535960671500,0.89867138671875,1.156883716583252,-2.793811798095703,-0.9112215042114258
1701054535977661200,0.9156611328125,0.563288688659668,-3.7478280067443848,-2.267146348953247
1701054535994653700,0.93265380859375,-1.3364014625549316,-3.2894511222839355,-1.654752254486084
1701054536011632400,0.94963232421875,-1.4442124366760254,-2.71315598487854,-1.1130950450897217
1701054536028633300,0.96663330078125,-0.17132139205932617,-2.607471227645874,-0.5603775978088379
1701054536045626000,0.983626220703125,1.3046774864196777,-2.368129253387451,0.29184532165527344
1701054536062613000,1.000613037109375,1.5132412910461426,-2.151002883911133,1.6289019584655762
1701054536079607000,1.01760693359375,-2.8725528717041016,-0.6084675788879395,7.544758319854736
1701054536096598000,1.034597900390625,-7.674413681030273,0.3401346206665039,10.911527633666992
1701054536113582800,1.051582763671875,-5.540777683258057,0.5839219093322754,11.593897819519043
1701054536130581000,1.0685810546875,-1.3548998832702637,0.02441549301147461,11.242976188659668
1701054536147569000,1.08556884765625,-0.9247031211853027,-1.0295805931091309,9.826045036315918
1701054536164561400,1.1025615234375,0.3718295097351074,-1.5762708187103271,8.726327896118164
1701054536181548000,1.119548095703125,2.5438194274902344,-1.313227891921997,8.86806869506836
1701054536198541600,1.13654150390625,2.4612183570861816,-0.8113372325897217,8.36351203918457
1701054536215523800,1.15352392578125,1.8635821342468262,-1.4816346168518066,8.407646179199219
1701054536232520200,1.170520263671875,0.9703230857849121,-1.7684643268585205,7.767758846282959
1701054536249513500,1.187513427734375,-1.337203025817871,-1.2386724948883057,8.326803207397461
1701054536266506200,1.20450634765625,-0.4933133125305176,-1.0830090045928955,9.78948974609375
1701054536283492900,1.221492919921875,2.241607666015625,-1.5296223163604736,6.66859245300293
1701054536300487000,1.23848681640625,5.650402545928955,-1.679706335067749,4.657719135284424
1701054536317476900,1.255476806640625,6.103982925415039,-0.7873115539550781,4.205700874328613
1701054536334458600,1.272458740234375,6.1733479499816895,0.4230332374572754,2.982522964477539
1701054536351456000,1.2894560546875,6.604811668395996,1.074972152709961,1.7044744491577148
1701054536368449300,1.30644921875,6.7356038093566895,1.2256617546081543,-1.0934433937072754
1701054536385441300,1.323441162109375,5.782801151275635,1.8535232543945312,-3.2517035007476807
1701054536402428200,1.34042822265625,5.824661731719971,2.358649492263794,-4.925827980041504
1701054536419411200,1.3574111328125,4.503892421722412,2.8973729610443115,-6.798191547393799
1701054536436413700,1.37441357421875,2.6053738594055176,2.065633535385132,-6.796531677246094
1701054536453393700,1.3913935546875,3.490748405456543,2.4649791717529297,-6.350295066833496
1701054536470396400,1.408396484375,4.810534954071045,2.189072847366333,-7.451676368713379
1701054536487383600,1.425383544921875,4.8472490310668945,2.392087697982788,-9.439971923828125
1701054536504375800,1.442375732421875,4.725832939147949,3.016522169113159,-9.50007438659668
1701054536521363700,1.45936376953125,3.633814811706543,2.496613025665283,-9.476815223693848
1701054536538357000,1.47635693359375,1.4994258880615234,1.650486946105957,-9.279399871826172
1701054536555349200,1.493349365234375,-0.34967565536499023,0.783574104309082,-10.17681884765625
1701054536572335900,1.5103359375,-0.4411630630493164,0.2674527168273926,-10.852355003356934
1701054536589329200,1.5273291015625,-1.662546157836914,0.24671125411987305,-10.535724639892578
1701054536606321400,1.5443212890625,-2.3593380451202393,-0.15782928466796875,-9.234772682189941
1701054536623308300,1.561308349609375,-2.754340171813965,-0.8822839260101318,-7.3869452476501465
1701054536640302300,1.57830224609375,-4.15137243270874,-1.1678276062011719,-6.696372032165527
1701054536657299000,1.595298828125,-3.846619129180908,-1.2601401805877686,-6.551990509033203
1701054536674282000,1.612281982421875,-2.787175178527832,-1.1534795761108398,-7.513155460357666
1701054536691273700,1.629273681640625,-1.3911850452423096,-1.0462169647216797,-7.671339511871338
1701054536708277800,1.64627783203125,-0.10607194900512695,-1.414891004562378,-7.048910617828369
1701054536725254700,1.663254638671875,-0.5419745445251465,-1.51080322265625,-6.515233039855957
1701054536742246100,1.68024609375,-0.13344669342041016,-1.360025405883789,-6.53131628036499
1701054536759227000,1.697226806640625,1.4703059196472168,-1.5234012603759766,-6.487260341644287
1701054536776226600,1.7142265625,2.0297765731811523,-1.0107965469360352,-6.427562713623047
1701054536793218600,1.731218505859375,2.4604601860046387,-0.7297475337982178,-5.681462287902832
1701054536810210000,1.7482099609375,1.5372285842895508,-0.20544147491455078,-5.386117458343506
1701054536827206000,1.765205810546875,2.85074520111084,0.7777585983276367,-4.636263370513916
1701054536844207400,1.782207275390625,2.8282227516174316,0.928898811340332,-2.547785520553589
1701054536861174000,1.799174072265625,1.599616527557373,1.2740497589111328,-1.71750807762146
1701054536878163500,1.81616357421875,1.313201904296875,1.086632251739502,-1.6507632732391357
1701054536895157800,1.83315771484375,0.7952260971069336,0.5499792098999023,-1.1339221000671387
1701054536912147000,1.85014697265625,0.7007637023925781,0.7249789237976074,0.9434094429016113
1701054536929144600,1.86714453125,0.531224250793457,0.7947516441345215,2.6393370628356934
1701054536946136800,1.88413671875,0.676673412322998,1.727647304534912,1.807734489440918
1701054536963114500,1.901114501953125,1.1794257164001465,1.6129941940307617,-0.25131845474243164
1701054536980111000,1.918111083984375,1.917860984802246,0.7839822769165039,-0.036988019943237305
1701054536997100500,1.9351005859375,3.9622039794921875,-0.14101886749267578,0.4670710563659668
1701054537014088200,1.952088134765625,3.041945457458496,-0.4754800796508789,2.618135452270508
1701054537031084500,1.96908447265625,-0.31768131256103516,0.10939598083496094,4.124520301818848
1701054537048079400,1.986079345703125,1.3651618957519531,0.11353874206542969,4.29979133605957
1701054537065072600,2.00307275390625,4.565412521362305,-0.9499504566192627,4.254050254821777
1701054537082053400,2.020053466796875,2.7178049087524414,-1.5338215827941895,5.234159469604492
1701054537099052300,2.03705224609375,-0.2732067108154297,-2.139016628265381,7.460351943969727
1701054537116044800,2.054044921875,-2.7232089042663574,-1.981027364730835,8.18761920928955
1701054537133031400,2.071031494140625,-2.107105255126953,-1.2309136390686035,7.299893379211426
1701054537150025500,2.088025390625,1.3526878356933594,-1.2970201969146729,6.731029510498047
1701054537167015400,2.105015380859375,4.4053802490234375,-1.6506867408752441,8.220342636108398
1701054537184008000,2.122008056640625,2.7803268432617188,-0.44965696334838867,11.418481826782227
1701054537200994600,2.13899462890625,-1.6568245887756348,0.4532785415649414,13.485541343688965
1701054537217989600,2.15598974609375,-5.347094535827637,0.5708296298980713,12.612659454345703
1701054537234976000,2.17297607421875,-7.333212852478027,-1.1819438934326172,11.516319274902344
1701054537251971300,2.189971435546875,-1.5308189392089844,-0.5417251586914062,10.460003852844238
1701054537268960000,2.2069599609375,-1.0754585266113281,-2.0287604331970215,5.333121299743652
1701054537285951500,2.223951416015625,3.095247268676758,-4.121304988861084,5.174516201019287
1701054537302944000,2.240944091796875,6.794590950012207,-3.4079878330230713,6.254114151000977
1701054537319928000,2.257927978515625,6.080251693725586,-0.70943284034729,6.843537330627441
1701054537336914700,2.274914794921875,5.894671440124512,0.5280554294586182,6.20001220703125
1701054537353915000,2.291914794921875,6.375556945800781,1.307196855545044,5.898395538330078
1701054537370909400,2.308909423828125,4.297523498535156,2.1956708431243896,8.147917747497559
1701054537387898000,2.325898193359375,-2.3437294960021973,2.839198112487793,12.011011123657227
1701054537404886000,2.342885986328125,-8.84764575958252,3.36775803565979,15.343639373779297
1701054537421875700,2.359875732421875,-5.601115703582764,2.019800901412964,12.60977840423584
1701054537438864000,2.37686376953125,5.564774990081787,0.4207186698913574,9.51778793334961
1701054537455861000,2.393861083984375,7.938052177429199,-0.1012430191040039,9.008703231811523
1701054537472847600,2.41084765625,7.317506313323975,0.717987060546875,7.288601875305176
1701054537489839400,2.42783935546875,5.720962047576904,0.007886409759521484,6.881969928741455
1701054537506833400,2.44483349609375,2.9297733306884766,-0.810767650604248,5.5007452964782715
1701054537523820300,2.4618203125,1.4237260818481445,-1.025214672088623,5.285208225250244
1701054537540813300,2.478813232421875,1.1503987312316895,-0.6422195434570312,6.020463943481445
1701054537557803300,2.49580322265625,2.550286293029785,-1.223461627960205,4.211911201477051
1701054537574798800,2.512798828125,5.705877304077148,-2.611747980117798,0.6620392799377441
1701054537591779300,2.529779296875,6.343888759613037,-2.2186975479125977,-4.809937477111816
1701054537608775700,2.546775634765625,5.854027271270752,-2.484379768371582,-8.15349006652832
1701054537625768200,2.563768310546875,5.040192127227783,-2.5231757164001465,-8.781010627746582
1701054537642752300,2.580752197265625,3.5576515197753906,-2.280099630355835,-9.063023567199707
1701054537659763700,2.597763671875,2.9495983123779297,-2.1201066970825195,-10.26668643951416
1701054537676738800,2.61473876953125,2.614424228668213,-1.840158462524414,-10.28940200805664
1701054537693728000,2.63172802734375,1.1117677688598633,-1.3477058410644531,-10.057415962219238
1701054537710721000,2.648720947265625,1.201063632965088,-0.7825131416320801,-9.430334091186523
1701054537727711200,2.665711181640625,3.9055628776550293,-1.2510943412780762,-7.99741268157959
1701054537744703500,2.682703369140625,3.5423545837402344,-0.8351526260375977,-8.445818901062012
1701054537761689000,2.699689208984375,2.040743350982666,0.3822355270385742,-7.487316608428955
1701054537778667000,2.7166669921875,0.4399406909942627,0.6316723823547363,-8.322940826416016
1701054537795675600,2.733675537109375,0.5294287204742432,-0.049976348876953125,-8.610176086425781
1701054537812662300,2.750662353515625,0.28310704231262207,-0.4049553871154785,-8.212785720825195
1701054537829662500,2.767662353515625,-0.539954423904419,-1.7257323265075684,-6.551229000091553
1701054537846647300,2.784647216796875,-2.9276225566864014,-1.716331958770752,-5.187297821044922
1701054537863635000,2.801635009765625,-4.962613105773926,-1.1543636322021484,-4.806384086608887
1701054537880628700,2.818628662109375,-4.113076686859131,-1.081294059753418,-6.123513698577881
1701054537897619700,2.83561962890625,-1.95486581325531,-0.9779043197631836,-7.272895812988281
1701054537914611500,2.852611572265625,-0.2661724090576172,-1.199197769165039,-6.969526290893555
1701054537931598600,2.8695986328125,0.3633451461791992,-1.6093125343322754,-6.143524646759033
1701054537948590800,2.8865908203125,-0.09499621391296387,-1.7660713195800781,-5.979544162750244
1701054537965583600,2.90358349609375,-1.1121277809143066,-2.2404603958129883,-5.671827793121338
1701054537982570200,2.9205703125,-1.6803092956542969,-2.3032169342041016,-5.9927215576171875
1701054537999563800,2.937563720703125,-1.5581607818603516,-1.9644122123718262,-6.738008499145508
1701054538016556000,2.95455615234375,-0.11895179748535156,-1.5044846534729004,-7.3443756103515625
1701054538033542700,2.971542724609375,1.840205192565918,-1.385744571685791,-6.860394477844238
1701054538050536700,2.98853662109375,2.495663642883301,-1.6105313301086426,-6.111548900604248
1701054538067526400,3.0055263671875,0.7009410858154297,-1.283085823059082,-5.35066032409668
1701054538084519000,3.022518798828125,-0.919623851776123,-0.48326730728149414,-4.249322414398193
1701054538101505800,3.039505859375,-0.23424625396728516,0.45424699783325195,-4.400076866149902
1701054538118498800,3.056498779296875,1.2808876037597656,1.0799508094787598,-3.7241246700286865
1701054538135492000,3.0734921875,3.2061843872070312,1.320986270904541,-2.453920602798462
1701054538152478000,3.09047802734375,3.3077945709228516,1.3727564811706543,-1.7665112018585205
1701054538169471200,3.10747119140625,0.6598820686340332,1.4845552444458008,-1.9407117366790771
1701054538186463700,3.124463623046875,-0.24782371520996094,1.3664722442626953,-0.9948558807373047
1701054538203450400,3.141450439453125,-0.6595277786254883,0.7645049095153809,-0.17966198921203613
1701054538220428000,3.158427978515625,2.631753444671631,0.42124128341674805,-0.6527128219604492
1701054538237435100,3.17543505859375,6.179531097412109,-0.5656633377075195,-0.7172973155975342
1701054538254416100,3.192416015625,7.490109443664551,-0.8377172946929932,-0.42966628074645996
1701054538271417000,3.2094169921875,1.921647071838379,0.043302059173583984,1.899458408355713
1701054538288407800,3.22640771484375,-3.0591201782226562,0.34030723571777344,5.183055877685547
1701054538305398500,3.2433984375,-0.0072841644287109375,-0.9488425254821777,5.479851245880127
1701054538322377000,3.260376953125,3.513819694519043,-1.7516663074493408,4.115041255950928
1701054538339371300,3.277371337890625,4.039054870605469,-2.416813373565674,3.2824137210845947
1701054538356371000,3.294370849609375,4.086248397827148,-2.449036121368408,4.159131050109863
1701054538373361700,3.311361572265625,-0.18764591217041016,-1.5387344360351562,5.9332990646362305
1701054538390352100,3.32835205078125,-1.1264348030090332,-1.4832355976104736,8.397720336914062
1701054538407343400,3.34534326171875,1.3311853408813477,-1.6004838943481445,9.568197250366211
1701054538424335000,3.362335205078125,4.082741737365723,-1.6275603771209717,8.667594909667969
1701054538441322200,3.379322265625,2.8783645629882812,-1.6611859798431396,7.561944484710693
1701054538458317800,3.39631787109375,1.3960990905761719,-1.788661003112793,7.445366859436035
1701054538475306500,3.413306396484375,0.4359006881713867,-2.042938709259033,9.578802108764648
1701054538492286500,3.430286376953125,-2.446396827697754,-1.3152213096618652,11.630040168762207
1701054538509288000,3.447287841796875,-3.6712069511413574,-0.938809871673584,12.394182205200195
1701054538526278700,3.464278564453125,-5.2124810218811035,-1.590794324874878,8.349990844726562
1701054538543267000,3.48126708984375,-2.150960922241211,-3.3305509090423584,7.892250061035156
1701054538560263000,3.498262939453125,2.3339481353759766,-3.0809576511383057,6.160797119140625
1701054538577240300,3.515240234375,1.5091218948364258,-3.410778522491455,5.597386360168457
1701054538594241500,3.532241455078125,2.816403388977051,-3.2927660942077637,7.012904644012451
1701054538611232300,3.549232177734375,2.31984806060791,-2.4361791610717773,7.120588302612305
1701054538628217300,3.56621728515625,3.5660247802734375,-1.4536703824996948,6.194334030151367
1701054538645206000,3.5832060546875,3.7348289489746094,-0.9978287220001221,5.645511150360107
1701054538662196700,3.60019677734375,4.031139373779297,-0.7245166301727295,6.783428192138672
1701054538679186000,3.61718603515625,2.63474178314209,-0.413175106048584,8.989267349243164
1701054538696178200,3.63417822265625,0.3107757568359375,-0.4050476551055908,11.240516662597656
1701054538713168100,3.651168212890625,-1.4189906120300293,-0.5114266872406006,12.261611938476562
1701054538730158300,3.668158447265625,-2.7671546936035156,-0.7383933067321777,10.897862434387207
1701054538747150300,3.685150390625,0.7952089309692383,-1.5558381080627441,7.696301460266113
1701054538764139300,3.70213916015625,6.7328290939331055,-3.071682929992676,7.412796974182129
1701054538781132300,3.71913232421875,9.240283966064453,-2.076740264892578,7.804101467132568
1701054538798120700,3.73612060546875,7.6289496421813965,-0.6378846168518066,8.652749061584473
1701054538815121200,3.75312109375,5.314028739929199,0.1531813144683838,8.234621047973633
1701054538832115200,3.770115234375,1.8231501579284668,-0.1167898178100586,6.395442962646484
1701054538849103400,3.787103271484375,1.7498283386230469,-0.49840641021728516,4.407971382141113
1701054538866094000,3.804093994140625,2.4218764305114746,-0.41652441024780273,3.1868185997009277
1701054538883085000,3.8210849609375,3.1908493041992188,0.05406761169433594,2.789595603942871
1701054538900075500,3.838075439453125,3.943424701690674,0.42447757720947266,2.0242996215820312
1701054538917062700,3.855062744140625,5.03666353225708,-0.41449975967407227,-1.015660285949707
1701054538934061000,3.87206103515625,6.407371520996094,-0.8471553325653076,-3.2498528957366943
1701054538951033000,3.889033203125,6.732837200164795,-0.6441211700439453,-3.802035331726074
1701054538968038700,3.90603857421875,7.234738349914551,-0.0700998306274414,-4.166484832763672
1701054538985029400,3.923029296875,5.767812252044678,0.5830650329589844,-8.168319702148438
1701054539002020600,3.9400205078125,5.109134197235107,0.06368827819824219,-11.769084930419922
1701054539019008500,3.957008544921875,4.485442161560059,0.09463071823120117,-12.482919692993164
1701054539036002000,3.974001953125,3.2446579933166504,0.1679859161376953,-12.118173599243164
1701054539052992800,3.99099267578125,3.835022211074829,1.0920605659484863,-11.520477294921875
1701054539069983700,4.007983642578125,2.554476022720337,1.5238432884216309,-11.778255462646484
1701054539086974200,4.02497412109375,2.7114739418029785,1.4908065795898438,-10.380971908569336
1701054539103965200,4.041965087890625,1.8297216892242432,0.9457283020019531,-9.375628471374512
1701054539120955600,4.05895556640625,1.034595012664795,0.8373498916625977,-8.759812355041504
1701054539137928000,4.075927978515625,1.5656647682189941,0.5608096122741699,-8.62504768371582
1701054539154937900,4.092937744140625,1.0334689617156982,-0.22139215469360352,-8.327193260192871
1701054539171930600,4.1099306640625,-0.7653946876525879,-0.41309452056884766,-7.271292686462402
1701054539188918000,4.12691796875,-3.1015119552612305,-0.30158233642578125,-6.395214080810547
1701054539205910800,4.143910888671875,-3.7744998931884766,-0.5213594436645508,-5.616176605224609
1701054539222900700,4.160900634765625,-2.6919209957122803,-1.012805461883545,-4.555516242980957
1701054539239891200,4.17789111328125,-2.666642427444458,-1.2090034484863281,-4.637452125549316
1701054539256869000,4.194869140625,-3.042999267578125,-1.1210532188415527,-4.390987396240234
1701054539273870300,4.211870361328125,-2.371647834777832,-0.9945588111877441,-3.8191213607788086
1701054539290866400,4.228866455078125,-1.9131194353103638,-0.7959494590759277,-3.9318690299987793
1701054539307854600,4.2458544921875,-1.7291165590286255,-0.7905182838439941,-3.873595952987671
1701054539324845300,4.26284521484375,-1.121006965637207,-0.5760354995727539,-3.8558993339538574
1701054539341836000,4.2798359375,0.2806859016418457,-0.2669038772583008,-3.381899356842041
1701054539358811600,4.296811767578125,1.3000404834747314,0.5552177429199219,-1.5064144134521484
1701054539375813000,4.313813232421875,0.8155570030212402,1.0755729675292969,-2.162294387817383
1701054539392812500,4.3308125,0.1757044792175293,0.6645674705505371,-3.910489559173584
1701054539409799200,4.347799072265625,0.6709728240966797,-0.04345512390136719,-5.022172927856445
1701054539426790100,4.3647900390625,1.8874821662902832,-0.12781381607055664,-5.571593284606934
1701054539443780600,4.381780517578125,0.3557863235473633,0.22088193893432617,-5.040806770324707
1701054539460771600,4.398771484375,-1.7203567028045654,0.5184197425842285,-4.534889221191406
1701054539477762300,4.41576220703125,-2.394083023071289,1.2683749198913574,-3.0563316345214844
1701054539494753000,4.4327529296875,0.40078091621398926,2.171583652496338,-1.4003033638000488
1701054539511743700,4.44974365234375,2.452937602996826,1.8084101676940918,-0.40639448165893555
1701054539528734500,4.466734375,2.5465192794799805,1.6719961166381836,-0.5989599227905273
1701054539545725200,4.48372509765625,0.690943717956543,0.7285332679748535,-1.0430693626403809
1701054539562716200,4.500716064453125,-3.9962077140808105,0.08138227462768555,-1.2647333145141602
1701054539579703000,4.517703125,-5.329329013824463,-0.13501214981079102,-2.474271774291992
1701054539596701700,4.53470166015625,-3.81374454498291,-0.8705286979675293,-3.327260732650757
1701054539613687000,4.55168701171875,-0.7023124694824219,-2.3197343349456787,-3.769881010055542
1701054539630680800,4.568680908203125,2.4884181022644043,-3.2677876949310303,-4.459707260131836
1701054539647671000,4.585671142578125,4.046407222747803,-2.779430389404297,-3.587839365005493
1701054539664660700,4.60266064453125,1.671198844909668,-2.006434440612793,-2.011430025100708
1701054539681651700,4.619651611328125,0.029825210571289062,-1.6486027240753174,-0.63981032371521
1701054539698642400,4.636642333984375,0.0606236457824707,-1.6139135360717773,-0.2831566333770752
1701054539715633200,4.653633056640625,1.8724408149719238,-1.9126229286193848,-0.16886687278747559
1701054539732624100,4.6706240234375,3.762338638305664,-2.0851521492004395,0.3648533821105957
1701054539749614600,4.687614501953125,3.0286073684692383,-1.7176051139831543,2.005465507507324
1701054539766605600,4.70460546875,1.7630062103271484,-1.7201180458068848,4.503647804260254
1701054539783595000,4.721594970703125,3.0742273330688477,-1.7384426593780518,5.224562644958496
1701054539800587300,4.738587158203125,5.526383399963379,-2.376145362854004,4.768827438354492
1701054539817578500,4.75557861328125,6.609167098999023,-3.019975185394287,4.127626419067383
1701054539834568200,4.772568115234375,4.72769832611084,-2.474804162979126,5.634319305419922
1701054539851559400,4.789559326171875,1.2241077423095703,-1.6727612018585205,8.17003059387207
1701054539868550100,4.806550048828125,0.6006016731262207,-1.7809505462646484,10.921931266784668
1701054539885540900,4.823540771484375,2.230898380279541,-2.7101798057556152,11.838591575622559
1701054539902531600,4.840531494140625,4.264354705810547,-2.210705280303955,13.215449333190918
1701054539919512600,4.8575126953125,2.774547576904297,-1.7814044952392578,13.254737854003906
1701054539936513500,4.874513427734375,0.1703042984008789,-1.4759612083435059,13.345743179321289
1701054539953500700,4.891500732421875,-4.910505294799805,-0.20950984954833984,13.828052520751953
1701054539970502000,4.908501953125,-7.292540550231934,-1.843904733657837,13.930678367614746
1701054539987482400,4.925482421875,-4.025501728057861,-2.1516997814178467,9.041779518127441
1701054540004476200,4.94247607421875,-0.3742704391479492,-3.137979507446289,3.81343150138855
1701054540021467400,4.95946728515625,2.692704200744629,-5.023344993591309,1.6274521350860596
1701054540038440200,4.976440185546875,5.603943824768066,-3.8525948524475098,5.352452278137207
1701054540055448800,4.99344873046875,2.591193199157715,-1.3137872219085693,6.2512102127075195
1701054540072439300,5.010439208984375,1.9113860130310059,-0.4032936096191406,6.545675277709961
1701054540089430300,5.02743017578125,2.563380718231201,-0.7938473224639893,7.1845502853393555
1701054540106421200,5.044421142578125,0.03883171081542969,-0.816758394241333,7.561060905456543
1701054540123412000,5.061411865234375,-1.5667991638183594,-0.643437385559082,9.29738998413086
1701054540140402700,5.078402587890625,-3.6653666496276855,-0.22952699661254883,11.091976165771484
1701054540157393400,5.095393310546875,-3.4355483055114746,-1.2159476280212402,11.341453552246094
1701054540174384400,5.11238427734375,0.2863321304321289,-2.3485827445983887,9.408395767211914
1701054540191375000,5.129375,4.0905866622924805,-2.8348324298858643,8.994610786437988
1701054540208367900,5.146367919921875,7.084775447845459,-2.3936972618103027,8.282906532287598
1701054540225354800,5.163354736328125,7.209705829620361,-1.7251172065734863,6.637509346008301
1701054540242347500,5.180347412109375,4.904495716094971,-1.7775893211364746,6.737411975860596
1701054540259328000,5.197327880859375,2.004077434539795,-1.9187853336334229,7.581179618835449
1701054540276327700,5.21432763671875,-0.389981746673584,-2.264427423477173,7.544870376586914
1701054540293320700,5.23132080078125,-1.8160595893859863,-2.2717764377593994,7.176173210144043
1701054540310310400,5.248310302734375,0.04113483428955078,-2.4827990531921387,5.432883262634277
1701054540327301400,5.26530126953125,3.1542043685913086,-2.7348146438598633,4.41293478012085
1701054540344292000,5.2822919921875,5.941413402557373,-2.6768481731414795,2.7319116592407227
1701054540361282800,5.29928271484375,8.818841934204102,-1.874877691268921,0.7135453224182129
1701054540386760200,5.32476025390625,8.791580200195312,-0.44155454635620117,-2.8287200927734375
1701054540403759400,5.34175927734375,6.270190238952637,0.015660762786865234,-4.267765045166016
1701054540420752400,5.35875244140625,5.675943851470947,0.591524600982666,-5.61484956741333
1701054540437740800,5.37574072265625,4.401367664337158,1.0142936706542969,-6.244685173034668
1701054540454732500,5.392732666015625,1.5188655853271484,1.156214714050293,-7.335021495819092
1701054540471712500,5.40971240234375,0.8515758514404297,0.7756304740905762,-8.585872650146484
1701054540488708400,5.426708251953125,2.068833827972412,0.16919755935668945,-11.414447784423828
1701054540505693700,5.443693603515625,4.853888511657715,0.9765515327453613,-10.389535903930664
1701054540522688300,5.460688232421875,5.601117134094238,1.9858293533325195,-11.189312934875488
1701054540539674600,5.477674560546875,6.724598407745361,1.489006519317627,-11.628199577331543
1701054540556665900,5.494665771484375,5.144658088684082,1.835256576538086,-10.344135284423828
1701054540573661000,5.511660888671875,2.903965711593628,2.122899055480957,-9.109546661376953
1701054540590651400,5.5286513671875,0.9000058174133301,1.6050429344177246,-8.239615440368652
1701054540607638800,5.545638671875,-0.29982948303222656,0.2305464744567871,-8.002984046936035
1701054540624626400,5.56262646484375,-0.3593266010284424,-0.006178379058837891,-7.3784284591674805
1701054540641630500,5.57963037109375,-1.0057477951049805,-0.030848026275634766,-6.680665016174316
1701054540658619100,5.596619140625,-1.3800128698349,0.038167476654052734,-6.181726455688477
1701054540675614500,5.613614501953125,-2.375138521194458,-0.2717432975769043,-4.907402992248535
1701054540692603600,5.630603759765625,-2.7683682441711426,-0.2598876953125,-3.675786018371582
1701054540709593300,5.64759326171875,-2.913142681121826,-0.2801222801208496,-3.644199848175049
1701054540726585000,5.664585205078125,-2.5222549438476562,-0.4246101379394531,-3.839322805404663
1701054540743575000,5.681574951171875,-1.9848536252975464,-0.4612236022949219,-4.423941135406494
1701054540760575700,5.69857568359375,-0.6010143756866455,-0.9418787956237793,-5.395369529724121
1701054540777556500,5.715556396484375,0.07883524894714355,-1.406571388244629,-6.6836137771606445
1701054540794548200,5.73254833984375,0.07229828834533691,-1.519808292388916,-7.126916885375977
1701054540811538200,5.7495380859375,-0.47304797172546387,-1.3903312683105469,-7.380822658538818
1701054540828530000,5.766530029296875,-0.12538456916809082,-1.1060147285461426,-7.7379655838012695
1701054540845520000,5.783519775390625,0.1937708854675293,-0.9580211639404297,-7.068324089050293
1701054540862524400,5.8005244140625,0.4173145294189453,-0.9802536964416504,-6.334792137145996
1701054540879501600,5.81750146484375,0.0480351448059082,-0.8084959983825684,-5.609097480773926
1701054540896493300,5.834493408203125,0.7708301544189453,-0.5420012474060059,-6.125639915466309
1701054540913482800,5.851482666015625,3.48234224319458,-0.18345069885253906,-6.257627010345459
1701054540930474200,5.86847412109375,2.232384204864502,0.38863134384155273,-3.3716518878936768
1701054540947469300,5.88546923828125,0.753943920135498,1.520118236541748,-1.750244140625
1701054540964456200,5.902456298828125,0.966285228729248,2.475355625152588,-1.4589946269989014
1701054540981446000,5.91944580078125,1.006030559539795,2.3760313987731934,-1.2269923686981201
1701054540998437400,5.936437255859375,2.3404321670532227,1.386929988861084,-0.8381428718566895
1701054541015427800,5.953427734375,2.4974002838134766,1.6214895248413086,-1.4823219776153564
1701054541032421000,5.970421142578125,1.4611811637878418,1.704427719116211,0.2858567237854004
1701054541049407200,5.9874072265625,0.5145506858825684,1.947819709777832,1.549025535583496
1701054541066400500,6.004400390625,1.9419631958007812,1.932021141052246,1.9180610179901123
1701054541083387600,6.0213876953125,4.321453094482422,0.6870274543762207,2.6670138835906982
1701054541100382500,6.038382568359375,4.118427276611328,-0.6088309288024902,3.4422364234924316
1701054541117372400,6.055372314453125,2.0162267684936523,-1.3196842670440674,4.219174385070801
1701054541134363400,6.07236328125,-0.47117090225219727,-0.8596835136413574,4.935949802398682
1701054541151352300,6.089352294921875,-2.102613925933838,-0.6627345085144043,4.658059120178223
1701054541168347400,6.106347412109375,-0.874122142791748,-1.3232123851776123,4.634355545043945
1701054541185335300,6.123335205078125,1.490797996520996,-2.2637524604797363,5.028913497924805
1701054541202327000,6.1403271484375,3.302387237548828,-2.96663236618042,5.806417465209961
1701054541219306800,6.157306640625,2.7647552490234375,-2.1175811290740967,6.395692825317383
1701054541236308700,6.174308837890625,0.9199066162109375,-1.4432120323181152,6.696249961853027
1701054541253300000,6.191300048828125,0.7700204849243164,-1.3829998970031738,7.070528984069824
1701054541270286000,6.2082861328125,0.9289731979370117,-2.321049690246582,7.471175193786621
1701054541287283000,6.225282958984375,1.8939428329467773,-2.9314894676208496,7.906187534332275
1701054541304271600,6.242271728515625,0.44705867767333984,-2.8588359355926514,8.317800521850586
1701054541321261300,6.25926123046875,0.5050554275512695,-2.789130449295044,7.824295997619629
1701054541338253000,6.276253173828125,2.209362030029297,-2.9030673503875732,8.38642692565918
1701054541355243500,6.293243408203125,1.2520885467529297,-2.5148587226867676,9.156720161437988
1701054541372235000,6.310235107421875,-3.474188804626465,-3.2156615257263184,6.843123435974121
1701054541389224700,6.327224609375,-3.126347541809082,-4.369791030883789,8.577203750610352
1701054541406216200,6.34421630859375,-2.0910239219665527,-3.381186008453369,7.959502696990967
1701054541423206700,6.36120654296875,-1.3642544746398926,-2.893551826477051,4.76564884185791
1701054541440204500,6.37820458984375,2.4569902420043945,-3.8603127002716064,3.855496406555176
1701054541457187800,6.395187744140625,4.252164840698242,-3.5777242183685303,4.949846267700195
1701054541474179300,6.412179443359375,0.2597808837890625,-2.5500693321228027,5.491848945617676
1701054541491169800,6.429169677734375,0.36681365966796875,-1.2196745872497559,6.289371013641357
1701054541508159500,6.446159423828125,3.825446128845215,-0.7615847587585449,7.280615329742432
1701054541525151500,6.4631513671875,3.7536535263061523,-0.33173656463623047,7.931741237640381
1701054541542144500,6.48014453125,-0.5402050018310547,-0.03012990951538086,9.222721099853516
1701054541559121000,6.497120849609375,-3.9605255126953125,0.18402767181396484,10.82254409790039
1701054541576124200,6.514124267578125,-5.168395042419434,0.020438194274902344,11.127880096435547
1701054541593113900,6.53111376953125,-3.7895541191101074,-1.3562614917755127,9.85917854309082
1701054541610105600,6.548105712890625,1.5702857971191406,-2.7804083824157715,8.391342163085938
1701054541627095800,6.565095703125,6.855530738830566,-3.1433424949645996,6.69504451751709
1701054541644087600,6.582087646484375,7.928262710571289,-1.9098907709121704,6.5804762840271
1701054541661077200,6.5990771484375,4.936315059661865,-1.1737234592437744,8.593765258789062
1701054541678058200,6.616058349609375,2.0531535148620605,-0.8138422966003418,10.326241493225098
1701054541695056400,6.633056396484375,0.24005556106567383,-0.8132784366607666,10.805013656616211
1701054541712053200,6.65005322265625,1.092451572418213,-1.5742242336273193,9.319305419921875
1701054541729040000,6.667039794921875,2.8414087295532227,-2.2498555183410645,7.386188983917236
1701054541746032400,6.684032470703125,5.138452053070068,-2.5057921409606934,5.594137668609619
1701054541763011600,6.701011474609375,6.182230472564697,-2.6416468620300293,3.6564841270446777
1701054541780013600,6.718013671875,6.684978008270264,-2.2110109329223633,2.5717616081237793
1701054541797002200,6.735002197265625,6.079197883605957,-1.3554377555847168,0.878392219543457
1701054541813995000,6.7519951171875,6.661662578582764,-0.9809780120849609,-1.0791330337524414
1701054541830985200,6.768985107421875,7.454859733581543,-0.31359434127807617,-2.6629977226257324
1701054541847966200,6.78596630859375,7.671450138092041,0.41396188735961914,-4.074812412261963
1701054541864966700,6.802966552734375,6.926023006439209,0.6793456077575684,-4.907017707824707
1701054541881958100,6.819958251953125,5.892013072967529,1.0264678001403809,-7.309062957763672
1701054541898948400,6.8369482421875,6.186546802520752,1.8328566551208496,-10.87481689453125
1701054541915940000,6.853940185546875,6.030208587646484,1.1852970123291016,-13.906272888183594
1701054541932929800,6.8709296875,5.799320697784424,1.3956923484802246,-13.431844711303711
1701054541949921300,6.88792138671875,4.47270393371582,2.510869026184082,-13.088066101074219
1701054541966911500,6.904911376953125,3.9453506469726562,2.800034523010254,-12.224971771240234
1701054541983892500,6.921892578125,1.9965486526489258,2.63496732711792,-10.829303741455078
1701054542000893000,6.938892822265625,-0.013313770294189453,2.18483829498291,-9.374439239501953
1701054542017884400,6.955884521484375,-0.36049818992614746,0.9367337226867676,-7.998985290527344
1701054542034873900,6.972873779296875,-1.0834800004959106,-0.5167856216430664,-7.585136890411377
1701054542051866600,6.98986669921875,-2.192241907119751,-0.9108529090881348,-7.257140159606934
1701054542068856300,7.006856201171875,-3.3563590049743652,-1.10479736328125,-6.6012983322143555
1701054542085847600,7.02384765625,-3.8560409545898438,-1.0593743324279785,-6.333062648773193
1701054542102838000,7.040838134765625,-3.3710219860076904,-1.1526827812194824,-5.4195637702941895
1701054542119818800,7.05781884765625,-3.2709593772888184,-1.5313224792480469,-4.878535747528076
1701054542136810000,7.07481005859375,-3.1041173934936523,-1.883509635925293,-4.515478134155273
1701054542153803300,7.09180322265625,-2.9439704418182373,-1.7688922882080078,-4.482756614685059
1701054542170794000,7.1087939453125,-2.137399196624756,-1.3573923110961914,-4.261745452880859
1701054542187789800,7.125789794921875,-1.1858397722244263,-1.1033310890197754,-3.5116119384765625
1701054542204774000,7.14277392578125,-1.3358826637268066,-0.9038352966308594,-3.299255847930908
1701054542221767400,7.159767333984375,-1.8667628765106201,-0.719510555267334,-3.2447609901428223
1701054542238753500,7.17675341796875,-0.7005809545516968,-0.7345948219299316,-3.6246330738067627
1701054542255746600,7.19374658203125,-0.13524246215820312,-0.814910888671875,-4.761677265167236
1701054542272739000,7.210739013671875,-0.20809054374694824,-0.603752613067627,-5.13499641418457
1701054542289729000,7.22772900390625,-0.12710213661193848,-0.5254249572753906,-5.379181385040283
1701054542306719700,7.2447197265625,0.2594339847564697,-0.8646340370178223,-5.017624855041504
1701054542323723300,7.26172314453125,-0.4967665672302246,-1.1337709426879883,-4.945834636688232
1701054542340707000,7.27870703125,-1.086028814315796,-0.7084240913391113,-4.695282936096191
1701054542357700000,7.2957001953125,-0.014280319213867188,-0.6514239311218262,-4.595268249511719
1701054542374679300,7.31267919921875,1.3456623554229736,-0.2772960662841797,-4.647841453552246
1701054542391682000,7.32968212890625,1.7609150409698486,-0.4894723892211914,-4.151245594024658
1701054542408671700,7.346671630859375,1.4457271099090576,-0.5175809860229492,-2.9904956817626953
1701054542425663200,7.363663330078125,-0.6119527816772461,-0.1559314727783203,-1.9826946258544922
1701054542442653700,7.38065380859375,-1.5257768630981445,0.27382850646972656,-0.812868595123291
1701054542459645000,7.39764501953125,0.8652076721191406,0.24168920516967773,0.08197546005249023
1701054542476635000,7.414634765625,2.497985363006592,-0.4651608467102051,0.11061620712280273
1701054542493626400,7.43162646484375,1.644482135772705,-0.04333782196044922,-0.30376768112182617
1701054542510616600,7.448616455078125,1.5029692649841309,0.11758136749267578,0.5060691833496094
1701054542527608300,7.4656083984375,0.13212823867797852,-0.24344778060913086,1.686781406402588
1701054542544597800,7.48259765625,0.13310480117797852,-0.815617561340332,1.7789158821105957
1701054542561589500,7.499589599609375,1.3527169227600098,-1.2934298515319824,1.2297859191894531
1701054542578580000,7.516580078125,2.1036272048950195,-1.7238481044769287,0.8924193382263184
1701054542595571500,7.533571533203125,2.0816268920898438,-1.258734941482544,1.57072114944458
1701054542612561000,7.550560791015625,-0.11825180053710938,-1.0124497413635254,3.4577808380126953
1701054542629552600,7.567552734375,-0.834343433380127,-1.008929967880249,5.060959339141846
1701054542646542800,7.58454296875,-1.9575800895690918,-0.9593813419342041,4.848823547363281
1701054542663534300,7.601534423828125,-2.509617805480957,-0.9977355003356934,3.873708724975586
1701054542680524300,7.618524169921875,-1.0281553268432617,-1.061997413635254,3.1018707752227783
1701054542697515800,7.635515869140625,-0.515984058380127,-1.7218873500823975,2.904500722885132
1701054542714506000,7.652506103515625,-0.4169588088989258,-2.289614677429199,3.59159255027771
1701054542731497500,7.66949755859375,0.7464818954467773,-2.704092025756836,4.2541913986206055
1701054542748487400,7.6864873046875,2.1959381103515625,-2.179624080657959,3.0246529579162598
1701054542765471000,7.703470947265625,3.069870948791504,-1.335343837738037,2.0916130542755127
1701054542782469400,7.720469482421875,4.278276443481445,-1.7317783832550049,2.4459569454193115
1701054542799460600,7.737460693359375,4.8602294921875,-2.3403701782226562,3.564784288406372
1701054542816440300,7.7544404296875,2.462614059448242,-1.9564807415008545,5.312286376953125
1701054542833442000,7.771442138671875,2.5749902725219727,-1.4170448780059814,5.635972023010254
1701054542850432300,7.788432373046875,4.830340385437012,-1.455146312713623,4.994060516357422
1701054542867423700,7.805423828125,5.511175155639648,-1.5934007167816162,4.343319892883301
1701054542884413700,7.82241357421875,5.051037788391113,-1.8878097534179688,3.6825759410858154
1701054542901405200,7.8394052734375,5.404060363769531,-2.5469489097595215,3.894846200942993
1701054542918395600,7.856395751953125,1.8153295516967773,-1.474358081817627,5.699976921081543
1701054542935387100,7.87338720703125,-7.177609443664551,-1.2373521327972412,9.7843017578125
1701054542952366000,7.890365966796875,-13.695810317993164,-1.1446185111999512,12.910758018493652
1701054542969368300,7.907368408203125,-12.064621925354004,-0.5540058612823486,12.405609130859375
1701054542986348300,7.924348388671875,-3.9435248374938965,-0.9825305938720703,6.778256416320801
1701054543003350300,7.941350341796875,3.8469200134277344,-4.00894021987915,2.486711263656616
1701054543020342500,7.958342529296875,8.722049713134766,-4.364040851593018,2.5923428535461426
1701054543037329200,7.9753291015625,5.789762496948242,-1.9714715480804443,6.309421539306641
1701054543054322000,7.992322021484375,4.022376537322998,-0.1876544952392578,7.263586044311523
1701054543071313400,8.0093134765625,5.641729831695557,-0.761021614074707,5.688681602478027
1701054543088303000,8.02630322265625,4.012427806854248,-1.0045676231384277,4.5490922927856445
1701054543105294600,8.043294677734375,-1.0190696716308594,-0.9018480777740479,5.859086513519287
1701054543122284500,8.060284423828126,-8.141925811767578,-0.13445234298706055,10.555198669433594
1701054543139276800,8.07727685546875,-12.748273849487305,0.21370887756347656,11.908023834228516
1701054543156266200,8.094266357421875,-1.9110870361328125,-0.5506391525268555,8.683918952941895
1701054543173257700,8.1112578125,4.112051010131836,-2.857018232345581,7.211346626281738
1701054543190248000,8.128248046875,9.920238494873047,-2.1693663597106934,6.6693830490112305
1701054543207239400,8.145239501953125,7.884607791900635,-0.43639516830444336,7.005131721496582
1701054543224229400,8.1622294921875,3.3046488761901855,0.2977466583251953,7.346444606781006
1701054543241212200,8.179212158203125,-1.3202018737792969,0.5427899360656738,8.392179489135742
1701054543258210000,8.1962099609375,-3.056795835494995,0.15534019470214844,8.924641609191895
1701054543275207000,8.21320703125,-1.6037492752075195,-0.44011735916137695,8.101566314697266
1701054543292192500,8.230192626953125,3.2268762588500977,-0.985309362411499,6.542640686035156
1701054543309184000,8.24718408203125,5.649219036102295,-0.8729891777038574,4.123790740966797
1701054543326174500,8.264174560546875,8.139286994934082,-1.5169243812561035,1.4606351852416992
1701054543343163400,8.281163330078124,9.000175476074219,-1.0776991844177246,-1.8520679473876953
1701054543360158200,8.298158203125,9.516557693481445,-0.03405570983886719,-3.7766666412353516
1701054543377147100,8.315147216796875,9.604528427124023,1.1430926322937012,-5.591856002807617
1701054543394137300,8.332137451171874,8.590147018432617,2.2748894691467285,-7.007675647735596
1701054543411128800,8.34912890625,7.4970879554748535,1.7165803909301758,-7.5531792640686035
1701054543428118800,8.366118896484375,6.242135524749756,1.3537750244140625,-8.190338134765625
1701054543445110300,8.3831103515625,5.890203952789307,-0.18759512901306152,-9.035076141357422
1701054543462100500,8.4001005859375,5.714940071105957,-0.6233487129211426,-10.108325958251953
1701054543479092000,8.417092041015625,4.439150810241699,0.1291828155517578,-10.485860824584961
1701054543496081700,8.43408154296875,4.042858123779297,0.6856298446655273,-10.122713088989258
1701054543513073400,8.451073486328125,4.771470069885254,1.06919527053833,-8.96141242980957
1701054543530063600,8.468063720703125,4.535552978515625,0.9317355155944824,-9.012458801269531
1701054543547052300,8.48505224609375,3.4030842781066895,0.6253609657287598,-9.441656112670898
1701054543564047600,8.502047607421876,0.8106517791748047,0.5420923233032227,-7.895011901855469
1701054543581036500,8.51903662109375,-1.330548644065857,0.12801742553710938,-7.5283379554748535
1701054543598033700,8.53603369140625,-3.3949358463287354,-0.817927360534668,-6.692689418792725
1701054543615015000,8.553014892578124,-3.85599946975708,-0.9524991512298584,-5.321908950805664
1701054543631998200,8.569998291015626,-3.220457077026367,-1.2712359428405762,-3.913667678833008
1701054543648999700,8.586999755859376,-2.1004419326782227,-1.2660894393920898,-3.834824562072754
1701054543665989600,8.60398974609375,-2.0082154273986816,-0.8851547241210938,-4.026205062866211
1701054543682983700,8.620983642578125,-1.7071812152862549,-0.5002074241638184,-4.244890213012695
1701054543699969000,8.637968994140625,0.11011052131652832,-0.39994382858276367,-4.098772048950195
1701054543716962600,8.654962646484375,0.7505898475646973,-0.65478515625,-3.6397085189819336
1701054543733950500,8.671950439453125,-0.1375596523284912,-0.6398882865905762,-3.8637585639953613
1701054543750947300,8.688947265625,-0.26439762115478516,-0.47209644317626953,-4.9439592361450195
1701054543767934200,8.705934326171874,-0.09052133560180664,-0.6370062828063965,-5.914668083190918
1701054543784925700,8.72292578125,0.47145819664001465,-0.2870464324951172,-6.493011474609375
1701054543801905400,8.739905517578125,0.7563118934631348,-0.31600475311279297,-6.1518144607543945
1701054543818906400,8.75690625,0.8969194889068604,-0.7761707305908203,-5.2089996337890625
1701054543835898600,8.773898681640626,0.9729347229003906,-0.6488809585571289,-4.445749759674072
1701054543852889300,8.790889404296875,0.474362850189209,-0.29733848571777344,-4.747797012329102
1701054543869879300,8.80787939453125,1.7769043445587158,0.2015233039855957,-4.810460090637207
1701054543886858000,8.82485791015625,1.3209004402160645,0.24719619750976562,-4.44194221496582
1701054543903852500,8.8418525390625,0.42492008209228516,-0.20009136199951172,-3.207653522491455
1701054543920854500,8.8588544921875,-0.46704649925231934,0.2985377311706543,-1.7998743057250977
1701054543937856000,8.87585595703125,-0.6636037826538086,0.6030268669128418,-0.6104202270507812
1701054543954834000,8.892833984375,0.5057497024536133,0.9361023902893066,-0.8771958351135254
1701054543971812000,8.90981201171875,0.15276193618774414,0.42917442321777344,-1.0494732856750488
1701054543988806000,8.926805908203125,1.018873691558838,-0.7723703384399414,-0.7174463272094727
1701054544005800200,8.94380029296875,1.1643695831298828,-0.5067071914672852,0.551689624786377
1701054544022786800,8.960786865234375,-1.0628013610839844,-0.3641085624694824,2.5401387214660645
1701054544039776300,8.9777763671875,-2.2363054752349854,-0.06480121612548828,2.9631757736206055
1701054544056768300,8.994768310546876,-1.508366584777832,0.013915061950683594,2.2084784507751465
1701054544073761800,9.01176171875,-0.9412093162536621,-0.5469393730163574,1.711820125579834
1701054544090755300,9.02875537109375,1.340221881866455,-0.821901798248291,1.5976643562316895
1701054544107743200,9.0457431640625,1.3840384483337402,-1.2657418251037598,3.440462589263916
1701054544124741000,9.0627412109375,-0.15314197540283203,-1.7079603672027588,4.681557655334473
1701054544141734400,9.079734375,0.5352392196655273,-1.8114793300628662,3.424100399017334
1701054544158723300,9.096723388671874,1.3556151390075684,-1.9694263935089111,2.3465352058410645
1701054544175713000,9.113713134765625,1.9471220970153809,-2.351614236831665,2.541935682296753
1701054544192704500,9.13070458984375,1.3730640411376953,-2.5392062664031982,3.6010913848876953
1701054544209695000,9.147695068359376,0.039531707763671875,-2.4469707012176514,5.012480735778809
1701054544226686700,9.164686767578125,0.368868350982666,-2.2112233638763428,5.805034160614014
1701054544243676400,9.181676513671874,1.9431767463684082,-2.1142780780792236,5.730596542358398
1701054544260668000,9.19866796875,2.287228584289551,-2.164822816848755,5.59661865234375
1701054544277656000,9.215656005859374,1.3425750732421875,-2.3541297912597656,5.48686408996582
1701054544294649300,9.2326494140625,2.0812768936157227,-3.1230506896972656,5.881531238555908
1701054544311642400,9.249642333984376,1.0374350547790527,-3.027480125427246,6.051057815551758
1701054544328628500,9.26662841796875,0.020530223846435547,-2.395005702972412,6.756675720214844
1701054544345621200,9.283621337890626,2.343808174133301,-2.3525586128234863,7.786256313323975
1701054544362612700,9.30061279296875,5.064155578613281,-1.8728752136230469,9.815271377563477
1701054544379600400,9.317600341796876,0.38367700576782227,0.08523082733154297,9.135520935058594
1701054544396596700,9.3345966796875,-7.774188995361328,-0.05406951904296875,9.021839141845703
1701054544413581600,9.35158154296875,-10.415788650512695,-1.1265645027160645,11.232712745666504
1701054544430578700,9.36857861328125,-8.122381210327148,-1.6302886009216309,9.151102066040039
1701054544447565600,9.385565673828125,-2.41549015045166,-2.581223964691162,7.163233280181885
1701054544464555800,9.4025556640625,1.7472758293151855,-2.489102602005005,7.502021789550781
1701054544481546500,9.41954638671875,2.9282655715942383,-1.1183319091796875,7.782804012298584
1701054544498541600,9.43654150390625,2.5097079277038574,-0.7473373413085938,8.870516777038574
1701054544515524400,9.4535244140625,3.734635353088379,-0.2356252670288086,7.854948997497559
1701054544532520400,9.4705205078125,3.5093774795532227,-0.06065249443054199,8.066720008850098
1701054544549513500,9.487513427734376,1.609673023223877,0.2036604881286621,8.528514862060547
1701054544566499300,9.504499267578124,-2.8221521377563477,0.4211082458496094,8.857632637023926
1701054544583493000,9.5214931640625,-3.972184658050537,0.04517793655395508,9.071474075317383
1701054544600483600,9.538483642578125,-1.962791919708252,-0.6388092041015625,8.420808792114258
1701054544617473800,9.555473876953124,1.293929100036621,-1.1775333881378174,7.687658309936523
1701054544634465500,9.572465576171876,4.105310440063477,-1.4060704708099365,6.693099498748779
1701054544651455200,9.589455322265625,5.452905178070068,-1.1939833164215088,5.896435737609863
1701054544668446700,9.60644677734375,4.464555263519287,-1.0745882987976074,5.004194736480713
1701054544685423600,9.623423583984374,2.992147922515869,-0.47095632553100586,4.948445796966553
1701054544702419200,9.640419189453125,2.6040215492248535,0.16269636154174805,4.680646896362305
1701054544719411200,9.6574111328125,3.231692314147949,0.34030723571777344,4.003074645996094
1701054544736409900,9.674409912109375,4.343217372894287,0.017205238342285156,2.6290292739868164
1701054544753389300,9.691389404296874,4.6962738037109375,-0.21752548217773438,0.8085498809814453
1701054544770389000,9.708388916015625,5.713760852813721,-0.12601995468139648,-0.9611072540283203
1701054544787383800,9.7253837890625,6.463461399078369,0.7789144515991211,-3.2853338718414307
1701054544804372700,9.742372802734375,6.147963047027588,1.3297247886657715,-5.391043663024902
1701054544821363200,9.75936328125,5.271340370178223,1.4042448997497559,-7.6827712059021
1701054544838344400,9.776344482421875,4.2756428718566895,0.609553337097168,-9.697504997253418
1701054544855341800,9.793341796875,4.387609958648682,-0.31752443313598633,-10.943073272705078
1701054544872338400,9.81033837890625,3.805379629135132,-0.785698413848877,-11.024474143981934
1701054544889326300,9.827326416015625,2.2575695514678955,-0.09130001068115234,-9.60793685913086
1701054544906317800,9.84431787109375,0.8010647296905518,0.6347527503967285,-8.93499755859375
1701054544923307500,9.8613076171875,0.9875783920288086,0.7534136772155762,-8.164811134338379
1701054544940299300,9.87829931640625,3.1942596435546875,0.5327897071838379,-7.032730579376221
1701054544957275600,9.895275634765625,2.9244837760925293,0.3653879165649414,-6.650254249572754
1701054544974281200,9.91228125,0.2745065689086914,0.024492263793945312,-6.6663031578063965
1701054544991270700,9.929270751953124,-0.38297295570373535,0.2090458869934082,-5.8880696296691895
1701054545008262100,9.94626220703125,-0.04551255702972412,-0.09753799438476562,-5.475419044494629
1701054545025252600,9.963252685546875,-0.2571357488632202,-0.3034234046936035,-5.499945640563965
1701054545042241800,9.98024169921875,-0.5982528924942017,-0.6903586387634277,-5.8200249671936035
1701054545059229700,9.997229736328125,-0.47988855838775635,-1.1812639236450195,-5.719908237457275
1701054545076225300,10.014225341796875,-0.6813681125640869,-1.1908278465270996,-5.3939080238342285
1701054545093215500,10.031215576171874,-0.8126069903373718,-0.8761110305786133,-4.483366012573242
1701054545110207500,10.04820751953125,-0.8032684326171875,-0.6505107879638672,-3.8256630897521973
1701054545127196700,10.06519677734375,-1.2515158653259277,-0.8264589309692383,-3.715579032897949
1701054545144186000,10.08218603515625,-1.0289889574050903,-1.1833672523498535,-3.9513049125671387
1701054545161179000,10.099178955078125,-0.34967541694641113,-1.3977580070495605,-4.06500244140625
1701054545178162400,10.116162353515625,-0.020841240882873535,-1.3730731010437012,-4.267098903656006
1701054545195157800,10.13315771484375,-0.3504350185394287,-1.2186431884765625,-4.1901350021362305
1701054545212152800,10.15015283203125,-0.7322707176208496,-1.2916383743286133,-4.495640277862549
1701054545229143000,10.16714306640625,-1.2139759063720703,-1.1625471115112305,-5.733027935028076
1701054545246133500,10.184133544921876,-0.7890580892562866,-0.939934253692627,-6.127840518951416
1701054545263123500,10.20112353515625,-0.1730942726135254,-1.10369873046875,-4.770626544952393
1701054545280107000,10.21810693359375,-0.14891505241394043,-1.233377456665039,-3.5202107429504395
1701054545297105400,10.23510546875,0.3468210697174072,-1.0430917739868164,-3.3022961616516113
1701054545314097000,10.252096923828125,0.743701696395874,-1.1149969100952148,-3.083775520324707
1701054545331086600,10.269086669921874,0.3010585308074951,-0.5821514129638672,-2.9587535858154297
1701054545348075000,10.286074951171875,-1.0244829654693604,0.11945486068725586,-1.9714550971984863
1701054545365070600,10.303070556640625,-1.6184473037719727,0.30654096603393555,-0.7411766052246094
1701054545382054100,10.32005419921875,-1.2965176105499268,0.022895336151123047,-0.3636970520019531
1701054545399049500,10.337049560546875,-0.8243899345397949,-0.33501195907592773,-0.4170985221862793
1701054545416041700,10.354041748046875,0.9104986190795898,-0.659881591796875,-0.7226636409759521
1701054545433030700,10.37103076171875,3.5721044540405273,-1.134718418121338,-0.7652301788330078
1701054545450023000,10.38802294921875,3.9306836128234863,-1.0040855407714844,0.2221541404724121
1701054545467012600,10.4050126953125,0.29504919052124023,-0.15873050689697266,2.009622573852539
1701054545484004000,10.422004150390626,-2.7326953411102295,0.00586700439453125,3.6237106323242188
1701054545500994600,10.43899462890625,-2.1739511489868164,-0.31028127670288086,3.1285319328308105
1701054545517991200,10.4559912109375,1.0734481811523438,-1.1840872764587402,2.80098819732666
1701054545534972400,10.472972412109375,3.049941062927246,-2.130911350250244,2.166189193725586
1701054545551970600,10.489970458984375,2.2402963638305664,-2.535815477371216,2.1808457374572754
1701054545568957700,10.506957763671876,-0.022248268127441406,-2.18910551071167,3.1809427738189697
1701054545585949000,10.523948974609375,-0.49892568588256836,-1.7436294555664062,3.658092498779297
1701054545602926800,10.5409267578125,-0.1636500358581543,-1.3398094177246094,3.6227946281433105
1701054545619920600,10.557920654296876,1.2639045715332031,-1.5156574249267578,4.6449689865112305
1701054545636913200,10.5749130859375,3.170437812805176,-1.8434526920318604,5.051449775695801
1701054545653905400,10.591905517578125,4.11148738861084,-2.1610100269317627,4.883103370666504
1701054545670892000,10.60889208984375,4.392802715301514,-2.077868938446045,4.590102195739746
1701054545687885800,10.6258857421875,2.696333408355713,-1.695134162902832,4.021725654602051
1701054545704877300,10.642877197265625,0.7324662208557129,-1.5499918460845947,4.899910926818848
1701054545721867300,10.6598671875,1.2315483093261719,-2.169393301010132,6.924989700317383
1701054545738854700,10.676854736328124,3.4995298385620117,-2.607452392578125,7.638568878173828
1701054545755847400,10.693847412109376,4.0793914794921875,-2.759742498397827,7.745885372161865
1701054545772841200,10.71084130859375,2.472346782684326,-2.8963940143585205,6.976500034332275
1701054545789838600,10.727838623046875,2.0745177268981934,-2.7113118171691895,9.10778522491455
1701054545806828300,10.744828369140626,-2.6684279441833496,-1.980452299118042,7.6532087326049805
1701054545823820000,10.761820068359375,-4.604302883148193,-3.9174418449401855,9.187281608581543
1701054545840810000,10.77881005859375,-3.5251011848449707,-3.7251670360565186,10.158584594726562
1701054545857795300,10.79579541015625,0.5261988639831543,-3.236477851867676,8.769876480102539
1701054545874791400,10.81279150390625,3.6732683181762695,-3.6131114959716797,7.364984512329102
1701054545891783200,10.829783203125,3.4869155883789062,-3.356708526611328,7.096974849700928
1701054545908773400,10.8467734375,0.18245935440063477,-2.223649501800537,7.869410514831543
1701054545925764900,10.863764892578125,-0.14664363861083984,-1.0927190780639648,7.8110198974609375
1701054545942752000,10.880751953125,3.117906093597412,-0.7186458110809326,6.813197612762451
1701054545959748900,10.897748779296874,7.382053852081299,-0.14864110946655273,6.943503379821777
1701054545976734000,10.91473388671875,5.701950550079346,-0.23201751708984375,8.886856079101562
1701054545993734000,10.93173388671875,-6.601532459259033,0.6743173599243164,12.757532119750977
1701054546010714600,10.948714599609374,-13.339731216430664,0.778864860534668,16.06232261657715
1701054546027709400,10.96570947265625,-6.475789546966553,-0.5668702125549316,12.044254302978516
1701054546044699600,10.98269970703125,2.096377372741699,-1.9217314720153809,6.801409721374512
1701054546061691100,10.999691162109375,7.815794467926025,-1.9043247699737549,4.671042442321777
1701054546078680800,11.016680908203124,10.185249328613281,-1.4771254062652588,5.265108585357666
1701054546095672300,11.03367236328125,7.14362096786499,0.4353957176208496,5.032395362854004
1701054546112662500,11.05066259765625,6.2633442878723145,0.031223773956298828,4.4657769203186035
1701054546129654000,11.067654052734374,4.865723609924316,-0.4291529655456543,2.969541072845459
1701054546146644200,11.084644287109375,3.133680820465088,-0.9038114547729492,3.2728018760681152
1701054546163635500,11.101635498046875,2.127932071685791,-0.4794454574584961,4.000059604644775
1701054546180626000,11.1186259765625,4.38791036605835,-0.7745137214660645,2.293699264526367
1701054546197617400,11.135617431640625,6.116011142730713,-0.6815476417541504,-1.3654537200927734
1701054546214607600,11.152607666015625,7.1985182762146,-0.10874605178833008,-4.005278587341309
1701054546231595800,11.169595703125,8.309885025024414,0.7226028442382812,-6.0109782218933105
1701054546248591000,11.186591064453125,7.718595504760742,0.27489805221557617,-6.792723655700684
1701054546265568800,11.20356884765625,6.549151420593262,0.17728948593139648,-7.596134662628174
1701054546282570200,11.2205703125,2.2900609970092773,0.7956304550170898,-8.955223083496094
1701054546299557600,11.2375576171875,0.71551513671875,1.1979947090148926,-9.44111156463623
1701054546316556300,11.254556396484375,1.4902944564819336,1.5022306442260742,-11.204166412353516
1701054546333544200,11.271544189453126,2.5239970684051514,1.9229888916015625,-11.5531644821167
1701054546350533000,11.288533203125,4.4217023849487305,1.7099847793579102,-10.269004821777344
1701054546367524900,11.30552490234375,6.496501445770264,1.5591974258422852,-8.85852336883545
1701054546384515000,11.32251513671875,4.728340148925781,1.4085874557495117,-6.972811698913574
1701054546401496000,11.33949609375,1.286142349243164,0.9946541786193848,-6.334716796875
1701054546418494000,11.356493896484375,-0.8114142417907715,0.9318127632141113,-5.909482002258301
1701054546435490800,11.37349072265625,-1.0031622648239136,0.6892261505126953,-5.204916000366211
1701054546452478500,11.390478515625,-1.0647176504135132,0.21174955368041992,-4.958757400512695
1701054546469470000,11.407469970703126,-1.7597973346710205,-0.19264554977416992,-4.899783134460449
1701054546486460000,11.4244599609375,-2.0224459171295166,-0.8161664009094238,-4.9502272605896
1701054546503451400,11.441451416015624,-2.0616888999938965,-1.2085800170898438,-4.280335903167725
1701054546520441600,11.458441650390625,-2.064521312713623,-1.4498205184936523,-3.8648171424865723
1701054546537433000,11.47543310546875,-1.6998906135559082,-1.8407354354858398,-4.137388229370117
1701054546554422800,11.4924228515625,-0.5569692850112915,-1.6178264617919922,-5.103852272033691
1701054546571414300,11.509414306640625,0.6555824279785156,-1.2750334739685059,-5.250782012939453
1701054546588404700,11.52640478515625,1.636060357093811,-1.2286972999572754,-5.02640438079834
1701054546605396200,11.543396240234374,2.499077558517456,-1.389836311340332,-4.911561012268066
1701054546622386200,11.56038623046875,2.153979778289795,-1.4298744201660156,-4.53159236907959
1701054546639367000,11.577366943359374,1.3036047220230103,-1.2399282455444336,-4.36607551574707
1701054546656367600,11.59436767578125,1.1095696687698364,-1.2569990158081055,-3.949575901031494
1701054546673359400,11.611359375,1.5025980472564697,-1.0509772300720215,-4.404595375061035
1701054546690348800,11.628348876953124,1.8100666999816895,-0.9165101051330566,-4.8550286293029785
1701054546707340800,11.6453408203125,2.3263509273529053,-0.7021245956420898,-4.084752559661865
1701054546724331000,11.6623310546875,1.088474154472351,-0.954535961151123,-2.404810667037964
1701054546741322500,11.679322509765624,-1.0581865310668945,-1.048447608947754,-1.801856517791748
1701054546758312200,11.696312255859375,-1.7473745346069336,-0.8989996910095215,-2.495149850845337
1701054546775303400,11.713303466796875,-0.6316688060760498,-0.9482784271240234,-4.1403350830078125
1701054546792294000,11.7302939453125,0.7124574184417725,-0.21645021438598633,-4.459577560424805
1701054546809285600,11.74728564453125,0.7960000038146973,0.5351190567016602,-2.9563751220703125
1701054546826275300,11.764275390625,-0.7203494310379028,0.4480743408203125,-1.3645272254943848
1701054546843265500,11.781265625,-1.2018764019012451,-0.1689143180847168,-1.201395034790039
1701054546860257000,11.798257080078125,-1.3189374208450317,-0.7078995704650879,-1.740976095199585
1701054546877248500,11.81524853515625,-1.7243304252624512,-0.6226019859313965,-2.946643352508545
1701054546894238200,11.83223828125,-0.7916836738586426,-0.8811616897583008,-2.4333372116088867
1701054546911230000,11.84922998046875,2.0622639656066895,-0.5239911079406738,-1.2921955585479736
1701054546928220000,11.866219970703124,2.3022408485412598,-0.33319664001464844,-0.1469583511352539
1701054546945212000,11.8832119140625,0.3830399513244629,-0.012681007385253906,0.527623176574707
1701054546962201900,11.900201904296875,0.6577138900756836,0.04103374481201172,0.9629464149475098
1701054546979206700,11.91720654296875,2.1557445526123047,-0.02741098403930664,0.7517013549804688
1701054546996176100,11.934176025390625,2.020474910736084,-0.01995706558227539,1.4728097915649414
1701054547013175000,11.951175048828125,1.4390296936035156,-0.6932072639465332,3.1935577392578125
1701054547030164500,11.96816455078125,1.573075294494629,-1.4365239143371582,4.550766468048096
1701054547047156200,11.98515625,2.572227954864502,-1.9763741493225098,5.440456867218018
1701054547064146200,12.002146240234374,2.6950387954711914,-1.4543275833129883,5.099453926086426
1701054547081138200,12.01913818359375,0.8207545280456543,-0.7244195938110352,4.823341369628906
1701054547098117400,12.036117431640625,-0.1800069808959961,-0.6962170600891113,5.275200843811035
1701054547115117000,12.053116943359376,0.47535228729248047,-1.8267621994018555,6.289302825927734
1701054547132112000,12.07011181640625,2.3381810188293457,-3.4326465129852295,7.03892707824707
1701054547149097700,12.08709765625,3.720816135406494,-4.487255573272705,6.673563003540039
1701054547166091000,12.104091064453126,3.7187395095825195,-4.557011604309082,6.33485221862793
1701054547183082500,12.12108251953125,1.093188762664795,-3.565453052520752,7.055722236633301
1701054547200072700,12.13807275390625,-0.4875063896179199,-3.5935568809509277,8.888588905334473
1701054547217064400,12.155064453125,1.7912263870239258,-4.466031074523926,9.653209686279297
1701054547234051600,12.172051513671875,6.7143144607543945,-5.258795738220215,10.76455307006836
1701054547251048200,12.189048095703125,5.793858528137207,-4.642798900604248,10.376791000366211
1701054547268035800,12.206035888671876,2.8384952545166016,-3.5750935077667236,9.713382720947266
1701054547285016800,12.223016845703125,-2.352245807647705,-4.780997276306152,8.955710411071777
1701054547302018000,12.24001806640625,-5.106695652008057,-5.280041694641113,8.564168930053711
1701054547319010300,12.25701025390625,-4.159602165222168,-5.002717018127441,8.25576400756836
1701054547335998700,12.273998779296875,-2.9391353130340576,-4.4734673500061035,4.6088056564331055
1701054547352990500,12.290990478515624,0.39424991607666016,-5.2103800773620605,2.7139687538146973
1701054547369980200,12.307980224609375,3.1614270210266113,-4.284010887145996,3.9918298721313477
1701054547386959400,12.32495947265625,2.798912525177002,-1.6778254508972168,6.602917194366455
1701054547403953200,12.341953125,2.579033851623535,-0.41956615447998047,7.636674404144287
1701054547420945700,12.358945556640625,2.9902987480163574,-0.29259395599365234,7.639935493469238
1701054547437935900,12.375935791015625,1.4713220596313477,-0.3259143829345703,7.322005271911621
1701054547454932500,12.392932373046875,-0.5780892372131348,-0.7766947746276855,8.302543640136719
1701054547471917300,12.409917236328125,-2.8123250007629395,-1.1387617588043213,9.535112380981445
1701054547488910300,12.426910400390625,-2.7422053813934326,-1.8821265697479248,9.750812530517578
1701054547505898200,12.443898193359376,-0.23545503616333008,-2.3528707027435303,8.939443588256836
1701054547522889700,12.4608896484375,3.671123504638672,-2.609788179397583,7.229067325592041
1701054547539879400,12.47787939453125,5.789032459259033,-3.479071617126465,6.5552191734313965
1701054547556869600,12.49486962890625,5.188615322113037,-3.171114921569824,6.139671802520752
1701054547573858800,12.51185888671875,3.7201485633850098,-2.7704010009765625,7.088613510131836
1701054547590853400,12.528853271484374,-0.027212142944335938,-1.9627175331115723,7.099307060241699
1701054547607845400,12.545845458984376,-0.5951051712036133,-2.37125301361084,5.998021125793457
1701054547624845800,12.562845703125,3.1724181175231934,-3.8432109355926514,5.609278678894043
1701054547641832700,12.579832763671876,3.726202964782715,-3.494321823120117,5.867351055145264
1701054547658824400,12.596824462890625,4.334397315979004,-2.553128719329834,6.054834842681885
1701054547675814700,12.613814697265624,4.6816511154174805,-2.1031622886657715,5.681903839111328
1701054547692806100,12.63080615234375,6.525149345397949,-2.443936347961426,4.445550918579102
1701054547709795800,12.6477958984375,9.501617431640625,-1.9660770893096924,2.4602975845336914
1701054547726787300,12.664787353515624,5.327221870422363,-0.520545482635498,-1.1007709503173828
1701054547743775000,12.68177490234375,1.6397590637207031,0.10573434829711914,-4.10707950592041
1701054547760769500,12.69876953125,3.6084184646606445,0.8001284599304199,-5.969219207763672
1701054547777761800,12.71576171875,2.378561496734619,1.561978816986084,-4.089667320251465
1701054547794750500,12.73275048828125,2.5215044021606445,1.3446850776672363,-3.0604891777038574
1701054547811738000,12.749738037109376,4.597558975219727,1.6505966186523438,-3.837843894958496
1701054547828735000,12.76673486328125,5.967043399810791,2.5920724868774414,-5.547273635864258
1701054547845722400,12.783722412109375,6.243647575378418,3.623037815093994,-7.207329273223877
1701054547862713900,12.8007138671875,6.603482246398926,3.6419472694396973,-10.53874397277832
1701054547879692000,12.817692138671875,6.501684188842773,3.2938179969787598,-11.10168170928955
1701054547896697000,12.834697021484375,5.103437423706055,2.20045804977417,-11.402132034301758
1701054547913685500,12.851685546875,1.4039275646209717,1.1428699493408203,-11.567087173461914
1701054547930676700,12.8686767578125,-0.5554182529449463,1.0106840133666992,-10.237125396728516
1701054547947667000,12.8856669921875,-1.8703017234802246,0.5247941017150879,-9.684020042419434
1701054547964659000,12.902658935546874,-1.6316752433776855,0.5524706840515137,-8.01317310333252
1701054547981648600,12.919648681640625,-1.5903877019882202,0.6367001533508301,-7.775564193725586
1701054547998640000,12.93664013671875,-2.4115397930145264,0.3890218734741211,-6.66043758392334
1701054548015630600,12.953630615234376,-2.527308702468872,0.14041471481323242,-6.273948669433594
1701054548032621800,12.970621826171875,-2.496182441711426,-0.22470331192016602,-5.847843170166016
1701054548049611500,12.987611572265624,-1.6524765491485596,-0.5627555847167969,-5.295838832855225
1701054548066603300,13.004603271484376,-0.41867947578430176,-0.17914676666259766,-4.806656360626221
1701054548083593500,13.021593505859375,0.1704387664794922,0.3449244499206543,-4.3322882652282715
1701054548100574500,13.038574462890624,0.732738733291626,0.6841411590576172,-3.14511775970459
1701054548117575000,13.055574951171875,0.8274719715118408,0.4275059700012207,-2.3301310539245605
1701054548134566400,13.07256640625,-0.4764856696128845,-0.2050647735595703,-3.0970048904418945
1701054548151556400,13.089556396484374,-0.9591848850250244,-0.5140838623046875,-3.8568248748779297
1701054548168548400,13.10654833984375,-0.07791078090667725,-0.5988039970397949,-3.6839687824249268
1701054548185535500,13.123535400390624,0.9293478727340698,-0.9190640449523926,-2.38637638092041
1701054548202531800,13.14053173828125,1.3184579610824585,-1.3153576850891113,-1.9318957328796387
1701054548219509500,13.157509521484375,0.9644374847412109,-1.4140210151672363,-3.2999675273895264
1701054548236511500,13.174511474609375,0.7169785499572754,-1.2049922943115234,-4.321113586425781
1701054548253500700,13.191500732421876,0.9935082197189331,-0.9743208885192871,-4.6552228927612305
1701054548270492400,13.208492431640625,1.2258775234222412,-0.9788808822631836,-4.745222091674805
1701054548287480800,13.225480712890626,0.39443159103393555,-1.2995810508728027,-3.541682243347168
1701054548304476700,13.2424765625,-0.6670799255371094,-1.5226936340332031,-3.235466241836548
1701054548321464300,13.25946435546875,0.4011874198913574,-1.5074663162231445,-3.604297637939453
1701054548338462200,13.276462158203126,0.9105336666107178,-1.8734631538391113,-4.68310546875
1701054548355443500,13.293443359375,0.40566205978393555,-1.494058609008789,-4.536655902862549
1701054548372437800,13.310437744140625,-1.273924469947815,-0.5754666328430176,-2.615219831466675
1701054548389429800,13.3274296875,-1.6813499927520752,-0.4124464988708496,-1.120823860168457
1701054548406408700,13.34440869140625,0.6059732437133789,-1.1928086280822754,-0.646512508392334
1701054548423409200,13.3614091796875,2.0507421493530273,-1.7899699211120605,-1.3465368747711182
1701054548440397000,13.37839697265625,2.7238378524780273,-1.8613462448120117,-0.5933818817138672
1701054548457394000,13.395393798828126,0.999086856842041,-0.9037356376647949,1.428804874420166
1701054548474381800,13.4123818359375,-2.024468183517456,0.2202134132385254,2.9077610969543457
1701054548491372300,13.429372314453126,-2.4907479286193848,0.08989381790161133,3.243220806121826
1701054548508364000,13.446364013671875,1.170335292816162,-0.942781925201416,3.3256635665893555
1701054548525353700,13.463353759765624,5.879748821258545,-1.7091240882873535,4.304861068725586
1701054548542345200,13.48034521484375,5.336702823638916,-0.6002392768859863,4.85385799407959
1701054548559325200,13.4973251953125,0.8045697212219238,0.2932276725769043,6.127029895782471
1701054548576327200,13.5143271484375,-2.122473955154419,0.04039573669433594,7.1190924644470215
1701054548593316600,13.531316650390625,-1.2814431190490723,-1.0168404579162598,6.866849899291992
1701054548610306800,13.548306884765625,0.5735845565795898,-1.8420186042785645,5.930854320526123
1701054548627299800,13.5652998046875,1.1261038780212402,-2.2115838527679443,5.458078384399414
1701054548644290300,13.582290283203125,-0.500208854675293,-2.028012990951538,6.10044002532959
1701054548661279700,13.59927978515625,-2.4045162200927734,-2.393400192260742,7.357961177825928
1701054548678271200,13.616271240234376,-1.1551427841186523,-3.38857102394104,8.006108283996582
1701054548695261400,13.633261474609375,1.4682354927062988,-4.038761138916016,7.06272554397583
1701054548712253000,13.6502529296875,2.8299307823181152,-4.164400100708008,6.27121639251709
1701054548729243000,13.667242919921875,1.748246192932129,-3.8417367935180664,5.854029178619385
1701054548746234600,13.684234619140625,-0.9942779541015625,-3.3637804985046387,6.615860462188721
1701054548763224800,13.701224853515624,-2.0137100219726562,-3.9453768730163574,7.320164680480957
1701054548780216300,13.71821630859375,1.1342902183532715,-3.939518690109253,9.286656379699707
1701054548797205500,13.73520556640625,0.4132232666015625,-3.687002182006836,7.661190032958984
1701054548814198300,13.7521982421875,-2.764847755432129,-4.122224807739258,8.558076858520508
1701054548831187700,13.769187744140625,-5.834794998168945,-2.845231533050537,9.445055961608887
1701054548848179500,13.786179443359375,-5.55706787109375,-2.0655558109283447,9.432482719421387
1701054548865169200,13.803169189453126,-0.711677074432373,-2.367715835571289,8.30630874633789
1701054548882160600,13.82016064453125,3.0181097984313965,-3.332371473312378,8.117789268493652
1701054548899144700,13.837144775390625,2.7795848846435547,-3.732895851135254,8.239795684814453
1701054548916142800,13.854142822265626,3.731947898864746,-1.6519749164581299,8.344831466674805
1701054548933132000,13.871132080078125,3.8153486251831055,-0.15372800827026367,7.52114200592041
1701054548950124000,13.8881240234375,5.396693229675293,0.5853166580200195,7.0164289474487305
1701054548967114200,13.9051142578125,4.103419303894043,0.6171016693115234,6.816304683685303
1701054548984105700,13.922105712890625,-0.6905617713928223,-0.3014068603515625,8.82063102722168
1701054549001091000,13.939091064453125,-4.615893363952637,-0.3834562301635742,9.762290954589844
1701054549018070500,13.956070556640626,-0.9836149215698242,-1.0316863059997559,7.310301780700684
1701054549035073300,13.9730732421875,4.304804801940918,-1.663029432296753,4.190897464752197
1701054549052073000,13.990072998046875,6.269782543182373,-2.153858184814453,2.282057762145996
1701054549069058800,14.007058837890625,7.370835781097412,-2.480198383331299,3.2413573265075684
1701054549086057000,14.024056884765624,5.330698013305664,-2.4093360900878906,4.817579746246338
1701054549103031600,14.041031494140626,2.4552578926086426,-2.1927080154418945,5.145716667175293
1701054549120021500,14.058021484375,0.11662578582763672,-1.2139811515808105,4.8099045753479
1701054549137013000,14.075012939453124,1.5555386543273926,-0.7808046340942383,3.4207634925842285
1701054549154005800,14.092005859375,4.071159839630127,-0.7868413925170898,2.479093074798584
1701054549170996700,14.108996826171875,4.611282825469971,-0.5319581031799316,1.1863923072814941
1701054549187984600,14.125984619140626,3.0946497917175293,-0.09357261657714844,-0.5391831398010254
1701054549204978000,14.14297802734375,2.786654472351074,-0.45766592025756836,-1.6633586883544922
1701054549221969000,14.159968994140625,3.330559730529785,0.20896625518798828,-2.539254903793335
1701054549238957800,14.176957763671876,4.533134937286377,1.2148027420043945,-2.640137195587158
1701054549255947500,14.193947509765625,3.5617589950561523,1.6069049835205078,-2.522632598876953
1701054549272940800,14.21094091796875,2.936544895172119,0.8602190017700195,-3.114992618560791
1701054549289939500,14.227939453125,3.594719409942627,1.036783218383789,-4.270056247711182
1701054549306930000,14.244929931640625,4.597235679626465,2.02956485748291,-7.28918981552124
1701054549323921400,14.26192138671875,7.166622161865234,2.8599905967712402,-8.904463768005371
1701054549340911000,14.2789111328125,7.171889781951904,3.514967918395996,-9.518234252929688
1701054549357902600,14.295902587890625,5.012508392333984,3.037039279937744,-10.160858154296875
1701054549374895900,14.312895751953125,5.011038780212402,2.519886016845703,-8.550590515136719
1701054549391881200,14.329881103515625,3.1316823959350586,2.3145718574523926,-8.62560749053955
1701054549408874200,14.346874267578125,-0.3443326950073242,1.5471467971801758,-8.432557106018066
1701054549425870600,14.36387060546875,-2.1779212951660156,1.3681697845458984,-7.882569789886475
1701054549442858800,14.380858642578126,-0.8358702659606934,0.8089437484741211,-6.685459136962891
1701054549459847700,14.39784765625,0.1695537567138672,0.3511786460876465,-5.725745677947998
1701054549476837400,14.41483740234375,-1.0877596139907837,0.2854270935058594,-5.79243803024292
1701054549493826000,14.431825927734375,-3.644252300262451,0.21443891525268555,-5.186710357666016
1701054549510811400,14.448811279296875,-3.224374771118164,0.37619829177856445,-4.650136947631836
1701054549527810800,14.465810791015626,-2.2952163219451904,0.04604530334472656,-5.267994403839111
1701054549544800500,14.482800537109375,-0.5806021690368652,-0.4069204330444336,-5.737695693969727
1701054549561792000,14.4997919921875,0.46189117431640625,-0.8697171211242676,-5.1171417236328125
1701054549578785000,14.516784912109374,-0.5847575664520264,-1.2436003684997559,-4.265405654907227
1701054549595771400,14.533771484375,-2.489609718322754,-1.0740303993225098,-3.3214967250823975
1701054549612763600,14.550763671875,-2.5935380458831787,-0.47948360443115234,-3.308771848678589
1701054549629755100,14.567755126953125,-1.1302876472473145,-0.1169133186340332,-3.859332323074341
1701054549646745300,14.584745361328125,0.16239488124847412,-0.018828868865966797,-4.0430097579956055
1701054549663734800,14.60173486328125,1.5820839405059814,-0.3985285758972168,-3.84342098236084
1701054549680729000,14.61872900390625,1.617882490158081,-1.0203776359558105,-3.1238577365875244
1701054549697718500,14.635718505859375,0.42165064811706543,-1.299206256866455,-1.9142956733703613
1701054549714708500,14.65270849609375,-0.9911640882492065,-1.4107093811035156,-1.582493782043457
1701054549731700200,14.6697001953125,-1.47556471824646,-1.2242565155029297,-1.966047763824463
1701054549748690000,14.68668994140625,-1.253958821296692,-1.2888884544372559,-3.032289743423462
1701054549765681700,14.703681640625,-0.5996429920196533,-1.003035068511963,-3.776028871536255
1701054549782671600,14.720671630859375,-0.7044898271560669,-0.8531765937805176,-2.9858238697052
1701054549799648800,14.737648681640625,-1.2756165266036987,-0.9237070083618164,-2.436668872833252
1701054549816651300,14.7546513671875,-1.5089763402938843,-1.295598030090332,-2.7166824340820312
1701054549833646300,14.771646240234375,-2.0262866020202637,-2.0699405670166016,-3.5785155296325684
1701054549850635000,14.788635009765626,-1.2872858047485352,-2.3320255279541016,-4.404065132141113
1701054549867626200,14.805626220703125,0.22070002555847168,-2.371640682220459,-4.18813943862915
1701054549884616000,14.822615966796874,-0.4840505123138428,-2.18365478515625,-2.1324987411499023
1701054549901607200,14.839607177734376,-2.2143757343292236,-1.383293628692627,-0.3795437812805176
1701054549918598000,14.856597900390625,-1.749194622039795,-1.0175895690917969,0.4668745994567871
1701054549935589600,14.873589599609375,0.16007089614868164,-1.0184259414672852,0.29450130462646484
1701054549952575200,14.8905751953125,1.8607230186462402,-1.0401358604431152,0.0747532844543457
1701054549969570300,14.9075703125,2.6713380813598633,-1.1157879829406738,0.44297170639038086
1701054549986561800,14.924561767578124,2.9381680488586426,-1.2786798477172852,2.095233917236328
1701054550003552800,14.941552734375,0.5298528671264648,-0.7601370811462402,3.112445831298828
1701054550020529700,14.95852978515625,0.5829010009765625,-0.6607351303100586,4.048059940338135
1701054550037547800,14.9755478515625,2.5200018882751465,-1.0394196510314941,4.282042980194092
1701054550054524400,14.9925244140625,4.304647445678711,-1.1081385612487793,4.476480960845947
1701054550071516000,15.009515869140625,3.1275501251220703,-1.2973780632019043,5.251579284667969
1701054550088503000,15.0265029296875,0.7765340805053711,-1.3127713203430176,7.4749064445495605
1701054550105499600,15.043499755859376,0.18278980255126953,-1.157175064086914,9.6831636428833
1701054550122483700,15.060483642578125,0.9198875427246094,-1.3956875801086426,9.957660675048828
1701054550139476200,15.077476318359375,0.8810892105102539,-1.5694260597229004,9.674924850463867
1701054550156471600,15.094471435546875,-0.13201570510864258,-1.9617865085601807,10.131048202514648
1701054550173460200,15.111460205078124,-1.287445068359375,-2.1488001346588135,11.138805389404297
1701054550190447900,15.12844775390625,-2.2507500648498535,-2.392754077911377,11.633792877197266
1701054550207444700,15.14544482421875,-1.175783634185791,-3.1229019165039062,10.777061462402344
1701054550224431600,15.162431640625,-0.1395702362060547,-3.593997001647949,8.574042320251465
1701054550241423400,15.17942333984375,0.3542623519897461,-3.4762067794799805,6.219747543334961
1701054550258413600,15.19641357421875,-2.3124241828918457,-3.8318700790405273,3.743757724761963
1701054550275405300,15.2134052734375,-1.7814831733703613,-4.380425453186035,4.373648643493652
1701054550292395000,15.23039501953125,-0.6091656684875488,-3.5786776542663574,7.501267433166504
1701054550309382700,15.247382568359376,-0.2627687454223633,-2.3572516441345215,9.510364532470703
1701054550326380500,15.264380615234375,0.3993053436279297,-1.552441120147705,9.475518226623535
1701054550343357700,15.281357666015625,0.9970855712890625,-1.525123119354248,8.635944366455078
1701054550360358100,15.298358154296874,1.2575578689575195,-1.9506213665008545,8.268404006958008
1701054550377349600,15.315349609375,0.12665033340454102,-2.454561948776245,9.071496963500977
1701054550394339800,15.33233984375,-1.687849521636963,-2.907341957092285,10.39846420288086
1701054550411331600,15.34933154296875,-0.7670807838439941,-3.8338894844055176,10.38341236114502
1701054550428317200,15.366317138671874,1.0398712158203125,-4.269062519073486,8.973638534545898
1701054550445312500,15.3833125,2.5758209228515625,-3.7954742908477783,7.592047214508057
1701054550462303000,15.400302978515626,3.4261679649353027,-3.7801294326782227,7.713460922241211
1701054550479284000,15.417283935546875,2.3618531227111816,-3.862618923187256,7.832808494567871
1701054550496284200,15.4342841796875,1.131002426147461,-3.961935043334961,8.077597618103027
1701054550513276000,15.45127587890625,1.1491022109985352,-3.609706401824951,6.574800968170166
1701054550530265900,15.468265869140625,2.3352503776550293,-3.495838165283203,4.775729179382324
1701054550547256800,15.4852568359375,2.6474761962890625,-3.0232982635498047,4.144510269165039
1701054550564248000,15.502248046875,2.625791549682617,-2.3814642429351807,4.4258131980896
1701054550581228300,15.519228271484375,3.4931535720825195,-1.6722285747528076,4.024203777313232
1701054550598229200,15.536229248046874,6.39081335067749,-0.8818502426147461,1.7316913604736328
1701054550615221000,15.553220947265626,8.316727638244629,0.11906862258911133,-0.5513648986816406
1701054550632210400,15.57021044921875,9.315533638000488,0.4917263984680176,-2.5531630516052246
1701054550649202000,15.587201904296874,8.811187744140625,1.2348666191101074,-3.9512226581573486
1701054550666192400,15.6041923828125,5.907210350036621,2.201331615447998,-4.429831504821777
1701054550683181000,15.62118115234375,5.227675914764404,3.1157569885253906,-4.4389777183532715
1701054550700176400,15.63817626953125,5.453317642211914,3.68064546585083,-5.98878812789917
1701054550717165000,15.6551650390625,6.7856011390686035,3.3394827842712402,-7.563539981842041
1701054550734144800,15.672144775390626,6.755494117736816,3.318277359008789,-9.541836738586426
1701054550751140600,15.689140625,6.862038612365723,3.229470729827881,-9.7848482131958
1701054550768137000,15.706136962890625,4.975020408630371,3.000977039337158,-8.616598129272461
1701054550785128200,15.723128173828124,5.305785655975342,2.6398534774780273,-7.4905829429626465
1701054550802118700,15.74011865234375,4.6120500564575195,3.0553131103515625,-7.383126258850098
1701054550819099600,15.757099609375,3.9983835220336914,3.2196874618530273,-7.806846618652344
1701054550836096800,15.7740966796875,1.5946967601776123,2.5617117881774902,-6.950064182281494
1701054550853094700,15.7910947265625,0.8394911289215088,2.042078971862793,-6.8294878005981445
1701054550870081800,15.808081787109375,1.9398512840270996,1.5514655113220215,-4.263674736022949
1701054550887073300,15.8250732421875,0.1934572458267212,1.027315616607666,-1.657395362854004
1701054550904050200,15.84205029296875,-3.016861915588379,1.5290513038635254,-2.443669319152832
1701054550921044700,15.859044677734374,-3.459132671356201,1.125422477722168,-3.8276991844177246
1701054550938036700,15.87603662109375,-2.351186752319336,0.28816986083984375,-4.811839580535889
1701054550955035100,15.89303515625,-1.483866572380066,-0.7185697555541992,-5.255368232727051
1701054550972020000,15.91002001953125,-0.3664311170578003,-2.432354211807251,-3.7339630126953125
1701054550989011200,15.92701123046875,-1.7246991395950317,-2.418654441833496,-3.178992748260498
1701054551005999900,15.943999755859375,-3.4546072483062744,-1.226637840270996,-3.384251594543457
1701054551022992400,15.960992431640625,-2.5702602863311768,-0.2985420227050781,-4.682040691375732
1701054551039979300,15.977979248046875,-0.6746937036514282,-0.3072519302368164,-5.900871276855469
1701054551056970500,15.994970458984374,1.2662527561187744,-1.470339298248291,-5.458597183227539
1701054551073960000,16.0119599609375,2.034769058227539,-2.5746474266052246,-5.035822868347168
1701054551090954500,16.02895458984375,0.8225330114364624,-2.2193679809570312,-4.840398788452148
1701054551107944000,16.04594384765625,-0.5157305002212524,-1.2766447067260742,-6.005140781402588
1701054551124935700,16.062935791015626,-0.21533143520355225,-0.49717235565185547,-5.40308952331543
1701054551141930200,16.07993017578125,0.2781485319137573,-0.5965695381164551,-5.084132194519043
1701054551158924000,16.096924072265626,1.317883014678955,-0.622344970703125,-5.028775215148926
1701054551175915800,16.113915771484375,2.403501033782959,-0.501713752746582,-5.519471168518066
1701054551192907000,16.130906982421877,2.560556650161743,-0.4522390365600586,-4.928706169128418
1701054551209897500,16.1478974609375,2.624706745147705,0.14053106307983398,-4.092379570007324
1701054551226879000,16.16487890625,0.6550369262695312,0.2660822868347168,-2.068413257598877
1701054551243879000,16.18187890625,-0.5053141117095947,0.4068179130554199,-1.3200688362121582
1701054551260870100,16.1988701171875,-0.0792696475982666,0.22705554962158203,-1.4561457633972168
1701054551277854200,16.215854248046874,0.15035557746887207,0.20785045623779297,-2.4260122776031494
1701054551294854100,16.232854248046873,0.13645553588867188,0.7802095413208008,-1.823751449584961
1701054551311841800,16.249841796875,-0.5327548980712891,0.6704726219177246,-0.36608028411865234
1701054551328833300,16.266833251953123,-0.4516639709472656,-0.05009746551513672,0.8336629867553711
1701054551345823700,16.28382373046875,-0.6348710060119629,-1.0982165336608887,1.1015896797180176
1701054551362812700,16.300812744140625,-1.6275207996368408,-1.5606589317321777,-0.14473199844360352
1701054551379807500,16.317807373046875,-1.5536367893218994,-1.5200510025024414,0.5734987258911133
1701054551396797400,16.33479736328125,-1.398214340209961,-0.7179865837097168,-0.15239334106445312
1701054551413774300,16.3517744140625,-2.580164670944214,-1.5905675888061523,-1.3240482807159424
1701054551430778600,16.368778564453127,-1.071092128753662,-3.4491961002349854,-0.33024048805236816
1701054551447768000,16.38576806640625,1.3997673988342285,-3.1524598598480225,0.9033341407775879
1701054551464748000,16.402748046875,1.5406274795532227,-1.9155712127685547,1.7270112037658691
1701054551481739300,16.4197392578125,2.146756172180176,-1.060779094696045,4.024787425994873
1701054551498741500,16.436741455078124,3.9768781661987305,-1.028656005859375,6.0648512840271
1701054551515728600,16.453728759765625,5.806589603424072,-1.670668601989746,5.824847221374512
1701054551532725200,16.470725341796875,3.968686580657959,-2.3633034229278564,3.680126667022705
1701054551549713000,16.487712890625,3.9559407234191895,-2.2333576679229736,3.809931993484497
1701054551566704400,16.504704345703125,2.5850868225097656,-1.7539725303649902,5.940706253051758
1701054551583699700,16.52169970703125,-0.23584222793579102,-1.7574567794799805,6.346373558044434
1701054551600688400,16.5386884765625,-1.7601776123046875,-2.717503309249878,6.253689765930176
1701054551617670000,16.555669921875,0.6582655906677246,-3.8158211708068848,5.604426383972168
1701054551634671600,16.572671630859375,3.69942045211792,-5.04909610748291,5.59188985824585
1701054551651657700,16.58965771484375,3.3501086235046387,-5.012546539306641,5.890521049499512
1701054551668649000,16.60664892578125,0.47771501541137695,-4.375588417053223,6.321974754333496
1701054551685637600,16.6236376953125,0.13036584854125977,-4.125600814819336,7.017784118652344
1701054551702632200,16.640632080078124,2.6922740936279297,-5.146711826324463,8.304927825927734
1701054551719620600,16.65762060546875,5.967899322509766,-4.98151969909668,10.940216064453125
1701054551736612400,16.6746123046875,1.6924448013305664,-4.828312873840332,8.64908218383789
1701054551753603600,16.691603515625,-2.054105758666992,-6.493282318115234,9.655172348022461
1701054551770593000,16.708593017578124,-1.2165007591247559,-5.315278053283691,10.788448333740234
1701054551787580200,16.725580078125,-1.0526700019836426,-3.5657413005828857,11.292563438415527
1701054551804579000,16.7425791015625,-4.346479415893555,-4.610928058624268,6.38649845123291
1701054551821565400,16.7595654296875,4.493101596832275,-6.325040817260742,6.445749282836914
1701054551838558000,16.776557861328126,6.292154788970947,-4.647945404052734,7.275084018707275
1701054551855543000,16.79354296875,3.400470733642578,-2.8844032287597656,8.007606506347656
1701054551872538000,16.8105380859375,4.311697959899902,-1.5327465534210205,10.553594589233398
1701054551889528600,16.827528564453125,3.9618139266967773,-2.1594505310058594,9.67385482788086
1701054551906520300,16.844520263671875,2.771759033203125,-3.4783318042755127,10.66498851776123
1701054551923510000,16.861510009765624,-1.9053821563720703,-4.301578998565674,12.035715103149414
1701054551940501500,16.87850146484375,-5.47028112411499,-5.380664348602295,12.820650100708008
1701054551957492000,16.895491943359374,-0.9570522308349609,-5.557521820068359,6.17772912979126
1701054551974483500,16.9124833984375,7.8773674964904785,-5.844319820404053,4.736324310302734
1701054551991473400,16.929473388671877,7.281274795532227,-4.510345935821533,4.698990821838379
1701054552008464600,16.946464599609374,7.481675148010254,-3.544480562210083,5.35698127746582
1701054552025454800,16.963454833984375,5.861340045928955,-3.348569631576538,5.809845447540283
1701054552042446300,16.9804462890625,5.506211757659912,-3.5972039699554443,4.442334175109863
1701054552059425000,16.997425048828124,1.0859546661376953,-3.9639508724212646,2.8181848526000977
1701054552076428000,17.014427978515624,0.7698769569396973,-5.101308822631836,2.3743906021118164
1701054552093418000,17.03141796875,0.7172508239746094,-3.9520461559295654,2.0143980979919434
1701054552110409500,17.048409423828126,3.519355297088623,-2.0768327713012695,0.06725454330444336
1701054552127399200,17.065399169921875,6.002999782562256,-0.25439953804016113,-2.2746338844299316
1701054552144391000,17.082390869140625,7.889188289642334,2.601827383041382,-3.8198845386505127
1701054552161381000,17.099381103515626,7.256101608276367,4.159207344055176,-4.916274070739746
1701054552178371800,17.116371826171875,5.5553059577941895,5.195437908172607,-5.1433610916137695
1701054552195353000,17.13335302734375,2.598369598388672,5.0253729820251465,-5.858098030090332
1701054552212353800,17.150353759765625,2.742502212524414,4.957019329071045,-5.4748101234436035
1701054552229344300,17.16734423828125,2.8613319396972656,4.666630268096924,-5.061470985412598
1701054552246319900,17.18431982421875,3.3696131706237793,4.814826011657715,-5.557377815246582
1701054552263325400,17.201325439453125,4.5362467765808105,4.566523551940918,-6.665985107421875
1701054552280321000,17.218321044921876,7.7202935218811035,5.104996681213379,-8.372580528259277
1701054552297307600,17.2353076171875,7.292320251464844,5.783987045288086,-7.536104679107666
1701054552314296300,17.25229638671875,5.123444557189941,5.257819175720215,-7.895981311798096
1701054552331291400,17.26929150390625,3.7358970642089844,4.162428855895996,-8.141114234924316
1701054552348280300,17.2862802734375,1.2345952987670898,3.594904661178589,-7.418694496154785
1701054552365270500,17.3032705078125,-0.47287893295288086,2.5634326934814453,-7.956900596618652
1701054552382262300,17.32026220703125,-0.8155837059020996,2.0971779823303223,-9.181410789489746
1701054552399255000,17.337255126953124,-2.1148629188537598,3.086170196533203,-9.184749603271484
1701054552416243500,17.354243408203125,-2.7022671699523926,2.808608055114746,-7.836068630218506
1701054552433233700,17.371233642578126,-2.4517226219177246,1.7544569969177246,-6.632978439331055
1701054552450222800,17.388222900390623,-2.367405891418457,0.5644221305847168,-5.684487342834473
1701054552467217200,17.405217041015625,-1.6673836708068848,-0.31397581100463867,-5.531275749206543
1701054552484206800,17.422206787109374,-1.6368327140808105,-0.8347506523132324,-5.393725395202637
1701054552501197000,17.439197021484375,-2.0209531784057617,-0.10631227493286133,-5.553343296051025
1701054552518177800,17.456177734375,-1.4303033351898193,0.4303116798400879,-5.306378364562988
1701054552535175700,17.47317578125,-0.5369124412536621,0.46201276779174805,-5.31056547164917
1701054552552163300,17.490163330078126,-0.37923312187194824,-0.03307008743286133,-5.088570594787598
1701054552569160000,17.507159912109376,-0.10152673721313477,-0.4903740882873535,-5.485167503356934
1701054552586139100,17.52413916015625,0.1189265251159668,-0.6632637977600098,-6.400683879852295
1701054552603134000,17.541134033203125,0.8774223327636719,0.3083839416503906,-7.55377721786499
1701054552620123000,17.558122802734374,2.176191806793213,0.4410538673400879,-6.410068035125732
1701054552637115400,17.575115478515624,1.7101445198059082,0.8728070259094238,-4.842141151428223
1701054552654105300,17.592105224609377,0.7479591369628906,1.1867542266845703,-3.553256034851074
1701054552671095800,17.609095703125,0.019264698028564453,1.0273957252502441,-3.3277244567871094
1701054552688088300,17.62608837890625,0.6701526641845703,0.7012553215026855,-3.4428327083587646
1701054552705084000,17.643083984375,0.7124629020690918,1.1657743453979492,-4.311819553375244
1701054552722069000,17.660069091796874,0.124420166015625,1.8259248733520508,-4.9838995933532715
1701054552739059200,17.67705908203125,0.5361738204956055,1.5765843391418457,-3.323488712310791
1701054552756052000,17.694052001953125,0.726496696472168,1.2630996704101562,-1.5415756702423096
1701054552773042400,17.71104248046875,-0.6468353271484375,0.47301197052001953,-0.45694446563720703
1701054552790043400,17.72804345703125,-1.4474916458129883,-0.3098263740539551,0.3052549362182617
1701054552807030500,17.745030517578126,-0.6738343238830566,-0.7216897010803223,0.014972686767578125
1701054552824021800,17.762021728515624,0.028673648834228516,-0.38015270233154297,-0.008438825607299805
1701054552841013000,17.779012939453125,1.1737008094787598,0.16622638702392578,-0.051808834075927734
1701054552857991000,17.795990966796875,3.737107276916504,-0.8523411750793457,0.8492434024810791
1701054552874996700,17.812996826171876,3.358041286468506,-2.2535104751586914,3.333883285522461
1701054552891982000,17.829982177734376,1.4021625518798828,-1.9187030792236328,4.819858551025391
1701054552908975600,17.8469755859375,1.0800533294677734,-1.2088232040405273,4.903602600097656
1701054552925967000,17.863967041015623,1.7091937065124512,-1.1175761222839355,4.881560325622559
1701054552942957000,17.88095703125,3.392699718475342,-1.9249567985534668,5.802978515625
1701054552959948500,17.897948486328126,1.6082401275634766,-2.5159058570861816,7.568652153015137
1701054552976938800,17.914938720703127,-1.9841275215148926,-2.433259963989258,8.947603225708008
1701054552993928000,17.931927978515624,-3.278075933456421,-2.160037040710449,8.079730987548828
1701054553010922500,17.948922607421874,-1.8479490280151367,-2.5933706760406494,5.867393493652344
1701054553027911400,17.965911376953127,0.4277667999267578,-3.5560786724090576,4.705666542053223
1701054553044902100,17.982902099609376,2.3155980110168457,-4.429422378540039,6.0575714111328125
1701054553061893600,17.9998935546875,1.8893475532531738,-5.059671401977539,7.838221549987793
1701054553078883000,18.016883056640626,-0.23218107223510742,-4.255899906158447,8.337496757507324
1701054553095874800,18.033874755859376,0.27901315689086914,-3.1782333850860596,7.2834978103637695
1701054553112861700,18.05086181640625,2.0874452590942383,-3.0786283016204834,7.257450103759766
1701054553129859800,18.06785986328125,2.6935744285583496,-3.379159450531006,8.223894119262695
1701054553146846200,18.08484619140625,3.0010390281677246,-3.5962772369384766,9.657539367675781
1701054553163828000,18.101827880859375,-0.4715900421142578,-4.776437282562256,11.021597862243652
1701054553180828200,18.118828125,-5.679217338562012,-4.6046037673950195,8.99470329284668
1701054553197809400,18.135809326171874,-1.571974277496338,-3.1415090560913086,9.395660400390625
1701054553214809300,18.152809326171877,-2.2783203125,-3.5370559692382812,3.6656742095947266
1701054553231801000,18.169801025390626,0.8198103904724121,-4.98745584487915,1.1722288131713867
1701054553248791000,18.186791015625,3.8564653396606445,-4.510286808013916,4.519374370574951
1701054553265783000,18.203782958984377,0.6568603515625,-2.7718844413757324,7.071903228759766
1701054553282769400,18.220769287109373,1.004831314086914,-1.1134083271026611,8.303349494934082
1701054553299764200,18.23776416015625,2.8379855155944824,-0.8275294303894043,7.843173980712891
1701054553316754400,18.25475439453125,1.5990166664123535,-0.47011756896972656,8.47194766998291
1701054553333749200,18.271749267578127,-1.649634838104248,-0.5598001480102539,10.059732437133789
1701054553350737200,18.288737060546875,-3.5730395317077637,-1.6236648559570312,11.447803497314453
1701054553367727400,18.305727294921876,-2.560433864593506,-3.088193416595459,9.992528915405273
1701054553384717300,18.32271728515625,0.6049656867980957,-4.156185150146484,7.711142539978027
1701054553401706500,18.33970654296875,3.128787040710449,-3.798755407333374,5.857089996337891
1701054553418701600,18.35670166015625,5.878479957580566,-2.8976118564605713,6.087430000305176
1701054553435690200,18.373690185546874,5.889694690704346,-2.768723964691162,7.102110862731934
1701054553452680700,18.3906806640625,2.352220058441162,-3.9182486534118652,7.790512561798096
1701054553469672400,18.40767236328125,1.249532699584961,-4.676074504852295,8.567174911499023
1701054553486662000,18.424661865234373,1.6936254501342773,-4.864579200744629,7.24791145324707
1701054553503653400,18.4416533203125,4.192220211029053,-4.413858413696289,4.724011421203613
1701054553520643800,18.458643798828124,6.098789215087891,-3.821625232696533,4.217807769775391
1701054553537635600,18.475635498046874,5.823973655700684,-2.3721418380737305,2.454158306121826
1701054553554625000,18.492625,4.595692157745361,-1.7600479125976562,0.6776876449584961
1701054553571616500,18.509616455078124,3.816193103790283,-0.5027275085449219,-1.0793638229370117
1701054553588607000,18.52660693359375,2.130186080932617,0.8293652534484863,-2.331589698791504
1701054553605598700,18.5435986328125,2.039945125579834,2.8159971237182617,-2.704878091812134
1701054553622575900,18.560575927734376,4.062795639038086,4.979210376739502,-2.8092594146728516
1701054553639580000,18.577579833984377,3.487179756164551,5.797847747802734,-4.140603065490723
1701054553656569900,18.59456982421875,1.995729923248291,6.16948127746582,-7.611881732940674
1701054553673558800,18.611558837890627,0.8226008415222168,5.883366584777832,-10.248581886291504
1701054553690554000,18.62855419921875,0.8916058540344238,5.159942626953125,-10.32548999786377
1701054553707543000,18.64554296875,2.697141170501709,5.846120357513428,-8.443489074707031
1701054553724533000,18.662532958984375,3.5529675483703613,6.371674060821533,-6.579568862915039
1701054553741531400,18.679531494140626,3.0146498680114746,6.412690162658691,-7.250154972076416
1701054553758504000,18.69650390625,1.2906103134155273,5.754563331604004,-8.282508850097656
1701054553775506200,18.713506103515623,1.2785191535949707,4.259714126586914,-9.441819190979004
1701054553792496000,18.73049609375,2.5230636596679688,2.891935348510742,-9.271055221557617
1701054553809488000,18.74748779296875,0.9249629974365234,2.3400893211364746,-9.02197265625
1701054553826471000,18.764470947265625,-0.46954870223999023,1.3373160362243652,-7.5761213302612305
1701054553843469000,18.781468994140624,-2.275989532470703,1.103672981262207,-6.353881359100342
1701054553860459500,18.79845947265625,-3.844844102859497,0.8901009559631348,-5.475312232971191
1701054553877451000,18.815450927734375,-3.6558284759521484,0.3708624839782715,-4.768857955932617
1701054553894440700,18.832440673828124,-2.8347771167755127,-0.059137821197509766,-5.025522232055664
1701054553911432200,18.84943212890625,-1.9841103553771973,-0.3434000015258789,-5.042241096496582
1701054553928422400,18.86642236328125,-0.6838912963867188,-0.35476160049438477,-4.6923089027404785
1701054553945414100,18.8834140625,-1.1009626388549805,0.04001903533935547,-4.801816940307617
1701054553962403800,18.90040380859375,-1.3333405256271362,0.29198694229125977,-4.353961944580078
1701054553979384800,18.917384765625,-1.1813985109329224,0.2437605857849121,-4.239522933959961
1701054553996385500,18.934385498046876,-1.2625821828842163,0.3887004852294922,-4.506481170654297
1701054554013377500,18.95137744140625,-0.492542028427124,0.14362621307373047,-4.254234313964844
1701054554030364400,18.968364501953126,-0.546332597732544,-0.09417581558227539,-4.209517478942871
1701054554047361000,18.985361083984376,-1.0457994937896729,-0.09786462783813477,-4.38910436630249
1701054554064338200,19.002338134765626,-1.0509727001190186,0.022649765014648438,-4.668294906616211
1701054554081340400,19.01934033203125,-0.864931583404541,0.5761823654174805,-4.922738075256348
1701054554098330000,19.036330078125,-0.5104496479034424,0.976262092590332,-4.602252960205078
1701054554115321900,19.05332177734375,0.45667314529418945,0.4853696823120117,-4.2243852615356445
1701054554132312000,19.07031201171875,-0.17903590202331543,-0.012365341186523438,-4.529289722442627
1701054554149303600,19.087303466796875,-0.8750314712524414,0.2952756881713867,-4.676322937011719
1701054554166293000,19.10429296875,0.3425617218017578,0.27581262588500977,-3.574594020843506
1701054554183285000,19.121284912109374,0.8579297065734863,-0.06473922729492188,-2.2151153087615967
1701054554200274200,19.138274169921875,0.09126996994018555,-0.3484354019165039,-1.2457313537597656
1701054554217266200,19.15526611328125,-0.5261383056640625,-0.9153409004211426,-1.5867395401000977
1701054554234258000,19.1722578125,-0.5304050445556641,-1.2514100074768066,-2.0784223079681396
1701054554251246800,19.189246826171875,-0.35075807571411133,-1.1967616081237793,-2.507309913635254
1701054554268231400,19.2062314453125,-0.24220514297485352,-1.416813850402832,-1.9121789932250977
1701054554285230000,19.22322998046875,0.7673392295837402,-2.1413278579711914,-0.13395428657531738
1701054554302219500,19.240219482421875,1.6662940979003906,-2.625257968902588,0.5909557342529297
1701054554319211500,19.25721142578125,1.3806447982788086,-2.500415086746216,1.022219181060791
1701054554336201200,19.274201171875,1.6576967239379883,-2.583893299102783,2.228142261505127
1701054554353193000,19.29119287109375,2.738919258117676,-2.239138126373291,2.1196136474609375
1701054554370182700,19.3081826171875,1.710860252380371,-1.8697705268859863,2.8071701526641846
1701054554387171800,19.325171875,1.9978923797607422,-1.820662498474121,4.659343242645264
1701054554404164400,19.342164306640626,1.2019829750061035,-1.773146629333496,5.614009857177734
1701054554421145900,19.359145751953125,2.0936923027038574,-2.2556228637695312,6.373244762420654
1701054554438137900,19.376137939453123,2.6497855186462402,-1.8236327171325684,5.966304302215576
1701054554455134700,19.393134765625,1.4043493270874023,-1.0428414344787598,6.073741436004639
1701054554472121000,19.41012109375,0.8774337768554688,-1.6891610622406006,7.793498516082764
1701054554489111600,19.427111572265623,1.3744845390319824,-2.6819822788238525,8.328329086303711
1701054554506100000,19.444099853515624,1.1898646354675293,-3.0634922981262207,7.635673522949219
1701054554523093200,19.46109326171875,0.6244487762451172,-2.5263116359710693,6.743643760681152
1701054554540080000,19.478080078125,-0.20153427124023438,-2.6458964347839355,6.6605939865112305
1701054554557075500,19.495075439453124,1.0512042045593262,-3.4927263259887695,7.055455207824707
1701054554574061300,19.512061279296876,3.25771427154541,-4.307622909545898,7.031463623046875
1701054554591058400,19.529058349609375,2.965712547302246,-4.40118932723999,6.236745834350586
1701054554608047900,19.5460478515625,1.7503480911254883,-4.1534552574157715,6.148773193359375
1701054554625045000,19.563044921875,1.596092700958252,-3.7598400115966797,7.432314395904541
1701054554642035700,19.58003564453125,1.2773761749267578,-4.303454875946045,7.751842975616455
1701054554659029000,19.597029052734374,-3.0648508071899414,-6.037416458129883,10.08645248413086
1701054554676007000,19.6140068359375,-8.193349838256836,-5.395156383514404,9.510186195373535
1701054554693008600,19.631008544921876,-2.0892415046691895,-3.6520185470581055,8.728561401367188
1701054554709998000,19.647998046875,0.920952320098877,-3.40868878364563,4.317281723022461
1701054554726989800,19.66498974609375,-0.11598348617553711,-5.739727020263672,1.9864835739135742
1701054554743969500,19.681969482421874,5.370367527008057,-4.4736456871032715,5.810043811798096
1701054554760971800,19.6989716796875,2.6519575119018555,-2.2650790214538574,5.221365928649902
1701054554777947000,19.71594677734375,1.7027525901794434,-0.4633312225341797,6.830389499664307
1701054554794953200,19.732953125,2.620382308959961,0.5705480575561523,8.603160858154297
1701054554811942700,19.749942626953125,2.975748062133789,0.20257043838500977,9.50589370727539
1701054554828934700,19.7669345703125,0.6392860412597656,0.34744930267333984,10.60273551940918
1701054554845924600,19.783924560546875,-1.1025066375732422,1.1450457572937012,10.576139450073242
1701054554862916400,19.800916259765625,0.9307398796081543,0.6971526145935059,8.051595687866211
1701054554879906300,19.81790625,2.689298152923584,-1.1141905784606934,4.781039714813232
1701054554896898000,19.83489794921875,5.017340660095215,-2.160999059677124,4.6414618492126465
1701054554913885200,19.85188525390625,2.5575389862060547,-1.4221820831298828,5.04155158996582
1701054554930879200,19.868879150390626,3.3551511764526367,-0.42641258239746094,6.0363922119140625
1701054554947872000,19.8858720703125,5.229910850524902,-0.7605443000793457,7.029815673828125
1701054554964850400,19.902850341796874,2.159925937652588,-1.7663118839263916,6.41261625289917
1701054554981851100,19.91985107421875,-1.697019100189209,-2.5861432552337646,5.150869369506836
1701054554998842400,19.93684228515625,-1.7450571060180664,-3.194657564163208,4.252969741821289
1701054555015832600,19.95383251953125,0.43453025817871094,-3.4250175952911377,4.7075395584106445
1701054555032824000,19.970823974609374,3.099196434020996,-3.1980154514312744,5.468816757202148
1701054555049811500,19.9878115234375,4.726544380187988,-2.4075539112091064,5.470015048980713
1701054555066805200,20.00480517578125,5.295100688934326,-1.3313031196594238,3.4929466247558594
1701054555083796000,20.0217958984375,6.7126617431640625,0.26175451278686523,-0.014346122741699219
1701054555100776700,20.038776611328124,8.511626243591309,1.6697440147399902,-2.958029270172119
1701054555117762000,20.055761962890625,8.389087677001953,2.334923267364502,-5.91592264175415
1701054555134768600,20.0727685546875,5.768930912017822,2.602931022644043,-7.448983669281006
1701054555151758800,20.0897587890625,5.076444625854492,3.9116768836975098,-8.917476654052734
1701054555168748000,20.106748046875,4.272767066955566,4.922671318054199,-9.910826683044434
1701054555185742800,20.123742919921874,3.388552665710449,3.7503905296325684,-10.850481033325195
1701054555202731800,20.140731689453126,3.0689749717712402,3.3205204010009766,-9.495433807373047
1701054555219722000,20.157721923828124,2.3684849739074707,3.4174699783325195,-9.430254936218262
1701054555236713700,20.174713623046873,1.0521454811096191,3.6177926063537598,-9.033136367797852
1701054555253700000,20.1917001953125,0.7138886451721191,4.6867451667785645,-9.934064865112305
1701054555270698200,20.2086982421875,2.5737178325653076,4.746784210205078,-10.679149627685547
1701054555287685000,20.22568505859375,3.553943157196045,4.500904560089111,-11.53535270690918
1701054555304676900,20.2426767578125,1.713090181350708,3.7679595947265625,-10.401468276977539
1701054555321666600,20.25966650390625,-1.653662919998169,2.604764938354492,-8.327690124511719
1701054555338658000,20.276657958984377,-4.255885124206543,1.431689739227295,-5.833624839782715
1701054555355648300,20.293648193359374,-6.082657337188721,0.47849512100219727,-3.93288254737854
1701054555372640000,20.310639892578124,-4.860434532165527,-0.059229373931884766,-3.4119129180908203
1701054555389629400,20.32762939453125,-2.472959280014038,-0.39850473403930664,-3.478531837463379
1701054555406621200,20.34462109375,-0.3287529945373535,-0.4643898010253906,-3.230043888092041
1701054555423608800,20.36160888671875,0.8440775871276855,-0.1042327880859375,-3.4183473587036133
1701054555440605400,20.37860546875,1.640165090560913,0.33739328384399414,-3.989276647567749
1701054555457582300,20.395582275390623,1.667085886001587,0.2039480209350586,-4.517036437988281
1701054555474584000,20.412583984375,1.499988079071045,-0.579930305480957,-4.637861728668213
1701054555491574300,20.42957421875,0.8184804916381836,-1.1054515838623047,-5.34890079498291
1701054555508566000,20.44656591796875,0.017215728759765625,-1.4373111724853516,-5.878186225891113
1701054555525554400,20.463554443359374,-0.20182394981384277,-0.9851160049438477,-6.429338455200195
1701054555542548700,20.480548828125,0.07494258880615234,-0.5837254524230957,-6.743180751800537
1701054555559527400,20.49752734375,0.9172308444976807,-0.744966983795166,-5.856866359710693
1701054555576529400,20.514529296875,1.0154197216033936,-1.3957648277282715,-4.163626194000244
1701054555593517300,20.531517333984375,-0.7275755405426025,-1.4920635223388672,-2.926279067993164
1701054555610511600,20.54851171875,-1.8606088161468506,-0.7304344177246094,-2.3940517902374268
1701054555627500500,20.56550048828125,-0.6327657699584961,-0.11898088455200195,-2.5029985904693604
1701054555644492300,20.5824921875,0.10058307647705078,-0.06698799133300781,-2.959845781326294
1701054555661482200,20.599482177734377,-0.04437255859375,-0.30002355575561523,-2.70920467376709
1701054555678473700,20.6164736328125,-0.6158607006072998,-0.335996150970459,-2.5031816959381104
1701054555695464000,20.6334638671875,-0.13663411140441895,-0.41195249557495117,-2.206977128982544
1701054555712455400,20.650455322265625,1.1216599941253662,-0.35433006286621094,-1.1951806545257568
1701054555729445000,20.667445068359374,1.072141170501709,0.2119731903076172,-1.1141788959503174
1701054555746439400,20.684439453125,-0.44463610649108887,0.2747945785522461,0.17818546295166016
1701054555763413500,20.70141357421875,-0.09621191024780273,-1.1298556327819824,1.5035791397094727
1701054555780407000,20.718406982421875,0.42768383026123047,-2.412325382232666,1.0474028587341309
1701054555797408500,20.735408447265623,1.254323959350586,-2.554433822631836,1.0195231437683105
1701054555814400000,20.75239990234375,2.2598376274108887,-1.7980833053588867,2.217566967010498
1701054555831390200,20.76939013671875,2.2223949432373047,-1.5395336151123047,3.1977686882019043
1701054555848381700,20.786381591796875,1.3086447715759277,-1.3578381538391113,4.065481185913086
1701054555865371400,20.803371337890624,0.38260746002197266,-1.8543000221252441,4.926441192626953
1701054555882352600,20.8203525390625,0.18926334381103516,-1.8747763633728027,4.7708420753479
1701054555899342800,20.8373427734375,0.38094186782836914,-1.768728256225586,4.106865882873535
1701054555916344800,20.8543447265625,1.971397876739502,-1.7575740814208984,4.809078216552734
1701054555933337000,20.871337158203126,2.3803634643554688,-2.429993152618408,4.692016124725342
1701054555950304500,20.888304443359374,2.9915003776550293,-3.0146796703338623,4.606719970703125
1701054555967316500,20.90531640625,2.9133095741271973,-3.1208009719848633,5.291682243347168
1701054555984307700,20.9223076171875,1.3423423767089844,-2.614650249481201,5.962103843688965
1701054556001298000,20.9392978515625,0.5811681747436523,-2.7892186641693115,6.309236526489258
1701054556018280700,20.95628076171875,1.4874777793884277,-3.317173480987549,6.165024757385254
1701054556035282200,20.9732822265625,2.830502510070801,-3.9985897541046143,4.841109275817871
1701054556052271400,20.990271240234375,4.306736946105957,-4.323732852935791,4.920713901519775
1701054556069260800,21.0072607421875,4.986935138702393,-4.779814720153809,6.688058853149414
1701054556086245400,21.024245361328123,3.595938205718994,-4.2160210609436035,6.869029998779297
1701054556103234300,21.041234375,2.4995169639587402,-4.374078750610352,8.686037063598633
1701054556120226000,21.05822607421875,0.3449573516845703,-5.416743755340576,8.948554992675781
1701054556137214200,21.075214111328126,-0.820462703704834,-6.147229194641113,8.020185470581055
1701054556154207500,21.09220751953125,-1.9719128608703613,-6.707367420196533,4.816556930541992
1701054556171190300,21.109190185546876,-1.5962066650390625,-6.801707744598389,0.8469672203063965
1701054556188189200,21.126189208984375,0.3920736312866211,-6.726315498352051,1.6621153354644775
1701054556205179000,21.143178955078124,0.5277633666992188,-6.17702579498291,3.818859100341797
1701054556222173400,21.16017333984375,-1.526564121246338,-5.398270606994629,5.573105335235596
1701054556239158300,21.177158203125,0.7341461181640625,-3.98728084564209,8.570589065551758
1701054556256150800,21.19415087890625,0.46796560287475586,-1.8448967933654785,9.764541625976562
1701054556273153000,21.211153076171875,-0.3866281509399414,-0.8362035751342773,11.219779968261719
1701054556290141700,21.2281416015625,0.3774747848510742,-0.3701143264770508,11.594564437866211
1701054556307132200,21.245132080078125,1.010819911956787,-0.33962225914001465,9.535682678222656
1701054556324123600,21.26212353515625,1.0876097679138184,-1.3139357566833496,7.515334129333496
1701054556341113300,21.27911328125,1.2191786766052246,-2.697730541229248,5.767478942871094
1701054556358092800,21.2960927734375,2.4032092094421387,-3.376896858215332,5.769712924957275
1701054556375094000,21.313093994140626,2.935891628265381,-3.1838326454162598,6.91526460647583
1701054556392089600,21.330089599609376,2.821279525756836,-2.524873733520508,7.751068115234375
1701054556409076700,21.34707666015625,2.062983989715576,-2.008554458618164,6.469159126281738
1701054556426068000,21.36406787109375,2.833939552307129,-2.832153797149658,5.897043228149414
1701054556443058200,21.38105810546875,4.112914562225342,-3.209392547607422,5.952594757080078
1701054556460047400,21.39804736328125,3.233755111694336,-2.951303482055664,6.553017616271973
1701054556477041400,21.41504150390625,0.753809928894043,-2.2739086151123047,7.1663689613342285
1701054556494032400,21.432032470703124,1.327972412109375,-1.4800853729248047,6.610489845275879
1701054556511021300,21.449021240234377,4.417088985443115,-0.7909157276153564,4.898224353790283
1701054556528012800,21.4660126953125,9.297664642333984,-0.14259862899780273,3.2030344009399414
1701054556545002800,21.483002685546875,9.942517280578613,1.1192278861999512,0.8859491348266602
1701054556561994500,21.499994384765625,7.51540994644165,2.212986469268799,0.2663130760192871
1701054556578984400,21.516984375,7.039891242980957,3.154001235961914,-0.4842562675476074
1701054556595976000,21.533975830078123,8.94135856628418,4.2444000244140625,-3.0486154556274414
1701054556612962800,21.550962890625,8.718406677246094,4.5519890785217285,-6.6058783531188965
1701054556629960200,21.567960205078126,7.16708517074585,3.7724151611328125,-9.67226791381836
1701054556646937000,21.58493701171875,5.3438544273376465,2.6699814796447754,-9.615791320800781
