time,seconds_elapsed,z,y,x
1701054256158969900,0.150969970703125,0.19661903381347656,0.11318302154541016,0.20978450775146484
1701054256175972000,0.16797216796875,-0.2695169448852539,0.06918764114379883,0.3838486671447754
1701054256192964600,0.184964599609375,-0.6358327865600586,0.1157374382019043,0.45687341690063477
1701054256209953300,0.201953369140625,-0.9290528297424316,0.07440900802612305,0.5528573989868164
1701054256226942500,0.2189423828125,-1.5478730201721191,0.2187638282775879,0.7206158638000488
1701054256243937500,0.2359375,-2.3388752937316895,0.16533517837524414,1.0344672203063965
1701054256260916200,0.252916259765625,-4.1853742599487305,-0.05217170715332031,1.45758056640625
1701054256277918500,0.26991845703125,-4.22376012802124,0.15577435493469238,1.5990753173828125
1701054256294906400,0.28690625,-3.9043774604797363,0.014972686767578125,1.515688419342041
1701054256311898000,0.303898193359375,2.622145652770996,-1.6947077512741089,0.18315505981445312
1701054256328879900,0.3208798828125,13.100135803222656,-2.440741539001465,-1.0910377502441406
1701054256345876500,0.33787646484375,4.437215805053711,-1.3171367645263672,1.1541481018066406
1701054256362869200,0.354869140625,-9.928799629211426,1.8009085655212402,5.310560703277588
1701054256379865000,0.371864990234375,-6.660279750823975,2.8518033027648926,7.725260257720947
1701054256396845600,0.388845458984375,1.219770908355713,1.4739718437194824,0.527742862701416
1701054256413844000,0.405843994140625,3.936023712158203,-0.7052309513092041,-1.484830379486084
1701054256430831000,0.4228310546875,2.464568614959717,-1.649604320526123,-0.1437993049621582
1701054256447823400,0.4398232421875,-1.06309175491333,-0.8772444725036621,-0.5387706756591797
1701054256464810000,0.45681005859375,-2.0530271530151367,0.028254985809326172,-1.7528676986694336
1701054256481804800,0.4738046875,-1.3261914253234863,0.22007369995117188,-2.3579468727111816
1701054256498791000,0.490791015625,-0.9909234046936035,0.20122289657592773,-3.366974353790283
1701054256515779000,0.507779052734375,-1.2345314025878906,0.3500685691833496,-3.6589670181274414
1701054256532764700,0.5247646484375,-0.5767264366149902,0.03826022148132324,-3.374647617340088
1701054256549766400,0.541766357421875,-0.08789539337158203,-0.42245912551879883,-3.1711466312408447
1701054256566751500,0.55875146484375,-0.48565196990966797,-0.48512744903564453,-3.4049148559570312
1701054256583744300,0.575744140625,-0.9326639175415039,-0.49439549446105957,-3.617593765258789
1701054256600733700,0.592733642578125,-1.008554458618164,-0.5504450798034668,-3.7294862270355225
1701054256617727200,0.609727294921875,-0.5934205055236816,-0.4504055976867676,-3.1245603561401367
1701054256634723000,0.62672314453125,-0.025913238525390625,-0.5249803066253662,-2.4338581562042236
1701054256651701800,0.64370166015625,0.5180916786193848,-0.7858362197875977,-2.0821902751922607
1701054256668702700,0.66070263671875,-0.509885311126709,-0.2555990219116211,-2.2215750217437744
1701054256685679000,0.67767919921875,-1.08392333984375,0.43488144874572754,-2.238039493560791
1701054256702678800,0.6946787109375,-0.19746971130371094,0.38906049728393555,-1.360539197921753
1701054256719671000,0.711671142578125,1.0122466087341309,-0.34151458740234375,-0.08577919006347656
1701054256736657400,0.728657470703125,1.565810203552246,-0.47017765045166016,0.18560075759887695
1701054256753651000,0.74565087890625,0.5992236137390137,-0.05009794235229492,0.7767143249511719
1701054256770640600,0.762640625,-0.6672224998474121,0.1887362003326416,0.9854292869567871
1701054256787629300,0.77962939453125,-1.261063575744629,0.12955474853515625,1.4565339088439941
1701054256804611800,0.79661181640625,0.09742259979248047,0.6367247104644775,9.425369262695312
1701054256821611500,0.813611572265625,-2.423644542694092,2.2501723766326904,9.555014610290527
1701054256838604800,0.830604736328125,-3.416595458984375,3.778346538543701,10.96272087097168
1701054256855590700,0.847590576171875,-4.650062084197998,2.9455409049987793,6.921099662780762
1701054256872583400,0.86458349609375,-4.2788801193237305,0.7426848411560059,4.032497882843018
1701054256889583600,0.88158349609375,-3.8016531467437744,-0.4712557792663574,4.10720682144165
1701054256906562000,0.89856201171875,-2.2760462760925293,-1.5009113550186157,2.876220226287842
1701054256923555600,0.9155556640625,-0.20194339752197266,-2.3424510955810547,2.3028764724731445
1701054256940545800,0.9325458984375,0.857053279876709,-2.680959463119507,2.6589927673339844
1701054256957534200,0.9495341796875,0.34387683868408203,-2.92643404006958,0.4737100601196289
1701054256974527200,0.96652734375,-0.5998764038085938,-3.116082191467285,-0.2435750961303711
1701054256991517000,0.983516845703125,-0.6600561141967773,-2.5555224418640137,2.012967109680176
1701054257008509000,1.000509033203125,-1.9932947158813477,-0.984713077545166,5.255347728729248
1701054257025495000,1.0174951171875,-1.2077393531799316,-0.22684717178344727,6.688703536987305
1701054257042488800,1.03448876953125,-0.2355794906616211,0.46350717544555664,6.153087615966797
1701054257059469000,1.051468994140625,-1.4605684280395508,1.0888285636901855,5.955780506134033
1701054257076466400,1.068466552734375,-1.2546796798706055,0.620945930480957,6.427365779876709
1701054257093472500,1.085472412109375,0.44434118270874023,-0.0791175365447998,6.257352828979492
1701054257110452000,1.102451904296875,0.907111644744873,-0.08969998359680176,5.876199722290039
1701054257127437800,1.119437744140625,-0.06260824203491211,-0.0025801658630371094,5.215733528137207
1701054257144415200,1.136415283203125,-0.6633620262145996,-0.06900978088378906,4.79677677154541
1701054257161421300,1.15342138671875,-1.099292278289795,-0.1795942783355713,4.94140100479126
1701054257178413600,1.17041357421875,-1.7324872016906738,-0.14132285118103027,5.8285017013549805
1701054257195401700,1.187401611328125,-1.8701815605163574,-0.5544403791427612,6.6020026206970215
1701054257212393000,1.20439306640625,-1.8076972961425781,-0.9772913455963135,6.357278823852539
1701054257229385000,1.221385009765625,-1.4163517951965332,-1.4491897821426392,5.543037414550781
1701054257246371600,1.23837158203125,-0.6779794692993164,-1.5222854614257812,4.293834686279297
1701054257263364400,1.2553642578125,-0.14606285095214844,-2.2611706256866455,2.7731480598449707
1701054257280346000,1.27234619140625,1.9885358810424805,-3.465113401412964,2.563079833984375
1701054257297339000,1.2893388671875,0.7338628768920898,-2.4557907581329346,2.1531167030334473
1701054257314340400,1.30634033203125,0.3308563232421875,-2.053450584411621,0.8529419898986816
1701054257331326200,1.323326171875,0.6242899894714355,-1.7083942890167236,-0.20355463027954102
1701054257348318500,1.340318359375,1.2435131072998047,-1.8244378566741943,-0.5059413909912109
1701054257365304600,1.3573046875,4.124024391174316,-3.224855899810791,0.1197214126586914
1701054257382297600,1.374297607421875,5.176520347595215,-2.37479829788208,-0.7373824119567871
1701054257399289900,1.391289794921875,6.86826229095459,-1.6245393753051758,-1.7859492301940918
1701054257416276200,1.408276123046875,6.606536388397217,-1.7416303157806396,-4.079316139221191
1701054257433269200,1.425269287109375,4.945148944854736,-0.9268162250518799,-6.147755146026611
1701054257450261200,1.44226123046875,4.654683589935303,-0.49334073066711426,-6.43034553527832
1701054257467247900,1.459247802734375,5.1193413734436035,-0.9488344192504883,-6.523868083953857
1701054257484241400,1.476241455078125,4.836551666259766,-0.8466546535491943,-7.383597373962402
1701054257501231000,1.493231201171875,4.0492753982543945,-0.3831920623779297,-7.8189697265625
1701054257518222800,1.510222900390625,1.2461495399475098,0.4580678939819336,-6.825413227081299
1701054257535202600,1.52720263671875,-0.33367919921875,0.4847850799560547,-4.977451324462891
1701054257552202000,1.544201904296875,-0.6593208312988281,0.11636185646057129,-5.678035736083984
1701054257569195300,1.5611953125,-2.910313367843628,0.20109987258911133,-5.05520486831665
1701054257586173700,1.578173583984375,-1.4489903450012207,0.6259379386901855,-4.932638168334961
1701054257603173600,1.595173583984375,-1.1876397132873535,0.5563974380493164,-4.997464179992676
1701054257620166000,1.612165771484375,-0.9925503730773926,-0.04066658020019531,-4.904614448547363
1701054257637152300,1.62915234375,-0.5697059631347656,-0.4747195243835449,-5.880232334136963
1701054257654146300,1.646146240234375,-1.7468986511230469,-0.5542600154876709,-5.876120567321777
1701054257671135200,1.66313525390625,-0.1526803970336914,-1.0938670635223389,-6.331541538238525
1701054257688128300,1.680128173828125,0.4803910255432129,-1.3506555557250977,-7.242269992828369
1701054257705122300,1.697122314453125,1.2483644485473633,-1.4810092449188232,-8.004219055175781
1701054257722107100,1.714107177734375,1.580312728881836,-1.4301486015319824,-8.08387279510498
1701054257739095300,1.73109521484375,0.8835887908935547,-1.4254493713378906,-7.731730937957764
1701054257756089600,1.748089599609375,1.4245853424072266,-1.9179556369781494,-7.356328010559082
1701054257773078800,1.765078857421875,1.9388041496276855,-2.3948750495910645,-7.257290363311768
1701054257790070500,1.782070556640625,1.2700533866882324,-1.763399600982666,-6.9868693351745605
1701054257807053800,1.7990537109375,1.9268279075622559,-2.0148541927337646,-6.209168434143066
1701054257824063200,1.816063232421875,2.396883487701416,-2.428280830383301,-5.164208889007568
1701054257841032400,1.833032470703125,2.531881809234619,-1.8659226894378662,-4.568465232849121
1701054257858025700,1.850025634765625,2.01115083694458,-1.553147792816162,-2.8973276615142822
1701054257875020800,1.867020751953125,2.109584331512451,-0.8483738899230957,-1.9302082061767578
1701054257892017200,1.88401708984375,1.9676108360290527,-0.27077460289001465,-0.5649895668029785
1701054257908993300,1.9009931640625,1.1934585571289062,-0.4906125068664551,1.090773582458496
1701054257925990700,1.91799072265625,1.7794957160949707,-0.37035202980041504,0.9148602485656738
1701054257942983200,1.934983154296875,1.192591667175293,0.9059734344482422,1.7310171127319336
1701054257959985000,1.95198486328125,0.13728809356689453,1.4678287506103516,2.762620449066162
1701054257976959200,1.968959228515625,0.5498013496398926,1.725914478302002,3.2295961380004883
1701054257993958400,1.98595849609375,0.17360353469848633,0.6353671550750732,2.78377103805542
1701054258010945300,2.0029453125,1.7521157264709473,-0.7337992191314697,4.529958248138428
1701054258027937500,2.0199375,0.4487595558166504,-0.37925267219543457,6.819945812225342
1701054258044924200,2.036924072265625,-2.8236517906188965,0.2711160182952881,8.094818115234375
1701054258061917000,2.0539169921875,-2.1408119201660156,0.19030237197875977,6.816582202911377
1701054258078909000,2.070908935546875,-0.22374677658081055,0.14609026908874512,5.705520153045654
1701054258095895300,2.087895263671875,0.016685009002685547,-0.17844223976135254,6.6290669441223145
1701054258112888000,2.10488818359375,0.7881770133972168,-1.151538372039795,7.1141180992126465
1701054258129874400,2.12187451171875,-1.1004266738891602,-0.7698814868927002,7.671977519989014
1701054258146866400,2.138866455078125,-1.1794357299804688,-0.14531469345092773,7.733361721038818
1701054258163860500,2.155860595703125,1.9286713600158691,0.8504154682159424,12.34765625
1701054258180846300,2.172846435546875,1.5845293998718262,1.8683898448944092,10.52505111694336
1701054258197846000,2.189845947265625,-5.157863616943359,0.8480298519134521,5.138363361358643
1701054258214828500,2.20682861328125,-10.056636810302734,1.3170032501220703,9.870864868164062
1701054258231821300,2.2238212890625,-10.571573257446289,2.285627841949463,9.116296768188477
1701054258248811300,2.240811279296875,-5.669307231903076,1.300121784210205,8.343622207641602
1701054258265804500,2.257804443359375,0.10767745971679688,-0.9499474167823792,8.07172679901123
1701054258282789600,2.27478955078125,4.83197546005249,-2.1669740676879883,7.1803412437438965
1701054258299786200,2.2917861328125,5.1904144287109375,-1.6761952638626099,7.888219833374023
1701054258316771800,2.308771728515625,4.708811283111572,-0.5471959114074707,8.084625244140625
1701054258333766100,2.32576611328125,2.9319815635681152,0.03743898868560791,7.261905670166016
1701054258350761700,2.34276171875,-1.3502874374389648,1.3169481754302979,7.362751483917236
1701054258367744300,2.359744140625,-4.087306499481201,1.9245989322662354,8.871245384216309
1701054258384735200,2.3767353515625,-4.782158851623535,1.1115522384643555,9.868782043457031
1701054258401723600,2.3937236328125,-2.069395065307617,-0.2401338815689087,8.27376937866211
1701054258418715600,2.410715576171875,3.53841495513916,-2.220588445663452,5.528963088989258
1701054258435706000,2.4277060546875,7.272686958312988,-3.68489408493042,3.3563990592956543
1701054258452697600,2.444697509765625,5.912322044372559,-2.570920467376709,1.0736470222473145
1701054258469692400,2.4616923828125,4.7482404708862305,-1.260038137435913,-0.22359752655029297
1701054258486676000,2.478676025390625,3.2597804069519043,-0.8943349123001099,-0.6078405380249023
1701054258503670000,2.495669921875,3.0077786445617676,-0.7858264446258545,-0.36502790451049805
1701054258520660200,2.51266015625,2.7581424713134766,-0.13404583930969238,0.5420947074890137
1701054258537647900,2.52964794921875,2.4961037635803223,0.2508096694946289,0.10895586013793945
1701054258554641400,2.546641357421875,2.9386677742004395,-0.11893129348754883,-1.8285279273986816
1701054258571631000,2.563631103515625,2.2461252212524414,-0.456437349319458,-3.3923206329345703
1701054258588623000,2.580623046875,1.4549493789672852,-0.4948740005493164,-4.4547929763793945
1701054258605609700,2.597609619140625,2.7904677391052246,-1.0504720211029053,-4.344048976898193
1701054258622586400,2.61458642578125,5.4129719734191895,-1.185373067855835,-4.631462574005127
1701054258639594500,2.631594482421875,5.204256057739258,-0.6475861072540283,-6.844635009765625
1701054258656581000,2.6485810546875,4.5310163497924805,0.005102634429931641,-8.807106018066406
1701054258673574700,2.66557470703125,2.7861015796661377,0.27916955947875977,-8.652166366577148
1701054258690562800,2.682562744140625,0.5939474105834961,0.2740020751953125,-6.315389633178711
1701054258707555000,2.69955517578125,1.635483741760254,-1.1167550086975098,-7.201013565063477
1701054258724546000,2.716546142578125,0.5455605983734131,-2.14599347114563,-7.79075813293457
1701054258741535700,2.73353564453125,-1.2697381973266602,-2.1597657203674316,-7.964235782623291
1701054258758528000,2.750528076171875,-1.2256700992584229,-1.8960046768188477,-7.596207618713379
1701054258775514600,2.7675146484375,-1.2420462369918823,-1.7773065567016602,-7.291811943054199
1701054258792507100,2.784507080078125,-0.7543249130249023,-1.5197181701660156,-7.196373462677002
1701054258809496800,2.801496826171875,0.46235084533691406,-1.8817744255065918,-6.059745788574219
1701054258826487800,2.81848779296875,0.19667387008666992,-1.9136662483215332,-5.311858177185059
1701054258843479600,2.8354794921875,0.01965045928955078,-1.386833906173706,-4.784442901611328
1701054258860468500,2.852468505859375,0.016613483428955078,-0.9506292343139648,-5.1456756591796875
1701054258877458400,2.86945849609375,0.4532914161682129,-0.6381120681762695,-6.002384185791016
1701054258894447600,2.886447509765625,1.2676153182983398,-0.32210683822631836,-5.799952507019043
1701054258911429600,2.9034296875,2.147195816040039,-0.11099863052368164,-5.257061004638672
1701054258928432600,2.9204326171875,1.7670509815216064,0.3914175033569336,-5.018115997314453
1701054258945420300,2.937420166015625,1.5923924446105957,0.5366921424865723,-5.341518878936768
1701054258962412000,2.954412109375,0.6546030044555664,0.9650783538818359,-5.449519634246826
1701054258979404000,2.971404052734375,0.6695170402526855,1.1403121948242188,-5.595759391784668
1701054258996390700,2.988390625,1.7224388122558594,1.333547592163086,-5.03497838973999
1701054259013383200,3.005383056640625,2.8439955711364746,1.421895980834961,-5.155154228210449
1701054259030375700,3.022375732421875,2.675518035888672,1.608963966369629,-4.932851791381836
1701054259047362000,3.039362060546875,-0.7265739440917969,2.4063992500305176,-4.013792514801025
1701054259064355600,3.05635546875,-0.46202707290649414,2.3185415267944336,-3.490262031555176
1701054259081345500,3.073345458984375,0.3625154495239258,1.9840197563171387,-3.1194300651550293
1701054259098337300,3.090337158203125,2.9516334533691406,1.7293686866760254,-2.7208781242370605
1701054259115324000,3.107323974609375,5.12562894821167,1.2956593036651611,-2.902660369873047
1701054259132320300,3.1243203125,3.713366985321045,1.5697834491729736,-1.599687099456787
1701054259149305300,3.141305419921875,-0.12487649917602539,2.2179062366485596,0.41910696029663086
1701054259166298600,3.158298583984375,1.2705349922180176,1.4249517917633057,0.09142398834228516
1701054259183289000,3.1752890625,2.9458088874816895,0.4919729232788086,-0.016039371490478516
1701054259200280000,3.192280029296875,2.7683863639831543,-0.21796798706054688,0.5698451995849609
1701054259217270300,3.209270263671875,3.239302635192871,-1.3700666427612305,1.7392358779907227
1701054259234260700,3.2262607421875,2.5865745544433594,-2.111872673034668,3.0207347869873047
1701054259251251000,3.2432509765625,-0.11535453796386719,-2.4350075721740723,3.644439697265625
1701054259268241700,3.26024169921875,-2.5116567611694336,-2.175276279449463,3.463289737701416
1701054259285220000,3.27722021484375,-3.1529674530029297,-2.0877087116241455,3.4899239540100098
1701054259302215000,3.29421484375,-1.6209454536437988,-2.575684070587158,3.842886447906494
1701054259319215600,3.311215576171875,-0.7060542106628418,-2.5763144493103027,5.027431011199951
1701054259336193000,3.328193115234375,-0.06699419021606445,-2.256699562072754,6.819031238555908
1701054259353194000,3.345194091796875,-0.04882240295410156,-1.6289868354797363,7.300034046173096
1701054259370184700,3.362184814453125,1.466843605041504,-1.4252209663391113,7.21091890335083
1701054259387175200,3.379175048828125,3.349949836730957,-1.3075991868972778,8.151220321655273
1701054259404165400,3.396165283203125,2.8660669326782227,-0.8578548431396484,9.973442077636719
1701054259421156000,3.413156005859375,0.20749950408935547,0.1327834129333496,9.5000581741333
1701054259438135800,3.4301357421875,-1.3148422241210938,0.24301433563232422,9.034467697143555
1701054259455137000,3.447136962890625,-1.4195709228515625,-0.33410704135894775,8.95783805847168
1701054259472127200,3.464127197265625,0.6527929306030273,-0.2611987590789795,14.67116641998291
1701054259489115600,3.48111572265625,-3.8149943351745605,0.487593412399292,6.490098476409912
1701054259506111000,3.498111083984375,-11.743429183959961,0.6330528259277344,11.602859497070312
1701054259523096300,3.515096435546875,-11.740331649780273,1.5475287437438965,11.717630386352539
1701054259540090000,3.532090087890625,-8.373258590698242,1.251481056213379,9.298288345336914
1701054259557081900,3.549081787109375,-2.990144729614258,-0.3825129270553589,8.145214080810547
1701054259574070300,3.5660703125,2.5525941848754883,-2.478390693664551,7.442491054534912
1701054259591060700,3.583060791015625,5.990377902984619,-2.940398693084717,7.4205803871154785
1701054259608051500,3.600051513671875,3.1634140014648438,-1.6935654878616333,7.745989799499512
1701054259625041700,3.617041748046875,2.5159192085266113,-0.6589736938476562,7.22933292388916
1701054259642032400,3.634032470703125,3.2422070503234863,-0.571474552154541,6.987914085388184
1701054259659022800,3.65102294921875,-0.5279450416564941,0.3587043285369873,8.20024299621582
1701054259676013300,3.668013427734375,-4.449487686157227,1.1414625644683838,10.09217643737793
1701054259693001200,3.685001220703125,-4.82103157043457,0.6491725444793701,9.946538925170898
1701054259709996800,3.701996826171875,-0.37746381759643555,-0.8815455436706543,8.842489242553711
1701054259726984700,3.718984619140625,6.68645715713501,-2.350728750228882,7.473721981048584
1701054259743975200,3.73597509765625,8.836000442504883,-2.973515510559082,4.956233501434326
1701054259760965600,3.752965576171875,8.203468322753906,-2.4624338150024414,2.5278267860412598
1701054259777956000,3.7699560546875,5.136053085327148,-0.5188148021697998,0.8952450752258301
1701054259794946600,3.786946533203125,3.0498247146606445,0.3243842124938965,0.6027450561523438
1701054259811937000,3.80393701171875,5.054529190063477,-0.5632963180541992,-0.2522544860839844
1701054259828927700,3.820927734375,5.335127353668213,-0.6753535270690918,-1.752690315246582
1701054259845918000,3.83791796875,4.992429733276367,-0.04897785186767578,-2.950165271759033
1701054259862908400,3.854908447265625,6.063841819763184,0.13861513137817383,-4.429666519165039
1701054259879899100,3.871899169921875,7.139615058898926,-0.35483479499816895,-5.494049549102783
1701054259896889600,3.8888896484375,4.957450866699219,-1.132441520690918,-7.293008327484131
1701054259913878800,3.905878662109375,3.314629554748535,-0.9693529605865479,-7.158024787902832
1701054259930871300,3.922871337890625,2.156386375427246,-1.7630969285964966,-7.786846160888672
1701054259947850200,3.939850341796875,3.789787769317627,-2.8807566165924072,-7.837902545928955
1701054259964851500,3.9568515625,1.4584851264953613,-2.9012999534606934,-9.120535850524902
1701054259981842000,3.973842041015625,-1.2869236469268799,-1.742920160293579,-8.763821601867676
1701054259998832400,3.990832275390625,0.4897613525390625,-1.237241506576538,-8.708362579345703
1701054260015812900,4.007812744140625,1.0055322647094727,-1.825791358947754,-8.109419822692871
1701054260032813300,4.024813232421875,-1.7092108726501465,-2.5204617977142334,-6.749613285064697
1701054260049793800,4.041793701171875,-2.019339084625244,-2.828758716583252,-6.6124773025512695
1701054260066794000,4.0587939453125,-1.4539097547531128,-2.647514820098877,-6.435149192810059
1701054260083784700,4.07578466796875,-2.1946330070495605,-1.702958106994629,-5.141655921936035
1701054260100777500,4.092777587890625,-1.5281611680984497,-0.4823181629180908,-4.388438701629639
1701054260117765400,4.109765380859375,0.06741070747375488,-0.410780668258667,-4.421443939208984
1701054260134756400,4.12675634765625,1.4730498790740967,-0.7098543643951416,-4.871842384338379
1701054260151746000,4.14374609375,1.0315868854522705,-0.4546470642089844,-4.999270439147949
1701054260168737500,4.160737548828125,0.33642005920410156,-0.18803071975708008,-4.8793463706970215
1701054260185727500,4.1777275390625,0.3850440979003906,-0.15439224243164062,-5.705574035644531
1701054260202718200,4.19471826171875,-0.4931764602661133,-0.19388484954833984,-6.763922214508057
1701054260219708700,4.211708740234375,-0.1336820125579834,-0.02594757080078125,-7.505068778991699
1701054260236699000,4.228698974609375,0.18004369735717773,0.06137895584106445,-7.059912204742432
1701054260253689600,4.245689697265625,-0.23041462898254395,0.2295999526977539,-6.394564628601074
1701054260270677200,4.26267724609375,-0.49854469299316406,0.075714111328125,-6.501411437988281
1701054260287662600,4.27966259765625,-0.6599221229553223,-0.051810503005981445,-6.215468406677246
1701054260304658200,4.296658203125,-0.5511722564697266,-0.3372483253479004,-6.001482963562012
1701054260321654300,4.313654296875,0.9550514221191406,-0.1105186939239502,-6.436649322509766
1701054260338642000,4.330641845703125,2.3204355239868164,0.6174426078796387,-6.756400108337402
1701054260355632400,4.34763232421875,3.0795016288757324,0.6888670921325684,-5.403594493865967
1701054260372622800,4.364622802734375,4.076578617095947,0.8181746006011963,-4.070668697357178
1701054260389613300,4.38161328125,2.615835189819336,1.571045160293579,-2.8990163803100586
1701054260406604000,4.39860400390625,2.1934685707092285,1.486823558807373,-2.746896743774414
1701054260423594200,4.41559423828125,3.5667343139648438,0.7173173427581787,-3.1333844661712646
1701054260440584700,4.432584716796875,4.801136493682861,0.7587294578552246,-2.2816739082336426
1701054260457575400,4.449575439453125,5.154531002044678,0.5342743396759033,-1.0652379989624023
1701054260474566000,4.46656591796875,5.387026309967041,-0.40446925163269043,0.8795580863952637
1701054260491556000,4.48355615234375,2.3871889114379883,0.16465282440185547,-1.363903522491455
1701054260508546800,4.500546875,2.538966655731201,0.5471341609954834,0.6448073387145996
1701054260525537300,4.517537353515625,1.638554573059082,-0.3676009178161621,2.0186948776245117
1701054260542528000,4.534528076171875,2.7724151611328125,-1.2089029550552368,3.174013137817383
1701054260559518200,4.551518310546875,2.879103660583496,-1.9339882135391235,4.231244087219238
1701054260576520200,4.568520263671875,1.620579719543457,-2.110959053039551,5.071390628814697
1701054260593499400,4.58549951171875,1.1729583740234375,-2.1241707801818848,4.700239658355713
1701054260610489900,4.60248974609375,-0.14900779724121094,-1.7134886980056763,3.9705448150634766
1701054260627477800,4.619477783203125,-0.8576807975769043,-1.5290379524230957,4.376277923583984
1701054260644473000,4.63647314453125,-0.5162639617919922,-1.4697412252426147,5.180035591125488
1701054260661460500,4.65346044921875,-1.1054039001464844,-0.9872338771820068,5.546718597412109
1701054260678451700,4.67045166015625,-1.449312686920166,-0.5728168487548828,5.7106242179870605
1701054260695442200,4.687442138671875,-0.29616451263427734,-0.9862821102142334,5.285648345947266
1701054260712430000,4.70443017578125,0.10528850555419922,-1.1985957622528076,5.630800247192383
1701054260729419800,4.721419677734375,-0.9668378829956055,-0.5514637231826782,6.249317646026611
1701054260746413600,4.73841357421875,-1.0690736770629883,-0.32834672927856445,6.633918285369873
1701054260763404000,4.755404052734375,-0.5269770622253418,-0.6681922674179077,6.712446689605713
1701054260780394500,4.77239453125,0.3467569351196289,-1.0691242218017578,6.575728416442871
1701054260797388800,4.789388916015625,1.4556999206542969,-0.8874788880348206,9.065793991088867
1701054260814373600,4.80637353515625,-2.104248523712158,1.2812821865081787,10.044685363769531
1701054260831368000,4.823367919921875,-9.656268119812012,3.953303337097168,10.537397384643555
1701054260848356400,4.8403564453125,-14.356584548950195,4.71730375289917,9.965002059936523
1701054260865347000,4.85734716796875,-11.722386360168457,2.6959304809570312,8.569269180297852
1701054260882337500,4.874337646484375,-3.2015066146850586,-0.03885972499847412,5.327764511108398
1701054260899317200,4.891317138671875,0.5475711822509766,-2.326444387435913,4.211193561553955
1701054260916318700,4.908318603515625,3.7335662841796875,-3.367631196975708,5.259100437164307
1701054260933309000,4.925308837890625,3.951934814453125,-2.4562041759490967,5.385551452636719
1701054260950299400,4.94229931640625,1.7024450302124023,-1.578848958015442,5.215590000152588
1701054260967289600,4.95928955078125,2.3471713066101074,-1.4200104475021362,4.984438896179199
1701054260984280300,4.9762802734375,1.2979450225830078,-1.0799905061721802,4.569358825683594
1701054261001270800,4.993270751953125,-2.8817386627197266,0.06921625137329102,4.524347305297852
1701054261018250800,5.010250732421875,-5.334397315979004,0.7998775243759155,5.173685550689697
1701054261035251700,5.027251708984375,-3.6733226776123047,0.2712365388870239,5.44952917098999
1701054261052242400,5.044242431640625,0.44666099548339844,-0.843950629234314,5.346253395080566
1701054261069232600,5.061232666015625,2.800532817840576,-1.7159266471862793,4.814082622528076
1701054261086223000,5.07822314453125,3.0668978691101074,-1.4174025058746338,4.1082353591918945
1701054261103213600,5.095213623046875,1.8578495979309082,-1.1202397346496582,3.541944980621338
1701054261120186400,5.112186279296875,-0.46470117568969727,-0.5454850196838379,3.585702896118164
1701054261137184300,5.129184326171875,-2.062593936920166,-0.32591676712036133,4.279791831970215
1701054261154185200,5.146185302734375,-2.541688919067383,-0.002308368682861328,4.538103103637695
1701054261171175400,5.163175537109375,-3.045351505279541,-0.20005106925964355,4.955035209655762
1701054261188155600,5.18015576171875,-1.4277148246765137,-0.6039208173751831,4.668307781219482
1701054261205156400,5.19715625,-0.22143316268920898,-0.8083769083023071,4.385082244873047
1701054261222147300,5.214147216796875,0.6302943229675293,-0.7802281379699707,4.760737895965576
1701054261239137800,5.2311376953125,-0.45720911026000977,0.04063248634338379,4.523421764373779
1701054261256127700,5.248127685546875,-0.10514974594116211,0.6047426462173462,3.949763298034668
1701054261273116000,5.265115966796875,-0.33565568923950195,0.5071673393249512,3.4098172187805176
1701054261290102500,5.2821025390625,0.6043267250061035,1.016493558883667,3.80820369720459
1701054261307097300,5.299097412109375,2.219552993774414,1.1838462352752686,4.4406819343566895
1701054261324092400,5.316092529296875,1.8492140769958496,1.445404291152954,4.2809295654296875
1701054261341063200,5.333063232421875,3.4466023445129395,0.7150413990020752,1.543365478515625
1701054261358060000,5.35006005859375,3.3449344635009766,0.4153625965118408,0.25341320037841797
1701054261375061500,5.3670615234375,5.005105018615723,0.5040488243103027,-0.27273130416870117
1701054261392052000,5.384052001953125,4.762084007263184,0.2432117462158203,-2.4283952713012695
1701054261409042400,5.40104248046875,3.5770187377929688,-0.04164934158325195,-3.734189987182617
1701054261426033200,5.418033203125,3.200040817260742,-1.9266917705535889,-5.053042411804199
1701054261443023600,5.435023681640625,2.2961292266845703,-2.613839626312256,-7.041472434997559
1701054261460013800,5.452013916015625,0.5687761306762695,-1.927280068397522,-8.323012351989746
1701054261476993800,5.468993896484375,-2.5113449096679688,-0.8163967132568359,-8.103857040405273
1701054261493992400,5.485992431640625,-1.0119171142578125,0.05444693565368652,-7.5570173263549805
1701054261510985500,5.5029853515625,2.484927177429199,-1.1820802688598633,-5.645442485809326
1701054261527978500,5.519978515625,6.802601337432861,-2.16377592086792,-4.214349269866943
1701054261544966400,5.53696630859375,7.191769599914551,-1.573084831237793,-3.914670944213867
1701054261561956900,5.553956787109375,5.727534294128418,-0.9208638668060303,-4.660506725311279
1701054261578947300,5.570947265625,5.726092338562012,-0.7531673908233643,-4.6064558029174805
1701054261595938000,5.58793798828125,3.6365766525268555,-0.3776416778564453,-4.824296951293945
1701054261612925400,5.604925537109375,2.2302095890045166,-0.07498574256896973,-4.534556865692139
1701054261629921500,5.621921630859375,1.7063333988189697,-0.08390283584594727,-3.986743927001953
1701054261646909200,5.6389091796875,1.0701589584350586,-0.369610071182251,-4.205388069152832
1701054261663900000,5.65589990234375,0.7014279365539551,-0.5235245227813721,-4.332253932952881
1701054261680890000,5.67289013671875,0.06581878662109375,-0.3644528388977051,-4.347208499908447
1701054261697880600,5.689880615234375,0.581876277923584,-0.07423853874206543,-4.472935199737549
1701054261714871300,5.706871337890625,0.14792466163635254,0.1095588207244873,-4.784911632537842
1701054261731861800,5.72386181640625,-1.0860532522201538,0.24080228805541992,-5.005048751831055
1701054261748852000,5.74085205078125,-0.724571704864502,0.15558218955993652,-5.048327922821045
1701054261765839400,5.75783935546875,0.25588345527648926,-0.3113253116607666,-5.2567315101623535
1701054261782833200,5.774833251953125,0.7113313674926758,-0.7123422622680664,-5.448095321655273
1701054261799823400,5.7918232421875,0.07515621185302734,-0.7485883235931396,-5.456303596496582
1701054261816813300,5.808813232421875,-1.229487657546997,-0.6219456195831299,-5.179652214050293
1701054261833812000,5.82581201171875,-1.2967891693115234,-0.6059787273406982,-4.671626091003418
1701054261850776000,5.842776123046875,-1.5167312622070312,-0.9165339469909668,-4.346868991851807
1701054261867785700,5.85978564453125,-0.5548746585845947,-0.8984184265136719,-5.071579933166504
1701054261884776000,5.87677587890625,-0.20044565200805664,-0.4988880157470703,-5.147895812988281
1701054261901766700,5.8937666015625,-0.9573197364807129,-0.019776105880737305,-4.491115093231201
1701054261918760000,5.910760009765625,-0.5536379814147949,-0.14086246490478516,-2.9247045516967773
1701054261935747000,5.9277470703125,-0.07195854187011719,-1.0447075366973877,-1.2278475761413574
1701054261952736000,5.944736083984375,0.5294075012207031,-1.137329339981079,-0.8566122055053711
1701054261969731000,5.96173095703125,1.2649431228637695,-1.3101338148117065,-0.5662579536437988
1701054261986719000,5.978718994140625,0.5486922264099121,-1.095348834991455,-0.32891273498535156
1701054262003709200,5.995709228515625,0.29894161224365234,-0.21199917793273926,0.07689619064331055
1701054262020700200,6.0127001953125,1.3106765747070312,-1.02176833152771,1.7870745658874512
1701054262037690400,6.0296904296875,2.5098609924316406,-1.5882045030593872,3.249350070953369
1701054262054684700,6.0466845703125,1.0064597129821777,-1.1117123365402222,4.736101150512695
1701054262071671000,6.063671142578125,0.7528018951416016,-0.2235126495361328,3.926516532897949
1701054262088664000,6.0806640625,0.23728370666503906,-0.06920194625854492,3.8415822982788086
1701054262105650400,6.097650390625,0.3069944381713867,-0.8028156757354736,4.052183151245117
1701054262122642700,6.114642578125,0.8925986289978027,-1.0613082647323608,4.669079303741455
1701054262139633200,6.131633056640625,-1.3904337882995605,-0.9972360134124756,6.3155999183654785
1701054262156623600,6.14862353515625,-0.31017017364501953,-1.2938780784606934,6.144912242889404
1701054262173603600,6.165603515625,0.4850625991821289,-1.1690043210983276,5.800824165344238
1701054262190604800,6.182604736328125,1.3512749671936035,-0.4650123119354248,8.137481689453125
1701054262207595300,6.19959521484375,0.48888492584228516,0.5165760517120361,8.145796775817871
1701054262224585700,6.216585693359375,-2.530092239379883,1.6206016540527344,7.765833377838135
1701054262241576400,6.233576416015625,-6.951770782470703,2.5873987674713135,7.01873779296875
1701054262258556200,6.25055615234375,-8.388249397277832,1.7829291820526123,3.150068759918213
1701054262275557000,6.26755712890625,-7.4467644691467285,-0.10819840431213379,4.483441352844238
1701054262292546800,6.284546875,-3.5774641036987305,-1.018442153930664,4.578779220581055
1701054262309539000,6.3015390625,-2.242797374725342,-0.633108377456665,3.7791662216186523
1701054262326537200,6.318537109375,-1.9648494720458984,-0.3478577136993408,4.038967132568359
1701054262343519200,6.335519287109375,-0.6092839241027832,-0.8906484842300415,5.083026885986328
1701054262360509700,6.352509765625,1.4200425148010254,-1.3058396577835083,5.614269733428955
1701054262377500200,6.369500244140625,1.5027308464050293,-0.6825071573257446,5.4299421310424805
1701054262394490400,6.386490478515625,-0.9233031272888184,0.14791202545166016,5.003481388092041
1701054262411480800,6.403480712890625,-2.269270420074463,0.6704792976379395,5.167768955230713
1701054262428471800,6.420471923828125,-2.752211809158325,0.9244229793548584,5.77408504486084
1701054262445462300,6.437462158203125,-2.1254448890686035,0.5800247192382812,6.253705978393555
1701054262462452700,6.45445263671875,-1.5844650268554688,0.0353851318359375,6.021291732788086
1701054262479432400,6.471432373046875,-1.6055092811584473,-0.42299604415893555,5.487739086151123
1701054262496434200,6.48843408203125,-1.9611692428588867,-0.41129910945892334,5.298131465911865
1701054262513424000,6.505423828125,-0.09298133850097656,-0.6293716430664062,5.382666110992432
1701054262530414300,6.522414306640625,1.1089930534362793,-0.8760645389556885,4.912349700927734
1701054262547390000,6.539389892578125,0.8646759986877441,-1.2472070455551147,4.121613025665283
1701054262564393000,6.55639306640625,0.41161680221557617,-0.9283723831176758,2.947014808654785
1701054262581388300,6.57338818359375,0.6210217475891113,-0.4801962375640869,2.4291858673095703
1701054262598376400,6.59037646484375,1.2554874420166016,-0.2985222339630127,1.6076064109802246
1701054262615367200,6.6073671875,2.212528705596924,-0.057822465896606445,1.3874907493591309
1701054262632357600,6.624357666015625,2.5483217239379883,-0.04253673553466797,1.4360771179199219
1701054262649347800,6.641347900390625,2.3326406478881836,0.19997525215148926,1.1580009460449219
1701054262666338300,6.65833837890625,2.649963855743408,0.2130746841430664,0.3351602554321289
1701054262683328800,6.675328857421875,2.607128620147705,0.009330511093139648,-0.3673849105834961
1701054262700319200,6.6923193359375,3.0199813842773438,-0.41750669479370117,-0.4395875930786133
1701054262717299500,6.709299560546875,2.8886585235595703,-0.6083972454071045,-0.9042739868164062
1701054262734300200,6.726300048828125,2.521712303161621,-0.41133880615234375,-1.678661823272705
1701054262751290600,6.74329052734375,3.1247646808624268,-0.23318839073181152,-2.771206855773926
1701054262768281000,6.760281005859375,3.862093687057495,0.3597557544708252,-3.3527684211730957
1701054262785259000,6.777259033203125,1.9638264179229736,1.1935343742370605,-3.373642921447754
1701054262802251500,6.79425146484375,2.5553793907165527,0.7145988941192627,-2.722888469696045
1701054262819243000,6.811242919921875,3.305752992630005,0.0977487564086914,-2.3803791999816895
1701054262836238000,6.828238037109375,4.322494983673096,-0.4492809772491455,-3.1160755157470703
1701054262853224400,6.845224365234375,4.1106743812561035,0.12905526161193848,-3.758279323577881
1701054262870215700,6.862215576171875,2.3155064582824707,0.5551548004150391,-4.85247802734375
1701054262887209700,6.879209716796875,1.8032562732696533,0.49989843368530273,-3.727809429168701
1701054262904196600,6.896196533203125,1.4851560592651367,0.09647846221923828,-3.7895989418029785
1701054262921187800,6.913187744140625,0.2736949920654297,-0.7350273132324219,-4.837263107299805
1701054262938175500,6.930175537109375,-0.6611907482147217,-1.3025636672973633,-5.552188873291016
1701054262955167200,6.947167236328125,-1.2566053867340088,-1.1841466426849365,-6.144237518310547
1701054262972159200,6.9641591796875,-1.9132194519042969,-0.6011695861816406,-6.819646835327148
1701054262989143600,6.9811435546875,-1.8463811874389648,-0.24366044998168945,-7.0614776611328125
1701054263006146300,6.998146240234375,-0.9831099510192871,-0.32089662551879883,-7.078387260437012
1701054263023128600,7.015128662109375,-0.4106619358062744,-0.5088887214660645,-7.110843181610107
1701054263040126000,7.0321259765625,0.3003406524658203,-0.6329870223999023,-6.983567237854004
1701054263057108700,7.049108642578125,0.3994133472442627,-0.7249150276184082,-6.826725959777832
1701054263074102800,7.066102783203125,0.6804039478302002,-0.6234402656555176,-6.48597526550293
1701054263091094000,7.083093994140625,1.1282529830932617,-0.7285945415496826,-6.003264904022217
1701054263108086300,7.100086181640625,1.498993158340454,-0.697551965713501,-5.7441725730896
1701054263125078800,7.117078857421875,1.6258831024169922,-0.8223192691802979,-5.498045921325684
1701054263142063000,7.13406298828125,1.9495363235473633,-0.853691577911377,-5.346888542175293
1701054263159050500,7.151050537109375,2.7507119178771973,-0.8230831623077393,-5.417551517486572
1701054263176055300,7.16805517578125,2.4404478073120117,-1.0775041580200195,-4.835890769958496
1701054263193041200,7.185041259765625,2.4218411445617676,-0.7637226581573486,-4.272611618041992
1701054263210036700,7.20203662109375,1.9724469184875488,-0.2467975616455078,-3.3558483123779297
1701054263227024600,7.219024658203125,0.6792912483215332,0.12604427337646484,-2.12735652923584
1701054263244015000,7.23601513671875,-0.12419939041137695,0.4469313621520996,-1.2735443115234375
1701054263261005600,7.253005615234375,0.4406099319458008,-0.12742376327514648,-0.745110034942627
1701054263278002700,7.270002685546875,2.845773696899414,0.043605804443359375,-0.9444828033447266
1701054263294986500,7.286986572265625,2.9626517295837402,-0.009962081909179688,0.037027835845947266
1701054263311977000,7.30397705078125,3.452446937561035,-0.5303161144256592,0.7615170478820801
1701054263328967700,7.3209677734375,0.5916438102722168,-0.17371320724487305,2.030144214630127
1701054263345958000,7.3379580078125,-1.367434024810791,0.3386809825897217,1.6700124740600586
1701054263362948000,7.354947998046875,-0.8967709541320801,0.3254852294921875,1.0313100814819336
1701054263379928300,7.37192822265625,1.756302833557129,0.290524959564209,1.8331003189086914
1701054263396929500,7.388929443359375,3.222153663635254,-0.3988068103790283,3.5336852073669434
1701054263413917200,7.405917236328125,0.35681819915771484,-0.036611080169677734,4.488022804260254
1701054263430913000,7.4229130859375,-2.9543843269348145,0.5427131652832031,4.010641098022461
1701054263447889000,7.439888916015625,-2.7777276039123535,0.5711269378662109,1.8740434646606445
1701054263464891400,7.456891357421875,-1.276515007019043,0.04775071144104004,1.0989155769348145
1701054263481881900,7.4738818359375,-0.24885082244873047,-1.6355676651000977,2.290083885192871
1701054263498872300,7.490872314453125,0.98345947265625,-2.4474103450775146,3.694364070892334
1701054263515863800,7.50786376953125,0.29119443893432617,-1.6435868740081787,3.675837516784668
1701054263532852500,7.5248525390625,-1.8306083679199219,-0.4554852247238159,3.4034295082092285
1701054263549844000,7.541843994140625,-1.7547502517700195,0.04410815238952637,2.7785463333129883
1701054263566821000,7.558821044921875,-0.4364166259765625,-0.8239835500717163,3.2800498008728027
1701054263583814400,7.575814453125,1.6233949661254883,-1.931528925895691,3.416689872741699
1701054263600815400,7.5928154296875,2.4881696701049805,-2.2171878814697266,3.7768726348876953
1701054263617794300,7.609794189453125,1.4786272048950195,-1.242519497871399,3.48366641998291
1701054263634797600,7.626797607421875,0.22742843627929688,-0.29194605350494385,3.9079623222351074
1701054263651786800,7.643786865234375,1.4793071746826172,-0.5022225379943848,4.989810943603516
1701054263668777500,7.660777587890625,2.761493682861328,-1.6370131969451904,7.267157077789307
1701054263685767700,7.677767578125,1.7299795150756836,-1.40830397605896,7.613465785980225
1701054263702758400,7.69475830078125,-0.23206090927124023,-0.6539593935012817,9.110334396362305
1701054263719748600,7.71174853515625,-6.084198951721191,0.8225094079971313,8.05260181427002
1701054263736739300,7.7287392578125,-10.827241897583008,1.309700608253479,9.976181030273438
1701054263753727700,7.745727783203125,-9.358119010925293,0.08360302448272705,10.687698364257812
1701054263770720000,7.762719970703125,-2.625641345977783,-2.1847026348114014,10.31917953491211
1701054263787713500,7.779713623046875,3.2332496643066406,-3.4238531589508057,9.449549674987793
1701054263804701400,7.796701416015625,5.11783504486084,-2.8547770977020264,8.393814086914062
1701054263821691600,7.813691650390625,3.3872814178466797,-1.8027102947235107,7.464078903198242
1701054263838682000,7.83068212890625,1.8487648963928223,-1.483251929283142,7.623769283294678
1701054263855672600,7.847672607421875,0.16481733322143555,-0.6252092123031616,8.67916488647461
1701054263872652800,7.86465283203125,-2.05842924118042,0.37747645378112793,9.207649230957031
1701054263889653800,7.88165380859375,-4.008035659790039,0.7373436689376831,8.148248672485352
1701054263906639400,7.898639404296875,-3.547963857650757,0.27812767028808594,6.875581741333008
1701054263923635200,7.91563525390625,0.23572921752929688,-0.8886973857879639,5.920154571533203
1701054263940625200,7.932625244140625,5.275703430175781,-2.275256633758545,4.406437397003174
1701054263957605000,7.949605224609375,6.794981479644775,-2.334537982940674,2.740046977996826
1701054263974616300,7.9666162109375,4.43011474609375,-1.5035110712051392,2.2413110733032227
1701054263991596500,7.983596435546875,3.2648696899414062,-1.2190443277359009,1.4580974578857422
1701054264008585000,8.0005849609375,3.057156562805176,-1.3777045011520386,0.6899805068969727
1701054264025579500,8.01757958984375,2.9818081855773926,-1.680228590965271,0.845146656036377
1701054264042564000,8.034564208984374,3.1261191368103027,-2.133176803588867,0.5428581237792969
1701054264059548000,8.0515478515625,3.6717867851257324,-2.30464506149292,0.0713644027709961
1701054264076549000,8.068549072265625,3.081089496612549,-1.7464838027954102,-0.5849695205688477
1701054264093539300,8.085539306640625,4.939423561096191,-2.1492700576782227,-1.5998549461364746
1701054264110530300,8.1025302734375,7.438190460205078,-2.15509295463562,-3.1602063179016113
1701054264127520300,8.119520263671875,5.379093647003174,-1.2277686595916748,-4.020374298095703
1701054264144511200,8.13651123046875,4.203207969665527,-0.6006416082382202,-4.673215389251709
1701054264161501700,8.153501708984376,4.177507400512695,-0.19500970840454102,-5.48895263671875
1701054264178492000,8.170491943359375,4.040426254272461,-0.06864571571350098,-5.143634796142578
1701054264195482400,8.187482421875,3.5332417488098145,0.11160683631896973,-5.61683464050293
1701054264212476200,8.20447607421875,1.7810397148132324,-0.14758992195129395,-6.689220428466797
1701054264229460200,8.221460205078126,-0.9165587425231934,0.17357206344604492,-6.54981803894043
1701054264246454000,8.2384541015625,-1.3681588172912598,-0.12325835227966309,-6.3073530197143555
1701054264263444200,8.2554443359375,-0.28635621070861816,-0.8461923599243164,-6.9434943199157715
1701054264280435000,8.27243505859375,-0.8386207818984985,-1.0943307876586914,-7.416478157043457
1701054264297425400,8.28942529296875,-0.7032958269119263,-0.8983604907989502,-7.69807767868042
1701054264314416000,8.306416015625,-1.1879992485046387,-0.6329421997070312,-7.689288139343262
1701054264331406300,8.32340625,-0.4908820390701294,-0.5236217975616455,-7.457427978515625
1701054264348396800,8.340396728515625,-0.38686859607696533,-0.4142909049987793,-6.9205780029296875
1701054264365387500,8.357387451171874,-1.1265575885772705,-0.6947767734527588,-6.7475738525390625
1701054264382378000,8.3743779296875,-0.6534566879272461,-1.1254284381866455,-6.199347496032715
1701054264399368200,8.3913681640625,-0.9535030126571655,-1.3478059768676758,-5.7534379959106445
1701054264416357600,8.408357666015625,-1.4323174953460693,-1.1311156749725342,-5.135322570800781
1701054264433347600,8.42534765625,-0.8384042978286743,-0.8934719562530518,-4.5185747146606445
1701054264450342400,8.44234228515625,0.030893564224243164,-0.7828781604766846,-4.512172222137451
1701054264467329500,8.45932958984375,-0.03258681297302246,-0.6372601985931396,-4.718450546264648
1701054264484310300,8.476310302734374,-0.544231653213501,-0.6496396064758301,-4.879699230194092
1701054264501311500,8.4933115234375,-1.4151960611343384,-0.4125070571899414,-4.710082054138184
1701054264518299100,8.510299072265624,-0.3555417060852051,-0.31160449981689453,-4.201377868652344
1701054264535294700,8.527294677734375,0.2991631031036377,-0.474719762802124,-3.2600059509277344
1701054264552281600,8.544281494140625,1.193972110748291,-0.23553800582885742,-2.8806638717651367
1701054264569274400,8.5612744140625,0.9478378295898438,0.33286476135253906,-3.204235553741455
1701054264586263800,8.578263916015626,-0.26187849044799805,0.7249162197113037,-3.378417491912842
1701054264603254000,8.59525390625,0.5208244323730469,-0.19396305084228516,-2.686397075653076
1701054264620244700,8.61224462890625,0.8061866760253906,-0.21121001243591309,-1.7592978477478027
1701054264637229300,8.629229248046874,1.866006851196289,-0.2023327350616455,-1.6108250617980957
1701054264654221600,8.6462216796875,2.118532180786133,0.15068459510803223,-1.6810460090637207
1701054264671216000,8.663216064453126,2.203878879547119,0.34700727462768555,-2.286947727203369
1701054264688202200,8.6802021484375,0.07818317413330078,-0.14483928680419922,-0.9766650199890137
1701054264705202000,8.697201904296875,-1.0989675521850586,-0.42801809310913086,-0.035662174224853516
1701054264722187800,8.714187744140625,-0.10247945785522461,-0.4654347896575928,0.17696189880371094
1701054264739178200,8.73117822265625,0.816288948059082,-0.6907919645309448,0.22899103164672852
1701054264756166100,8.748166259765625,2.897404670715332,-0.6191338300704956,0.17612791061401367
1701054264773161700,8.76516162109375,3.737387180328369,-0.9076041579246521,0.911992073059082
1701054264790150000,8.78214990234375,2.483302116394043,-1.4324754476547241,1.216949462890625
1701054264807140000,8.79914013671875,1.4723362922668457,-1.3426082134246826,1.4963607788085938
1701054264824130800,8.816130859375,0.13654041290283203,-1.3821500539779663,1.9237637519836426
1701054264841121300,8.833121337890624,-0.1956181526184082,-1.256974697113037,1.5209579467773438
1701054264858103600,8.850103515625,0.940190315246582,-1.0669405460357666,0.5246057510375977
1701054264875102000,8.86710205078125,1.9316205978393555,-1.437892198562622,0.848602294921875
1701054264892092700,8.8840927734375,2.212674140930176,-1.666170358657837,1.4731078147888184
1701054264909083100,8.901083251953125,1.7542724609375,-1.930945873260498,2.14823055267334
1701054264926062800,8.918062744140625,1.9779415130615234,-2.1417436599731445,2.666349411010742
1701054264943064300,8.935064208984375,0.6185932159423828,-1.6222293376922607,2.3761706352233887
1701054264960054500,8.952054443359375,-0.16296958923339844,-1.2876324653625488,3.5141243934631348
1701054264977045000,8.969044921875,0.6056900024414062,-1.6303837299346924,3.704718589782715
1701054264994033000,8.986032958984374,1.7459897994995117,-1.9030697345733643,3.568594455718994
1701054265011031300,9.00303125,2.775698661804199,-2.1027121543884277,3.3322877883911133
1701054265028017000,9.020016845703125,2.3672008514404297,-2.08028244972229,3.334737777709961
1701054265045007000,9.037007080078125,-0.03023052215576172,-1.8871591091156006,3.8605499267578125
1701054265061997800,9.053997802734376,0.027393341064453125,-2.103421211242676,4.4086222648620605
1701054265078988000,9.070988037109375,1.0192451477050781,-2.9523472785949707,4.082805633544922
1701054265095978500,9.087978515625,1.2760133743286133,-3.528397560119629,4.254502773284912
1701054265112958200,9.104958251953125,1.4051523208618164,-3.281712055206299,4.23922872543335
1701054265129962000,9.1219619140625,0.5136442184448242,-3.013878107070923,4.1871466636657715
1701054265146950000,9.138949951171876,-0.45494651794433594,-2.8963513374328613,4.693042278289795
1701054265163940400,9.1559404296875,-1.3582520484924316,-2.6125540733337402,4.678680419921875
1701054265180921000,9.172921142578126,-2.506279468536377,-2.0890326499938965,5.404438018798828
1701054265197921500,9.189921630859375,-2.3895163536071777,-1.6027886867523193,4.536097526550293
1701054265214912300,9.206912353515625,-2.265462875366211,-0.9240174889564514,5.157225131988525
1701054265231902700,9.22390283203125,-3.130722999572754,-0.3025512099266052,6.387874603271484
1701054265248893200,9.24089306640625,-2.159074306488037,-0.34888166189193726,7.004310131072998
1701054265265883600,9.257883544921874,-2.869389057159424,0.33286982774734497,4.973546028137207
1701054265282874000,9.2748740234375,-3.7790913581848145,0.08507552742958069,5.3144707679748535
1701054265299853800,9.291853759765624,-0.9106488227844238,-0.8924555778503418,5.5095391273498535
1701054265316855000,9.30885498046875,0.4272651672363281,-1.11002779006958,6.473256587982178
1701054265333841000,9.3258408203125,0.20195674896240234,-1.0426509380340576,7.1073689460754395
1701054265350845700,9.342845703125,0.2940235137939453,-1.5477087497711182,8.207870483398438
1701054265367826400,9.359826416015625,0.9109916687011719,-1.6856001615524292,8.729240417480469
1701054265384820000,9.376820068359375,0.7099390029907227,-1.7192622423171997,8.30335807800293
1701054265401804000,9.393803955078125,-0.17981910705566406,-1.6923434734344482,8.13121223449707
1701054265418786800,9.410786865234375,-3.288008213043213,-0.9804393649101257,8.494412422180176
1701054265435788500,9.42778857421875,-4.853116035461426,0.004524558782577515,9.17607307434082
1701054265452779500,9.444779541015626,-5.352884292602539,0.061638712882995605,9.916500091552734
1701054265469768700,9.461768798828125,-2.098094940185547,-0.5751498937606812,10.077865600585938
1701054265486757400,9.47875732421875,2.087613105773926,-2.020099401473999,10.086968421936035
1701054265503753000,9.4957529296875,4.84543514251709,-3.079130172729492,9.621044158935547
1701054265520741000,9.5127412109375,3.364421844482422,-2.3622500896453857,8.282003402709961
1701054265537731300,9.5297314453125,1.1858463287353516,-1.498006820678711,7.476449966430664
1701054265554724000,9.54672412109375,1.8515706062316895,-2.135953426361084,7.263631820678711
1701054265571710200,9.563710205078126,3.085270881652832,-3.091965436935425,5.797835350036621
1701054265588703000,9.580702880859375,5.083275318145752,-3.8198280334472656,3.8724517822265625
1701054265605693400,9.597693359375,6.670446395874023,-4.495076656341553,1.1015825271606445
1701054265622684000,9.614683837890626,6.646169662475586,-4.389458656311035,-1.2597432136535645
1701054265639674400,9.63167431640625,5.982188701629639,-4.012801170349121,-3.1061038970947266
1701054265656651800,9.64865185546875,6.057114601135254,-3.263382911682129,-4.399593353271484
1701054265673647400,9.6656474609375,7.5523552894592285,-2.5073695182800293,-6.851559162139893
1701054265690645800,9.682645751953125,5.810144901275635,-1.2192469835281372,-8.177109718322754
1701054265707636500,9.699636474609376,4.239840507507324,0.00955963134765625,-7.6527276039123535
1701054265724627000,9.716626953125,5.306154251098633,-0.21290338039398193,-7.663074493408203
1701054265741617400,9.733617431640624,3.789919853210449,-0.6766527891159058,-9.856687545776367
1701054265758607600,9.750607666015625,1.7785532474517822,-0.6229984760284424,-11.203189849853516
1701054265775598300,9.767598388671875,2.133375406265259,-0.1899402141571045,-10.622297286987305
1701054265792578000,9.784578125,-0.9756600856781006,0.03495609760284424,-10.105149269104004
1701054265809579300,9.801579345703125,2.6678037643432617,-0.5615326166152954,-9.092496871948242
1701054265826565600,9.818565673828125,2.8202145099639893,-0.9458662271499634,-9.173099517822266
1701054265843564300,9.835564208984374,-0.2557828426361084,-0.40661001205444336,-9.05561637878418
1701054265860551000,9.852551025390625,-1.0631837844848633,-0.4545944929122925,-8.596539497375488
1701054265877541000,9.869541015625,-1.8544508218765259,-0.18090856075286865,-8.297805786132812
1701054265894531600,9.886531494140625,-2.06941819190979,-0.11692976951599121,-7.5813727378845215
1701054265911522000,9.90352197265625,-0.8805484771728516,-0.3076939582824707,-7.03819465637207
1701054265928503600,9.920503662109375,-0.5812346935272217,-0.3290647268295288,-6.374119758605957
1701054265945503200,9.937503173828125,0.12345433235168457,-0.3922237157821655,-5.677912712097168
1701054265962493700,9.95449365234375,-0.6455748081207275,-0.07147955894470215,-5.294045448303223
1701054265979484200,9.971484130859375,-1.2587816715240479,0.39228224754333496,-4.723968029022217
1701054265996474600,9.988474609375,-0.618227481842041,0.3456869125366211,-4.70771598815918
1701054266013477400,10.005477294921874,0.33779048919677734,0.3713357448577881,-5.233432769775391
1701054266030452200,10.0224521484375,1.9813284873962402,0.22296643257141113,-5.52387809753418
1701054266047439000,10.039439208984374,1.3274807929992676,0.3183472156524658,-5.841746807098389
1701054266064436700,10.056436767578125,0.7605576515197754,0.5183510780334473,-5.630199909210205
1701054266081427200,10.07342724609375,0.7205443382263184,0.8735125064849854,-5.164492607116699
1701054266098417700,10.090417724609376,2.4650392532348633,0.82698655128479,-4.487465858459473
1701054266115408400,10.107408447265625,4.497666358947754,0.7243785858154297,-3.7589151859283447
1701054266132405200,10.1244052734375,4.337672233581543,0.699915885925293,-3.1675891876220703
1701054266149382100,10.141382080078126,4.114202976226807,0.923553466796875,-3.6799569129943848
1701054266166379500,10.158379638671875,2.385981559753418,1.155062198638916,-3.6230978965759277
1701054266183370000,10.175369873046876,2.0834927558898926,0.9641633033752441,-3.059417247772217
1701054266200360700,10.192360595703125,3.893767833709717,0.5818164348602295,-1.8066387176513672
1701054266217340400,10.20934033203125,4.469638347625732,0.1963188648223877,0.3190498352050781
1701054266234341600,10.226341552734375,2.594892978668213,0.7465975284576416,0.6736831665039062
1701054266251332000,10.24333203125,1.3835258483886719,0.653174638748169,-0.23465728759765625
1701054266268322800,10.26032275390625,1.5296802520751953,0.15848517417907715,-0.45445728302001953
1701054266285300200,10.27730029296875,2.457493305206299,-0.4623441696166992,1.0956668853759766
1701054266302306000,10.29430615234375,2.999051570892334,-1.2343358993530273,2.6983885765075684
1701054266319281400,10.311281494140625,1.9217987060546875,-1.330581545829773,5.241968154907227
1701054266336274200,10.328274169921874,0.0969395637512207,-0.8602063655853271,5.2017598152160645
1701054266353264000,10.34526416015625,-0.7260870933532715,-0.3502476215362549,4.230625152587891
1701054266370255000,10.362255126953125,-1.7829914093017578,-0.4030545949935913,4.907867431640625
1701054266387249000,10.379248779296875,-1.3292293548583984,-1.0425498485565186,5.806399822235107
1701054266404237600,10.396237548828125,-1.0052924156188965,-1.337471604347229,6.431473255157471
1701054266421228000,10.41322802734375,-1.0415821075439453,-1.1199662685394287,6.877788543701172
1701054266438216700,10.430216796875,0.4451465606689453,-0.7963986992835999,5.7269110679626465
1701054266455209200,10.447209228515625,0.6156415939331055,-0.4084976315498352,5.450263977050781
1701054266472200400,10.464200439453125,-0.27926158905029297,-0.559371292591095,6.966744899749756
1701054266489189400,10.481189453125,-0.7785248756408691,-1.4989292621612549,8.757585525512695
1701054266506180900,10.498180908203125,-1.0575323104858398,-2.477560520172119,8.735142707824707
1701054266523171000,10.515171142578126,-2.9760169982910156,-2.849954128265381,8.213798522949219
1701054266540162600,10.53216259765625,-4.273556709289551,-2.9317684173583984,7.741525173187256
1701054266557150500,10.549150390625,-4.075690269470215,-3.067807197570801,9.999937057495117
1701054266574141200,10.56614111328125,-5.130366802215576,-2.413156509399414,8.912376403808594
1701054266591141000,10.58314111328125,-10.589988708496094,-2.3897595405578613,5.107240200042725
1701054266608123100,10.600123046875,-15.198877334594727,-1.6756170988082886,8.62681770324707
1701054266625116200,10.6171162109375,-14.460281372070312,-0.7676024436950684,7.739541053771973
1701054266642105300,10.634105224609375,-7.809889793395996,-1.8242576122283936,7.6089372634887695
1701054266659106600,10.6511064453125,-1.966810703277588,-3.877304792404175,8.905866622924805
1701054266676100900,10.668100830078124,2.347243309020996,-5.173335552215576,9.87835693359375
1701054266693082400,10.685082275390625,4.7137885093688965,-4.509413242340088,9.469575881958008
1701054266710078000,10.702077880859376,5.7381792068481445,-2.291738510131836,7.9832563400268555
1701054266727066000,10.719066162109375,3.23690128326416,-0.6869668960571289,7.594654083251953
1701054266744056600,10.736056640625,-2.103616714477539,0.47152256965637207,7.979655742645264
1701054266761044500,10.75304443359375,-7.2059712409973145,1.4616854190826416,8.298166275024414
1701054266778029300,10.770029296875,-8.192173957824707,1.9942675828933716,9.055810928344727
1701054266795028000,10.787028076171875,-3.7752344608306885,0.8498017191886902,8.242019653320312
1701054266812018400,10.804018310546875,4.0060834884643555,-1.902254343032837,7.544247627258301
1701054266828998400,10.820998291015625,7.483011245727539,-3.5900728702545166,6.745730400085449
1701054266845988900,10.83798876953125,6.907203674316406,-3.3729190826416016,5.6983771324157715
1701054266862990000,10.854989990234374,5.415990829467773,-2.444265604019165,4.4543681144714355
1701054266879978000,10.87197802734375,5.272215843200684,-2.5169332027435303,3.351778984069824
1701054266896971800,10.8889716796875,3.928562641143799,-2.5575783252716064,1.6898455619812012
1701054266913959000,10.905958984375,1.5492243766784668,-2.107828140258789,0.9035634994506836
1701054266930954200,10.922954345703126,-0.8523721694946289,-1.9314604997634888,0.9600419998168945
1701054266947942700,10.939942626953124,-0.2628788948059082,-3.0362138748168945,2.4605770111083984
1701054266964932900,10.956932861328125,2.736147403717041,-4.1877241134643555,2.329289436340332
1701054266981919700,10.973919677734376,4.681459903717041,-4.410294055938721,-1.1447949409484863
1701054266998913800,10.990913818359376,4.297265529632568,-4.262256145477295,-2.018174171447754
1701054267015904500,11.007904541015625,4.451268196105957,-3.5844321250915527,-3.6250691413879395
1701054267032893400,11.0248935546875,4.897515296936035,-2.5473923683166504,-4.556618690490723
1701054267049886700,11.04188671875,4.196285247802734,-1.88398277759552,-4.7059831619262695
1701054267066876000,11.0588759765625,5.719605445861816,-1.9709279537200928,-5.140127182006836
1701054267083866400,11.075866455078126,5.43170690536499,-1.6367881298065186,-5.970241546630859
1701054267100854300,11.092854248046875,4.395201683044434,-1.2288885116577148,-5.6988115310668945
1701054267117850000,11.10985009765625,2.1043643951416016,-0.6455566883087158,-6.051323890686035
1701054267134837500,11.12683740234375,1.6186695098876953,-0.3015739917755127,-6.272130966186523
1701054267151825700,11.14382568359375,0.44986629486083984,-0.33721303939819336,-5.869624614715576
1701054267168821500,11.160821533203125,0.15985584259033203,-0.8135662078857422,-6.028736591339111
1701054267185809200,11.17780908203125,0.8705500364303589,-1.1621496677398682,-6.50271463394165
1701054267202799600,11.194799560546874,1.24081552028656,-1.0767874717712402,-6.846675872802734
1701054267219779600,11.211779541015625,0.47241759300231934,-0.9299533367156982,-7.034463882446289
1701054267236780500,11.228780517578125,-0.7101641893386841,-0.7060682773590088,-7.523818016052246
1701054267253768700,11.245768798828125,-1.1598050594329834,-0.6707279682159424,-7.890133380889893
1701054267270764300,11.262764404296876,-1.2045860290527344,-0.6178460121154785,-7.627286434173584
1701054267287752400,11.27975244140625,-0.20249855518341064,-0.6937367916107178,-7.2009596824646
1701054267304742700,11.29674267578125,0.6878542900085449,-0.5725951194763184,-6.630596160888672
1701054267321733400,11.3137333984375,1.0324482917785645,-0.41634368896484375,-6.04872989654541
1701054267338723800,11.330723876953124,1.7603874206542969,-0.4133780002593994,-5.630382537841797
1701054267355714300,11.34771435546875,1.675306797027588,-0.46404170989990234,-5.78581428527832
1701054267372700700,11.36470068359375,1.5526435375213623,-0.7205491065979004,-6.106856346130371
1701054267389699600,11.381699462890625,1.9621431827545166,-1.0056800842285156,-6.128146648406982
1701054267406685700,11.398685791015625,2.6351230144500732,-0.755490779876709,-5.87941837310791
1701054267423678200,11.41567822265625,2.523677110671997,-0.459566593170166,-5.228847026824951
1701054267440656100,11.43265625,2.648803472518921,-0.764603853225708,-4.704185485839844
1701054267457657000,11.449656982421875,1.9534995555877686,-0.5489799976348877,-4.697356700897217
1701054267474646300,11.466646240234375,0.9943881034851074,-0.15948057174682617,-4.826303958892822
1701054267491639800,11.483639892578125,1.7124733924865723,0.3066577911376953,-4.811148643493652
1701054267508628700,11.500628662109374,2.569873809814453,0.6906337738037109,-4.386422157287598
1701054267525619200,11.517619140625,3.189054012298584,-0.03905916213989258,-3.1792187690734863
1701054267542609700,11.534609619140625,2.2007789611816406,0.28723859786987305,-2.4566245079040527
1701054267559600000,11.55160009765625,0.7475786209106445,1.002762794494629,-2.522757053375244
1701054267576590600,11.568590576171875,2.2575807571411133,0.6375126838684082,-2.849480152130127
1701054267593581000,11.5855810546875,4.44673490524292,0.5520119667053223,-2.137767791748047
1701054267610561000,11.60256103515625,5.086764335632324,0.3603479862213135,-0.11075305938720703
1701054267627562200,11.619562255859375,4.971987247467041,-0.21498918533325195,1.8781027793884277
1701054267644550100,11.636550048828125,1.7257800102233887,0.6763157844543457,2.814465045928955
1701054267661546000,11.6535458984375,-0.12776708602905273,1.3615374565124512,2.290982246398926
1701054267678523000,11.67052294921875,1.1390700340270996,0.832444429397583,1.2908539772033691
1701054267695524000,11.687524169921875,1.836197853088379,0.5841007232666016,1.7764801979064941
1701054267712514800,11.704514892578125,1.1954636573791504,-0.32112598419189453,4.303718566894531
1701054267729505000,11.721505126953126,0.8686485290527344,-1.091477632522583,5.616837978363037
1701054267746495500,11.73849560546875,0.5586795806884766,-0.7869501113891602,5.271907806396484
1701054267763486000,11.75548583984375,-0.4352126121520996,0.02609419822692871,4.994734287261963
1701054267780476700,11.7724765625,-1.18764066696167,0.09906244277954102,5.332039833068848
1701054267797467100,11.789467041015625,-1.0859718322753906,-0.05622720718383789,5.580758094787598
1701054267814457300,11.806457275390626,-1.1286392211914062,-0.7797894477844238,6.500648021697998
1701054267831447800,11.82344775390625,-0.6451501846313477,-2.1434457302093506,7.576302528381348
1701054267848438500,11.8404384765625,0.12555456161499023,-2.141345739364624,7.083771228790283
1701054267865426200,11.85742626953125,-0.19507646560668945,-1.6916494369506836,7.227374076843262
1701054267882422500,11.874422607421875,-0.8544445037841797,-2.042623996734619,8.694005966186523
1701054267899410200,11.89141015625,-1.3185229301452637,-2.4173855781555176,9.369549751281738
1701054267916400600,11.908400634765625,-2.130311965942383,-2.291062116622925,8.843151092529297
1701054267933388500,11.925388427734376,-2.459101676940918,-2.448972225189209,8.261093139648438
1701054267950384400,11.94238427734375,-3.4294660091400146,-2.325176954269409,13.209026336669922
1701054267967372000,11.9593720703125,-4.909423351287842,-1.0145697593688965,6.443887710571289
1701054267984362500,11.976362548828124,-8.899209976196289,-2.2262420654296875,8.722137451171875
1701054268001353200,11.993353271484375,-12.819372177124023,-1.7695319652557373,10.167171478271484
1701054268018333400,12.01033349609375,-12.741798400878906,-1.081129550933838,9.54991626739502
1701054268035334400,12.02733447265625,-6.8287200927734375,-1.7892779111862183,8.910003662109375
1701054268052324900,12.044324951171875,-3.154191493988037,-2.9965970516204834,8.502700805664062
1701054268069315000,12.061315185546874,0.37619781494140625,-3.6793212890625,7.88055419921875
1701054268086303000,12.078302978515625,2.3353843688964844,-3.5126795768737793,8.16963005065918
1701054268103298600,12.095298583984375,2.89332914352417,-2.813028335571289,8.318391799926758
1701054268120287700,12.112287841796874,3.1641135215759277,-1.4653905630111694,7.483526706695557
1701054268137265700,12.129265625,0.3209681510925293,-0.35442399978637695,7.4225263595581055
1701054268154268000,12.146267822265624,-2.932971477508545,0.0767667293548584,8.446331024169922
1701054268171258000,12.163258056640625,-4.398651599884033,0.08894705772399902,9.107994079589844
1701054268188246500,12.18024658203125,-2.3642423152923584,-0.30772995948791504,8.931814193725586
1701054268205241000,12.197240966796874,2.4875826835632324,-1.6291840076446533,9.363304138183594
1701054268222229500,12.2142294921875,6.049356937408447,-1.4584153890609741,6.948386192321777
1701054268239220000,12.231219970703124,8.040822982788086,-0.4493131637573242,3.910618782043457
1701054268256207600,12.24820751953125,6.393853664398193,-0.5065462589263916,1.6065387725830078
1701054268273201200,12.265201171875,4.323479175567627,-0.5844912528991699,-1.8900399208068848
1701054268290191600,12.282191650390626,4.239511489868164,-1.5393052101135254,-4.276348114013672
1701054268307182300,12.299182373046875,2.288165330886841,-0.8900408744812012,-4.599100589752197
1701054268324172500,12.316172607421874,1.838587999343872,-0.08348941802978516,-4.803249359130859
1701054268341163000,12.3331630859375,2.8770432472229004,0.2150564193725586,-6.322122573852539
1701054268358142700,12.350142822265624,4.405722618103027,0.24963021278381348,-6.196164608001709
1701054268375143700,12.367143798828126,3.3469948768615723,-0.440427303314209,-4.836294651031494
1701054268392134400,12.384134521484375,4.505047798156738,-1.242732286453247,-4.511637210845947
1701054268409126700,12.401126708984375,7.9188337326049805,-1.4148740768432617,-6.4468512535095215
1701054268426113800,12.41811376953125,6.03738260269165,-1.3707642555236816,-6.749407768249512
1701054268443106000,12.43510595703125,5.185184478759766,-1.8040488958358765,-6.107776641845703
1701054268460096300,12.45209619140625,3.274968147277832,-1.6460506916046143,-5.176722526550293
1701054268477087000,12.4690869140625,3.4252278804779053,-1.8721731901168823,-5.786943435668945
1701054268494077400,12.486077392578125,1.599397897720337,-1.8005971908569336,-6.260786056518555
1701054268511068000,12.50306787109375,0.5543588399887085,-1.3437612056732178,-6.395627975463867
1701054268528058000,12.52005810546875,-0.573722779750824,-0.9982728958129883,-6.22316312789917
1701054268545048800,12.537048828125,-1.9231829643249512,-0.866304874420166,-4.721734523773193
1701054268562031600,12.554031494140625,-0.20929676294326782,-0.9869959354400635,-3.7097582817077637
1701054268579027200,12.571027099609376,-0.1474519968032837,-1.0679469108581543,-3.539762496948242
1701054268596023000,12.58802294921875,-0.48914170265197754,-0.9607894420623779,-3.2290120124816895
1701054268613008100,12.605008056640624,0.3313028812408447,-1.2322711944580078,-3.3851184844970703
1701054268630004000,12.62200390625,0.4393676519393921,-1.0308771133422852,-3.9489235877990723
1701054268646981000,12.638981201171875,0.8826802968978882,-0.9984829425811768,-3.856293201446533
1701054268663973000,12.65597314453125,1.154375433921814,-1.1564102172851562,-3.3674731254577637
1701054268680972800,12.672972900390626,1.0613631010055542,-1.1279025077819824,-3.2457351684570312
1701054268697963500,12.689963623046875,1.29649019241333,-0.5560832023620605,-3.5331106185913086
1701054268714954000,12.7069541015625,1.141125202178955,-0.06459331512451172,-4.187594413757324
1701054268731944400,12.7239443359375,1.0541274547576904,-0.15802907943725586,-4.780954360961914
1701054268748934700,12.7409345703125,0.12503457069396973,0.15743589401245117,-4.696639060974121
1701054268765931000,12.757930908203125,-0.010103464126586914,0.1597747802734375,-4.619002342224121
1701054268782915800,12.774915771484375,0.5312285423278809,-0.05421733856201172,-4.193001747131348
1701054268799906300,12.79190625,0.9672491550445557,-0.15961074829101562,-3.7063097953796387
1701054268816897000,12.80889697265625,1.3423702716827393,-0.6558752059936523,-3.466254234313965
1701054268833884400,12.825884521484374,0.27560997009277344,-0.19912338256835938,-2.749443531036377
1701054268850872800,12.842872802734375,-0.09778594970703125,-0.11277580261230469,-1.7948274612426758
1701054268867868200,12.8598681640625,-0.28452253341674805,-0.4333066940307617,-0.848963737487793
1701054268884858600,12.876858642578124,0.06250762939453125,-0.5417704582214355,-0.47252893447875977
1701054268901849300,12.893849365234376,1.5086989402770996,-0.9901866912841797,-0.7099199295043945
1701054268918839800,12.91083984375,2.011683464050293,-1.2539243698120117,-0.5729093551635742
1701054268935830000,12.927830078125,-0.1285848617553711,-0.4183969497680664,0.06955957412719727
1701054268952810200,12.944810302734375,-3.110661268234253,-0.054818153381347656,0.27980852127075195
1701054268969803300,12.96180322265625,-1.2107210159301758,-1.0694584846496582,-0.19374847412109375
1701054268986803500,12.978803466796874,-0.8832740783691406,-1.499333143234253,0.20781326293945312
1701054269003792100,12.995792236328125,0.2427382469177246,-1.9178252220153809,1.126387119293213
1701054269020782800,13.012782958984374,1.1262016296386719,-2.148122787475586,2.9696526527404785
1701054269037773300,13.029773193359375,0.34573984146118164,-1.6061530113220215,4.068994998931885
1701054269054764000,13.046763916015625,-0.4143061637878418,-1.1295065879821777,4.356916427612305
1701054269071754200,13.063754150390626,-0.23185157775878906,-0.7618973255157471,4.010941505432129
1701054269088745000,13.080744873046875,0.12473249435424805,-0.774224042892456,4.676303863525391
1701054269105735400,13.0977353515625,0.6476149559020996,-1.145517110824585,5.426905155181885
1701054269122726000,13.114725830078125,0.18230152130126953,-1.2819795608520508,5.706414699554443
1701054269139716000,13.131716064453125,0.38637828826904297,-1.6664881706237793,6.414442539215088
1701054269156706800,13.148706787109376,0.0236358642578125,-1.5847264528274536,6.5436882972717285
1701054269173697500,13.165697509765625,-0.3793635368347168,-1.0700483322143555,6.858760833740234
1701054269190687700,13.182687744140624,-0.21446561813354492,-1.362851858139038,7.550030708312988
1701054269207678200,13.19967822265625,1.141491413116455,-2.0685532093048096,7.908205032348633
1701054269224669000,13.2166689453125,0.7923922538757324,-2.244870662689209,8.159107208251953
1701054269241659400,13.233659423828126,-0.1482706069946289,-1.991032600402832,7.7248992919921875
1701054269258649600,13.250649658203125,-0.27103614807128906,-1.8941912651062012,7.352494716644287
1701054269275640000,13.26764013671875,-0.343935489654541,-2.2132184505462646,7.299715518951416
1701054269292630500,13.284630615234375,0.07140398025512695,-2.7284340858459473,7.078378677368164
1701054269309621200,13.301621337890625,0.8426566123962402,-2.9389381408691406,7.413597583770752
1701054269326612000,13.318612060546876,-0.2883944511413574,-2.419799566268921,7.133757591247559
1701054269343602200,13.335602294921875,-8.239400863647461,-0.9323749542236328,8.77667236328125
1701054269360591600,13.352591552734374,-18.035009384155273,1.0446348190307617,10.783537864685059
1701054269377584400,13.36958447265625,-17.55083465576172,0.2107255458831787,8.384893417358398
1701054269394573800,13.38657373046875,-6.935454845428467,-3.0725550651550293,5.718113899230957
1701054269411564000,13.40356396484375,2.1263089179992676,-5.705780982971191,4.936672210693359
1701054269428551200,13.42055126953125,4.895944118499756,-6.740202903747559,6.541684627532959
1701054269445547800,13.4375478515625,4.047420501708984,-5.3613128662109375,6.409230709075928
1701054269462536000,13.454535888671876,2.080718994140625,-3.054558753967285,6.153963088989258
1701054269479516400,13.471516357421875,5.400475978851318,-2.2732925415039062,4.876672267913818
1701054269496516900,13.488516845703124,2.89524507522583,-1.2294573783874512,5.00365686416626
1701054269513507300,13.50550732421875,-2.6755590438842773,0.17254900932312012,5.97773551940918
1701054269530497500,13.52249755859375,-7.994028091430664,0.765204668045044,7.0344953536987305
1701054269547488000,13.539488037109376,-7.6198530197143555,0.8793129920959473,6.217956066131592
1701054269564468200,13.55646826171875,-2.8204493522644043,-0.09354376792907715,4.5930657386779785
1701054269581469200,13.57346923828125,2.936768054962158,-1.496264934539795,4.0009446144104
1701054269598459600,13.590459716796875,8.694171905517578,-2.8841443061828613,4.603979110717773
1701054269615449600,13.60744970703125,8.102799415588379,-2.2204763889312744,1.86942720413208
1701054269632440600,13.624440673828126,3.5191121101379395,-1.117475152015686,-0.02519989013671875
1701054269649431000,13.64143115234375,1.6555023193359375,-0.47382473945617676,-0.2947726249694824
1701054269666421800,13.658421875,1.3809466361999512,-0.42973804473876953,-1.716982364654541
1701054269683412200,13.675412109375,2.0402064323425293,-1.0317648649215698,-2.039541244506836
1701054269700392400,13.692392333984374,2.026394844055176,-1.158544898033142,-1.9347639083862305
1701054269717389000,13.70938916015625,0.4477074146270752,-0.005503416061401367,-2.2349534034729004
1701054269734383600,13.726383544921875,0.3189849853515625,0.42793703079223633,-2.377690315246582
1701054269751374000,13.7433740234375,4.111248016357422,-0.9290900230407715,-2.6213865280151367
1701054269768352500,13.7603525390625,5.957797050476074,-1.5595606565475464,-3.7195487022399902
1701054269785357800,13.77735791015625,4.755894660949707,-0.9397501945495605,-4.693522930145264
1701054269802345700,13.794345703125,3.8303682804107666,-0.6018977165222168,-4.575651168823242
1701054269819323400,13.811323486328124,2.951340913772583,-0.35367345809936523,-4.526346206665039
1701054269836318000,13.82831787109375,3.3414554595947266,-0.19872379302978516,-3.7257113456726074
1701054269853306400,13.845306396484375,4.495461463928223,-0.032151222229003906,-2.886868476867676
1701054269870300000,13.8622998046875,5.4116621017456055,-0.21586394309997559,-2.010715961456299
1701054269887290600,13.87929052734375,5.2293620109558105,0.08516693115234375,-2.5202951431274414
1701054269904281600,13.896281494140625,2.1034061908721924,0.3684568405151367,-3.2777533531188965
1701054269921270800,13.913270751953124,-0.19601798057556152,0.21689081192016602,-3.761699676513672
1701054269938259200,13.93025927734375,-0.6281965374946594,-0.04415750503540039,-4.545498847961426
1701054269955252500,13.94725244140625,-1.4078336954116821,-0.29365015029907227,-5.2869720458984375
1701054269972244000,13.964243896484374,-0.5110729336738586,-0.37399768829345703,-5.431534767150879
1701054269989233000,13.98123291015625,0.5412054061889648,-0.567194938659668,-5.358335971832275
1701054270006221600,13.9982216796875,0.9334324598312378,-0.7852122783660889,-4.479420185089111
1701054270023214800,14.01521484375,1.6976187229156494,-1.069570541381836,-3.960355758666992
1701054270040205800,14.032205810546875,1.6255760192871094,-1.3003394603729248,-4.703783988952637
1701054270057197300,14.049197265625,0.8130702972412109,-1.3350768089294434,-5.356886386871338
1701054270074182400,14.066182373046875,1.286198616027832,-1.6092333793640137,-5.751761436462402
1701054270091178000,14.083177978515625,1.3062212467193604,-1.7746939659118652,-6.5856428146362305
1701054270108166100,14.100166259765626,1.009338617324829,-1.7819526195526123,-6.583716869354248
1701054270125156000,14.117156005859375,1.7595469951629639,-1.8981504440307617,-5.939262390136719
1701054270142146800,14.134146728515624,2.5132060050964355,-2.0224769115448,-5.504668235778809
1701054270159137000,14.151136962890625,2.3826892375946045,-2.030782461166382,-5.783766746520996
1701054270176126200,14.168126220703124,2.510873556137085,-2.0447051525115967,-6.437705039978027
1701054270193132300,14.18513232421875,2.5971546173095703,-1.3974246978759766,-6.192935466766357
1701054270210096600,14.2020966796875,2.414677143096924,-1.3338570594787598,-5.311710834503174
1701054270227108000,14.219108154296874,2.8848581314086914,-1.5381851196289062,-4.394757270812988
1701054270244098300,14.236098388671875,3.528341293334961,-1.7518460750579834,-3.7094690799713135
1701054270261088800,14.2530888671875,3.8182249069213867,-2.119267225265503,-2.5160794258117676
1701054270278070800,14.27007080078125,3.1340556144714355,-0.9801220893859863,-1.2165584564208984
1701054270295070000,14.287070068359375,1.7147750854492188,-0.0969395637512207,0.10116767883300781
1701054270312060400,14.304060302734374,2.1945486068725586,-0.272489070892334,1.2581806182861328
1701054270329051000,14.32105078125,1.8760733604431152,-0.7983107566833496,1.5625519752502441
1701054270346041600,14.33804150390625,2.4799270629882812,-1.0854856967926025,1.8833446502685547
1701054270363032000,14.355031982421876,1.6298222541809082,-0.9409875869750977,3.6289663314819336
1701054270380022500,14.3720224609375,0.3618288040161133,-0.5663597583770752,4.453232765197754
1701054270397004300,14.38900439453125,-0.6460061073303223,-0.23017311096191406,4.1308088302612305
1701054270414001000,14.4060009765625,-1.1372661590576172,-0.32640862464904785,3.48691987991333
1701054270430996500,14.42299658203125,-1.4525246620178223,-1.292623519897461,3.8505825996398926
1701054270447984600,14.439984619140626,0.75531005859375,-2.639794111251831,5.056615829467773
1701054270464973000,14.45697314453125,1.5239672660827637,-3.169130802154541,5.719806671142578
1701054270481979000,14.473978759765625,0.9812030792236328,-2.8037006855010986,6.077708721160889
1701054270498945500,14.490945556640625,-0.20449304580688477,-1.9358148574829102,5.661820411682129
1701054270515936000,14.50793603515625,-1.2565240859985352,-1.2284879684448242,6.483356475830078
1701054270532936200,14.524936279296876,-2.1319632530212402,-0.9228166341781616,8.124746322631836
1701054270549928700,14.5419287109375,-3.377923011779785,-0.9564814567565918,10.319684982299805
1701054270566918000,14.55891796875,-5.216144561767578,-0.30872273445129395,10.379337310791016
1701054270583908400,14.575908447265626,-7.347411155700684,0.7599079608917236,9.282423973083496
1701054270600899000,14.592899169921875,-7.464192867279053,0.49747443199157715,7.861686706542969
1701054270617889500,14.6098896484375,-5.599112510681152,-0.8552870750427246,9.087732315063477
1701054270634880300,14.62688037109375,-4.80598258972168,-1.899547815322876,9.21262264251709
1701054270651870700,14.64387060546875,-4.0902886390686035,-2.030972957611084,5.558717727661133
1701054270668861000,14.66086083984375,-4.191841125488281,-3.3447253704071045,4.459021091461182
1701054270685851600,14.6778515625,-4.348014831542969,-3.810275077819824,7.016743183135986
1701054270702841900,14.694841796875,-4.717652320861816,-3.1665592193603516,7.580727577209473
1701054270719830800,14.711830810546875,-2.841662883758545,-2.35097599029541,7.614641189575195
1701054270736824800,14.728824951171875,-2.198744773864746,-1.798558235168457,7.482815742492676
1701054270753813200,14.745813232421876,-2.6328463554382324,-1.9643102884292603,7.819650173187256
1701054270770800400,14.76280029296875,-3.1569907665252686,-2.996699810028076,8.05784797668457
1701054270787794200,14.779794189453124,-3.381593942642212,-3.6099085807800293,7.558834075927734
1701054270804787500,14.796787353515626,-2.6058144569396973,-3.4671072959899902,6.969712257385254
1701054270821778000,14.81377783203125,-2.254143714904785,-2.7319583892822266,6.896115303039551
1701054270838766000,14.83076611328125,-1.8192191123962402,-2.403607130050659,7.192169189453125
1701054270855756300,14.84775634765625,-0.3276839256286621,-3.279884099960327,7.592600345611572
1701054270872744400,14.864744384765626,0.9541935920715332,-4.148336410522461,8.22916030883789
1701054270889740300,14.881740234375,0.8523306846618652,-3.227396011352539,6.827343463897705
1701054270906717400,14.898717529296874,2.296232223510742,-2.5110461711883545,5.275245666503906
1701054270923718700,14.91571875,3.1429829597473145,-2.788522481918335,3.747842788696289
1701054270940709000,14.932709228515625,1.639756202697754,-2.806737184524536,2.7760915756225586
1701054270957682400,14.949682373046874,0.8520107269287109,-3.165658950805664,3.1275529861450195
1701054270974689800,14.966689697265625,1.2222118377685547,-2.305356979370117,1.5956153869628906
1701054270991669800,14.983669677734374,3.0891170501708984,-2.1408913135528564,1.23980712890625
1701054271008671200,15.000671142578126,4.766578674316406,-1.604240894317627,1.1789045333862305
1701054271025661700,15.01766162109375,3.815609931945801,-1.3447020053863525,2.255673408508301
1701054271042652000,15.03465185546875,1.4799222946166992,-1.070596694946289,2.2443161010742188
1701054271059642600,15.051642578125,6.219823360443115,-2.0736825466156006,1.2650909423828125
1701054271076632800,15.0686328125,5.66372013092041,-1.792242407798767,0.023593902587890625
1701054271093613300,15.08561328125,3.70041561126709,-1.3911566734313965,-1.5164141654968262
1701054271110614000,15.102614013671875,1.9282605648040771,-1.2454872131347656,-2.552753448486328
1701054271127604200,15.119604248046874,2.6741058826446533,-1.67911958694458,-2.9503931999206543
1701054271144594700,15.1365947265625,3.4719882011413574,-1.63388192653656,-3.4742770195007324
1701054271161575000,15.153574951171874,3.822657585144043,-1.0426709651947021,-4.2882843017578125
1701054271178576000,15.170575927734374,4.758119106292725,-0.5483322143554688,-4.730630874633789
1701054271195566600,15.187566650390625,2.943117380142212,0.47907590866088867,-5.686984062194824
1701054271212556800,15.204556884765625,1.9310152530670166,1.2042851448059082,-5.5025787353515625
1701054271229547500,15.221547607421876,2.547785758972168,0.8299298286437988,-4.205065727233887
1701054271246526200,15.238526123046874,3.4934158325195312,0.8300392627716064,-3.909329414367676
1701054271263528400,15.255528564453124,4.858055114746094,1.001450777053833,-4.5413947105407715
1701054271280519000,15.272518798828125,4.514181137084961,0.8275258541107178,-5.123077869415283
1701054271297509600,15.289509521484375,3.2734856605529785,0.25397658348083496,-5.4838409423828125
1701054271314500000,15.3065,2.3831143379211426,-0.14463567733764648,-4.724700927734375
1701054271331490600,15.323490478515625,0.6541365385055542,-0.432908296585083,-4.618721008300781
1701054271348480800,15.340480712890624,-0.6273466348648071,-0.17552566528320312,-5.616070747375488
1701054271365468700,15.35746875,-0.5488521456718445,0.10943222045898438,-5.5233330726623535
1701054271382464500,15.374464599609375,-0.7483799457550049,0.07260823249816895,-5.069912910461426
1701054271399446000,15.391446044921874,0.09754002094268799,-0.10744643211364746,-3.6560440063476562
1701054271416443100,15.408443115234375,0.6327913403511047,-0.42020130157470703,-3.0308432579040527
1701054271433431000,15.42543115234375,1.0811196565628052,-0.8494906425476074,-2.899158477783203
1701054271450426400,15.44242626953125,1.1574839353561401,-0.7833528518676758,-2.8469061851501465
1701054271467414300,15.459414306640625,0.865755558013916,-0.4379432201385498,-2.9479727745056152
1701054271484405000,15.476405029296876,2.0551252365112305,-0.5793275833129883,-2.4057302474975586
1701054271501395200,15.493395263671875,3.178927421569824,-0.6177361011505127,-1.8211007118225098
1701054271518386000,15.510385986328124,2.9965789318084717,-0.3094487190246582,-1.6871819496154785
1701054271535376600,15.527376708984375,2.2852139472961426,-0.052590370178222656,-1.9965853691101074
1701054271552366800,15.544366943359375,1.5116316080093384,0.08643627166748047,-2.887814521789551
1701054271569357600,15.561357666015626,0.5656638145446777,-0.3679850101470947,-4.146018981933594
1701054271586348000,15.57834814453125,-0.12426519393920898,-0.5995385646820068,-5.427642822265625
1701054271603339800,15.59533984375,-0.7134956121444702,-0.6694633960723877,-5.800115585327148
1701054271620328000,15.612327880859375,-0.718946099281311,-0.36998867988586426,-5.484073162078857
1701054271637309000,15.629308837890624,-1.4105348587036133,0.058545589447021484,-5.318058013916016
1701054271654310100,15.64631005859375,-0.7833406925201416,-0.523566722869873,-5.355921268463135
1701054271671300600,15.663300537109375,-0.6326706409454346,-0.5577125549316406,-5.054581165313721
1701054271688290800,15.680290771484374,0.2867586612701416,-0.5175175666809082,-4.46197509765625
1701054271705279000,15.697279052734375,0.2508368492126465,-0.29227161407470703,-3.7828173637390137
1701054271722274600,15.714274658203125,-0.24107789993286133,0.03525114059448242,-3.6953125
1701054271739262500,15.731262451171874,0.6351189613342285,-0.9323604106903076,-3.204714298248291
1701054271756253000,15.7482529296875,2.2518110275268555,-1.1672818660736084,-2.549075126647949
1701054271773243600,15.76524365234375,1.5921564102172852,-1.0032837390899658,-0.5712804794311523
1701054271790233900,15.78223388671875,1.6143584251403809,-1.1993799209594727,0.9866657257080078
1701054271807224600,15.799224609375,1.6363525390625,-1.5040318965911865,1.6679434776306152
1701054271824212200,15.816212158203125,2.4618406295776367,-1.6088917255401611,1.2926702499389648
1701054271841208000,15.8332080078125,2.766079902648926,-0.8758690357208252,1.0165362358093262
1701054271858181400,15.850181396484375,1.9821834564208984,-1.2237324714660645,3.1873579025268555
1701054271875186400,15.8671865234375,1.691399097442627,-1.7578035593032837,5.01034688949585
1701054271892177200,15.88417724609375,-0.4635615348815918,-1.6200830936431885,6.5384840965271
1701054271909167400,15.90116748046875,0.9700021743774414,-1.6431986093521118,6.339259624481201
1701054271926158000,15.918157958984375,1.0271973609924316,-1.435439109802246,6.590458869934082
1701054271943133000,15.9351328125,1.4580740928649902,-1.7965631484985352,8.197608947753906
1701054271960139000,15.952138916015626,0.8288507461547852,-2.427212715148926,10.173660278320312
1701054271977121500,15.96912158203125,-1.4152884483337402,-2.689661979675293,10.238264083862305
1701054271994118000,15.986117919921876,-3.9764208793640137,-1.7428100109100342,9.438091278076172
1701054272011113000,16.003113037109376,-6.3772735595703125,-0.6185693740844727,8.587794303894043
1701054272028088600,16.020088623046874,-6.611041069030762,-0.8453142642974854,8.571670532226562
1701054272045081300,16.037081298828124,-5.252025604248047,-2.164214611053467,10.17514419555664
1701054272062084000,16.054083984375,-4.29198694229126,-2.7852797508239746,9.722332000732422
1701054272079072500,16.071072509765624,-4.091565132141113,-3.0403730869293213,8.940157890319824
1701054272096063200,16.088063232421874,-5.372719764709473,-3.5459342002868652,5.1885552406311035
1701054272113051000,16.10505078125,-6.243448734283447,-3.57384991645813,6.814907550811768
1701054272130046500,16.12204638671875,-6.621799468994141,-2.6691253185272217,7.291924476623535
1701054272147034400,16.139034423828125,-5.058574676513672,-2.6525402069091797,7.189530849456787
1701054272164025000,16.156025146484374,-3.590428590774536,-2.6354994773864746,7.751477241516113
1701054272181015600,16.173015625,-2.1296658515930176,-2.327115297317505,7.977123737335205
1701054272198003000,16.1900029296875,-1.9384655952453613,-2.2288355827331543,8.302999496459961
1701054272214998300,16.206998291015626,-1.97383451461792,-2.2706379890441895,7.924953937530518
1701054272231985700,16.223985595703127,-2.134096622467041,-2.6630136966705322,7.693151473999023
1701054272248977400,16.240977294921876,-3.0908806324005127,-2.527409791946411,6.99318265914917
1701054272265967900,16.2579677734375,-3.7488136291503906,-2.2694897651672363,7.158992290496826
1701054272282956500,16.27495654296875,-2.149967908859253,-2.5361781120300293,7.636260509490967
1701054272299949000,16.291948974609376,-0.46033382415771484,-2.9658684730529785,7.548737049102783
1701054272316937000,16.30893701171875,0.8845815658569336,-3.6791882514953613,7.102470874786377
1701054272333927400,16.325927490234374,1.5676684379577637,-3.7897844314575195,6.656160354614258
1701054272350923300,16.34292333984375,0.24102401733398438,-3.519235610961914,5.803940773010254
1701054272367911000,16.359910888671877,-0.08094310760498047,-2.9034552574157715,5.468911170959473
1701054272384901400,16.3769013671875,1.5793037414550781,-2.4060540199279785,5.444798469543457
1701054272401892000,16.39389208984375,2.806272506713867,-1.2773051261901855,4.289942741394043
1701054272418882600,16.410882568359376,3.3183488845825195,-0.4500669836997986,3.2677345275878906
1701054272435872800,16.427872802734374,3.127422332763672,-0.296858549118042,2.944685935974121
1701054272452861200,16.444861083984375,4.567896842956543,-0.7836633920669556,3.2317628860473633
1701054272469842200,16.46184228515625,6.818253993988037,-1.5645033121109009,2.5778818130493164
1701054272486844700,16.4788447265625,6.944042682647705,-1.4685922861099243,0.07234477996826172
1701054272503835000,16.4958349609375,5.954821586608887,-1.5527366399765015,-2.037444591522217
1701054272520825300,16.512825439453124,5.515294551849365,-1.801687479019165,-3.1158666610717773
1701054272537805300,16.529805419921875,4.886423587799072,-1.9371159076690674,-3.797884941101074
1701054272554806500,16.546806640625,5.775513648986816,-2.4471497535705566,-4.497194290161133
1701054272571797000,16.563796875,4.810405731201172,-2.2010438442230225,-6.157719612121582
1701054272588787700,16.58078759765625,4.375554084777832,-1.8708713054656982,-6.775484085083008
1701054272605775600,16.597775634765625,4.011935710906982,-1.6865812540054321,-8.150527000427246
1701054272622768400,16.614768310546875,2.2154760360717773,-1.007050633430481,-7.42543888092041
1701054272639759000,16.631759033203124,1.8960444927215576,-0.04861152172088623,-6.101871490478516
1701054272656756000,16.648755859375,1.2393137216567993,0.4388691186904907,-5.727583885192871
1701054272673753600,16.665753662109374,2.7683918476104736,0.49693965911865234,-4.546175479888916
1701054272690727000,16.682726806640623,5.127257823944092,1.0855580568313599,-3.8012895584106445
1701054272707723500,16.6997236328125,4.330425262451172,1.6061476469039917,-1.9727063179016113
1701054272724711700,16.716711669921875,3.9924755096435547,1.222158432006836,-1.052088737487793
1701054272741702100,16.7337021484375,3.32502818107605,1.2793033123016357,-1.8269681930541992
1701054272758692600,16.750692626953125,1.4721192121505737,1.4138891696929932,-2.107677459716797
1701054272775683000,16.76768310546875,0.28278499841690063,1.5351407527923584,-2.7377285957336426
1701054272792673300,16.78467333984375,0.369962215423584,0.8028309345245361,-2.7813243865966797
1701054272809664300,16.801664306640625,-0.1089288666844368,0.3803062438964844,-3.804947853088379
1701054272826654500,16.818654541015626,-1.4724111557006836,0.16869378089904785,-4.414188861846924
1701054272843645200,16.835645263671875,-0.691230297088623,0.1007084846496582,-4.9758620262146
1701054272860635400,16.852635498046876,-1.5090465545654297,0.3610405921936035,-5.431918144226074
1701054272877625900,16.8696259765625,-1.4266095161437988,0.32442712783813477,-6.0749831199646
1701054272894616600,16.886616455078126,-0.512047290802002,0.07458710670471191,-6.585626602172852
1701054272911606800,16.903606689453124,0.18682682514190674,-0.05265188217163086,-6.2356767654418945
1701054272928597500,16.920597412109377,0.852907657623291,-0.01671576499938965,-5.93989896774292
1701054272945588000,16.937587890625,0.746780514717102,0.2889072895050049,-5.844705581665039
1701054272962578400,16.954578369140624,1.1604496240615845,0.13888049125671387,-5.8109025955200195
1701054272979569000,16.97156884765625,0.487825870513916,-0.17705202102661133,-5.7289323806762695
1701054272996559600,16.9885595703125,0.6000690460205078,-0.15172433853149414,-5.389195919036865
1701054273013546200,17.005546142578126,0.35996341705322266,0.20388412475585938,-4.751201629638672
1701054273030544100,17.022544189453125,0.7760806083679199,0.42418622970581055,-4.378271102905273
1701054273047521000,17.03952099609375,1.390739917755127,0.7284867763519287,-4.246301651000977
1701054273064521500,17.056521484375,1.6639471054077148,0.2339472770690918,-3.9644503593444824
1701054273081512200,17.07351220703125,0.8165574073791504,-0.04534626007080078,-3.103196144104004
1701054273098502400,17.09050244140625,-0.7890818119049072,1.1405911445617676,-2.871634006500244
1701054273115492900,17.107492919921874,1.2508511543273926,1.213587760925293,-3.2778525352478027
1701054273132483600,17.124483642578124,1.8448443412780762,0.9064836502075195,-3.0825796127319336
1701054273149470000,17.141469970703124,1.887927532196045,0.3151388168334961,-2.280787944793701
1701054273166464500,17.158464599609374,1.3866114616394043,-0.2393648624420166,-0.8983597755432129
1701054273183455200,17.175455322265623,0.37970590591430664,0.009812355041503906,-0.0675058364868164
1701054273200445700,17.19244580078125,-0.5751423835754395,0.1787097454071045,0.3088979721069336
1701054273217436000,17.209435791015625,2.3387451171875,-0.7599821090698242,0.15674161911010742
1701054273234426600,17.226426513671875,2.867569923400879,-1.1215455532073975,1.0722451210021973
1701054273251416800,17.243416748046876,1.6614642143249512,-1.56808602809906,3.5943007469177246
1701054273268403000,17.26040283203125,0.22900104522705078,-1.5409142971038818,4.508723735809326
1701054273285400300,17.277400390625,-1.2392091751098633,-0.9385995864868164,3.791184902191162
1701054273302388500,17.294388427734376,-1.9243993759155273,-1.0404486656188965,3.5052566528320312
1701054273319368400,17.311368408203126,-0.4348874092102051,-1.3314331769943237,4.022890567779541
1701054273336356600,17.328356689453123,1.0644025802612305,-1.8326380252838135,5.753109455108643
1701054273353351400,17.345351318359373,1.9613595008850098,-2.0256872177124023,7.211440563201904
1701054273370342400,17.36234228515625,1.1836886405944824,-1.9771242141723633,8.172086715698242
1701054273387333400,17.37933349609375,0.8058133125305176,-1.4577933549880981,7.757648468017578
1701054273404321800,17.39632177734375,0.13345766067504883,-0.2719297409057617,6.743749618530273
1701054273421313800,17.413313720703126,-0.9240250587463379,0.12107181549072266,7.124443054199219
1701054273438305000,17.430304931640624,-1.2664546966552734,-0.8101330995559692,8.250091552734375
1701054273455293700,17.447293701171876,-0.646275520324707,-1.5354957580566406,8.249834060668945
1701054273472286200,17.4642861328125,-2.035938262939453,-1.5775753259658813,7.779795169830322
1701054273489273000,17.481273193359375,-3.797048330307007,-1.0339207649230957,8.247040748596191
1701054273506265900,17.498265869140624,-6.5266499519348145,0.725245475769043,9.931394577026367
1701054273523257900,17.5152578125,-10.969352722167969,2.7207086086273193,4.4250383377075195
1701054273540248600,17.53224853515625,-17.886337280273438,1.96671462059021,6.8529205322265625
1701054273557235000,17.54923486328125,-15.080403327941895,-0.13138318061828613,7.696882724761963
1701054273574226200,17.56622607421875,-6.1586480140686035,-1.8188681602478027,5.355209827423096
1701054273591218400,17.583218505859374,0.2651982307434082,-2.712594985961914,6.090177536010742
1701054273608208600,17.600208740234375,2.3984551429748535,-3.5440728664398193,7.8952531814575195
1701054273625199400,17.617199462890625,1.985672950744629,-3.5617237091064453,8.84367847442627
1701054273642188000,17.63418798828125,2.3093504905700684,-3.2618649005889893,7.6288743019104
1701054273659181300,17.651181396484375,3.1244497299194336,-2.8828539848327637,6.118112564086914
1701054273676168200,17.668168212890624,1.255575180053711,-2.100468635559082,5.5528740882873535
1701054273693164000,17.6851640625,-1.7919559478759766,-1.595517873764038,6.1776885986328125
1701054273710164700,17.702164794921874,-6.6830153465271,-0.9679027795791626,7.562807083129883
1701054273727151000,17.719151123046874,-8.746488571166992,-0.1369318962097168,7.333210468292236
1701054273744141800,17.736141845703123,-5.727688312530518,-0.8894496560096741,6.818502426147461
1701054273761130000,17.7531298828125,0.774174690246582,-2.268907308578491,6.73305082321167
1701054273778106400,17.7701064453125,5.367362022399902,-3.216625928878784,7.244106292724609
1701054273795113200,17.78711328125,7.046679496765137,-3.5690622329711914,6.814483165740967
1701054273812093000,17.804093017578126,5.148986339569092,-3.0394248962402344,4.867087364196777
1701054273829094000,17.821093994140625,1.7572836875915527,-1.9338231086730957,3.6681089401245117
1701054273846082300,17.838082275390626,0.14468002319335938,-1.931128978729248,2.364993095397949
1701054273863078000,17.855077880859376,-0.6520938873291016,-2.5045387744903564,1.7764768600463867
1701054273880065800,17.872065673828125,-0.8537635803222656,-2.978858470916748,2.1888914108276367
1701054273897056000,17.889055908203126,1.9809093475341797,-3.857377052307129,1.601395606994629
1701054273914045700,17.906045654296875,4.397287845611572,-4.224287033081055,-0.2857704162597656
1701054273931038200,17.9230380859375,5.3674116134643555,-3.6812491416931152,-1.0150527954101562
1701054273948027600,17.940027587890626,4.882595062255859,-2.791656970977783,-1.831498146057129
1701054273965007400,17.95700732421875,3.271052122116089,-1.6222443580627441,-2.8001489639282227
1701054273982008600,17.974008544921876,2.3047943115234375,-1.0037893056869507,-1.2271037101745605
1701054273998999000,17.9909990234375,1.6615242958068848,-0.5009698867797852,-1.796837329864502
1701054274015990000,18.007989990234375,2.895145893096924,-0.4383305311203003,-3.693650245666504
1701054274032976000,18.024975830078127,2.122614622116089,-0.10870635509490967,-3.8798365592956543
1701054274049974800,18.041974853515626,2.1558749675750732,-0.3798304796218872,-3.4849109649658203
1701054274066961200,18.058961181640626,3.5454189777374268,-1.0609209537506104,-3.432291030883789
1701054274083951600,18.07595166015625,4.861597537994385,-1.1342118978500366,-2.7229766845703125
1701054274100942000,18.092942138671877,1.9861490726470947,-0.7135871648788452,-2.2227187156677246
1701054274117932800,18.109932861328126,2.3767192363739014,-0.7743597030639648,-1.5232443809509277
1701054274134923300,18.12692333984375,2.716189384460449,-1.0095810890197754,-4.319554328918457
1701054274151913500,18.14391357421875,0.7564764022827148,-0.8109297752380371,-5.2254791259765625
1701054274168904200,18.160904296875,-0.2726820707321167,-0.7666665315628052,-5.748190402984619
1701054274185895000,18.17789501953125,0.30985021591186523,-0.938573956489563,-5.992251396179199
1701054274202885400,18.194885498046876,0.6516005992889404,-0.6696469783782959,-6.185990333557129
1701054274219875800,18.211875732421873,1.0869308710098267,-0.40071654319763184,-6.061093330383301
1701054274236866000,18.228865966796874,1.443966031074524,-0.30033254623413086,-5.961970329284668
1701054274253865000,18.245864990234374,0.536544919013977,0.001348733901977539,-5.753003120422363
1701054274270847700,18.26284765625,0.12146162986755371,0.1654343605041504,-5.591403961181641
1701054274287822800,18.27982275390625,0.577735185623169,0.3299577236175537,-5.6152753829956055
1701054274304828200,18.296828125,-0.008090972900390625,0.7320325374603271,-5.360517501831055
1701054274321819000,18.31381884765625,0.09590888023376465,1.0948166847229004,-4.990570068359375
1701054274338809000,18.33080908203125,0.5312662124633789,1.404292106628418,-4.591926574707031
1701054274355799600,18.347799560546875,0.49480581283569336,1.5176091194152832,-4.473482131958008
1701054274372790300,18.364790283203124,0.7460618019104004,1.4488189220428467,-4.44458532333374
1701054274389780700,18.38178076171875,1.3681590557098389,1.3452003002166748,-4.009927272796631
1701054274406771500,18.398771484375,2.580456018447876,1.1503856182098389,-3.5113744735717773
1701054274423762000,18.415761962890624,2.062908172607422,1.2905707359313965,-3.250755786895752
1701054274440749600,18.43274951171875,1.3069937229156494,1.6614775657653809,-3.204594135284424
1701054274457748000,18.449748046875,0.4832115173339844,1.841733455657959,-3.598877429962158
1701054274474730800,18.466730712890627,0.3439176082611084,1.7632145881652832,-4.063847064971924
1701054274491713300,18.48371337890625,1.1122710704803467,1.6585607528686523,-3.773834705352783
1701054274508714200,18.50071435546875,1.7270407676696777,1.687950611114502,-3.3164243698120117
1701054274525705000,18.517705078125,2.491899013519287,1.502899169921875,-2.469630718231201
1701054274542684700,18.5346845703125,2.019256591796875,1.8100061416625977,-2.485605239868164
1701054274559685600,18.551685546875,2.094554901123047,2.0718629360198975,-2.9616336822509766
1701054274576676400,18.56867626953125,2.7633752822875977,2.0443081855773926,-2.93426513671875
1701054274593666600,18.58566650390625,2.456366539001465,2.158891201019287,-1.991403579711914
1701054274610657000,18.602656982421873,2.219703197479248,2.350064992904663,-1.6674652099609375
1701054274627648000,18.61964794921875,2.324172019958496,2.8586301803588867,-1.697129249572754
1701054274644638200,18.63663818359375,1.7007951736450195,3.292182445526123,-1.7185182571411133
1701054274661629000,18.65362890625,1.8624300956726074,3.351069450378418,-1.2361836433410645
1701054274678616600,18.670616455078125,1.1539411544799805,3.3360772132873535,-0.4004058837890625
1701054274695612400,18.6876123046875,0.31569623947143555,3.3942487239837646,0.11316871643066406
1701054274712600300,18.704600341796876,0.5676712989807129,3.568713903427124,-0.09083414077758789
1701054274729590800,18.7215908203125,0.5896611213684082,4.020447731018066,-0.9274187088012695
1701054274746581000,18.7385810546875,0.4826235771179199,4.5226898193359375,-1.4921374320983887
1701054274763572000,18.755572021484376,0.5925378799438477,4.475523948669434,-0.9766273498535156
1701054274780562400,18.7725625,-0.42548227310180664,4.213401794433594,-0.023935317993164062
1701054274797553000,18.789552978515626,-0.13683605194091797,3.7855348587036133,0.6097278594970703
1701054274814543400,18.80654345703125,-0.02370452880859375,3.786888599395752,-0.27401304244995117
1701054274831533800,18.823533935546877,-0.20565414428710938,3.389913320541382,-1.425879955291748
1701054274848524300,18.840524169921874,0.35096120834350586,2.6535377502441406,-2.2248034477233887
1701054274865514800,18.8575146484375,1.4431047439575195,1.8104734420776367,-2.459028720855713
1701054274882495000,18.874494873046874,2.044832229614258,1.4960644245147705,-0.9186544418334961
1701054274899495700,18.89149560546875,1.7562141418457031,1.182593584060669,1.0936379432678223
1701054274916481300,18.908481201171874,1.005631923675537,1.2829220294952393,2.2843093872070312
1701054274933474600,18.925474609375,-0.9513649940490723,1.4491238594055176,1.501915454864502
1701054274950470000,18.942469970703126,-2.059786796569824,1.1374800205230713,0.7225551605224609
1701054274967458000,18.9594580078125,-1.6397075653076172,-0.18645954132080078,0.7938365936279297
1701054274984457700,18.976457763671874,-1.8831405639648438,-0.8569023609161377,0.6299319267272949
1701054275001439000,18.99343896484375,-3.8006908893585205,-1.1206398010253906,0.4777388572692871
1701054275018429400,19.010429443359374,-5.051791191101074,-0.9084393978118896,0.38075876235961914
1701054275035420200,19.027420166015624,-5.314634799957275,-0.6348774433135986,0.5221171379089355
1701054275052410600,19.04441064453125,-3.269465684890747,-0.6185262203216553,0.14870691299438477
1701054275069398300,19.061398193359373,-2.4858717918395996,-0.556830644607544,1.3518271446228027
1701054275086394000,19.07839404296875,-2.444167137145996,-0.48771190643310547,2.8343443870544434
1701054275103382000,19.095382080078124,-2.376899242401123,-0.9917640686035156,3.4448814392089844
1701054275120372200,19.112372314453125,-2.4877238273620605,-1.5254414081573486,3.1877694129943848
1701054275137369600,19.12936962890625,-2.5024187564849854,-2.202578067779541,3.04947566986084
1701054275154354000,19.14635400390625,-1.7832698822021484,-2.8468453884124756,3.225492477416992
1701054275171344100,19.16334423828125,-0.8556251525878906,-2.4951624870300293,3.4282937049865723
1701054275188330500,19.18033056640625,-1.0304808616638184,-1.840773105621338,3.8301291465759277
1701054275205329400,19.197329345703125,-2.0570268630981445,-1.259341835975647,4.137752056121826
1701054275222316000,19.21431591796875,-2.3813369274139404,-0.6705389022827148,4.835887432098389
1701054275239306500,19.231306396484374,-1.915156602859497,-0.060297250747680664,5.765217304229736
1701054275256296400,19.24829638671875,-1.1001663208007812,0.23406124114990234,9.204882621765137
1701054275273287200,19.265287109375,-1.2747759819030762,1.479640007019043,9.017868041992188
1701054275290277600,19.282277587890626,-4.019442558288574,1.0855562686920166,5.128767967224121
1701054275307268400,19.299268310546875,-9.32376766204834,0.47646617889404297,6.903879165649414
1701054275324258300,19.31625830078125,-12.378683090209961,0.7842602729797363,6.259398937225342
1701054275341257700,19.3332578125,-8.775802612304688,0.06289839744567871,5.395631790161133
1701054275358229200,19.350229248046876,-3.379274845123291,-0.605637788772583,5.941051959991455
1701054275375230200,19.367230224609376,0.5321950912475586,-0.8822346925735474,6.302709579467773
1701054275392220700,19.384220703125,2.154694080352783,-0.9210394620895386,8.0487060546875
1701054275409211400,19.40121142578125,2.5866994857788086,-1.3859260082244873,9.582406997680664
1701054275426201600,19.41820166015625,2.5673580169677734,0.2182694673538208,8.877091407775879
1701054275443192300,19.4351923828125,1.2033181190490723,1.211350917816162,7.96796989440918
1701054275460182800,19.452182861328126,-0.8039546012878418,0.9238193035125732,7.604467391967773
1701054275477162800,19.469162841796877,-2.0036845207214355,1.043843150138855,7.398763656616211
1701054275494166300,19.486166259765625,-1.7578346729278564,0.7396652698516846,7.488812446594238
1701054275511154200,19.503154296875,1.5458717346191406,0.003175020217895508,7.0453386306762695
1701054275528134100,19.520134033203124,3.480454921722412,-0.24607068300247192,6.135242462158203
1701054275545135900,19.537135986328124,6.813848495483398,-0.3479464650154114,5.80058479309082
1701054275562125800,19.554125732421873,10.000137329101562,-0.1204451322555542,4.226188659667969
1701054275579116300,19.5711162109375,9.144981384277344,0.6611021757125854,2.0769577026367188
1701054275596106800,19.588106689453124,6.244340419769287,1.3671563863754272,0.09646415710449219
1701054275613092400,19.60509228515625,3.846771478652954,1.6870607137680054,-1.2623071670532227
1701054275630090200,19.62209033203125,4.179915428161621,1.5504857301712036,-2.3043456077575684
1701054275647078100,19.639078125,3.946298360824585,1.8178187608718872,-3.879344940185547
1701054275664068900,19.65606884765625,5.101574897766113,2.0513997077941895,-5.2781572341918945
1701054275681059300,19.673059326171874,5.65321683883667,2.591759204864502,-7.003000259399414
1701054275698052900,19.690052978515624,4.985650539398193,3.000828742980957,-8.414667129516602
1701054275715040300,19.707040283203124,7.000078201293945,3.2066683769226074,-8.143985748291016
1701054275732031000,19.724031005859374,8.193185806274414,2.2855725288391113,-7.761096000671387
1701054275749019000,19.741018798828126,8.32032585144043,1.641381025314331,-7.281888008117676
1701054275766023200,19.758023193359374,7.562254428863525,1.118004560470581,-6.791773796081543
1701054275783002000,19.775002197265625,5.718006610870361,0.5453736782073975,-7.026070594787598
1701054275799992800,19.791992919921874,3.475977659225464,0.5581907033920288,-6.354741096496582
1701054275816972500,19.80897265625,2.795053482055664,0.13223564624786377,-6.302392482757568
1701054275833972000,19.825971923828124,1.4892107248306274,-0.09195137023925781,-6.007023334503174
1701054275850964200,19.842964111328126,1.5965397357940674,0.14398193359375,-5.9478759765625
1701054275867957500,19.85995751953125,-0.35887032747268677,0.8743271827697754,-5.340510845184326
1701054275884945200,19.876945068359376,-0.153962641954422,1.1715421676635742,-4.768680572509766
1701054275901925000,19.893925048828127,0.12242183089256287,1.4226577281951904,-4.455836772918701
1701054275918926300,19.91092626953125,-0.22474107146263123,1.3121333122253418,-4.71238899230957
1701054275935916800,19.927916748046876,0.4315732717514038,0.9419221878051758,-4.7560715675354
1701054275952906000,19.944906005859377,0.8057029247283936,0.8390376567840576,-4.829056262969971
1701054275969899500,19.9618994140625,0.8780630230903625,0.6243772506713867,-4.845179557800293
1701054275986888400,19.978888427734375,1.352730393409729,0.9713945388793945,-4.951460361480713
1701054276003878700,19.995878662109376,1.6339390277862549,1.0419669151306152,-4.88920259475708
1701054276020862000,20.012862060546876,1.8465144634246826,0.7511160373687744,-4.911420822143555
1701054276037859800,20.02985986328125,1.6733065843582153,0.6122634410858154,-5.194600582122803
1701054276054850600,20.0468505859375,1.740419626235962,0.6545965671539307,-5.728216648101807
1701054276071841000,20.063841064453126,2.0785508155822754,0.8242692947387695,-6.144039154052734
1701054276088831500,20.08083154296875,2.6953516006469727,0.6619410514831543,-6.058340549468994
1701054276105822000,20.097822021484376,3.7796952724456787,0.5465452671051025,-5.460521697998047
1701054276122812400,20.1148125,2.879812479019165,0.4248974323272705,-4.891624927520752
1701054276139803100,20.13180322265625,1.2836968898773193,1.0748510360717773,-4.897821426391602
1701054276156793300,20.14879345703125,0.40735650062561035,1.6289474964141846,-4.548575401306152
1701054276173781500,20.165781494140624,1.3148248195648193,1.436382532119751,-4.446524620056152
1701054276190771700,20.182771728515625,2.6921093463897705,0.5806329250335693,-3.327228546142578
1701054276207754500,20.19975439453125,3.678980588912964,0.2857964038848877,-2.495718479156494
1701054276224755500,20.21675537109375,1.7197484970092773,0.8748378753662109,-0.8494515419006348
1701054276241746000,20.233745849609374,-1.3137938976287842,1.8032426834106445,-0.17087078094482422
1701054276258736600,20.250736572265627,-2.042299509048462,1.4854063987731934,-0.13576507568359375
1701054276275726800,20.267726806640624,0.27815675735473633,0.2937803268432617,-0.038541316986083984
1701054276292718600,20.284718505859374,1.8266596794128418,-0.3834710121154785,1.2176666259765625
1701054276309696500,20.301696533203124,2.097475051879883,-0.5142152309417725,3.401989459991455
1701054276326698500,20.318698486328124,0.23047924041748047,-0.19668936729431152,6.135683536529541
1701054276343689000,20.33568896484375,-0.12849044799804688,0.1540529727935791,6.142129421234131
1701054276360679700,20.3526796875,-0.03523826599121094,0.5834078788757324,4.4010820388793945
1701054276377670100,20.369670166015624,-0.6270866394042969,0.916942834854126,4.315192699432373
1701054276394660600,20.38666064453125,-0.4320054054260254,0.12685513496398926,5.835799217224121
1701054276411651000,20.403651123046874,-0.7045869827270508,-0.6758403778076172,7.324545860290527
1701054276428641500,20.4206416015625,-1.9494481086730957,-0.5467932224273682,7.066817283630371
1701054276445632000,20.437632080078124,-2.361532211303711,0.010313272476196289,6.089828014373779
1701054276462622700,20.454622802734374,-1.9209251403808594,0.4996457099914551,6.264352798461914
1701054276479613200,20.47161328125,-2.226137161254883,-0.2997558116912842,7.294000625610352
1701054276496603600,20.488603759765624,-3.0261034965515137,-0.9274904727935791,10.312932968139648
1701054276513594400,20.505594482421873,-3.583098888397217,-0.7415692806243896,7.699790000915527
1701054276530584800,20.522584716796874,-4.536229610443115,-0.7550556659698486,7.879667282104492
1701054276547575000,20.539574951171875,-5.14054012298584,-1.148512840270996,6.220313549041748
1701054276564565500,20.5565654296875,-5.692974090576172,-2.4588208198547363,4.890971660614014
1701054276581556200,20.57355615234375,-6.915700912475586,-2.427802085876465,6.026844501495361
1701054276598546700,20.590546630859375,-6.870511531829834,-1.885522484779358,6.628644943237305
1701054276615544000,20.6075439453125,-4.792125225067139,-1.615717887878418,7.68058967590332
1701054276632528000,20.62452783203125,-1.789703607559204,-1.8101096153259277,8.906051635742188
1701054276649518000,20.64151806640625,-0.1568279266357422,-1.948439121246338,8.831615447998047
1701054276666508800,20.6585087890625,-0.33733034133911133,-1.6448941230773926,7.49427604675293
1701054276683494100,20.675494140625,-0.35842227935791016,-1.3595025539398193,6.820137977600098
1701054276700489700,20.69248974609375,0.008831501007080078,-0.8749716281890869,7.167105197906494
1701054276717480200,20.709480224609376,-0.7329902648925781,0.1459338665008545,7.847973346710205
1701054276734471000,20.726470947265625,-1.4881114959716797,1.0593516826629639,9.150317192077637
1701054276751448600,20.743448486328123,-1.989241600036621,1.3886034488677979,10.168972969055176
1701054276768444000,20.76044384765625,0.3422126770019531,1.155362606048584,8.693938255310059
1701054276785442300,20.7774423828125,1.7731242179870605,1.0429737567901611,6.924023628234863
1701054276802432500,20.7944326171875,2.9581055641174316,1.614891767501831,6.107296943664551
1701054276819413000,20.8114130859375,4.733770370483398,1.9697680473327637,5.477932929992676
1701054276836414500,20.82841455078125,4.739675045013428,1.560027837753296,4.105045318603516
1701054276853391000,20.84539111328125,5.368068695068359,1.0332489013671875,1.511012077331543
1701054276870385200,20.86238525390625,5.315378189086914,0.27153611183166504,-0.10102081298828125
1701054276887379200,20.879379150390626,5.810977458953857,0.13058161735534668,-0.5335197448730469
1701054276904367400,20.896367431640623,4.511035919189453,0.6096923351287842,-0.5182991027832031
1701054276921356300,20.913356201171876,4.367349147796631,1.3929286003112793,-1.3677492141723633
1701054276938346800,20.9303466796875,5.138680458068848,1.5502276420593262,-2.5618605613708496
1701054276955337000,20.9473369140625,7.177469253540039,1.1393754482269287,-3.215644359588623
1701054276972330000,20.964330078125,8.20141887664795,1.366058111190796,-4.379620552062988
1701054276989320200,20.9813203125,7.75874137878418,2.0300724506378174,-5.706473350524902
1701054277006310700,20.998310546875,6.294676780700684,2.5729691982269287,-6.257477760314941
1701054277023299800,21.0152998046875,6.606779098510742,2.6931722164154053,-7.144006729125977
1701054277040284400,21.032284423828123,5.063640117645264,2.824538469314575,-7.035165786743164
1701054277057280000,21.049280029296874,5.659043788909912,2.9669923782348633,-5.751062393188477
1701054277074271200,21.066271240234375,5.274967193603516,2.5898029804229736,-3.735684871673584
1701054277091260700,21.0832607421875,3.1551082134246826,1.8004798889160156,-2.8115005493164062
1701054277108254200,21.100254150390626,3.4363484382629395,0.49107837677001953,-3.162074565887451
1701054277125243400,21.117243408203127,1.9980194568634033,-0.4475252628326416,-4.530825614929199
1701054277142234600,21.134234619140624,1.027550220489502,-0.8840382099151611,-5.515048980712891
1701054277159223600,21.1512236328125,1.0692871809005737,-1.024207592010498,-6.21445369720459
1701054277176214800,21.16821484375,0.7193511724472046,-0.9389985799789429,-6.361212253570557
1701054277193216300,21.18521630859375,0.45363354682922363,-0.4965953826904297,-6.188762187957764
1701054277210205000,21.202204833984375,0.5641399621963501,-0.15387940406799316,-5.917593002319336
1701054277227195400,21.2191953125,1.1329442262649536,-0.0715494155883789,-5.698580741882324
1701054277244186000,21.23618603515625,2.049804925918579,-0.16237735748291016,-5.419984817504883
1701054277261176600,21.253176513671875,2.756819248199463,-0.24682188034057617,-5.289243698120117
1701054277278153700,21.27015380859375,2.9069650173187256,-0.07724714279174805,-5.04339075088501
1701054277295160000,21.28716015625,2.914450168609619,0.2362198829650879,-5.161516189575195
1701054277312148000,21.30414794921875,3.061758518218994,0.6245536804199219,-4.917233467102051
1701054277329138400,21.321138427734375,3.6996891498565674,0.8125526905059814,-4.517446517944336
1701054277346118400,21.338118408203126,4.5670647621154785,0.8725616931915283,-4.561886310577393
1701054277363119000,21.355119140625,4.98118257522583,0.8274452686309814,-4.274719715118408
1701054277380110600,21.372110595703123,4.990623474121094,0.7223160266876221,-3.2566637992858887
1701054277397100500,21.3891005859375,3.62764835357666,0.9616751670837402,-2.3969292640686035
1701054277414091000,21.406091064453125,2.1314210891723633,1.5611648559570312,-2.6145763397216797
1701054277431081500,21.42308154296875,0.9142732620239258,1.5982346534729004,-3.0283069610595703
1701054277448072000,21.440072021484376,-0.5192991495132446,1.1293268203735352,-3.295959949493408
1701054277465044000,21.4570439453125,-1.2088263034820557,1.0653676986694336,-3.618694305419922
1701054277482053000,21.47405322265625,-1.0898067951202393,0.8167662620544434,-3.366659164428711
1701054277499043300,21.491043212890624,-0.8269097805023193,1.03477144241333,-3.5189566612243652
1701054277516034000,21.508033935546877,-0.08722996711730957,1.1935453414916992,-3.8000893592834473
1701054277533022700,21.525022705078126,-0.36873841285705566,0.8630452156066895,-3.1848316192626953
1701054277550017000,21.54201708984375,-1.7778394222259521,1.4122004508972168,-2.228668212890625
1701054277567005400,21.55900537109375,-1.7077445983886719,1.283348560333252,-1.640434741973877
