time,seconds_elapsed,z,y,x
1701054421273411000,0.1104111328125,-0.15580415725708008,0.08162641525268555,0.2503800392150879
1701054421290397400,0.1273974609375,-0.3339095115661621,0.02539682388305664,0.2362527847290039
1701054421307384600,0.144384521484375,-0.43024110794067383,-0.008499622344970703,0.21480131149291992
1701054421324375800,0.161375732421875,-0.46556663513183594,-0.08774185180664062,0.012758255004882812
1701054421341368800,0.178368896484375,-0.07189512252807617,-0.1433248519897461,-0.08919286727905273
1701054421358358500,0.195358642578125,0.1295914649963379,-0.1055445671081543,-0.009366512298583984
1701054421375347500,0.212347412109375,0.15445947647094727,-0.009850025177001953,0.1228933334350586
1701054421392340700,0.2293408203125,-0.08582496643066406,0.017894744873046875,0.25545310974121094
1701054421409335300,0.246335205078125,-0.16101312637329102,-0.08661556243896484,0.28893232345581055
1701054421426323200,0.2633232421875,0.0059642791748046875,-0.18271970748901367,0.20585060119628906
1701054421443314200,0.280314208984375,0.03301525115966797,-0.1974787712097168,0.16924190521240234
1701054421460301800,0.2973017578125,0.2154698371887207,-0.28383398056030273,0.21503353118896484
1701054421477292500,0.31429248046875,0.6657862663269043,-0.3856658935546875,0.01564788818359375
1701054421494285600,0.33128564453125,0.5861577987670898,-0.39857959747314453,0.14807462692260742
1701054421511285800,0.34828564453125,0.29198360443115234,-0.3666253089904785,0.21929407119750977
1701054421528274200,0.365274169921875,0.2863955497741699,-0.4091935157775879,0.3857412338256836
1701054421545261600,0.382261474609375,0.753532886505127,-0.5934567451477051,0.2945423126220703
1701054421562239700,0.39923974609375,1.2437434196472168,-0.7902984619140625,0.29369115829467773
1701054421579252000,0.416251953125,1.1592168807983398,-1.0320284366607666,0.7122530937194824
1701054421596238000,0.433238037109375,0.0033593177795410156,-1.2009758949279785,0.4401416778564453
1701054421613224700,0.450224609375,-0.733180046081543,-1.296452522277832,-0.008864402770996094
1701054421630217200,0.46721728515625,-0.4387340545654297,-1.1458828449249268,0.336301326751709
1701054421647210000,0.4842099609375,-0.7710161209106445,-0.7279491424560547,1.1280179023742676
1701054421664196400,0.5011962890625,-1.864060878753662,-0.532529354095459,1.2942194938659668
1701054421681189400,0.518189453125,-2.097475051879883,-0.4420790672302246,0.8687577247619629
1701054421698171400,0.53517138671875,-1.2835369110107422,-0.13634252548217773,0.3344888687133789
1701054421715166200,0.552166259765625,-2.124569892883301,0.2953004837036133,-0.37132692337036133
1701054421732164600,0.56916455078125,-3.018028497695923,0.4135422706604004,0.04794883728027344
1701054421749152000,0.586152099609375,-1.7146883010864258,-0.43172168731689453,0.28288936614990234
1701054421766144300,0.603144287109375,-0.6123123168945312,-1.003685474395752,-0.5135111808776855
1701054421783127800,0.6201279296875,0.5734119415283203,-0.36385536193847656,-0.8965950012207031
1701054421800124200,0.637124267578125,1.4312801361083984,-0.13290643692016602,-0.3891763687133789
1701054421817116700,0.65411669921875,1.12969970703125,0.5527706146240234,0.5194153785705566
1701054421834103000,0.67110302734375,-2.2912802696228027,2.444908618927002,3.3766732215881348
1701054421851096000,0.688095947265625,-6.067562103271484,3.271451473236084,4.462608337402344
1701054421868088300,0.70508837890625,0.5612473487854004,2.5161824226379395,2.189695358276367
1701054421885075000,0.722074951171875,2.677605628967285,1.1044607162475586,0.20335817337036133
1701054421902069800,0.73906982421875,3.6677112579345703,0.26805830001831055,-0.522881031036377
1701054421919047200,0.756047119140625,1.9386348724365234,-0.03764057159423828,-1.5821337699890137
1701054421936051200,0.77305126953125,0.0037751197814941406,-0.2936525344848633,-2.48252272605896
1701054421953037600,0.79003759765625,-0.7505455017089844,-0.2989535331726074,-3.313753604888916
1701054421970030600,0.807030517578125,-1.0936384201049805,-0.22642040252685547,-4.007208824157715
1701054421987036200,0.8240361328125,-1.3042120933532715,-0.37578678131103516,-4.349997043609619
1701054422004009500,0.841009521484375,-0.9168028831481934,-0.518413782119751,-4.35781192779541
1701054422021002500,0.85800244140625,-0.04841756820678711,-0.7812860012054443,-3.968456745147705
1701054422037976800,0.874976806640625,-1.225477695465088,-0.5920445919036865,-4.410611152648926
1701054422054982000,0.89198193359375,-1.8561420440673828,-0.2293386459350586,-4.400925636291504
1701054422071977500,0.9089775390625,-2.1773033142089844,-0.12134194374084473,-4.319350242614746
1701054422088977000,0.925976806640625,-1.8335347175598145,-0.44910693168640137,-4.251378059387207
1701054422105957600,0.94295751953125,-1.1838059425354004,-0.9680483341217041,-3.7965593338012695
1701054422122944000,0.959944091796875,-0.9624943733215332,-0.9372155666351318,-3.2500572204589844
1701054422139941600,0.976941650390625,-2.1702990531921387,-0.5512685775756836,-2.7498695850372314
1701054422156929500,0.993929443359375,-2.2532758712768555,-0.5132427215576172,-2.3527672290802
1701054422173913300,1.010913330078125,-1.1768155097961426,-0.8466429710388184,-2.273603916168213
1701054422190911500,1.027911376953125,0.16053438186645508,-1.0049185752868652,-1.962400197982788
1701054422207901400,1.0449013671875,0.5774850845336914,-0.6302909851074219,-1.0886847972869873
1701054422224885800,1.0618857421875,0.35113048553466797,-0.6451518535614014,0.4263439178466797
1701054422241884200,1.07888427734375,1.3442354202270508,-1.1399223804473877,1.134202003479004
1701054422258861600,1.095861572265625,1.028986930847168,-1.092735767364502,1.7266063690185547
1701054422275854600,1.1128544921875,0.31505298614501953,-0.5923163890838623,2.3297500610351562
1701054422292849700,1.129849609375,0.06847667694091797,-0.5467548370361328,3.1844043731689453
1701054422309843700,1.14684375,0.5803651809692383,-0.9155023097991943,3.9513330459594727
1701054422326831000,1.1638310546875,1.4665241241455078,-1.3974188566207886,5.043654441833496
1701054422343826200,1.180826171875,1.7259159088134766,-1.323172688484192,6.624896049499512
1701054422360807000,1.197806884765625,0.3012962341308594,-0.6875442266464233,7.685998439788818
1701054422377798400,1.21479833984375,-1.8247361183166504,-0.16273951530456543,8.072717666625977
1701054422394797300,1.23179736328125,-1.8100485801696777,0.2740299701690674,8.018640518188477
1701054422411791000,1.248791015625,-3.4185662269592285,0.36263346672058105,5.725278377532959
1701054422428778500,1.265778564453125,-4.1236724853515625,-1.2164461612701416,3.7597384452819824
1701054422445770800,1.282770751953125,-1.4959750175476074,-2.5779314041137695,3.956942558288574
1701054422462757400,1.29975732421875,1.9831085205078125,-3.2422142028808594,3.377150535583496
1701054422479750400,1.31675048828125,3.296720504760742,-2.337613582611084,3.7351603507995605
1701054422496732400,1.333732421875,1.0031251907348633,-0.9599654674530029,3.8731188774108887
1701054422513732400,1.350732421875,1.546529769897461,-0.3775266408920288,3.879971981048584
1701054422530723600,1.3677236328125,2.9157724380493164,-0.9997774958610535,3.566728115081787
1701054422547714800,1.38471484375,1.5144643783569336,-1.132962703704834,5.000777244567871
1701054422564701200,1.401701171875,-0.7235240936279297,0.11730480194091797,7.275732040405273
1701054422581695200,1.4186953125,-2.2373199462890625,1.2697811126708984,8.883943557739258
1701054422598685200,1.435685302734375,-2.3183183670043945,0.902254581451416,8.856447219848633
1701054422615677700,1.452677734375,-0.97930908203125,0.1746995449066162,6.907068729400635
1701054422632668200,1.469668212890625,1.9834089279174805,-0.9628705382347107,6.219006061553955
1701054422649659600,1.48665966796875,4.610482215881348,-1.0192033052444458,6.497251033782959
1701054422666648300,1.5036484375,2.841066360473633,-0.11576485633850098,7.121723651885986
1701054422683639000,1.52063916015625,1.1561431884765625,0.4058094024658203,7.865911483764648
1701054422700621600,1.53762158203125,1.7020010948181152,0.1764535903930664,7.046605587005615
1701054422717620500,1.554620361328125,1.6451373100280762,-0.8923966884613037,6.1528825759887695
1701054422734609000,1.57160888671875,1.5033106803894043,-2.1841840744018555,5.852828025817871
1701054422751601700,1.5886015625,1.0002593994140625,-1.8634967803955078,5.313328266143799
1701054422768593700,1.60559375,0.22310829162597656,-1.2817050218582153,7.489856243133545
1701054422785581300,1.622581298828125,1.9805550575256348,-1.2092382907867432,8.441040992736816
1701054422802579700,1.639579833984375,6.711709976196289,-2.372792959213257,7.273199558258057
1701054422819561200,1.656561279296875,9.862211227416992,-3.1698098182678223,4.930152416229248
1701054422836557300,1.673557373046875,7.01318883895874,-2.979285717010498,2.382999897003174
1701054422853534700,1.69053466796875,5.507122039794922,-2.8048532009124756,1.1198015213012695
1701054422870535700,1.70753564453125,7.649769306182861,-2.6527647972106934,-0.37796545028686523
1701054422887534600,1.72453466796875,8.349287033081055,-2.0177009105682373,-3.285093307495117
1701054422904515000,1.74151513671875,7.61065149307251,-1.848740816116333,-5.111856937408447
1701054422921506000,1.758506103515625,7.5517401695251465,-1.0065937042236328,-8.060408592224121
1701054422938496300,1.775496337890625,5.238001346588135,-0.46665143966674805,-10.693463325500488
1701054422955489500,1.792489501953125,6.721034049987793,1.1418612003326416,-9.415430068969727
1701054422972481300,1.809481201171875,5.794339179992676,0.9193081855773926,-8.447453498840332
1701054422989470000,1.826469970703125,3.8173253536224365,1.1792101860046387,-8.900836944580078
1701054423006462500,1.84346240234375,3.4065768718719482,0.12511348724365234,-10.846380233764648
1701054423023449000,1.860448974609375,7.583042621612549,0.43506431579589844,-13.243210792541504
1701054423040442000,1.877442138671875,9.988872528076172,1.4801812171936035,-14.020771980285645
1701054423057434400,1.894434326171875,7.823056221008301,1.179870843887329,-11.693046569824219
1701054423074416000,1.911416015625,2.458838701248169,1.0761334896087646,-9.221525192260742
1701054423091419000,1.9284189453125,-2.8753561973571777,0.40387725830078125,-6.390258312225342
1701054423108401700,1.945401611328125,-4.884397506713867,-0.026502609252929688,-4.6772541999816895
1701054423125396700,1.962396728515625,-3.541135549545288,-0.11996865272521973,-4.739614009857178
1701054423142387000,1.979386962890625,-0.8598673343658447,0.05479550361633301,-4.746686935424805
1701054423159366400,1.996366455078125,1.7258691787719727,-0.022911787033081055,-3.8992161750793457
1701054423176359000,2.01335888671875,0.7918722629547119,-0.3462197780609131,-2.976043224334717
1701054423193355800,2.030355712890625,-0.7491787672042847,-0.24588227272033691,-2.733212471008301
1701054423210348800,2.047348876953125,0.6674442291259766,-0.5597362518310547,-3.829132556915283
1701054423227341300,2.06434130859375,2.860893726348877,-0.9520916938781738,-5.087278366088867
1701054423244327400,2.081327392578125,3.4292097091674805,-0.8355002403259277,-5.83152961730957
1701054423261324300,2.09832421875,2.843928337097168,-0.48082971572875977,-6.166977882385254
1701054423278299400,2.11529931640625,2.598653554916382,-0.20776844024658203,-6.625611782073975
1701054423295299300,2.13229931640625,2.596658706665039,-0.16545867919921875,-6.840762138366699
1701054423312293400,2.14929345703125,2.1322646141052246,-0.17316198348999023,-6.374882221221924
1701054423329283300,2.166283447265625,2.246898651123047,0.003006458282470703,-6.115878105163574
1701054423346265000,2.18326513671875,2.180251359939575,0.25258779525756836,-6.105279922485352
1701054423363262200,2.20026220703125,1.7787721157073975,0.19170331954956055,-5.719905853271484
1701054423380256000,2.217256103515625,1.6180176734924316,-0.17638397216796875,-4.991330146789551
1701054423397247000,2.2342470703125,1.0857906341552734,0.2699851989746094,-3.8576924800872803
1701054423414235100,2.251235107421875,0.07145261764526367,1.1471972465515137,-3.267057418823242
1701054423431227000,2.268226806640625,-0.009745597839355469,1.3407115936279297,-2.7184276580810547
1701054423448219400,2.285219482421875,1.0623693466186523,1.2832751274108887,-2.371762275695801
1701054423465206300,2.302206298828125,2.5686607360839844,0.651801586151123,-2.2214126586914062
1701054423482197800,2.31919775390625,0.9453520774841309,0.7421116828918457,-1.7879996299743652
1701054423499201000,2.336200927734375,-0.7664990425109863,1.60296630859375,0.7091240882873535
1701054423516184000,2.35318408203125,-0.6545639038085938,2.2047295570373535,1.8009724617004395
1701054423533169000,2.3701689453125,1.2084836959838867,1.8825044631958008,1.5108280181884766
1701054423550162200,2.387162109375,3.424506187438965,0.8670706748962402,0.7038650512695312
1701054423567152000,2.404152099609375,2.8493189811706543,0.5378069877624512,1.6001205444335938
1701054423584142800,2.421142822265625,0.03239870071411133,-0.07225751876831055,2.9400830268859863
1701054423601133300,2.43813330078125,-1.5301909446716309,-0.3743247985839844,3.4844841957092285
1701054423618115800,2.45511572265625,-0.7674136161804199,-1.1570076942443848,2.798659086227417
1701054423635110100,2.472110107421875,1.1168737411499023,-1.5066676139831543,1.5776665210723877
1701054423652109600,2.489109619140625,2.546145439147949,-2.0380654335021973,1.0614700317382812
1701054423669096400,2.506096435546875,2.6075878143310547,-2.685256004333496,2.56339693069458
1701054423686089000,2.5230888671875,-0.17551136016845703,-2.6731667518615723,5.195481300354004
1701054423703075600,2.54007568359375,-1.759383201599121,-2.620481014251709,5.562140464782715
1701054423720066800,2.55706689453125,0.2549257278442383,-2.5464296340942383,4.895680904388428
1701054423737062700,2.574062744140625,2.2904863357543945,-2.614354133605957,4.484742164611816
1701054423754040300,2.591040283203125,2.3724899291992188,-2.93442964553833,4.5123395919799805
1701054423771040500,2.60804052734375,1.5321006774902344,-2.978423833847046,5.674647808074951
1701054423788035600,2.62503564453125,-0.5371189117431641,-2.2147674560546875,6.522287845611572
1701054423805016800,2.642016845703125,-0.4146547317504883,-2.094928741455078,6.493524551391602
1701054423822013400,2.659013427734375,1.4837770462036133,-2.1582388877868652,6.01228141784668
1701054423839003600,2.676003662109375,3.3181076049804688,-2.4466304779052734,5.434529781341553
1701054423855992600,2.69299267578125,5.625059127807617,-2.0942444801330566,7.571905136108398
1701054423872984800,2.70998486328125,-0.2379460334777832,-0.24921607971191406,10.22624397277832
1701054423889975300,2.726975341796875,-9.204086303710938,-0.8664863109588623,10.8685884475708
1701054423906967300,2.74396728515625,-9.276057243347168,-1.139028549194336,11.810877799987793
1701054423923953400,2.760953369140625,-6.9975996017456055,-0.9867181777954102,9.862415313720703
1701054423940948000,2.777947998046875,1.0280075073242188,-1.6919102668762207,9.364212036132812
1701054423957934600,2.7949345703125,4.509557723999023,-2.102658271789551,7.289865970611572
1701054423974923800,2.811923828125,2.8630900382995605,-0.6066038608551025,8.445671081542969
1701054423991922400,2.82892236328125,0.9140620231628418,0.030727386474609375,8.55317211151123
1701054424008909800,2.845909912109375,3.553011894226074,-0.22664117813110352,7.144543647766113
1701054424025902000,2.862902099609375,4.373898506164551,0.45216798782348633,6.824512958526611
1701054424042888700,2.879888671875,0.5061845779418945,1.7359235286712646,8.031085968017578
1701054424059881700,2.8968818359375,-4.190385818481445,2.4375627040863037,10.156311988830566
1701054424076874500,2.91387451171875,-5.9404144287109375,2.2292397022247314,11.26255989074707
1701054424093858300,2.9308583984375,-2.129481792449951,1.0740180015563965,9.678226470947266
1701054424110856400,2.9478564453125,4.724299907684326,-0.3702659606933594,7.681359767913818
1701054424127846100,2.96484619140625,8.299276351928711,-1.666178822517395,6.005245685577393
1701054424144830200,2.981830322265625,8.820411682128906,-0.8728909492492676,5.202471733093262
1701054424161831700,2.998831787109375,5.5745439529418945,0.14282846450805664,5.4081315994262695
1701054424178806800,3.015806884765625,4.011878967285156,-0.03734254837036133,5.197680473327637
1701054424195808300,3.032808349609375,4.6142072677612305,-0.14475774765014648,3.9724807739257812
1701054424212798500,3.049798583984375,5.594348430633545,-1.1170225143432617,2.21142578125
1701054424229791200,3.066791259765625,7.884251594543457,-1.9172022342681885,0.2877798080444336
1701054424246781000,3.083781005859375,9.038636207580566,-2.2540512084960938,-1.9846758842468262
1701054424263767300,3.100767333984375,9.509968757629395,-1.9052631855010986,-4.164056301116943
1701054424280760600,3.117760498046875,8.400829315185547,-1.9744117259979248,-5.325356483459473
1701054424297750000,3.13475,6.289548397064209,-2.063868761062622,-6.419706344604492
1701054424314744300,3.151744384765625,4.3872456550598145,-2.5864639282226562,-7.46706485748291
1701054424331733200,3.168733154296875,1.9663825035095215,-2.716458797454834,-8.60271167755127
1701054424348721400,3.185721435546875,-0.2895057201385498,-2.0366392135620117,-7.383485317230225
1701054424365708000,3.2027080078125,0.10819196701049805,-1.4763944149017334,-8.67899227142334
1701054424382705700,3.21970556640625,3.8890011310577393,-0.7256107330322266,-7.290668487548828
1701054424399696100,3.236696044921875,6.3985137939453125,-0.4115455150604248,-6.666675567626953
1701054424416673800,3.253673828125,6.19686222076416,-0.37963199615478516,-6.4065022468566895
1701054424433665500,3.27066552734375,6.507270812988281,-0.4017293453216553,-6.790469646453857
1701054424450672000,3.287672119140625,6.473682403564453,-0.6068785190582275,-7.9423322677612305
1701054424467658800,3.30465869140625,5.154216766357422,-0.05820417404174805,-9.068408966064453
1701054424484649500,3.3216494140625,3.1768112182617188,0.5422897338867188,-9.373329162597656
1701054424501636400,3.33863623046875,2.1935954093933105,0.018801212310791016,-8.866820335388184
1701054424518634500,3.355634521484375,1.8446495532989502,-0.48607683181762695,-8.030335426330566
1701054424535621400,3.372621337890625,-0.037168025970458984,-0.5197710990905762,-6.911990642547607
1701054424552612000,3.389612060546875,-1.621527910232544,-0.07644176483154297,-6.082618713378906
1701054424569602600,3.4066025390625,-1.8220579624176025,0.4738345146179199,-5.453407287597656
1701054424586593500,3.423593505859375,-1.3022114038467407,0.5391526222229004,-5.358814239501953
1701054424603584000,3.440583984375,0.43813514709472656,0.4909963607788086,-5.248815536499023
1701054424620564000,3.45756396484375,1.7555761337280273,-0.06901121139526367,-4.207764148712158
1701054424637563600,3.474563720703125,0.9524717330932617,-0.35939931869506836,-3.4798874855041504
1701054424654557700,3.4915576171875,-0.6990416049957275,-0.2921314239501953,-4.090347766876221
1701054424671546600,3.508546630859375,-0.6977639198303223,-0.8538892269134521,-5.011427879333496
1701054424688537000,3.525537109375,-0.20599079132080078,-1.2734384536743164,-6.260903358459473
1701054424705527800,3.54252783203125,0.774564266204834,-1.1869049072265625,-6.181252479553223
1701054424722505700,3.559505615234375,0.888124942779541,-0.747981071472168,-5.6212873458862305
1701054424747998000,3.584998046875,2.6763339042663574,-0.76361083984375,-5.209555149078369
1701054424764987400,3.6019873046875,3.071439743041992,-1.4198882579803467,-5.058601379394531
1701054424781981400,3.6189814453125,2.1785998344421387,-0.875206470489502,-3.926591396331787
1701054424798965800,3.6359658203125,-0.5420022010803223,-0.07189035415649414,-2.4233202934265137
1701054424815959000,3.652958984375,0.14518308639526367,0.2122478485107422,-1.831252098083496
1701054424832947700,3.66994775390625,1.3529081344604492,-0.34237051010131836,-1.3618922233581543
1701054424849942800,3.68694287109375,0.7427687644958496,-0.06249570846557617,-1.8101601600646973
1701054424866930000,3.703929931640625,1.3700008392333984,-0.03886222839355469,-1.243360996246338
1701054424883923000,3.7209228515625,2.2236623764038086,0.07173299789428711,-0.8535346984863281
1701054424900912600,3.73791259765625,2.6748509407043457,0.38300228118896484,-0.468017578125
1701054424917902800,3.75490283203125,2.262653350830078,0.6422348022460938,-0.7462453842163086
1701054424934893600,3.7718935546875,1.601241111755371,0.5965771675109863,-0.08804512023925781
1701054424951885600,3.788885498046875,1.4993863105773926,-0.09373188018798828,1.0608363151550293
1701054424968872700,3.805872802734375,1.129788875579834,-0.8192527294158936,2.084913730621338
1701054424985866800,3.82286669921875,0.4169015884399414,-1.131455659866333,3.017106533050537
1701054425002857000,3.83985693359375,1.2817726135253906,-0.5654029846191406,2.5489578247070312
1701054425019846000,3.856845947265625,1.59527587890625,-0.2244126796722412,2.540436029434204
1701054425036841700,3.873841796875,1.6025266647338867,-0.41770386695861816,2.920886754989624
1701054425053827000,3.8908271484375,-0.21921062469482422,-1.0442419052124023,3.214763641357422
1701054425070820000,3.907820068359375,-0.056334495544433594,-2.055889129638672,4.324832916259766
1701054425087811000,3.92481103515625,1.180253028869629,-2.712387800216675,4.368207931518555
1701054425104796000,3.9417958984375,1.5529327392578125,-1.9426919221878052,3.827747344970703
1701054425121792000,3.9587919921875,1.7201719284057617,-2.085601329803467,4.729546546936035
1701054425138780000,3.97577978515625,0.6312494277954102,-2.1060376167297363,6.14617919921875
1701054425155784400,3.992784423828125,0.6561555862426758,-2.387143135070801,6.777136325836182
1701054425172771000,4.00977099609375,1.8567934036254883,-2.70194673538208,6.463385581970215
1701054425189762800,4.0267626953125,2.543551445007324,-2.7545580863952637,6.732668399810791
1701054425206752500,4.04375244140625,2.486727714538574,-2.664458751678467,7.19044303894043
1701054425223734000,4.060734130859375,1.1011829376220703,-2.45853853225708,7.825850486755371
1701054425240733700,4.077733642578125,-0.2622804641723633,-2.39375638961792,9.812602043151855
1701054425257726000,4.094725830078125,-0.42625999450683594,-0.9968001842498779,10.598027229309082
1701054425274715400,4.11171533203125,-3.546295166015625,-2.847477674484253,8.979889869689941
1701054425291707400,4.128707275390625,-4.68634033203125,-2.9643607139587402,10.812872886657715
1701054425308696300,4.1456962890625,-5.489819526672363,-1.657020092010498,9.15130615234375
1701054425325688600,4.1626884765625,-3.8507680892944336,-2.047471523284912,7.633790016174316
1701054425342677800,4.179677734375,-2.9628806114196777,-2.6805877685546875,6.918822288513184
1701054425359670000,4.196669921875,-0.17848587036132812,-3.626298666000366,8.836668968200684
1701054425376659200,4.2136591796875,1.2992887496948242,-3.464116096496582,8.237013816833496
1701054425393651000,4.23065087890625,4.227527618408203,-2.7837271690368652,8.441225051879883
1701054425410640600,4.247640625,5.157388687133789,-2.0373282432556152,7.729828834533691
1701054425427632600,4.264632568359375,2.7639951705932617,-1.2933013439178467,8.299224853515625
1701054425444621800,4.281621826171875,-0.8767709732055664,-0.5343811511993408,9.261303901672363
1701054425461613600,4.298613525390625,-3.74444580078125,-0.18558168411254883,10.90031623840332
1701054425478603300,4.315603271484375,-4.868991851806641,-0.3477940559387207,11.326602935791016
1701054425495595300,4.33259521484375,-2.7482991218566895,-1.1445962190628052,10.551021575927734
1701054425512593400,4.349593505859375,1.8630099296569824,-2.6017000675201416,9.409088134765625
1701054425529573600,4.36657373046875,6.567901134490967,-3.384430170059204,7.99931001663208
1701054425546567000,4.38356689453125,8.15603256225586,-3.076347827911377,6.685816764831543
1701054425563559700,4.4005595703125,7.392463684082031,-2.484586238861084,5.80964994430542
1701054425580547000,4.417547119140625,6.567636013031006,-1.90154230594635,5.586679458618164
1701054425597539000,4.4345390625,6.358033657073975,-1.506286859512329,4.133316516876221
1701054425614528500,4.451528564453125,6.5473127365112305,-1.6111724376678467,1.9959068298339844
1701054425631520800,4.468520751953125,5.772914409637451,-1.7205069065093994,0.6933298110961914
1701054425648510000,4.485510009765625,5.4247965812683105,-1.7957948446273804,-0.7989311218261719
1701054425665499600,4.502499755859375,6.20722770690918,-1.3810313940048218,-2.568692207336426
1701054425682483200,4.519483154296875,6.573945999145508,-0.8711254596710205,-4.074437141418457
1701054425699483100,4.536483154296875,7.6213483810424805,-0.46898460388183594,-4.6272101402282715
1701054425716473000,4.55347314453125,12.649942398071289,0.5693132877349854,-5.819536209106445
1701054425733464300,4.57046435546875,9.149664878845215,2.618981122970581,-6.003517150878906
1701054425750454000,4.5874541015625,7.969022750854492,2.954622745513916,-6.368480682373047
1701054425767445800,4.60444580078125,11.217264175415039,2.2204971313476562,-8.472189903259277
1701054425784434700,4.6214345703125,11.840058326721191,1.2084596157073975,-10.591482162475586
1701054425801434400,4.638434326171875,8.230493545532227,0.7262351512908936,-11.488430976867676
1701054425818416600,4.655416748046875,5.490259647369385,0.5570564270019531,-11.07026481628418
1701054425835408400,4.672408447265625,4.741517066955566,0.6125562191009521,-10.279653549194336
1701054425852397600,4.6893974609375,3.3189122676849365,1.1779756546020508,-11.021699905395508
1701054425869389600,4.7063896484375,1.1350798606872559,1.151360034942627,-10.826375961303711
1701054425886379300,4.723379150390625,-0.6536335945129395,0.8557617664337158,-9.309736251831055
1701054425903371300,4.740371337890625,-1.8755632638931274,-0.11769890785217285,-8.944853782653809
1701054425920360200,4.757360107421875,-2.2057301998138428,-1.0433449745178223,-8.146031379699707
1701054425937352200,4.774352294921875,-1.4805587530136108,-1.292818307876587,-7.344079494476318
1701054425954322400,4.791322509765625,-0.6476877331733704,-1.2130248546600342,-6.4912214279174805
1701054425971334700,4.808334716796875,-0.14892792701721191,-0.7374026775360107,-5.354257106781006
1701054425988322800,4.82532275390625,-0.45916181802749634,-0.5031473636627197,-4.737929344177246
1701054426005308200,4.84230810546875,-0.12016743421554565,-0.4302370548248291,-4.415399074554443
1701054426022304800,4.8593046875,0.17778658866882324,-0.44386720657348633,-4.477877140045166
1701054426039286000,4.8762861328125,-0.027137041091918945,-0.30051398277282715,-4.136110782623291
1701054426056285700,4.89328564453125,0.15395987033843994,-0.27498459815979004,-3.858208179473877
1701054426073278000,4.91027783203125,0.6432504653930664,-0.19807219505310059,-3.915297508239746
1701054426090267400,4.927267333984375,1.1705412864685059,-0.04741477966308594,-4.032079219818115
1701054426107264000,4.944263916015625,2.322953224182129,0.2016468048095703,-4.447930335998535
1701054426124237600,4.961237548828125,3.1459197998046875,0.5243916511535645,-4.634490489959717
1701054426141240300,4.978240234375,2.289867877960205,0.3710002899169922,-3.826305866241455
1701054426158230000,4.99522998046875,1.1683835983276367,0.36723756790161133,-3.669938564300537
1701054426175217400,5.012217529296875,1.1264758110046387,0.3311777114868164,-3.547358989715576
1701054426192215600,5.029215576171875,2.005368709564209,0.42821359634399414,-3.6330347061157227
1701054426209203000,5.046202880859375,2.671489953994751,0.6737155914306641,-3.908015727996826
1701054426226193000,5.06319287109375,2.275780200958252,0.4569382667541504,-3.669732093811035
1701054426243184600,5.0801845703125,0.6730506420135498,0.7732739448547363,-2.771531581878662
1701054426260173800,5.097173828125,0.33807849884033203,1.1336426734924316,-1.1915283203125
1701054426277165600,5.11416552734375,-0.273165225982666,0.9219813346862793,-0.4902782440185547
1701054426294155500,5.131155517578125,-0.8141398429870605,0.6625523567199707,-0.9672889709472656
1701054426311147300,5.148147216796875,0.5631818771362305,0.2116837501525879,-2.070319652557373
1701054426328125700,5.165125732421875,0.863746166229248,-0.39098072052001953,-3.232278823852539
1701054426345128200,5.182128173828125,1.6450576782226562,-0.22393798828125,-2.6923532485961914
1701054426362118100,5.1991181640625,0.9961824417114258,0.5162906646728516,-0.5529813766479492
1701054426379110000,5.21610986328125,-0.9356122016906738,0.4416961669921875,0.5289974212646484
1701054426396098800,5.233098876953125,0.2803187370300293,-0.8489866256713867,0.6641254425048828
1701054426413090800,5.2500908203125,2.7985472679138184,-2.2712504863739014,-0.05479097366333008
1701054426430080800,5.267080810546875,4.745330810546875,-1.9658396244049072,-0.2496800422668457
1701054426447072500,5.284072509765625,3.634383201599121,-1.27321457862854,0.6107196807861328
1701054426464061700,5.301061767578125,0.1905345916748047,-1.4537155628204346,2.660587787628174
1701054426481054000,5.318053955078125,-0.8720088005065918,-1.9937427043914795,3.084542751312256
1701054426498031000,5.335031005859375,1.3859381675720215,-2.1626858711242676,2.9940223693847656
1701054426515032600,5.352032470703125,3.4828548431396484,-2.1599678993225098,2.244375228881836
1701054426532027100,5.369027099609375,4.437783241271973,-2.215179443359375,2.5676748752593994
1701054426549016600,5.3860166015625,1.3625030517578125,-1.5864474773406982,3.4873952865600586
1701054426566006000,5.403006103515625,-0.3013029098510742,-2.174912929534912,4.740115165710449
1701054426582995500,5.419995361328125,0.8774042129516602,-2.6992387771606445,4.702858924865723
1701054426599989800,5.43698974609375,3.050530433654785,-2.7922310829162598,4.887839317321777
1701054426616979200,5.453979248046875,4.345639228820801,-2.7750325202941895,4.8330841064453125
1701054426633968600,5.47096875,3.1539764404296875,-2.4120891094207764,5.822170257568359
1701054426650960600,5.487960693359375,0.6444549560546875,-2.125288486480713,7.339866638183594
1701054426667949800,5.50494970703125,-1.5657310485839844,-1.9424865245819092,8.58660888671875
1701054426684939300,5.521939208984375,-1.057112693786621,-2.2944931983947754,8.999695777893066
1701054426701934000,5.53893408203125,0.8863515853881836,-3.0284371376037598,8.755971908569336
1701054426718923300,5.55592333984375,1.7107877731323242,-3.4627604484558105,8.041543960571289
1701054426735912400,5.572912353515625,0.9774188995361328,-3.326910972595215,8.210710525512695
1701054426752904200,5.589904296875,-0.5124444961547852,-3.2689175605773926,8.489197731018066
1701054426769894000,5.606893798828125,0.18378448486328125,-3.0499935150146484,8.333563804626465
1701054426786886000,5.623885986328125,-0.07635498046875,-2.833347797393799,8.192083358764648
1701054426803875000,5.640875,-2.67451810836792,-2.640596389770508,9.42034912109375
1701054426820877600,5.657877685546875,-4.301752090454102,-2.134211540222168,9.6087064743042
1701054426837853200,5.674853271484375,-9.017059326171875,-1.4749281406402588,9.598991394042969
1701054426854846200,5.69184619140625,-4.664951324462891,-0.7708241939544678,8.330780982971191
1701054426871840300,5.70884033203125,-1.8009061813354492,-2.453049898147583,5.52928352355957
1701054426888829700,5.72582958984375,3.4065465927124023,-3.793107509613037,6.3557610511779785
1701054426905819100,5.742819091796875,3.6646413803100586,-3.56896710395813,7.931070804595947
1701054426922811400,5.759811279296875,3.8188114166259766,-1.8808941841125488,6.887915134429932
1701054426939800300,5.77680029296875,4.567381858825684,-1.0942416191101074,6.319614410400391
1701054426956792600,5.79379248046875,3.6042566299438477,-0.9460477828979492,6.278993606567383
1701054426973781000,5.810781005859375,0.023478031158447266,-1.1827054023742676,7.358786106109619
1701054426990772200,5.827772216796875,-4.311517715454102,-1.232539176940918,9.112616539001465
1701054427007765500,5.844765625,-5.183381080627441,-1.5729165077209473,10.500179290771484
1701054427024755000,5.8617548828125,-2.223173141479492,-2.8172953128814697,10.394054412841797
1701054427041734100,5.878734130859375,2.3109421730041504,-3.6052327156066895,8.287456512451172
1701054427058734000,5.895734130859375,6.623340606689453,-4.534510135650635,6.0751848220825195
1701054427075728400,5.912728271484375,6.869443893432617,-4.415634632110596,5.101111888885498
1701054427092710700,5.929710693359375,3.7060699462890625,-3.1909360885620117,4.740057945251465
1701054427109707300,5.946707275390625,3.836766242980957,-3.2121849060058594,4.650842189788818
1701054427126699500,5.963699462890625,5.269753456115723,-3.292750597000122,3.4144930839538574
1701054427143688700,5.980688720703125,5.325789928436279,-2.859299659729004,1.60675048828125
1701054427160680400,5.997680419921875,5.247882843017578,-2.8368351459503174,-0.9935579299926758
1701054427177670100,6.014670166015625,6.758456707000732,-3.474557638168335,-2.6923208236694336
1701054427194662100,6.031662109375,9.149791717529297,-3.1925740242004395,-3.974351167678833
1701054427211651000,6.048651123046875,11.379398345947266,-2.77020001411438,-5.749248504638672
1701054427228642800,6.065642822265625,11.635555267333984,-1.5730838775634766,-7.123693943023682
1701054427245632500,6.082632568359375,8.903284072875977,-0.3881955146789551,-7.91686487197876
1701054427262626300,6.099626220703125,6.00977087020874,0.36128878593444824,-8.360306739807129
1701054427279613700,6.11661376953125,4.668715476989746,-0.12342429161071777,-8.047675132751465
1701054427296605700,6.133605712890625,5.468523025512695,-0.7393012046813965,-9.023284912109375
1701054427313588500,6.15058837890625,5.992438316345215,0.0847315788269043,-9.226930618286133
1701054427330585000,6.167585205078125,4.761267185211182,0.017821550369262695,-10.147868156433105
1701054427347576300,6.184576416015625,4.554039478302002,0.5698726177215576,-9.55706787109375
1701054427364566800,6.20156689453125,2.9140853881835938,0.13654541969299316,-9.559226036071777
1701054427381559800,6.218559814453125,4.148191452026367,-0.6596791744232178,-8.163762092590332
1701054427398550000,6.235550048828125,3.6351914405822754,-0.4105055332183838,-7.973501682281494
1701054427415539000,6.2525390625,2.424168109893799,0.8167762756347656,-7.809986114501953
1701054427432531000,6.269531005859375,2.639901638031006,1.3183188438415527,-7.634347915649414
1701054427449520600,6.286520751953125,2.00826096534729,1.7344985008239746,-6.567360877990723
1701054427466506200,6.30350634765625,-1.064774751663208,1.6084206104278564,-5.008327484130859
1701054427483501800,6.320501708984375,-2.1827688217163086,1.0586118698120117,-4.540087699890137
1701054427500493800,6.337493896484375,-0.866823673248291,0.7682027816772461,-5.661504745483398
1701054427517483500,6.3544833984375,-0.2891652584075928,0.8696682453155518,-6.237109184265137
1701054427534475300,6.371475341796875,-0.45777010917663574,1.0006439685821533,-6.302102088928223
1701054427551464700,6.388464599609375,0.2395462989807129,0.4685201644897461,-6.059813022613525
1701054427568456400,6.40545654296875,0.7405195236206055,0.031282663345336914,-5.940585613250732
1701054427585446100,6.422446044921875,1.2581281661987305,-0.08248782157897949,-5.909152030944824
1701054427602426600,6.439426513671875,1.6240134239196777,0.23492765426635742,-6.339716911315918
1701054427619416300,6.456416259765625,2.011568069458008,0.50724196434021,-6.503049373626709
1701054427636420600,6.473420654296875,2.099647045135498,0.4883122444152832,-6.240930080413818
1701054427653408500,6.490408447265625,2.610342502593994,0.3594076633453369,-5.786758899688721
1701054427670400800,6.50740087890625,2.7308554649353027,-0.48543524742126465,-5.4933271408081055
1701054427687389700,6.5243896484375,2.1809840202331543,-0.45972394943237305,-5.079583644866943
1701054427704381700,6.541381591796875,1.006685733795166,0.2261061668395996,-4.704336643218994
1701054427721361000,6.55836083984375,-0.37801599502563477,0.1894359588623047,-3.380385160446167
1701054427738362600,6.575362548828125,0.15744256973266602,0.4630889892578125,-3.043332099914551
1701054427755353300,6.592353271484375,1.2639570236206055,-0.18157100677490234,-2.3944339752197266
1701054427772342000,6.609342041015625,3.020942211151123,-0.8006820678710938,-1.6550729274749756
1701054427789336600,6.626336669921875,2.9556221961975098,-0.5675885677337646,-1.0531229972839355
1701054427806325800,6.64332568359375,1.7924613952636719,-0.7194182872772217,0.20484018325805664
1701054427823309300,6.660309326171875,-0.19143104553222656,-0.872373104095459,1.2211031913757324
1701054427840307200,6.67730712890625,-0.44777488708496094,-1.1304054260253906,1.0778374671936035
1701054427857297000,6.694296875,1.1754570007324219,-1.2424328327178955,0.9216747283935547
1701054427874285600,6.71128564453125,2.681426525115967,-1.8601515293121338,1.1023344993591309
1701054427891281000,6.728281005859375,3.021852970123291,-2.500749349594116,1.7397785186767578
1701054427908266000,6.745265869140625,1.6559796333312988,-2.7745113372802734,3.1316471099853516
1701054427925263400,6.762263427734375,-0.36217212677001953,-2.376655101776123,4.2290520668029785
1701054427942251500,6.77925146484375,0.6557216644287109,-2.053861618041992,3.279865264892578
1701054427959252200,6.796252197265625,1.992767333984375,-2.3400163650512695,3.7636733055114746
1701054427976232400,6.813232421875,2.2769927978515625,-2.68253493309021,4.759127140045166
1701054427993222100,6.83022216796875,1.9354219436645508,-2.7051730155944824,5.709792613983154
1701054428010214400,6.84721435546875,-0.18793630599975586,-2.468303680419922,6.582369804382324
1701054428027203300,6.864203369140625,-0.6648635864257812,-2.4352498054504395,6.789782524108887
1701054428044195000,6.881195068359375,1.4827909469604492,-2.9723732471466064,7.17528772354126
1701054428061184800,6.898184814453125,1.413905143737793,-3.139150857925415,7.340928077697754
1701054428078166800,6.915166748046875,0.29123497009277344,-3.0151524543762207,8.212953567504883
1701054428095163400,6.932163330078125,-0.45873117446899414,-3.074866771697998,9.153902053833008
1701054428112160500,6.949160400390625,-1.2226147651672363,-2.948357582092285,9.855400085449219
1701054428129147600,6.966147705078125,-1.721421718597412,-2.4123573303222656,9.608175277709961
1701054428146139600,6.9831396484375,-0.7658696174621582,-2.0432536602020264,8.85908031463623
1701054428163128600,7.000128662109375,1.1538820266723633,-2.3988513946533203,7.977640151977539
1701054428180120800,7.017120849609375,2.188894748687744,-2.3220882415771484,8.161367416381836
1701054428197104600,7.034104736328125,-3.745497941970825,-1.8533340692520142,7.280962944030762
1701054428214102300,7.051102294921875,-9.71205997467041,-1.0800023078918457,8.680686950683594
1701054428231079000,7.068078857421875,-10.710925102233887,-0.5926229953765869,8.81513786315918
1701054428248073000,7.085072998046875,-6.535246849060059,-1.0165715217590332,6.588667392730713
1701054428265062400,7.1020625,-1.001298427581787,-1.8528798818588257,5.449090957641602
1701054428282066400,7.11906640625,3.0258069038391113,-2.613229751586914,5.993330478668213
1701054428299053300,7.13605322265625,2.378103733062744,-2.4184863567352295,6.437784194946289
1701054428316035000,7.15303515625,-0.369753360748291,-1.1940639019012451,5.745770454406738
1701054428333027300,7.17002734375,1.6612968444824219,-1.3546574115753174,5.28720760345459
1701054428350024200,7.187024169921875,3.04665470123291,-1.3558459281921387,5.071113109588623
1701054428367009800,7.204009765625,1.8424081802368164,-1.0463368892669678,6.4784698486328125
1701054428384005400,7.22100537109375,-2.6736507415771484,-0.23356056213378906,7.910766124725342
1701054428400996400,7.237996337890625,-6.275904655456543,0.09881448745727539,9.007040023803711
1701054428417981200,7.254981201171875,-5.380431175231934,-0.44454288482666016,8.051359176635742
1701054428434974000,7.271973876953125,0.09619712829589844,-1.7522099018096924,6.659946441650391
1701054428451964400,7.28896435546875,4.3444294929504395,-2.2790703773498535,5.671382427215576
1701054428468949800,7.30594970703125,6.427739143371582,-1.8636510372161865,6.342175483703613
1701054428485947400,7.322947509765625,6.042599678039551,-1.3506402969360352,7.285645961761475
1701054428502931500,7.339931396484375,3.5301361083984375,-0.9884152412414551,6.032835006713867
1701054428519925800,7.35692578125,1.70888090133667,-0.7405862808227539,5.1563262939453125
1701054428536917200,7.373917236328125,1.168391227722168,-0.10033988952636719,4.2673749923706055
1701054428553912800,7.390912841796875,1.2508125305175781,-0.062026023864746094,3.626126289367676
1701054428570903800,7.40790380859375,2.7336974143981934,-0.8347506523132324,4.499542713165283
1701054428587885300,7.42488525390625,3.2595534324645996,-0.8512094020843506,3.483424186706543
1701054428604881400,7.44188134765625,5.026002407073975,-0.9093525409698486,2.1292858123779297
1701054428621871400,7.458871337890625,5.837137699127197,-1.2532083988189697,0.011837959289550781
1701054428638860500,7.475860595703125,5.943536758422852,-1.5475819110870361,-1.5268917083740234
1701054428655855400,7.49285546875,6.928675651550293,-1.9239985942840576,-1.1128754615783691
1701054428672845600,7.509845458984375,7.807315826416016,-1.6650714874267578,-2.7742576599121094
1701054428689838800,7.5268388671875,7.806399822235107,-1.515181541442871,-5.560939788818359
1701054428706825200,7.5438251953125,6.481579780578613,-0.9827306270599365,-6.980081558227539
1701054428723823400,7.5608232421875,4.527586936950684,-0.5757389068603516,-6.9512939453125
1701054428740811500,7.5778115234375,4.349119663238525,-0.3999755382537842,-7.232693195343018
1701054428757793000,7.59479296875,4.220107078552246,-0.16522789001464844,-8.298996925354004
1701054428774792700,7.611792724609375,3.8865416049957275,0.21132493019104004,-8.585427284240723
1701054428791784700,7.62878466796875,4.317904472351074,0.7642524242401123,-8.15732479095459
1701054428808774400,7.6457744140625,6.2644171714782715,1.1761562824249268,-7.049529552459717
1701054428825766100,7.66276611328125,8.14877986907959,2.241544485092163,-7.052483081817627
1701054428842755600,7.679755615234375,8.663578987121582,2.5203089714050293,-6.685120105743408
1701054428859736600,7.696736572265625,7.5063934326171875,2.9425876140594482,-6.35333251953125
1701054428876737000,7.713737060546875,4.208161354064941,2.812866687774658,-6.270989418029785
1701054428893731600,7.730731689453125,0.509331464767456,2.1727890968322754,-6.10328483581543
1701054428910715600,7.747715576171875,-3.9064455032348633,1.2146103382110596,-5.649721145629883
1701054428927710000,7.7647099609375,-4.72583532333374,0.3641977310180664,-5.06173038482666
1701054428944699600,7.78169970703125,-2.070568084716797,-0.07613468170166016,-4.003602981567383
1701054428961689000,7.798689208984375,-1.0179316997528076,-0.07116270065307617,-3.8219642639160156
1701054428978683100,7.81568310546875,-2.038003921508789,0.5106477737426758,-5.702345848083496
1701054428995672600,7.832672607421875,-2.772855758666992,0.33626604080200195,-6.359782695770264
1701054429012662300,7.849662353515625,-2.1350479125976562,0.35999011993408203,-5.11478853225708
1701054429029642500,7.866642578125,-0.4854896366596222,0.253021240234375,-3.691049575805664
1701054429046643500,7.8836435546875,1.3494865894317627,-0.014214515686035156,-2.7589964866638184
1701054429063635200,7.90063525390625,2.414198637008667,-0.01385498046875,-2.8533735275268555
1701054429080625000,7.917625,2.287721872329712,0.20966720581054688,-3.837144374847412
1701054429097617000,7.934616943359375,2.6474225521087646,0.5548133850097656,-4.6450371742248535
1701054429114605800,7.951605712890625,2.5696961879730225,0.33501195907592773,-4.6482014656066895
1701054429131595500,7.968595458984375,1.9581959247589111,-0.19427967071533203,-3.952092170715332
1701054429148590300,7.98559033203125,1.5628926753997803,-0.28337907791137695,-3.632472038269043
1701054429165579500,8.00257958984375,1.7133245468139648,-0.48177385330200195,-3.9196157455444336
1701054429182567000,8.01956689453125,2.096285343170166,-0.31102800369262695,-4.773538589477539
1701054429199562500,8.0365625,2.6839439868927,0.11848831176757812,-5.354271411895752
1701054429216550400,8.05355029296875,1.536193609237671,0.10897159576416016,-4.674101829528809
1701054429233542400,8.07054248046875,-1.1478835344314575,-0.09552526473999023,-3.2367358207702637
1701054429250530800,8.08753076171875,-1.046877384185791,-0.7757511138916016,-2.710172176361084
1701054429267523600,8.104523681640625,-0.10487055778503418,-1.132551670074463,-3.8589484691619873
1701054429284513000,8.121512939453124,1.5171492099761963,-0.6099843978881836,-4.418152809143066
1701054429301505000,8.138505126953126,1.4111385345458984,0.05396747589111328,-3.201880693435669
1701054429318494000,8.155493896484375,1.1029133796691895,0.42757654190063477,-1.4834012985229492
1701054429335486200,8.172486328125,1.136061191558838,0.049054622650146484,0.3256649971008301
1701054429352475400,8.189475341796875,0.7874107360839844,-0.13345813751220703,0.6991472244262695
1701054429369467400,8.20646728515625,0.35948610305786133,-0.13521909713745117,0.5909161567687988
1701054429386456800,8.223456787109376,-0.26701927185058594,0.45583057403564453,0.3263835906982422
1701054429403448800,8.24044873046875,-2.1745362281799316,0.989192008972168,0.5180950164794922
1701054429420438300,8.257438232421874,-3.5154671669006348,0.47945451736450195,1.1316165924072266
1701054429437419500,8.27441943359375,-2.3668808937072754,-0.20637178421020508,1.6329460144042969
1701054429454408700,8.29140869140625,0.437227725982666,-0.945533275604248,1.8843083381652832
1701054429471411500,8.308411376953124,2.12495756149292,-1.8336665630340576,1.875704288482666
1701054429488401000,8.32540087890625,2.5797104835510254,-1.843648910522461,2.4766759872436523
1701054429505393000,8.342392822265625,1.39739990234375,-1.8165326118469238,4.370598316192627
1701054429522382000,8.359382080078126,0.5976791381835938,-1.9988493919372559,5.018770694732666
1701054429539363600,8.376363525390625,0.325408935546875,-2.446978807449341,5.751872539520264
1701054429556363800,8.39336376953125,1.4936614036560059,-2.6749606132507324,5.958064079284668
1701054429573355800,8.410355712890626,1.2363386154174805,-2.4202334880828857,6.646224021911621
1701054429590345000,8.427344970703125,-0.24201202392578125,-1.709399700164795,7.691818714141846
1701054429607336400,8.44433642578125,-0.3253140449523926,-1.6906499862670898,8.15880012512207
1701054429624326400,8.461326416015625,1.1626167297363281,-2.1490707397460938,8.495963096618652
1701054429641310700,8.478310791015625,1.1622462272644043,-2.030914545059204,8.586935043334961
1701054429658307600,8.4953076171875,0.1791691780090332,-1.7283785343170166,8.578082084655762
1701054429675299600,8.512299560546875,-0.4766979217529297,-1.9383890628814697,8.969247817993164
1701054429692289000,8.5292890625,0.472597599029541,-2.2051491737365723,9.423075675964355
1701054429709273600,8.546273681640624,0.43788576126098633,-2.2735705375671387,9.554157257080078
1701054429726270200,8.563270263671875,-1.193033218383789,-1.8351860046386719,9.10373306274414
1701054429743262000,8.580261962890624,-4.077108383178711,-2.3564279079437256,8.72563362121582
1701054429760238300,8.59723828125,-6.757569313049316,-2.2701501846313477,9.482324600219727
1701054429777244000,8.614243896484375,-9.444623947143555,-1.6913421154022217,10.787973403930664
1701054429794232800,8.63123291015625,-7.153252601623535,-1.5151853561401367,11.04123306274414
1701054429811224800,8.648224853515625,-1.9727482795715332,-3.0485737323760986,9.89103889465332
1701054429828214500,8.665214599609374,3.3906025886535645,-4.257857322692871,8.674196243286133
1701054429845206500,8.68220654296875,3.9058241844177246,-4.060220241546631,7.963269233703613
1701054429862195500,8.699195556640625,2.4990415573120117,-3.1813175678253174,7.844414234161377
1701054429879176700,8.7161767578125,1.1506047248840332,-2.203598737716675,8.223222732543945
1701054429896168000,8.73316796875,0.9782543182373047,-1.328460931777954,8.657410621643066
1701054429913169200,8.750169189453125,-0.7943639755249023,-1.00801682472229,9.098722457885742
1701054429930158000,8.767157958984376,-1.9570589065551758,-0.7720181941986084,9.477727890014648
1701054429947150300,8.784150390625,-2.0577878952026367,-1.2363340854644775,10.69505500793457
1701054429964139800,8.801139892578124,0.43753528594970703,-1.8909621238708496,10.492851257324219
1701054429981131800,8.8181318359375,4.289237976074219,-1.7545336484909058,8.096395492553711
1701054429998110200,8.835110107421874,8.601699829101562,-1.4810640811920166,6.065402507781982
1701054430015110100,8.852110107421876,8.270902633666992,-0.6975955963134766,4.927290916442871
1701054430032105000,8.86910498046875,5.104957103729248,-0.18966221809387207,5.1618332862854
1701054430049094400,8.886094482421875,3.6167850494384766,-0.4091212749481201,5.668643951416016
1701054430066083600,8.90308349609375,4.817793846130371,-0.9866464138031006,4.753384590148926
1701054430083072500,8.920072509765625,6.480295658111572,-1.176802158355713,2.2496399879455566
1701054430100063700,8.937063720703126,7.540365695953369,-1.3422396183013916,1.2206411361694336
1701054430117061600,8.9540615234375,7.278997898101807,-1.2681825160980225,0.6315345764160156
1701054430134046000,8.9710458984375,7.044679164886475,-1.3791015148162842,-1.0795979499816895
1701054430151038000,8.988037841796874,7.4020185470581055,-1.5610569715499878,-3.482314109802246
1701054430168025300,9.005025390625,8.465898513793945,-1.6851791143417358,-5.236322402954102
1701054430185022200,9.022022216796875,9.95921802520752,-1.5635545253753662,-7.31805944442749
1701054430202008800,9.0390087890625,7.846617698669434,-0.2594459056854248,-8.374224662780762
1701054430218998300,9.055998291015625,5.458481788635254,0.47108006477355957,-9.65151596069336
1701054430235993000,9.0729931640625,6.903266906738281,0.827190637588501,-11.138782501220703
1701054430252982500,9.089982421875,6.354940414428711,0.5793359279632568,-10.228013038635254
1701054430269971700,9.1069716796875,3.858217477798462,0.8823482990264893,-9.196532249450684
1701054430286961000,9.1239609375,4.3124518394470215,1.0058784484863281,-8.32302474975586
1701054430303954400,9.140954345703125,5.301138877868652,0.7794172763824463,-9.000029563903809
1701054430320947700,9.15794775390625,6.735525608062744,0.8569025993347168,-8.964847564697266
1701054430337927400,9.174927490234374,3.802959680557251,1.2132751941680908,-7.579348087310791
1701054430354920400,9.19192041015625,1.9610276222229004,0.6050634384155273,-6.506910800933838
1701054430371916800,9.208916748046875,0.26177966594696045,0.5262000560760498,-6.461708068847656
1701054430388907500,9.225907470703126,-0.3754977583885193,0.9494242668151855,-6.20822286605835
1701054430405897000,9.24289697265625,-1.1530334949493408,1.445155143737793,-6.357486724853516
1701054430422889000,9.259888916015624,-2.2382493019104004,1.4237465858459473,-6.175361633300781
1701054430439878400,9.27687841796875,-1.627541422843933,0.6050710678100586,-4.968203544616699
1701054430456870400,9.293870361328125,-0.4113502502441406,-0.05920076370239258,-3.9272818565368652
1701054430473856800,9.310856689453125,-0.9535549879074097,0.31860780715942383,-3.45412540435791
1701054430490854100,9.327854248046876,0.21992599964141846,0.3025240898132324,-4.8981428146362305
1701054430507841300,9.34484130859375,0.6023012399673462,0.24364566802978516,-6.31018590927124
1701054430524829700,9.36182958984375,-0.08494150638580322,0.06120014190673828,-7.545646667480469
1701054430541825500,9.378825439453125,0.5617504119873047,-0.2906503677368164,-7.739752769470215
1701054430558814200,9.395814208984374,2.4237706661224365,-0.7958583831787109,-7.396392822265625
1701054430575803600,9.4128037109375,3.3865461349487305,-0.8659048080444336,-6.952547550201416
1701054430592793600,9.429793701171874,3.9104607105255127,-0.9246587753295898,-6.560117721557617
1701054430609787100,9.446787109375,3.1445207595825195,-0.9168696403503418,-6.621463775634766
1701054430626790000,9.463789794921874,2.6934151649475098,-0.7687177658081055,-6.863452434539795
1701054430643766300,9.480766357421874,3.5165090560913086,-0.4604940414428711,-6.718817234039307
1701054430660758500,9.497758544921876,4.6294145584106445,-0.04552316665649414,-5.593271255493164
1701054430677737000,9.514737060546874,3.5882439613342285,0.2747769355773926,-3.465897560119629
1701054430694739500,9.531739501953124,1.6327862739562988,0.2919487953186035,-2.1381473541259766
1701054430711729000,9.54872900390625,1.4579639434814453,0.8102169036865234,-2.4829835891723633
1701054430728718600,9.565718505859374,2.2213101387023926,1.2120165824890137,-2.417846202850342
1701054430745713000,9.582712890625,3.2044382095336914,1.057154655456543,-1.2221136093139648
1701054430762702300,9.599702392578125,2.690889358520508,1.343015193939209,-0.38435888290405273
1701054430779691800,9.61669189453125,0.8891177177429199,0.91900634765625,0.18872547149658203
1701054430796671700,9.633671630859375,0.5405464172363281,0.35335350036621094,0.11161231994628906
1701054430813674800,9.6506748046875,3.313352584838867,-0.4563589096069336,-0.12324047088623047
1701054430830665000,9.6676650390625,4.87055778503418,-0.6639909744262695,0.46596765518188477
1701054430847654400,9.684654296875,2.2087459564208984,-0.27025747299194336,2.13389253616333
1701054430864636000,9.701635986328125,0.9997358322143555,-0.5211648941040039,3.3006982803344727
1701054430881635600,9.718635498046876,3.100193977355957,-1.258655309677124,4.5159173011779785
1701054430898627600,9.735627685546875,4.78315544128418,-1.6475441455841064,5.5617218017578125
1701054430915617300,9.7526171875,3.126708507537842,-1.503601312637329,6.004448890686035
1701054430932609000,9.769609130859376,0.9136333465576172,-0.9653713703155518,5.656955242156982
1701054430949598200,9.78659814453125,-1.553767204284668,-0.6418745517730713,5.850562572479248
1701054430966590500,9.803590576171874,-2.1685118675231934,-0.9799556732177734,6.041440486907959
1701054430983580000,9.820579833984375,-1.5828537940979004,-1.5978960990905762,6.35713529586792
1701054431000569300,9.8375693359375,-0.8589582443237305,-2.3090462684631348,6.6790547370910645
1701054431017563400,9.8545634765625,-0.16789007186889648,-2.6027207374572754,6.032285690307617
1701054431034552800,9.871552734375,-0.5112943649291992,-2.372924327850342,5.971555709838867
1701054431051541000,9.888541015625,-0.2356100082397461,-2.3160128593444824,6.472728729248047
1701054431068534300,9.9055341796875,-0.9106278419494629,-2.505657434463501,7.158346176147461
1701054431085523500,9.9225234375,-1.8516578674316406,-2.5480644702911377,7.38076114654541
1701054431102515700,9.939515625,-1.19858980178833,-2.6158862113952637,7.080687522888184
1701054431119505200,9.956505126953125,-0.43987274169921875,-2.9115726947784424,6.697383403778076
1701054431136497400,9.973497314453125,0.4275984764099121,-3.2256476879119873,6.580739974975586
1701054431153486300,9.990486328125,1.055147647857666,-2.963836669921875,7.381096363067627
1701054431170478000,10.00747802734375,-0.25569868087768555,-2.0862035751342773,9.805635452270508
1701054431187467800,10.0244677734375,-5.819063186645508,-1.787003755569458,8.72062873840332
1701054431204460000,10.0414599609375,-8.466093063354492,-2.8147974014282227,9.251749038696289
1701054431221447400,10.058447509765625,-5.0887451171875,-2.9389820098876953,7.7464280128479
1701054431238442800,10.07544287109375,-0.7385721206665039,-2.972337484359741,4.828114032745361
1701054431255430700,10.0924306640625,0.5303201675415039,-3.875004291534424,2.5815210342407227
1701054431272422700,10.109422607421875,0.6028375625610352,-3.91310977935791,3.471360206604004
1701054431289411800,10.126411865234376,-1.7645468711853027,-2.7505552768707275,4.385147571563721
1701054431306403300,10.1434033203125,1.8185796737670898,-2.1818175315856934,5.463164806365967
1701054431323393000,10.16039306640625,5.187071800231934,-2.0902321338653564,5.528410911560059
1701054431340385000,10.177385009765626,4.982547760009766,-1.8363893032073975,5.645930767059326
1701054431357374500,10.19437451171875,2.1665329933166504,-1.3011314868927002,6.115720748901367
1701054431374366500,10.211366455078124,-3.571767807006836,-0.4502909183502197,7.441027641296387
1701054431391356200,10.228356201171875,-7.929668426513672,0.39554643630981445,9.298553466796875
1701054431408348000,10.245347900390625,-7.337653160095215,-0.14667367935180664,9.36512565612793
1701054431425336800,10.2623369140625,-1.9155693054199219,-1.2630865573883057,8.172470092773438
1701054431442328800,10.279328857421875,1.9827485084533691,-2.009103775024414,8.005010604858398
1701054431459308000,10.29630810546875,4.027824401855469,-1.7444064617156982,7.500235557556152
1701054431476310500,10.313310546875,3.164860725402832,-1.3757531642913818,7.6123480796813965
1701054431493299700,10.3302998046875,1.5306892395019531,-0.6638615131378174,7.124304294586182
1701054431510296800,10.347296875,-0.6399407386779785,-0.08174681663513184,6.920249938964844
1701054431527281200,10.36428125,-1.3115692138671875,-0.18448686599731445,6.986544609069824
1701054431544273400,10.3812734375,-1.4125895500183105,-0.8427674770355225,7.16282320022583
1701054431561262300,10.398262451171876,0.15520906448364258,-1.7275581359863281,6.966516494750977
1701054431578254300,10.41525439453125,2.8417134284973145,-2.0204198360443115,5.92786169052124
1701054431595243800,10.432243896484374,2.4599666595458984,-1.6980469226837158,3.8110570907592773
1701054431612226300,10.449226318359376,2.9755706787109375,-1.8884429931640625,2.6243176460266113
1701054431629225000,10.466224853515625,4.060232162475586,-2.5079898834228516,1.719388484954834
1701054431646217200,10.48321728515625,2.74674129486084,-3.3599205017089844,1.4502348899841309
1701054431663206700,10.50020654296875,3.0711402893066406,-3.0492420196533203,0.22468900680541992
1701054431680198700,10.51719873046875,4.496555328369141,-2.3537087440490723,-0.7462778091430664
1701054431697187600,10.5341875,6.926600933074951,-1.7994152307510376,-2.5256147384643555
1701054431714166500,10.55116650390625,8.145231246948242,-1.9488952159881592,-4.647271156311035
1701054431731172000,10.568172119140625,6.495171070098877,-1.9225945472717285,-5.760265350341797
1701054431748158700,10.58515869140625,5.097928524017334,-1.5017818212509155,-5.745593070983887
1701054431765140500,10.602140380859375,3.3840274810791016,-0.5307338237762451,-6.570273399353027
1701054431782145000,10.61914501953125,2.40816068649292,0.40354108810424805,-6.8141679763793945
1701054431799116300,10.6361162109375,3.295638084411621,-0.2972559928894043,-7.420604705810547
1701054431816115700,10.65311572265625,6.068057060241699,-0.21490049362182617,-7.195842266082764
1701054431833103000,10.67010302734375,7.2507123947143555,0.5877020359039307,-7.485537528991699
1701054431850099200,10.68709912109375,6.926997184753418,0.666555643081665,-7.889384746551514
1701054431867088400,10.70408837890625,7.125570297241211,1.2991230487823486,-7.7821455001831055
1701054431884076000,10.721075927734375,5.985490798950195,2.1246938705444336,-7.290619373321533
1701054431901064700,10.738064697265624,3.17148494720459,2.3520922660827637,-7.590047836303711
1701054431918058200,10.755058349609374,1.0422770977020264,1.885817289352417,-7.30031156539917
1701054431935050200,10.77205029296875,0.12673258781433105,1.563040018081665,-6.586637496948242
1701054431952041000,10.789041015625,-0.9180350303649902,1.521644115447998,-6.462225437164307
1701054431969028600,10.806028564453126,-0.99324631690979,0.6119470596313477,-6.664356708526611
1701054431986021600,10.823021728515625,-1.238594889640808,0.1335735321044922,-6.207340240478516
1701054432003011600,10.840011474609375,-1.8115869760513306,-0.2439560890197754,-5.828522205352783
1701054432020002000,10.857001953125,-1.7156810760498047,-0.49474358558654785,-4.728052139282227
1701054432036993800,10.873993896484375,-0.19451689720153809,-0.8852722644805908,-4.574863433837891
1701054432053986000,10.890986083984375,0.2698063850402832,-0.7965574264526367,-5.172746658325195
1701054432070975500,10.9079755859375,0.4514584541320801,-0.4107699394226074,-5.3949432373046875
1701054432087965400,10.92496533203125,1.374464750289917,-0.44775867462158203,-5.429372787475586
1701054432104953000,10.941953125,1.9251070022583008,-0.45734691619873047,-4.743723392486572
1701054432121950500,10.958950439453124,2.067058563232422,-0.7959039211273193,-4.496283531188965
1701054432138946800,10.97594677734375,2.02351713180542,-1.1299946308135986,-4.862313270568848
1701054432155937300,10.992937255859376,2.132340908050537,-0.8460781574249268,-4.7857160568237305
1701054432172926500,11.009926513671875,2.3987202644348145,-0.6516158580780029,-5.06403923034668
1701054432189918500,11.02691845703125,2.6809444427490234,-0.5319247245788574,-5.316286563873291
1701054432206908000,11.043907958984375,2.2859630584716797,-0.7842223644256592,-4.899624347686768
1701054432223900200,11.060900146484375,1.6986608505249023,-1.1688940525054932,-4.40045690536499
1701054432240889300,11.077889404296876,2.3793015480041504,-1.6054799556732178,-3.9633264541625977
1701054432257880800,11.094880859375,2.6870617866516113,-1.5089242458343506,-3.5101993083953857
1701054432274870300,11.111870361328124,3.540656089782715,-1.6230556964874268,-2.7896618843078613
1701054432291852300,11.128852294921876,4.425549030303955,-1.670799970626831,-2.968689203262329
1701054432308851700,11.145851806640625,3.648040771484375,-1.9568753242492676,-2.047390937805176
1701054432325845000,11.162844970703125,2.1889238357543945,-2.1865434646606445,-1.46311616897583
1701054432342831900,11.179831787109375,1.8691058158874512,-2.6205832958221436,-1.3119845390319824
1701054432359835400,11.19683544921875,1.2067456245422363,-3.1142425537109375,-0.9125993251800537
1701054432376814600,11.213814697265626,2.2668824195861816,-3.135805130004883,-1.0036187171936035
1701054432393806600,11.230806640625,2.7205958366394043,-2.9731991291046143,0.057562828063964844
1701054432410796300,11.24779638671875,4.159444808959961,-3.2719273567199707,2.5838050842285156
1701054432427773200,11.264773193359375,4.32820987701416,-3.26981782913208,4.609692096710205
1701054432444777200,11.281777099609375,2.3811683654785156,-2.6086978912353516,5.834756851196289
1701054432461769200,11.298769287109375,1.461050033569336,-1.4275028705596924,5.828880786895752
1701054432478758700,11.315758544921875,1.5306463241577148,-1.1607513427734375,5.924163818359375
1701054432495740000,11.332739990234375,1.4362068176269531,-1.6572972536087036,6.65847110748291
1701054432512739600,11.349739501953126,0.6590442657470703,-1.7131966352462769,7.136895179748535
1701054432529731800,11.36673193359375,-1.7082219123840332,-1.1873414516448975,7.300511837005615
1701054432546721300,11.38372119140625,-3.7821240425109863,-0.619978666305542,7.419704437255859
1701054432563713300,11.40071337890625,-3.3178153038024902,-1.0486366748809814,7.422759532928467
1701054432580700000,11.417699951171874,-2.1836843490600586,-1.9186651706695557,6.383257865905762
1701054432597697300,11.434697265625,-1.2874536514282227,-3.0277721881866455,6.133828639984131
1701054432614684000,11.451683837890625,-0.3306865692138672,-3.2797152996063232,6.126155853271484
1701054432631676200,11.46867626953125,-2.421410083770752,-2.781775951385498,6.769648551940918
1701054432648665000,11.4856650390625,-3.8950090408325195,-2.404827117919922,7.11460542678833
1701054432665657000,11.502656982421875,-2.115896701812744,-2.293186664581299,8.508111000061035
1701054432682646800,11.519646728515625,-0.8922538757324219,-2.8969123363494873,8.406429290771484
1701054432699638500,11.536638427734376,-2.2209768295288086,-3.1222546100616455,9.452913284301758
1701054432716628000,11.5536279296875,-5.458202362060547,-4.082695960998535,10.77113151550293
1701054432733619500,11.570619384765624,-3.247588634490967,-4.424402236938477,9.802536964416504
1701054432750609200,11.587609130859375,-2.211759090423584,-4.656549453735352,8.723694801330566
1701054432767601400,11.604601318359375,-1.5614027976989746,-4.903217315673828,6.461751461029053
1701054432784590600,11.621590576171876,0.871129035949707,-4.191639423370361,6.8449554443359375
1701054432801582600,11.63858251953125,1.7833261489868164,-3.300788164138794,7.738299369812012
1701054432818570000,11.655570068359374,0.8168277740478516,-3.1826014518737793,9.883646965026855
1701054432835565800,11.67256591796875,1.1170921325683594,-2.0189461708068848,10.132959365844727
1701054432852553200,11.68955322265625,0.7214021682739258,-0.8611160516738892,9.865787506103516
1701054432869545000,11.706544921875,0.5198383331298828,-0.9459338188171387,10.62630844116211
1701054432886534700,11.72353466796875,-1.845682144165039,-0.5524415969848633,11.804974555969238
1701054432903529000,11.740529052734376,-3.618372917175293,-0.09410393238067627,12.396595001220703
1701054432920515800,11.757515869140626,3.540976047515869,-1.5810058116912842,9.556424140930176
1701054432937497300,11.774497314453125,8.462409019470215,-3.2971649169921875,7.20706844329834
1701054432954497500,11.79149755859375,10.195579528808594,-3.674513816833496,5.788486003875732
1701054432971489000,11.808489013671876,9.160107612609863,-3.255740165710449,4.649848937988281
1701054432988478200,11.825478271484375,7.4627203941345215,-2.95601224899292,3.7525410652160645
1701054433005477600,11.8424775390625,5.042656898498535,-2.583637237548828,3.8845744132995605
1701054433022457300,11.859457275390625,3.346024513244629,-2.5190882682800293,4.702581882476807
1701054433039454500,11.876454345703126,4.718813419342041,-2.6754045486450195,4.385048866271973
1701054433056441000,11.893441162109376,5.542014122009277,-2.9682230949401855,1.3398547172546387
1701054433073433000,11.91043310546875,5.775498867034912,-3.0386669635772705,-1.3637866973876953
1701054433090421200,11.927421142578124,5.930976867675781,-2.8743391036987305,-2.424294948577881
1701054433107416000,11.944416015625,7.41668701171875,-4.495969772338867,-1.9217357635498047
1701054433124403500,11.961403564453125,5.968390464782715,-4.088403224945068,-2.874040126800537
1701054433141395500,11.9783955078125,4.632016181945801,-3.2623291015625,-4.171539306640625
1701054433158383600,11.995383544921875,4.172651290893555,-1.8192169666290283,-6.442598342895508
1701054433175378700,12.012378662109375,3.2095627784729004,-0.9167994260787964,-7.121339797973633
1701054433192362800,12.02936279296875,0.2623252868652344,0.09768152236938477,-6.877389907836914
1701054433209358600,12.046358642578125,0.7728314399719238,-0.5937680006027222,-6.346709728240967
1701054433226348300,12.063348388671875,2.127469062805176,-0.7738447189331055,-7.6929168701171875
1701054433243340000,12.080340087890624,3.974010467529297,-0.19748663902282715,-7.220396995544434
1701054433260329000,12.097328857421875,3.465291738510132,0.7928357124328613,-8.232224464416504
1701054433277313500,12.1143134765625,4.518061637878418,1.6438956260681152,-8.664002418518066
1701054433294310700,12.131310546875,6.971414566040039,2.04925799369812,-8.846650123596191
1701054433311302400,12.148302490234375,6.409677982330322,1.908196210861206,-8.031318664550781
1701054433328291800,12.165291748046876,3.1875338554382324,2.6927473545074463,-7.897071838378906
1701054433345283800,12.182283935546875,-0.14444828033447266,2.6973717212677,-7.897833347320557
1701054433362273500,12.1992734375,-2.317446708679199,2.1546220779418945,-7.06928825378418
1701054433379250400,12.21625048828125,-2.5306270122528076,1.7283990383148193,-6.139601707458496
1701054433396256800,12.2332568359375,-2.7421083450317383,1.231863260269165,-5.904987335205078
1701054433413250600,12.25025048828125,-2.2025368213653564,0.8070962429046631,-6.036776542663574
1701054433430236200,12.267236083984375,-1.636650562286377,0.16738033294677734,-5.942594051361084
1701054433447228000,12.284227783203125,-1.0176990032196045,-0.26837873458862305,-5.739718914031982
1701054433464216800,12.301216796875,-0.8475048542022705,-0.5869874954223633,-5.0055928230285645
1701054433481206500,12.31820654296875,-0.9558396339416504,-0.5048823356628418,-4.4672160148620605
1701054433498190600,12.335190673828125,-0.6010892391204834,-0.2066807746887207,-4.446508407592773
1701054433515169800,12.352169677734375,-0.316436767578125,-0.4857749938964844,-5.015434741973877
1701054433532171800,12.369171875,0.09224700927734375,-0.6128129959106445,-5.440093994140625
1701054433549171700,12.386171630859375,0.18967390060424805,-0.7772924900054932,-5.727844715118408
1701054433566161400,12.403161376953125,1.8370556831359863,-0.5814542770385742,-5.661524772644043
1701054433583153400,12.4201533203125,3.2263894081115723,-0.6087887287139893,-5.367530345916748
1701054433600142300,12.437142333984376,3.025676727294922,-0.40389084815979004,-4.837699890136719
1701054433617134600,12.454134521484375,2.6170296669006348,-0.2619609832763672,-4.204144477844238
1701054433634123800,12.471123779296875,2.480717658996582,-0.8335649967193604,-2.333716869354248
1701054433651113500,12.488113525390625,1.5419468879699707,-0.7584259510040283,-1.595390796661377
1701054433668107500,12.505107421875,1.5919604301452637,-0.424346923828125,-1.8638887405395508
1701054433685081900,12.522081787109375,1.982658863067627,-0.1332683563232422,-2.5726308822631836
1701054433702087000,12.5390869140625,2.372774124145508,0.7580265998840332,-2.884862184524536
1701054433719078400,12.556078369140625,3.7975144386291504,0.7593188285827637,-2.1325480937957764
1701054433736067800,12.57306787109375,3.3720130920410156,0.3727898597717285,-2.0052738189697266
1701054433753059600,12.5900595703125,3.547616958618164,-0.36126041412353516,-1.0284080505371094
1701054433770049500,12.607049560546875,3.487354278564453,-1.236443281173706,0.007256507873535156
1701054433787041000,12.624041015625,0.8131585121154785,-0.5853962898254395,0.5753664970397949
1701054433804030500,12.641030517578125,0.28351879119873047,-0.1432638168334961,1.0491793155670166
1701054433821022200,12.658022216796875,-0.14945316314697266,-0.7514164447784424,0.3605954647064209
1701054433838002000,12.675001953125,-0.4464726448059082,-1.889618158340454,0.2570674419403076
1701054433855004000,12.69200390625,0.8517322540283203,-3.4665157794952393,-0.14023733139038086
1701054433871995400,12.708995361328125,4.392600059509277,-4.045343399047852,1.1998287439346313
1701054433888985000,12.725985107421875,3.5781469345092773,-2.833062171936035,2.9072041511535645
1701054433905974500,12.742974609375,1.1502571105957031,-1.6942589282989502,3.3809146881103516
1701054433922964000,12.7599638671875,0.8953847885131836,-2.1364269256591797,3.9306585788726807
1701054433939958300,12.776958251953126,0.6352252960205078,-2.7681727409362793,4.742566108703613
1701054433956947700,12.79394775390625,1.7299375534057617,-3.5241658687591553,5.477878570556641
1701054433973924900,12.8109248046875,3.079751968383789,-3.1133761405944824,6.4160919189453125
1701054433990922500,12.827922607421876,1.03631591796875,-2.0815038681030273,7.021545886993408
1701054434007918300,12.84491845703125,0.018383026123046875,-2.727581262588501,7.028415679931641
1701054434024910600,12.86191064453125,-0.5037021636962891,-3.4752726554870605,7.322448253631592
1701054434041899800,12.878899658203125,-1.0438880920410156,-4.164851188659668,7.247143745422363
1701054434058888400,12.895888427734375,-0.6492919921875,-4.745369911193848,7.087993621826172
1701054434075884500,12.912884521484376,0.8286199569702148,-5.164974212646484,6.531103610992432
1701054434092873000,12.929873046875,3.632370948791504,-5.163939476013184,6.2952752113342285
1701054434109863000,12.94686279296875,5.238907814025879,-4.5692338943481445,7.84044075012207
1701054434126854700,12.963854736328125,3.968592643737793,-3.7131381034851074,9.01917552947998
1701054434143843800,12.98084375,2.0594053268432617,-3.4621331691741943,10.317224502563477
1701054434160835800,12.9978359375,0.30217933654785156,-3.0615041255950928,10.548818588256836
1701054434177814800,13.014814697265624,-1.290283203125,-2.2801666259765625,9.747591972351074
1701054434194817000,13.031817138671874,-2.464406967163086,-1.8890409469604492,8.258790969848633
1701054434211806500,13.048806396484375,-0.6428289413452148,-2.731748580932617,6.166849613189697
1701054434228798500,13.065798583984375,1.6455907821655273,-4.008790493011475,6.185266494750977
1701054434245788200,13.0827880859375,-0.35596370697021484,-3.852660655975342,8.470827102661133
1701054434262777900,13.09977783203125,-0.7234392166137695,-3.373270034790039,9.707118034362793
1701054434279779000,13.116779052734374,4.838528633117676,-3.110319137573242,8.9705810546875
1701054434296771300,13.133771240234376,6.2748003005981445,-2.509829044342041,8.035426139831543
1701054434313737200,13.1507373046875,5.065238952636719,-1.5856674909591675,9.89151668548584
1701054434330745600,13.16774560546875,1.1689157485961914,-0.8254561424255371,12.90684986114502
1701054434347731700,13.184731689453125,-1.3595523834228516,-0.6682976484298706,14.849695205688477
1701054434364723500,13.201723388671875,-0.9841184616088867,-1.397024154663086,13.634469985961914
1701054434381711400,13.21871142578125,3.1610822677612305,-2.6371636390686035,10.801433563232422
1701054434398707200,13.235707275390626,6.478748321533203,-3.732048511505127,8.827301025390625
1701054434415683600,13.25268359375,9.511877059936523,-3.456803321838379,7.138416767120361
1701054434432686000,13.26968603515625,10.405303001403809,-2.9494547843933105,5.805944442749023
1701054434449676000,13.286676025390625,9.270195007324219,-2.457075357437134,4.034098148345947
1701054434466668000,13.30366796875,6.648080825805664,-2.301093578338623,2.4113082885742188
1701054434483654700,13.320654541015625,4.606228828430176,-2.9715843200683594,0.9515542984008789
1701054434500651500,13.337651611328125,4.58445930480957,-3.4059948921203613,0.012353897094726562
1701054434517638700,13.354638671875,5.512223720550537,-3.6694233417510986,-1.287752628326416
1701054434534620000,13.371619873046875,7.169338226318359,-3.68847393989563,-2.9860615730285645
1701054434551619600,13.38861962890625,8.958311080932617,-3.8302834033966064,-4.842764854431152
1701054434568611300,13.405611328125,8.050033569335938,-2.403453826904297,-6.121589660644531
1701054434585601500,13.4226015625,5.906403064727783,-1.0504238605499268,-6.557168483734131
1701054434602593000,13.439593017578124,3.3972272872924805,-0.4235656261444092,-6.913191795349121
1701054434619582200,13.456582275390625,2.383309841156006,-1.0406556129455566,-9.445219993591309
1701054434636572700,13.47357275390625,4.974833011627197,-2.159256935119629,-9.912944793701172
1701054434653563100,13.490563232421875,3.6392316818237305,-1.7934849262237549,-9.409297943115234
1701054434670558700,13.507558837890626,5.696229457855225,-2.060302257537842,-9.284202575683594
1701054434687542300,13.524542236328125,7.101691246032715,-1.5577187538146973,-9.857145309448242
1701054434704539400,13.541539306640624,5.421363830566406,-0.7457818984985352,-10.455636024475098
1701054434721526500,13.558526611328125,4.765155792236328,0.11848926544189453,-9.850062370300293
1701054434738518500,13.5755185546875,4.1205925941467285,0.5231437683105469,-9.26476001739502
1701054434755507500,13.592507568359375,1.699463129043579,0.5015449523925781,-7.929479598999023
1701054434772490200,13.609490234375,1.896472454071045,0.1494464874267578,-7.247291088104248
1701054434789489400,13.626489501953126,-0.6466801166534424,-0.07209920883178711,-7.927936553955078
1701054434806478300,13.643478271484375,-3.3758585453033447,-0.3176102638244629,-6.559780120849609
1701054434823472600,13.66047265625,-3.7634994983673096,-0.43234682083129883,-5.078925132751465
1701054434840462000,13.677462158203125,-2.9964797496795654,-0.38190221786499023,-4.221912860870361
1701054434857451800,13.69445166015625,-0.7792410850524902,-0.8593578338623047,-3.1397595405578613
1701054434874444000,13.711444091796874,-0.22446823120117188,-0.9451384544372559,-3.0928268432617188
1701054434891433000,13.728432861328125,-1.6325424909591675,-1.4117240905761719,-4.997223854064941
1701054434908425000,13.745425048828125,-2.0207982063293457,-1.3073835372924805,-4.727632522583008
1701054434925412400,13.762412353515625,-1.412480354309082,-0.8375935554504395,-4.0644121170043945
1701054434942408700,13.77940869140625,-0.21755528450012207,-0.9748950004577637,-3.4234368801116943
1701054434959385000,13.796385009765626,0.8955206871032715,-1.4483914375305176,-3.5606191158294678
1701054434976387600,13.8133876953125,0.7952077388763428,-2.136533737182617,-3.8541300296783447
1701054434993375200,13.830375244140624,0.7265276908874512,-2.1758904457092285,-4.3285112380981445
1701054435010371000,13.84737109375,0.6591362953186035,-1.9306526184082031,-4.656182289123535
1701054435027358200,13.864358154296875,0.9922294616699219,-1.6837472915649414,-4.595791816711426
1701054435044350200,13.88135009765625,1.600572109222412,-1.5778703689575195,-4.646949291229248
1701054435061340000,13.89833984375,1.8169655799865723,-1.5882010459899902,-4.539400100708008
1701054435078332000,13.915331787109375,1.3951754570007324,-1.7415757179260254,-4.50836181640625
1701054435095314700,13.932314697265625,1.2801589965820312,-1.6339364051818848,-4.418330192565918
1701054435112312800,13.949312744140625,1.4790844917297363,-1.4232726097106934,-3.700800895690918
1701054435129302800,13.966302734375,0.7887086868286133,-1.1747961044311523,-2.876115322113037
1701054435146283800,13.98328369140625,1.0337204933166504,-1.1558833122253418,-2.814316749572754
1701054435163283700,14.00028369140625,2.166956901550293,-1.7307970523834229,-2.573502779006958
1701054435180275500,14.017275390625,2.7416114807128906,-1.978665828704834,-1.9360227584838867
1701054435197265200,14.03426513671875,1.5415220260620117,-1.4442133903503418,-0.6892819404602051
1701054435214246400,14.051246337890625,-0.8169145584106445,-0.7185425758361816,0.7540583610534668
1701054435231249000,14.068248779296875,-1.2396526336669922,-0.6356916427612305,1.0636591911315918
1701054435248238300,14.08523828125,0.18006420135498047,-0.7158093452453613,0.9853930473327637
1701054435265215700,14.1022158203125,1.7193808555603027,-0.9787039756774902,1.4857263565063477
1701054435282209000,14.119208984375,0.6670212745666504,-1.1895999908447266,2.5338029861450195
1701054435299211300,14.136211181640626,0.9350447654724121,-1.6524486541748047,3.618165969848633
1701054435316195000,14.153195068359375,1.5629162788391113,-1.8301875591278076,3.6752676963806152
1701054435333183200,14.170183349609376,2.01102352142334,-2.065429449081421,3.611790895462036
1701054435350171600,14.187171630859375,2.0736875534057617,-2.091826915740967,4.764707565307617
1701054435367167700,14.204167724609375,-0.8554396629333496,-1.7604522705078125,5.7402496337890625
1701054435384156000,14.221156005859376,-2.1176366806030273,-1.7731733322143555,7.322999000549316
1701054435401141200,14.238141357421876,-0.125213623046875,-2.3545031547546387,7.867443084716797
1701054435418136600,14.255136474609374,2.6662654876708984,-2.657672643661499,7.905157089233398
1701054435435129900,14.2721298828125,4.702235221862793,-3.189298391342163,8.647212028503418
1701054435452123600,14.28912353515625,2.7104597091674805,-2.7253055572509766,8.025943756103516
1701054435469107000,14.30610693359375,-1.4709420204162598,-2.0331597328186035,8.880023002624512
1701054435486104800,14.323104736328125,-2.753262519836426,-2.4016237258911133,9.701733589172363
1701054435503086800,14.3400869140625,0.7516059875488281,-3.1654698848724365,10.10528564453125
1701054435520081200,14.3570810546875,2.1422348022460938,-3.108574151992798,8.967985153198242
1701054435537075000,14.374074951171876,2.0207576751708984,-2.7852232456207275,7.5612335205078125
1701054435554066400,14.39106640625,2.160374641418457,-2.7063050270080566,6.680795669555664
1701054435571051500,14.408051513671875,0.8022937774658203,-2.5151422023773193,7.293625831604004
1701054435588042200,14.425042236328125,-1.5721030235290527,-2.103483200073242,9.072349548339844
1701054435605036500,14.44203662109375,-3.788074493408203,-2.5709052085876465,9.740863800048828
1701054435622030000,14.459030029296875,-5.939422607421875,-1.7048053741455078,11.40273380279541
1701054435639014400,14.476014404296874,-9.6279935836792,-0.030498743057250977,10.3899507522583
1701054435656004000,14.493004150390625,-7.553831577301025,0.12020230293273926,8.40884780883789
1701054435672994300,14.509994384765625,-2.166865825653076,-2.042109251022339,5.27797269821167
1701054435689998600,14.52699853515625,1.2788515090942383,-3.7589993476867676,5.074275493621826
1701054435706984700,14.543984619140625,1.536940097808838,-3.948375701904297,6.901888847351074
1701054435723976700,14.560976806640625,2.271634578704834,-2.3399455547332764,7.282151222229004
1701054435740966100,14.577966064453125,4.7885284423828125,-1.3009626865386963,6.240653991699219
1701054435757944800,14.59494482421875,4.891828536987305,-0.8270823955535889,6.514532089233398
1701054435774948900,14.611948974609374,1.443009376525879,-0.21031928062438965,7.5453643798828125
1701054435791938300,14.628938232421875,-5.306736946105957,0.3327651023864746,9.643841743469238
1701054435808929300,14.64592919921875,-7.647911548614502,0.23084425926208496,10.616912841796875
1701054435825917200,14.662917236328125,-2.238640785217285,-1.5846201181411743,7.996974945068359
1701054435842913800,14.679913818359376,4.858906269073486,-2.8299269676208496,6.757843017578125
1701054435859902000,14.69690185546875,7.179508209228516,-2.902160167694092,5.135556697845459
1701054435876892000,14.713891845703126,7.606390953063965,-2.5183517932891846,4.815019130706787
1701054435893881000,14.730881103515625,5.140679359436035,-1.8149276971817017,4.207568645477295
1701054435910875400,14.74787548828125,2.610628604888916,-1.6004703044891357,5.1448774337768555
1701054435927864800,14.76486474609375,0.8287434577941895,-1.3039324283599854,5.108168125152588
1701054435944854500,14.7818544921875,1.5797834396362305,-1.5564661026000977,4.534350395202637
1701054435961846500,14.798846435546874,3.009371757507324,-1.9081337451934814,3.0326738357543945
1701054435978834200,14.815834228515625,5.7545881271362305,-1.8866147994995117,2.689854145050049
1701054435995828500,14.832828369140625,8.443355560302734,-1.3423001766204834,1.4407238960266113
1701054436012817200,14.849817138671876,9.3892822265625,-1.212756872177124,-0.2756810188293457
1701054436029809200,14.86680908203125,9.344705581665039,-1.2972111701965332,-1.6974844932556152
1701054436046798000,14.883798095703124,8.651056289672852,-1.6392269134521484,-2.5097665786743164
1701054436063790000,14.9007900390625,7.461495876312256,-1.9387500286102295,-3.8188068866729736
1701054436080779500,14.917779541015625,3.2927825450897217,-1.7865984439849854,-5.601383209228516
1701054436097759700,14.934759765625,3.292971134185791,-0.36777496337890625,-5.7680158615112305
1701054436114760400,14.951760498046875,3.240034818649292,0.3450641632080078,-8.068291664123535
1701054436131742200,14.9687421875,3.6149091720581055,-0.6880443096160889,-9.050272941589355
1701054436148742400,14.985742431640626,6.5116729736328125,-0.38020896911621094,-7.564842700958252
1701054436165734400,15.002734375,7.509659767150879,-0.9404036998748779,-8.59924030303955
1701054436182718700,15.01971875,6.329216957092285,-0.5158143043518066,-7.7523393630981445
1701054436199715300,15.03671533203125,3.6256179809570312,-0.3413829803466797,-7.214890956878662
1701054436216705000,15.053705078125,3.42075252532959,0.3382244110107422,-7.221763610839844
1701054436233692400,15.0706923828125,1.6356053352355957,0.48901844024658203,-8.46394157409668
1701054436250690300,15.087690185546874,0.7144885063171387,-0.3263669013977051,-8.430042266845703
1701054436267676000,15.104676025390624,0.7495331764221191,-0.7015547752380371,-7.800439357757568
1701054436284669700,15.121669677734374,-1.355460524559021,-0.728365421295166,-7.053304672241211
1701054436301671000,15.1386708984375,-2.1893229484558105,-0.5661826133728027,-5.844376087188721
1701054436318648600,15.155648681640624,-1.041771411895752,0.14943885803222656,-5.128406524658203
1701054436335640800,15.172640869140626,-0.06718909740447998,0.4296412467956543,-5.225654602050781
1701054436352630300,15.18963037109375,1.2106258869171143,-0.11001300811767578,-3.9617719650268555
1701054436369622000,15.2066220703125,0.6532045602798462,-0.7297978401184082,-3.932129383087158
1701054436386611200,15.223611083984375,-0.18028855323791504,-0.7785978317260742,-3.8397178649902344
1701054436403603500,15.240603515625,0.875481128692627,-0.6605343818664551,-3.378896713256836
1701054436420593000,15.257593017578126,2.51047945022583,-0.523798942565918,-3.6068453788757324
1701054436437585000,15.2745849609375,2.7253355979919434,-0.6744060516357422,-4.237377166748047
1701054436454572000,15.291572021484376,2.7357656955718994,-1.0382757186889648,-4.173927307128906
1701054436471567600,15.308567626953124,2.3219692707061768,-1.35551118850708,-4.830906867980957
1701054436488555500,15.325555419921875,1.6853282451629639,-1.3707828521728516,-4.596199035644531
1701054436505547300,15.34254736328125,1.2509043216705322,-1.4064221382141113,-4.108654022216797
1701054436522519000,15.35951904296875,1.293238639831543,-1.473066806793213,-4.345882415771484
1701054436539529200,15.376529296875,2.0609779357910156,-1.673196792602539,-4.730319976806641
1701054436556518000,15.393517822265625,4.456082344055176,-1.8756489753723145,-5.633703231811523
1701054436573510100,15.41051025390625,4.806971073150635,-1.857856273651123,-4.977675914764404
1701054436590499300,15.427499267578124,2.5006749629974365,-1.555521011352539,-3.4976325035095215
1701054436607491300,15.4444912109375,0.6242806911468506,-1.1122064590454102,-1.37457275390625
1701054436624481000,15.46148095703125,0.4688124656677246,-0.7065935134887695,-0.5783524513244629
1701054436641473000,15.47847314453125,0.5338039398193359,-0.6991481781005859,-0.368072509765625
1701054436658462000,15.4954619140625,0.49794864654541016,-0.2931699752807617,-0.25327014923095703
1701054436675454000,15.512453857421875,1.1644768714904785,0.47440338134765625,0.051156044006347656
1701054436692433000,15.529432861328125,0.08730363845825195,1.191490650177002,0.9715595245361328
1701054436709435400,15.546435302734375,-1.2390086650848389,1.3701348304748535,2.275637626647949
1701054436726424600,15.563424560546874,-0.9212121963500977,0.0451817512512207,2.841458320617676
1701054436743416600,15.58041650390625,-0.7308359146118164,-0.5832610130310059,1.8434371948242188
1701054436760406300,15.59740625,0.6266608238220215,-0.9114513397216797,1.2863531112670898
1701054436777396700,15.614396728515626,1.6781764030456543,-0.42534494400024414,1.6043109893798828
1701054436794388500,15.631388427734375,1.21885347366333,-0.6340904235839844,2.6078200340270996
1701054436811379200,15.648379150390625,-0.3505363464355469,-1.1868829727172852,4.009671688079834
1701054436828369000,15.665368896484376,0.10682058334350586,-1.6258859634399414,3.4046754837036133
1701054436845361000,15.68236083984375,1.7959814071655273,-1.6313886642456055,2.612058639526367
1701054436862349800,15.699349853515624,2.2489962577819824,-2.196183919906616,2.564545154571533
1701054436879331300,15.716331298828125,0.5100250244140625,-2.474928379058838,2.5583596229553223
1701054436896331300,15.733331298828125,-1.0565690994262695,-2.299592971801758,3.293955087661743
1701054436913316600,15.750316650390625,-0.5392417907714844,-2.191138744354248,3.1658358573913574
1701054436930312400,15.7673125,0.6425848007202148,-2.4502346515655518,3.2207508087158203
1701054436947304700,15.7843046875,1.5608453750610352,-2.8817601203918457,4.2220869064331055
1701054436964294100,15.801294189453126,0.20682573318481445,-2.9163451194763184,5.35453987121582
1701054436981286000,15.818285888671875,-1.0851325988769531,-2.037101984024048,6.080080986022949
1701054436998275000,15.835275146484374,-0.4610729217529297,-1.7628812789916992,6.813272953033447
1701054437015267300,15.852267333984376,0.8658952713012695,-1.9529762268066406,6.855350494384766
1701054437032256500,15.869256591796875,1.4384589195251465,-2.18684983253479,7.3319172859191895
1701054437049248800,15.886248779296874,1.1062602996826172,-2.2828564643859863,8.150330543518066
1701054437066238000,15.903238037109375,0.40355491638183594,-2.21610164642334,8.176472663879395
1701054437083229700,15.920229736328125,-1.1449527740478516,-1.868626356124878,8.073902130126953
1701054437100219400,15.937219482421876,-2.1123404502868652,-1.996180772781372,8.007913589477539
1701054437117211400,15.95421142578125,-1.0045056343078613,-2.2273545265197754,7.3263983726501465
1701054437134200300,15.971200439453124,-0.07407665252685547,-2.1514437198638916,5.720385551452637
1701054437151189800,15.988189697265625,0.8336095809936523,-2.110375165939331,5.012354850769043
1701054437168173300,16.00517333984375,2.225123405456543,-1.7582485675811768,6.870528697967529
1701054437185174500,16.022174560546876,-2.1729888916015625,-1.6969995498657227,7.659165859222412
1701054437202163200,16.0391630859375,-8.658047676086426,-1.0223069190979004,11.730667114257812
1701054437219152400,16.05615234375,-10.583969116210938,-0.5841572284698486,12.369112968444824
1701054437236143900,16.073143798828124,-6.329315185546875,-1.9675408601760864,8.149068832397461
1701054437253136600,16.09013671875,-0.9336338043212891,-4.164085865020752,5.340433597564697
1701054437270125600,16.10712548828125,3.398388385772705,-4.531374931335449,5.61480188369751
1701054437287117600,16.12411767578125,4.435389041900635,-3.8491997718811035,6.368229866027832
1701054437304105700,16.141105712890624,4.222584247589111,-2.354783535003662,7.7002272605896
1701054437321101000,16.15810107421875,5.576338768005371,-1.3773510456085205,6.44677734375
1701054437338078000,16.175077880859376,4.616891860961914,-0.8679697513580322,5.90618371963501
1701054437355076900,16.192076904296876,1.178654670715332,-0.12349390983581543,6.873097896575928
1701054437372072700,16.20907275390625,-5.324362277984619,0.7637269496917725,9.185125350952148
1701054437389062000,16.226061767578123,-9.253896713256836,1.2200798988342285,11.62791919708252
1701054437406051000,16.243051025390624,-5.920822620391846,-0.11822748184204102,9.299356460571289
1701054437423043000,16.26004296875,1.773674488067627,-2.0740275382995605,6.401027202606201
1701054437440032800,16.27703271484375,6.35189962387085,-2.932929515838623,5.095860481262207
1701054437457024800,16.294024658203124,7.601876258850098,-2.7426071166992188,4.677657604217529
1701054437474013700,16.311013671875,5.834810733795166,-1.0247652530670166,4.83458948135376
1701054437491003000,16.3280029296875,3.8370866775512695,-0.4354369640350342,5.216954708099365
1701054437507998000,16.344998046875,3.0676469802856445,-1.0128717422485352,4.575911521911621
1701054437524987400,16.3619873046875,2.2731409072875977,-1.4329557418823242,3.79575252532959
1701054437541976600,16.3789765625,2.0343518257141113,-1.2967822551727295,4.447075366973877
1701054437558968600,16.395968505859376,3.509158134460449,-1.0945639610290527,3.6554412841796875
1701054437575957800,16.412957763671876,6.576282024383545,-1.6930150985717773,1.9587397575378418
1701054437592949800,16.42994970703125,9.36075210571289,-2.1064724922180176,0.38532400131225586
1701054437609939000,16.44693896484375,9.86126708984375,-2.0385661125183105,-1.1843042373657227
1701054437626931000,16.463930908203125,8.70621109008789,-0.8017556667327881,-2.1879138946533203
1701054437643920600,16.480920654296874,8.647791862487793,0.10231828689575195,-3.803474187850952
1701054437660902000,16.49790185546875,8.566023826599121,0.24695110321044922,-5.574196815490723
1701054437677901600,16.514901611328124,8.313848495483398,0.24085044860839844,-7.256653785705566
1701054437694896400,16.531896484375,6.865827560424805,-0.3347921371459961,-9.274286270141602
1701054437711880700,16.548880615234374,6.601256370544434,-0.9518389701843262,-10.871868133544922
1701054437728875300,16.565875244140624,5.342307090759277,-1.5169601440429688,-11.770788192749023
1701054437745864200,16.5828642578125,4.337057113647461,-0.8244094848632812,-10.819851875305176
1701054437762845700,16.599845703125,5.530729293823242,-0.2105555534362793,-9.073366165161133
1701054437779842600,16.616842529296875,5.2529296875,0.11653852462768555,-8.340011596679688
1701054437796837600,16.633837646484373,3.5649185180664062,0.2631855010986328,-7.439496994018555
1701054437813824000,16.650823974609374,0.6182365417480469,-0.10175323486328125,-7.676438331604004
1701054437830821400,16.6678212890625,-2.222278594970703,-0.1366596221923828,-6.717966079711914
1701054437847808800,16.684808837890625,-2.9041614532470703,-1.540006399154663,-4.009860038757324
1701054437864798000,16.7017978515625,-3.2774477005004883,-2.0791749954223633,-2.9494924545288086
1701054437881792000,16.7187919921875,-4.532108306884766,-1.695530891418457,-2.671077251434326
1701054437898781400,16.735781494140625,-2.919356346130371,-1.3216791152954102,-3.716212272644043
1701054437915771100,16.752771240234374,-0.6775388717651367,-0.8278303146362305,-4.211634635925293
1701054437932763000,16.769762939453123,0.0571284294128418,-0.7589726448059082,-4.3173065185546875
1701054437949741600,16.786741455078126,0.5834418535232544,-1.523531436920166,-3.410586357116699
1701054437966744300,16.803744384765626,1.4497514963150024,-2.0778722763061523,-3.7830915451049805
1701054437983734300,16.820734375,2.277534008026123,-2.0527799129486084,-4.781365394592285
1701054438000725200,16.837725341796876,2.740800142288208,-1.8812930583953857,-5.459320545196533
1701054438017702400,16.854702392578126,3.0063858032226562,-1.5042109489440918,-6.044746398925781
1701054438034707000,16.87170703125,3.519153356552124,-1.5016765594482422,-5.96970796585083
1701054438051696400,16.8886962890625,3.8517367839813232,-1.8259658813476562,-5.6125078201293945
1701054438068688100,16.905688232421873,3.0250065326690674,-2.004870891571045,-5.118615627288818
1701054438085677600,16.922677490234374,1.6438515186309814,-1.8238005638122559,-4.805920600891113
1701054438102669600,16.939669677734376,1.4795396327972412,-1.614271640777588,-5.001970291137695
1701054438119659000,16.956658935546876,2.8619298934936523,-1.8357954025268555,-4.866305351257324
1701054438136651000,16.973651123046874,3.9636878967285156,-2.4103620052337646,-4.745665073394775
1701054438153640200,16.99064013671875,3.0479183197021484,-1.709455966949463,-4.400816440582275
1701054438170632200,17.007632080078125,2.0576019287109375,-0.7354960441589355,-3.4733922481536865
1701054438187619000,17.024619140625,1.8204107284545898,-0.37588024139404297,-2.8730289936065674
1701054438204616200,17.0416162109375,2.214301586151123,-0.30246543884277344,-2.114461660385132
1701054438221602600,17.0586025390625,2.7789101600646973,-0.7987637519836426,-1.5065152645111084
1701054438238594800,17.0755947265625,3.7042131423950195,-0.7329611778259277,-1.158689022064209
1701054438255584300,17.092584228515626,0.9158296585083008,-0.3989138603210449,0.5158901214599609
1701054438272573700,17.10957373046875,-0.6551179885864258,0.04407215118408203,1.8944048881530762
1701054438289557200,17.12655712890625,0.1565709114074707,0.12575197219848633,1.3496904373168945
1701054438306557200,17.14355712890625,0.2564578056335449,0.04521608352661133,1.316309928894043
1701054438323536400,17.160536376953125,0.5770654678344727,-0.2661275863647461,2.077303409576416
1701054438340539000,17.177538818359373,1.2359929084777832,-0.8435263633728027,3.515233039855957
1701054438357528000,17.194528076171874,-0.24152517318725586,-0.6390380859375,4.306412220001221
1701054438374520000,17.21152001953125,0.18135929107666016,-0.4676370620727539,4.593556880950928
1701054438391509800,17.228509765625,0.9396123886108398,-1.1430587768554688,3.6695566177368164
1701054438408501500,17.24550146484375,1.1658172607421875,-1.4828801155090332,3.920344114303589
1701054438425480000,17.26247998046875,0.8068256378173828,-1.7245802879333496,3.9930684566497803
1701054438442471400,17.279471435546874,0.3374767303466797,-2.1138484477996826,4.198234558105469
1701054438459472400,17.296472412109374,-0.6085777282714844,-2.151756763458252,4.277402877807617
1701054438476461800,17.3134619140625,-1.2792634963989258,-1.8442931175231934,4.3629350662231445
1701054438493455600,17.33045556640625,-0.17224788665771484,-2.1630473136901855,5.181415557861328
1701054438510435800,17.347435791015624,1.7689166069030762,-2.549086570739746,5.952668190002441
1701054438527435000,17.36443505859375,3.5873336791992188,-2.8568291664123535,5.561014175415039
1701054438544426800,17.3814267578125,2.640329360961914,-2.0796031951904297,5.538331985473633
1701054438561416200,17.398416259765625,0.1328563690185547,-1.4342100620269775,6.292607307434082
1701054438578408000,17.415407958984375,-1.0109825134277344,-1.3598384857177734,7.135495662689209
1701054438595397400,17.4323974609375,-0.45476579666137695,-1.7357821464538574,7.623617649078369
1701054438612389600,17.4493896484375,1.3897247314453125,-2.2356386184692383,7.546144008636475
1701054438629378800,17.46637890625,2.4502487182617188,-2.41239857673645,6.823765754699707
1701054438646370600,17.48337060546875,2.3205127716064453,-2.228118658065796,6.180347442626953
1701054438663358700,17.500358642578124,0.3491220474243164,-2.1043496131896973,5.861185073852539
1701054438680354000,17.51735400390625,-2.1694626808166504,-2.13435959815979,6.326682090759277
1701054438697328600,17.53432861328125,-2.375180244445801,-2.519259452819824,6.849875450134277
1701054438714325000,17.551324951171875,-0.10781717300415039,-2.9348292350769043,7.2854413986206055
1701054438731317500,17.5683173828125,-0.6609950065612793,-2.3719918727874756,6.340301990509033
1701054438748315000,17.58531494140625,-5.3812713623046875,-2.739102363586426,9.436481475830078
1701054438765291500,17.60229150390625,-12.442540168762207,-1.230787992477417,10.962406158447266
1701054438782286800,17.619286865234375,-6.99880838394165,-1.4639320373535156,8.308252334594727
1701054438799275000,17.63627490234375,-0.537285327911377,-3.151942729949951,5.284767150878906
1701054438816269600,17.65326953125,0.4404478073120117,-5.204606533050537,2.6500563621520996
1701054438833259500,17.670259521484375,2.4077601432800293,-4.549021244049072,4.997350215911865
1701054438850250200,17.687250244140625,3.9670863151550293,-2.7224254608154297,5.7414984703063965
1701054438867240700,17.70424072265625,4.560547828674316,-1.8068349361419678,7.187525272369385
1701054438884230400,17.72123046875,5.335245609283447,-1.0903921127319336,7.0691609382629395
1701054438901219000,17.738218994140624,4.161777019500732,-0.792736291885376,6.70542573928833
1701054438918210000,17.7552099609375,0.8169384002685547,-0.4505345821380615,7.691493511199951
1701054438935202800,17.772202880859375,-6.11537504196167,0.9148659706115723,9.257681846618652
1701054438952197600,17.78919775390625,-11.325448036193848,1.866931438446045,10.999303817749023
1701054438969186300,17.806186279296874,-9.021114349365234,0.9790747165679932,9.503211975097656
1701054438986172400,17.82317236328125,-1.337137222290039,-1.8649907112121582,6.911722183227539
1701054439003165400,17.84016552734375,3.8159685134887695,-3.4588897228240967,5.316961765289307
1701054439020155000,17.85715478515625,6.634136199951172,-2.974201202392578,5.735985279083252
1701054439037147400,17.8741474609375,6.258535861968994,-2.0650887489318848,6.385285377502441
1701054439054138400,17.891138427734376,5.554575443267822,-1.2461938858032227,5.558629989624023
1701054439071126300,17.908126220703124,3.6681580543518066,-0.8720338344573975,3.9921555519104004
1701054439088119800,17.925119873046874,0.5891647338867188,-1.0215442180633545,3.705245018005371
1701054439105107000,17.94210693359375,-0.5687570571899414,-1.2714667320251465,3.5521883964538574
1701054439122101800,17.959101806640625,1.8358063697814941,-1.7254397869110107,3.723278522491455
1701054439139098600,17.9760986328125,4.066898345947266,-1.2350108623504639,3.859494209289551
1701054439156090600,17.993090576171873,6.3594536781311035,-0.761462926864624,2.3266119956970215
1701054439173069000,18.010069091796876,9.189109802246094,-1.3969566822052002,0.004134178161621094
1701054439190071800,18.02707177734375,9.84487247467041,-1.5238690376281738,-1.2874674797058105
1701054439207061500,18.0440615234375,7.6575117111206055,-1.5056588649749756,-2.345365524291992
1701054439224053500,18.061053466796874,8.930618286132812,-1.3839616775512695,-3.1444106101989746
1701054439241042200,18.078042236328123,8.040496826171875,-0.9127762317657471,-6.228160858154297
1701054439258031400,18.09503125,6.278537750244141,-0.36658716201782227,-7.555203437805176
1701054439275014000,18.112013916015623,5.920010089874268,-0.35954713821411133,-9.193470001220703
1701054439292015900,18.129015869140623,3.3607301712036133,-0.7607464790344238,-10.915304183959961
1701054439309002200,18.146002197265624,1.401930332183838,-0.8228380680084229,-7.99338960647583
1701054439325999900,18.162999755859374,0.7316207885742188,-0.8710992336273193,-7.245497226715088
1701054439342984400,18.179984375,2.2470898628234863,-0.2884254455566406,-6.441298484802246
1701054439359981000,18.19698095703125,3.8536839485168457,-0.06194114685058594,-5.883628845214844
1701054439376961000,18.2139609375,5.479050636291504,0.03432512283325195,-4.831423759460449
1701054439393960700,18.230960693359375,6.221323013305664,0.463376522064209,-4.778955459594727
1701054439410948400,18.2479482421875,5.749958038330078,0.6316280364990234,-6.464907646179199
1701054439427941400,18.26494140625,4.95140266418457,0.9920024871826172,-6.303126811981201
1701054439444930300,18.281930419921874,2.0203654766082764,0.8824105262756348,-5.279911518096924
1701054439461922300,18.29892236328125,-0.007641792297363281,0.5919632911682129,-3.7819442749023438
1701054439478912000,18.315912109375,-0.43144965171813965,0.22135162353515625,-3.0473499298095703
1701054439495904000,18.332904052734374,-0.13605356216430664,-0.20934486389160156,-3.201204776763916
1701054439512895700,18.349895751953124,-0.09897899627685547,-0.24167108535766602,-3.9981086254119873
1701054439529881600,18.366881591796876,0.08069515228271484,-0.42293310165405273,-4.633458137512207
1701054439546875400,18.38387548828125,0.7587974071502686,-0.6227712631225586,-5.000801086425781
1701054439563875000,18.400875,1.2312707901000977,-0.7838540077209473,-5.514979362487793
1701054439580855600,18.41785546875,-0.0031938552856445312,-1.0249443054199219,-5.756831645965576
1701054439597853700,18.434853759765623,-0.6417993307113647,-1.1303253173828125,-5.521630764007568
1701054439614837000,18.4518369140625,-0.09649014472961426,-1.1083102226257324,-5.425400733947754
1701054439631829200,18.468829345703124,-0.06713414192199707,-1.407890796661377,-6.239163875579834
1701054439648808000,18.485807861328126,0.929267406463623,-1.3326797485351562,-5.445657730102539
1701054439665810200,18.50281005859375,0.722383975982666,-1.5318570137023926,-4.821773529052734
1701054439682799900,18.5197998046875,-0.7526648044586182,-1.614919662475586,-5.320137023925781
1701054439699792000,18.5367919921875,-0.8447871208190918,-1.445115566253662,-5.418487071990967
1701054439716781000,18.553781005859374,0.771216630935669,-1.0379729270935059,-4.919399261474609
1701054439733775400,18.570775390625,2.496178388595581,-1.2255325317382812,-4.415578842163086
1701054439750759400,18.587759521484376,3.272049903869629,-1.3314642906188965,-3.8752729892730713
1701054439767748600,18.60474853515625,2.5652809143066406,-0.8081226348876953,-3.30972957611084
1701054439784743400,18.621743408203123,1.7622852325439453,-0.2572813034057617,-3.140510320663452
1701054439801735400,18.6387353515625,2.668224811553955,-0.6334691047668457,-2.219916343688965
1701054439818725000,18.65572509765625,3.0031204223632812,-1.3524293899536133,-1.0631580352783203
1701054439835716900,18.672716796875,2.4455952644348145,-1.0096659660339355,-0.5980095863342285
1701054439852697300,18.689697265625,1.7244362831115723,-0.38826799392700195,0.7344603538513184
1701054439869698300,18.7066982421875,0.698021411895752,0.22679758071899414,0.7092905044555664
1701054439886687700,18.723687744140626,0.45629262924194336,-0.1828303337097168,0.2329411506652832
1701054439903679700,18.7406796875,1.2310528755187988,-1.3243818283081055,0.8239846229553223
1701054439920669000,18.7576689453125,2.6929636001586914,-2.0680534839630127,1.2588520050048828
1701054439937661000,18.774660888671875,2.3108487129211426,-2.076201915740967,1.0190157890319824
1701054439954650400,18.791650390625,2.209679126739502,-1.8607370853424072,1.1474380493164062
1701054439971639800,18.808639892578125,2.9617819786071777,-1.9828433990478516,1.688704252243042
1701054439988634000,18.825634033203126,2.1165332794189453,-2.2996411323547363,2.4297986030578613
1701054440005623300,18.842623291015624,0.6371984481811523,-2.605806827545166,3.3467679023742676
1701054440022613000,18.859613037109376,-0.17905330657958984,-1.7334871292114258,3.5216734409332275
1701054440039605000,18.87660498046875,0.8004255294799805,-2.0528817176818848,4.049574851989746
1701054440056594400,18.893594482421875,2.355774402618408,-2.5357189178466797,4.4766340255737305
1701054440073583600,18.91058349609375,1.0420970916748047,-2.49391508102417,3.8197691440582275
1701054440090577200,18.9275771484375,-0.33248233795166016,-2.2229700088500977,4.7463178634643555
1701054440107569000,18.94456884765625,-0.5711517333984375,-1.707019567489624,4.988581657409668
1701054440124554200,18.96155419921875,0.42710304260253906,-1.9329774379730225,4.807690620422363
1701054440141563400,18.9785634765625,1.5100202560424805,-2.366713285446167,4.893749237060547
1701054440158538000,18.9955380859375,1.544499397277832,-1.9591866731643677,4.708322525024414
1701054440175530200,19.0125302734375,0.2124347686767578,-1.3457767963409424,5.31207799911499
1701054440192519400,19.02951953125,-1.1576905250549316,-1.5331255197525024,6.246101379394531
1701054440209511400,19.046511474609375,-0.9472241401672363,-1.7662514448165894,6.782362461090088
1701054440226501000,19.063501220703124,-0.6381130218505859,-2.17362117767334,6.790935516357422
1701054440243492900,19.080492919921873,1.1768159866333008,-2.793309211730957,7.037281036376953
1701054440260482000,19.09748193359375,3.03702449798584,-2.951643228530884,6.433600902557373
1701054440277473800,19.114473876953124,3.3050947189331055,-2.731658697128296,6.891571998596191
1701054440294463500,19.13146337890625,2.235445022583008,-2.87768816947937,8.185470581054688
1701054440311455500,19.14845556640625,2.2587175369262695,-2.839845895767212,10.789337158203125
1701054440328435700,19.165435791015625,-3.6564531326293945,-2.1568856239318848,7.732300281524658
1701054440345423600,19.182423583984374,-4.83815860748291,-1.7267299890518188,10.375526428222656
1701054440362417700,19.199417724609376,-5.077342510223389,-0.7011817693710327,9.828045845031738
1701054440379419600,19.216419677734375,0.6992864608764648,-0.09116172790527344,7.1121826171875
1701054440396407300,19.2334072265625,-2.524472713470459,-2.6126210689544678,2.2444510459899902
1701054440413392400,19.250392333984376,0.06433868408203125,-4.943497180938721,2.496659755706787
1701054440430382800,19.2673828125,2.9654664993286133,-4.696079254150391,3.473925828933716
1701054440447380700,19.284380615234376,2.552578926086426,-2.694246530532837,3.8380374908447266
1701054440464370000,19.301369873046873,2.63187313079834,-2.26639723777771,4.633362293243408
1701054440481362000,19.31836181640625,2.6201229095458984,-2.2197866439819336,5.691202163696289
1701054440498351400,19.335351318359375,-0.8278355598449707,-1.795168161392212,6.895564556121826
1701054440515343400,19.35234326171875,-4.407598495483398,-1.2609268426895142,9.140335083007812
1701054440532332500,19.36933251953125,-7.25776481628418,-0.41520142555236816,11.355047225952148
1701054440549319000,19.38631884765625,-7.765571594238281,-0.27339887619018555,10.794490814208984
1701054440566314200,19.403314208984376,-1.4734578132629395,-1.2938663959503174,7.738744258880615
1701054440583306200,19.42030615234375,3.4983177185058594,-2.0478315353393555,6.826229572296143
1701054440600295000,19.437294921875,3.797867774963379,-1.9529485702514648,6.364947319030762
1701054440617288700,19.454288818359377,2.983877182006836,-1.5745424032211304,6.8246684074401855
1701054440634276900,19.47127685546875,3.0509824752807617,-1.1177960634231567,7.00851583480835
1701054440651268600,19.4882685546875,3.6610121726989746,-0.9756782054901123,6.639110565185547
1701054440668257800,19.5052578125,3.0894389152526855,-1.2457892894744873,5.870090961456299
1701054440685254400,19.52225439453125,2.2105331420898438,-1.3967208862304688,6.420788764953613
1701054440702239200,19.5392392578125,2.469944477081299,-1.6683446168899536,6.004898548126221
1701054440719225300,19.556225341796875,4.805847644805908,-1.941666603088379,5.033350944519043
1701054440736220700,19.573220703125,6.372939586639404,-1.7986290454864502,3.632810115814209
1701054440753212400,19.59021240234375,6.489363193511963,-1.960585594177246,2.066394329071045
1701054440770202000,19.6072021484375,5.204507350921631,-2.6648123264312744,0.15213632583618164
1701054440787193900,19.62419384765625,4.504303455352783,-3.4247665405273438,-0.8715243339538574
1701054440804183300,19.641183349609374,3.8363919258117676,-3.7457354068756104,-0.9625453948974609
1701054440821175300,19.65817529296875,4.800562381744385,-2.881801128387451,-0.9101533889770508
1701054440838154200,19.675154296875,6.676676273345947,-2.435425281524658,-1.769392490386963
1701054440855143700,19.692143798828123,8.062738418579102,-2.565361976623535,-3.8198482990264893
1701054440872138000,19.709137939453125,7.462047100067139,-2.074673652648926,-6.555821895599365
1701054440889135400,19.72613525390625,3.671635627746582,-2.554920196533203,-9.50454330444336
1701054440906130000,19.7431298828125,0.7097954750061035,-2.484592914581299,-10.006936073303223
1701054440923119400,19.760119384765623,2.220999240875244,-2.1665213108062744,-8.871192932128906
1701054440940108500,19.777108642578124,5.586742877960205,-1.709681749343872,-7.816983699798584
1701054440957089800,19.79408984375,7.652057647705078,0.1899242401123047,-8.515019416809082
1701054440974092500,19.811092529296875,8.763158798217773,2.023449420928955,-9.667726516723633
1701054440991079200,19.8280791015625,8.383970260620117,2.5286340713500977,-11.749444961547852
1701054441008071000,19.84507080078125,5.81901741027832,2.3006930351257324,-10.415620803833008
1701054441025063200,19.862063232421875,2.4870805740356445,0.7554125785827637,-8.068940162658691
1701054441042052600,19.879052490234375,-1.5216712951660156,0.39295053482055664,-5.866518974304199
1701054441059044400,19.89604443359375,-3.236499309539795,0.786919116973877,-3.697944164276123
1701054441076033800,19.91303369140625,-1.938950538635254,1.4366765022277832,-3.261866569519043
1701054441093025800,19.93002587890625,-0.88775634765625,1.7240643501281738,-4.893558979034424
1701054441110013000,19.947012939453124,-0.26860666275024414,1.585268497467041,-4.422771453857422
1701054441127007000,19.964007080078126,0.9684433937072754,0.13050079345703125,-2.2494192123413086
1701054441143999000,19.9809990234375,1.472388505935669,-0.6391358375549316,-0.8375916481018066
1701054441160988400,19.997988525390625,-0.9380738735198975,-0.44380855560302734,-2.0774593353271484
1701054441177987800,20.01498779296875,-0.3782072067260742,-0.03232240676879883,-3.3178863525390625
1701054441194967800,20.0319677734375,0.8249742984771729,0.20232439041137695,-4.838611125946045
1701054441211960800,20.0489609375,1.6716699600219727,-0.11181449890136719,-5.793697834014893
1701054441228948200,20.0659482421875,2.5338258743286133,-0.9473371505737305,-5.63358736038208
1701054441245943300,20.082943359375,2.8563127517700195,-1.5359296798706055,-5.180009841918945
1701054441262932500,20.099932373046876,2.255514621734619,-1.6696925163269043,-4.6008405685424805
1701054441279921700,20.116921630859373,1.6395645141601562,-1.156111717224121,-4.994689464569092
1701054441296913400,20.133913330078126,1.1722145080566406,-0.7155985832214355,-4.998473167419434
1701054441313900300,20.150900390625,1.4692282676696777,-0.9898529052734375,-4.847121238708496
1701054441330896100,20.167896240234374,1.5726642608642578,-1.1975889205932617,-4.712981224060059
1701054441347882800,20.1848828125,1.7357454299926758,-1.4876365661621094,-4.618678569793701
1701054441364879600,20.201879638671876,1.2996411323547363,-1.5038766860961914,-4.190334320068359
1701054441381866000,20.218865966796876,1.0847525596618652,-1.008199691772461,-3.897346019744873
1701054441398857700,20.235857666015626,2.3718199729919434,-0.8504123687744141,-3.987764835357666
1701054441415847000,20.252846923828123,3.8672256469726562,-1.0750479698181152,-3.8281407356262207
1701054441432838700,20.269838623046876,5.103254318237305,-1.8845062255859375,-2.822662353515625
1701054441449828400,20.286828369140625,5.961205959320068,-2.596813917160034,-0.7644848823547363
1701054441466820400,20.3038203125,4.177456855773926,-2.166348457336426,0.28134870529174805
1701054441483809800,20.320809814453124,1.6579208374023438,-1.4692821502685547,0.9578700065612793
1701054441500801500,20.337801513671874,2.062981128692627,-0.8567509651184082,1.4948582649230957
1701054441517792500,20.35479248046875,3.254729747772217,-1.062178134918213,2.9426231384277344
1701054441534783200,20.371783203125,2.669009208679199,-1.3209128379821777,5.3169145584106445
1701054441551772200,20.388772216796873,-0.03824615478515625,-1.1154942512512207,6.10188102722168
1701054441568764200,20.40576416015625,-1.8996057510375977,-0.8858222961425781,5.265278339385986
1701054441585743000,20.4227431640625,-1.5964231491088867,-0.828132152557373,4.695678234100342
1701054441602745900,20.439745849609373,-1.352694034576416,-0.6690158843994141,4.0600481033325195
1701054441619734800,20.45673486328125,-0.26805877685546875,-1.3686060905456543,4.013978958129883
1701054441636727000,20.47372705078125,-1.067453384399414,-2.3092832565307617,3.557767629623413
1701054441653715200,20.490715087890624,-1.2890520095825195,-3.324836015701294,2.872896909713745
1701054441670709500,20.50770947265625,-0.6996970176696777,-3.8255062103271484,2.5589184761047363
1701054441687697400,20.524697509765623,0.2342677116394043,-3.4375882148742676,2.307589292526245
1701054441704689400,20.541689453125,1.4304242134094238,-3.130303382873535,2.999535322189331
1701054441721676300,20.55867626953125,3.153931140899658,-2.789524793624878,3.9784224033355713
1701054441738673200,20.575673095703124,2.790700912475586,-2.263575315475464,4.80255651473999
1701054441755660000,20.592659912109376,0.9796657562255859,-1.4371545314788818,5.541141986846924
1701054441772652000,20.609652099609374,-0.05266094207763672,-1.0688633918762207,5.399697780609131
1701054441789641500,20.626641357421875,-0.1804814338684082,-1.115868330001831,5.26381778717041
1701054441806614800,20.64361474609375,-1.6122307777404785,-1.1519191265106201,5.350310802459717
1701054441823623000,20.660622802734373,-2.7819132804870605,-0.9474072456359863,6.1596245765686035
1701054441840615000,20.677614990234375,-1.8395724296569824,-0.9992220401763916,6.624476432800293
1701054441857604400,20.694604248046875,0.1602168083190918,-1.7309095859527588,7.073122978210449
1701054441874596400,20.711596435546873,1.497143268585205,-2.0297653675079346,6.296550273895264
1701054441891585300,20.728585205078126,0.6044130325317383,-1.6377384662628174,6.189243793487549
1701054441908575700,20.74557568359375,0.6797823905944824,-0.6115212440490723,8.908683776855469
1701054441925568300,20.762568359375,-1.8010730743408203,-1.43898606300354,7.325577259063721
1701054441942559000,20.77955908203125,-4.616440773010254,-2.8286638259887695,9.187299728393555
1701054441959548000,20.7965478515625,-7.550092697143555,-3.4343161582946777,9.88488483428955
1701054441976536300,20.813536376953124,-5.152156352996826,-2.767655372619629,8.932453155517578
1701054441993528300,20.8305283203125,-3.7506048679351807,-3.627335548400879,4.02070951461792
1701054442010515200,20.84751513671875,0.7493762969970703,-4.29994010925293,4.0557475090026855
1701054442027510500,20.864510498046876,3.6255059242248535,-3.6144824028015137,4.83057165145874
1701054442044502800,20.881502685546874,4.027536392211914,-2.8504037857055664,5.247578144073486
1701054442061492500,20.898492431640626,2.99021577835083,-2.2067344188690186,5.432596206665039
1701054442078484200,20.915484130859376,1.2439041137695312,-1.3985271453857422,6.136435031890869
1701054442095473200,20.93247314453125,-0.9693164825439453,-0.9369559288024902,7.480454921722412
1701054442112465200,20.949465087890626,-4.226212501525879,-1.283273696899414,9.477584838867188
1701054442129455000,20.966455078125,-6.266439914703369,-1.1386003494262695,10.349359512329102
1701054442146446800,20.98344677734375,-5.832701683044434,-1.510817527770996,9.922462463378906
1701054442163433500,21.00043359375,-2.2394542694091797,-2.1732442378997803,8.478700637817383
1701054442180420000,21.017420166015626,0.5427665710449219,-3.006955862045288,6.490380764007568
1701054442197407000,21.034406982421874,2.7627296447753906,-3.3754286766052246,5.4232707023620605
1701054442214412000,21.051412109375,4.847718715667725,-4.0621442794799805,5.023527145385742
1701054442231395800,21.068395751953126,4.348917007446289,-4.351972579956055,5.079806327819824
1701054442248393000,21.08539306640625,3.297332286834717,-3.73907208442688,4.860792636871338
1701054442265380000,21.102380126953125,1.5551562309265137,-3.1364009380340576,4.8169732093811035
1701054442282359000,21.119359130859376,0.41365718841552734,-3.1683597564697266,5.202663421630859
1701054442299351600,21.1363515625,0.8681602478027344,-3.026301383972168,6.088265895843506
1701054442316346400,21.153346435546876,2.563361167907715,-2.6986725330352783,5.416598320007324
1701054442333335300,21.170335205078125,4.756995677947998,-2.976616621017456,3.3700761795043945
1701054442350325500,21.187325439453126,7.4352006912231445,-2.8652148246765137,0.8493280410766602
1701054442367313700,21.204313720703126,8.85457992553711,-2.8112282752990723,-2.2925240993499756
1701054442384307700,21.2213076171875,10.429985046386719,-2.0549559593200684,-5.374274253845215
1701054442401298700,21.238298583984374,10.231921195983887,-1.4110188484191895,-7.29929256439209
1701054442418286300,21.255286376953126,9.09282112121582,-0.09410262107849121,-8.286398887634277
1701054442435281700,21.27228173828125,5.942776203155518,0.985407829284668,-8.740144729614258
1701054442452272000,21.289272216796874,3.2846288681030273,1.2075161933898926,-8.588156700134277
1701054442469261000,21.306260986328127,2.422149181365967,0.5433845520019531,-7.670372486114502
1701054442486249700,21.323249755859376,2.8017172813415527,-0.23191213607788086,-7.2480669021606445
1701054442503242000,21.340241943359374,4.263960838317871,-0.14943599700927734,-8.474727630615234
1701054442520233200,21.357233154296875,5.830008029937744,0.5775852203369141,-9.994400024414062
1701054442537223200,21.37422314453125,5.94170618057251,1.1327018737792969,-10.9139404296875
1701054442554215200,21.391215087890625,3.977376937866211,0.7998852729797363,-10.136563301086426
1701054442571204000,21.4082041015625,2.251215934753418,0.18559694290161133,-8.942564010620117
1701054442588206300,21.425206298828126,-0.20693063735961914,-0.23140859603881836,-7.7717132568359375
1701054442605193200,21.442193115234375,-2.814732551574707,-0.47375011444091797,-6.3002824783325195
1701054442622174700,21.4591748046875,-3.949540615081787,-0.3050565719604492,-6.385183334350586
1701054442639163600,21.47616357421875,-3.742447853088379,-0.00022935867309570312,-6.723207473754883
1701054442656156200,21.49315625,-1.7185602188110352,-0.5494952201843262,-5.591624736785889
1701054442673156000,21.510156005859375,-0.7936539649963379,-1.058568000793457,-3.8284740447998047
1701054442690147800,21.52714794921875,-2.737405300140381,-0.8686995506286621,-3.4121978282928467
1701054442707137000,21.544136962890626,-3.242095470428467,-0.42549705505371094,-3.564744710922241
1701054442724128800,21.561128662109375,-1.4291155338287354,-0.12662744522094727,-4.059048652648926
1701054442741108500,21.5781083984375,0.5428323745727539,-0.051505088806152344,-4.484538555145264
