time,seconds_elapsed,z,y,x
1701054377947280000,0.10227978515625,0.2320709228515625,-0.31925058364868164,0.13913774490356445
1701054377964269800,0.119269775390625,0.7899808883666992,-0.5400075912475586,-0.1362309455871582
1701054377981262600,0.1362626953125,0.7443475723266602,-0.6176443099975586,-0.3773384094238281
1701054377998252000,0.153251953125,0.47796010971069336,-0.6473174095153809,-0.23908376693725586
1701054378015245800,0.170245849609375,0.2467055320739746,-0.8339176177978516,0.26288270950317383
1701054378032237300,0.1872373046875,-0.45548009872436523,-1.1138215065002441,1.1949315071105957
1701054378049216000,0.204216064453125,0.5741229057312012,-0.9776883125305176,1.5561637878417969
1701054378066215400,0.22121533203125,0.5762872695922852,-1.4684090614318848,1.3865270614624023
1701054378083207700,0.238207763671875,1.1861190795898438,-1.99810791015625,0.5388121604919434
1701054378100194600,0.255194580078125,3.9332199096679688,-2.142549514770508,-0.6492934226989746
1701054378117188000,0.27218798828125,10.01298713684082,-3.1405062675476074,-2.4746341705322266
1701054378134178300,0.28917822265625,-0.3011922836303711,-1.0574331283569336,-0.7092151641845703
1701054378151166700,0.306166748046875,-9.788749694824219,2.6595678329467773,1.898850440979004
1701054378168160000,0.323159912109375,-10.189260482788086,2.4587278366088867,5.048302173614502
1701054378185139500,0.340139404296875,-2.6597487926483154,3.0171666145324707,5.700162887573242
1701054378202142200,0.35714208984375,-2.2888810634613037,1.1538348197937012,2.9135584831237793
1701054378219145500,0.3741455078125,1.4593477249145508,-0.439054012298584,1.944277286529541
1701054378236123400,0.391123291015625,3.2084217071533203,-0.9390435218811035,-0.6834793090820312
1701054378253114000,0.408114013671875,1.3994016647338867,-0.878262996673584,-2.4329187870025635
1701054378270100700,0.425100830078125,0.3075852394104004,-0.577089786529541,-1.9899842739105225
1701054378287094500,0.442094482421875,-0.9763431549072266,-0.3115520477294922,-1.9323163032531738
1701054378304085000,0.4590849609375,-1.433974266052246,-0.2670598030090332,-2.00325870513916
1701054378321069300,0.4760693359375,-0.8175883293151855,-0.5179462432861328,-1.8189024925231934
1701054378338055700,0.4930556640625,-0.3280668258666992,-0.6909551620483398,-2.297916889190674
1701054378355054000,0.51005419921875,0.4209723472595215,-0.6598782539367676,-2.6050167083740234
1701054378372050200,0.52705029296875,0.7028961181640625,-0.6220178604125977,-2.5019402503967285
1701054378389032200,0.5440322265625,0.2556643486022949,-0.46997785568237305,-2.728919267654419
1701054378406031000,0.561031005859375,0.054144859313964844,-0.39949941635131836,-2.6369876861572266
1701054378423009000,0.578009033203125,0.0786590576171875,-0.44887495040893555,-2.4108006954193115
1701054378440006700,0.595006591796875,0.1561746597290039,-0.6713504791259766,-2.0805439949035645
1701054378457001000,0.6120009765625,0.0881657600402832,-0.8688554763793945,-2.180086135864258
1701054378473981200,0.628981201171875,0.5746135711669922,-1.1323223114013672,-2.461533546447754
1701054378490978600,0.645978515625,0.9200868606567383,-1.109508991241455,-2.8300766944885254
1701054378507972400,0.662972412109375,1.360173225402832,-0.892188549041748,-2.846996307373047
1701054378524962300,0.67996240234375,1.028719425201416,-0.9281330108642578,-2.6293954849243164
1701054378541954800,0.696954833984375,1.2686920166015625,-1.0309910774230957,-1.6833646297454834
1701054378558940200,0.713940185546875,0.40735864639282227,-1.2501883506774902,-1.5233588218688965
1701054378575935200,0.730935302734375,-0.7568979263305664,-1.1766510009765625,-1.5438318252563477
1701054378592926500,0.747926513671875,-1.1476025581359863,-0.9995412826538086,-1.4025592803955078
1701054378609915400,0.764915283203125,-1.1434545516967773,-1.3321642875671387,-1.025954246520996
1701054378626906000,0.781906005859375,-0.9936542510986328,-1.5989933013916016,-0.989067792892456
1701054378643894300,0.798894287109375,-0.7643113136291504,-1.7880144119262695,-0.8799207210540771
1701054378660886300,0.81588623046875,-1.1661581993103027,-1.8962268829345703,-1.4558684825897217
1701054378677881300,0.83288134765625,-0.7503938674926758,-2.17482328414917,-1.6796140670776367
1701054378694868500,0.849868408203125,0.5244584083557129,-2.317915916442871,-1.6587557792663574
1701054378711858400,0.8668583984375,2.3098816871643066,-2.8103671073913574,-0.7451882362365723
1701054378728850000,0.883849853515625,2.635899543762207,-2.860818386077881,0.6436252593994141
1701054378745840600,0.900840576171875,2.278348922729492,-1.9148814678192139,1.2256145477294922
1701054378762831400,0.917831298828125,1.2805967330932617,-1.1171884536743164,1.2945747375488281
1701054378779821000,0.934821044921875,-1.6716117858886719,-1.0803771018981934,1.286989688873291
1701054378796812000,0.95181201171875,-0.9267277717590332,-2.049513101577759,1.7635793685913086
1701054378813804500,0.968804443359375,0.8314886093139648,-2.66404128074646,1.8767428398132324
1701054378830791700,0.985791748046875,1.758192539215088,-1.9029312133789062,1.764286994934082
1701054378847774700,1.002774658203125,1.9531970024108887,-0.9764142036437988,1.8340857028961182
1701054378864775400,1.019775390625,2.6258883476257324,-1.4001491069793701,2.3039019107818604
1701054378881767000,1.036766845703125,3.2648067474365234,-3.212123394012451,3.833285331726074
1701054378898753800,1.05375390625,5.344125747680664,-4.5769829750061035,3.744258403778076
1701054378915746800,1.070746826171875,4.624817848205566,-3.549405097961426,1.6550474166870117
1701054378932739000,1.087739013671875,2.15384578704834,-2.103311777114868,2.775094747543335
1701054378949725400,1.104725341796875,0.4339418411254883,-1.8457653522491455,3.2011682987213135
1701054378966718500,1.121718505859375,3.2559633255004883,-2.418820381164551,3.0562736988067627
1701054378983710700,1.138710693359375,9.118904113769531,-3.395780563354492,5.319070816040039
1701054379000697600,1.155697509765625,5.524963855743408,-0.9886999130249023,2.04595685005188
1701054379017691400,1.17269140625,-4.027583122253418,-1.5551857948303223,4.849637508392334
1701054379034677800,1.189677734375,-6.1136579513549805,-0.6187505722045898,8.057500839233398
1701054379051677000,1.206677001953125,-6.783585548400879,-0.5536661148071289,6.90418815612793
1701054379068658400,1.223658447265625,-1.09043550491333,-0.23768377304077148,3.2887771129608154
1701054379085653000,1.240653076171875,0.7575297355651855,-1.5279557704925537,2.55595326423645
1701054379102645200,1.257645263671875,2.4170098304748535,-2.921792507171631,-0.3532845973968506
1701054379119632000,1.2746318359375,3.320802688598633,-4.776463031768799,0.8977293968200684
1701054379136625000,1.291625,4.926657199859619,-4.731003284454346,2.4608683586120605
1701054379153617400,1.308617431640625,3.2508716583251953,-3.0140061378479004,2.526762008666992
1701054379170596400,1.325596435546875,2.9793896675109863,-3.311779022216797,1.742814540863037
1701054379187586600,1.342586669921875,3.255643844604492,-3.156233072280884,2.2842025756835938
1701054379204584700,1.359584716796875,-1.1456856727600098,-2.0943872928619385,4.22481632232666
1701054379221571000,1.376571044921875,-6.585597038269043,-1.1098732948303223,8.611051559448242
1701054379238559000,1.39355908203125,-6.625217914581299,-1.1183080673217773,10.980949401855469
1701054379255552500,1.410552490234375,-3.66428542137146,-1.6244256496429443,9.908904075622559
1701054379272545800,1.4275458984375,0.20079708099365234,-2.6401219367980957,7.830292701721191
1701054379289531000,1.44453076171875,4.033843040466309,-3.944932699203491,6.669370174407959
1701054379306524200,1.461524169921875,7.413054466247559,-4.3312811851501465,7.102380275726318
1701054379323512800,1.478512939453125,4.87061882019043,-2.9700868129730225,6.5054402351379395
1701054379340503800,1.49550390625,3.8212146759033203,-1.5008444786071777,8.566287994384766
1701054379357499400,1.51249951171875,1.286285400390625,-1.0108559131622314,9.402383804321289
1701054379374485200,1.5294853515625,-0.5227608680725098,-0.8326737880706787,9.028928756713867
1701054379391479000,1.54647900390625,-0.04027557373046875,-1.6301844120025635,7.972421169281006
1701054379408468700,1.56346875,4.195189952850342,-2.825556516647339,5.14478063583374
1701054379425468400,1.580468505859375,8.464733123779297,-4.576174736022949,2.1035876274108887
1701054379442457900,1.597457763671875,10.798677444458008,-4.985962390899658,0.5934543609619141
1701054379459444700,1.61444482421875,7.622437953948975,-2.6846933364868164,-0.08091974258422852
1701054379476437000,1.63143701171875,4.329944610595703,-1.3888499736785889,0.8054819107055664
1701054379493419500,1.64841943359375,4.588237762451172,-1.7163467407226562,-0.8823809623718262
1701054379510416400,1.66541650390625,6.26298189163208,-2.913038492202759,-2.633899211883545
1701054379527407600,1.68240771484375,6.123876571655273,-3.025749683380127,-4.066110610961914
1701054379544402400,1.69940234375,5.189134120941162,-1.4229466915130615,-4.312694549560547
1701054379561382700,1.716382568359375,4.744928359985352,-0.403578519821167,-5.4321489334106445
1701054379578378500,1.73337841796875,5.0341033935546875,-0.803849458694458,-7.0416717529296875
1701054379595372000,1.7503720703125,5.973503589630127,-0.49242115020751953,-8.218108177185059
1701054379612364000,1.767364013671875,6.826918601989746,-1.7070364952087402,-8.152844429016113
1701054379629352200,1.784352294921875,3.882518768310547,-1.7604632377624512,-8.046296119689941
1701054379646342100,1.801342041015625,1.907853126525879,-1.161010503768921,-8.39173412322998
1701054379663336700,1.818336669921875,0.5423097610473633,-0.8275251388549805,-9.013278007507324
1701054379680319200,1.8353193359375,-0.6163065433502197,-0.7755227088928223,-9.39807415008545
1701054379697319000,1.85231884765625,-1.7890853881835938,-1.1025390625,-9.035530090332031
1701054379714297000,1.869297119140625,-0.6797444820404053,-1.6738312244415283,-7.9148077964782715
1701054379731297000,1.886297119140625,-1.491417646408081,-1.9548418521881104,-7.257350444793701
1701054379748277800,1.90327783203125,-2.017853260040283,-1.8253099918365479,-7.305402755737305
1701054379765276400,1.9202763671875,-1.9333581924438477,-1.7736589908599854,-7.262629508972168
1701054379782268000,1.937267822265625,-1.4882705211639404,-1.930621862411499,-7.6783127784729
1701054379799261400,1.954261474609375,0.24632549285888672,-2.167896270751953,-7.184770107269287
1701054379816251000,1.9712509765625,0.3699784278869629,-2.334808111190796,-6.255040645599365
1701054379833243400,1.988243408203125,0.12284088134765625,-2.169562339782715,-6.323554515838623
1701054379850228700,2.005228759765625,1.216543197631836,-2.378028631210327,-6.833221435546875
1701054379867222500,2.022222412109375,1.776249885559082,-2.7560439109802246,-7.2847700119018555
1701054379884212500,2.03921240234375,2.615950584411621,-2.4600019454956055,-7.356966495513916
1701054379901203200,2.056203125,3.351182460784912,-2.1382997035980225,-6.691370964050293
1701054379918182700,2.0731826171875,4.016291618347168,-2.030646800994873,-5.729007244110107
1701054379935186000,2.09018603515625,3.6705570220947266,-2.4325594902038574,-4.704128742218018
1701054379952175000,2.107175048828125,3.882880687713623,-2.264535427093506,-4.184365272521973
1701054379969163300,2.124163330078125,4.02880859375,-1.5261008739471436,-3.3175947666168213
1701054379986156000,2.141156005859375,4.936534404754639,-0.38883256912231445,-1.8660788536071777
1701054380003138300,2.15813818359375,4.710753440856934,0.40241098403930664,-0.3231792449951172
1701054380020135200,2.17513525390625,4.867856979370117,0.24188899993896484,1.3069486618041992
1701054380037115400,2.192115478515625,3.8621573448181152,-0.3707699775695801,2.1879162788391113
1701054380054119000,2.209118896484375,2.5752978324890137,-0.49680423736572266,2.133277416229248
1701054380071107600,2.226107666015625,0.9870738983154297,-0.7180757522583008,2.4124555587768555
1701054380088101000,2.24310107421875,0.04836273193359375,0.07027053833007812,2.2652182579040527
1701054380105090600,2.260090576171875,-0.7932939529418945,-0.2057051658630371,2.4069509506225586
1701054380122083000,2.2770830078125,-0.0818796157836914,-0.917621374130249,2.1734888553619385
1701054380139069700,2.294069580078125,2.1628923416137695,-1.6988248825073242,2.28857159614563
1701054380156062500,2.3110625,2.0592727661132812,-2.7794623374938965,3.7078299522399902
1701054380173044500,2.32804443359375,-0.17546844482421875,-3.012031078338623,4.794495582580566
1701054380190041300,2.345041259765625,-1.49827241897583,-2.999330997467041,4.401912689208984
1701054380207035000,2.362034912109375,-1.1959013938903809,-3.2667083740234375,4.013367652893066
1701054380224025900,2.37902587890625,-0.0645132064819336,-4.382027626037598,3.0839731693267822
1701054380241013200,2.39601318359375,0.6922149658203125,-5.333934783935547,3.6487839221954346
1701054380258003200,2.413003173828125,-1.2777385711669922,-5.353052139282227,5.651902198791504
1701054380274996500,2.42999658203125,-2.050906181335449,-3.133134603500366,5.983363628387451
1701054380291990300,2.446990234375,-1.1641449928283691,-2.015566349029541,6.890747547149658
1701054380308975600,2.4639755859375,2.1765823364257812,-2.5773744583129883,6.965183258056641
1701054380325969000,2.480968994140625,4.421911239624023,-3.403455972671509,7.108378887176514
1701054380342961200,2.497961181640625,4.287839889526367,-3.5238747596740723,6.698772430419922
1701054380359951000,2.514951171875,0.5505294799804688,-1.8271030187606812,7.985195159912109
1701054380376940800,2.53194091796875,-3.1676344871520996,-0.6375672817230225,9.121458053588867
1701054380393930200,2.54893017578125,-2.222642421722412,-1.2924085855484009,10.273673057556152
1701054380410922000,2.565921875,1.0050830841064453,-2.066638469696045,8.797539710998535
1701054380427913500,2.58291357421875,4.074093818664551,-3.0835890769958496,7.109163761138916
1701054380444903400,2.5999033203125,5.487809181213379,-2.705775499343872,6.479127883911133
1701054380461895700,2.616895751953125,-4.134858131408691,-1.7993285655975342,8.678194046020508
1701054380478882300,2.63388232421875,-12.791940689086914,1.0170059204101562,12.986734390258789
1701054380495875300,2.650875244140625,-18.133426666259766,2.1056084632873535,12.534064292907715
1701054380512867600,2.66786767578125,-11.11145305633545,1.2186505794525146,9.337053298950195
1701054380529854000,2.68485400390625,2.1853723526000977,-2.5433363914489746,7.6705193519592285
1701054380546847200,2.70184716796875,9.907479286193848,-5.4437336921691895,7.520638465881348
1701054380563837000,2.7188369140625,9.690710067749023,-3.869316816329956,8.30889892578125
1701054380580828400,2.735828369140625,1.8794517517089844,-1.2905168533325195,8.795150756835938
1701054380597809400,2.752809326171875,2.248811721801758,-0.3167130947113037,8.094047546386719
1701054380614810400,2.769810302734375,0.6624894142150879,-1.0260710716247559,7.670430660247803
1701054380631801300,2.78680126953125,-3.955751895904541,-0.1636524200439453,6.982324600219727
1701054380648788700,2.803788818359375,-6.0497541427612305,-0.046228647232055664,9.103067398071289
1701054380665781800,2.82078173828125,0.22662067413330078,-1.2507097721099854,9.94552230834961
1701054380682773800,2.837773681640625,7.267763137817383,-2.53353214263916,7.31350040435791
1701054380699760400,2.854760498046875,12.476977348327637,-3.130887031555176,5.497745513916016
1701054380716753400,2.87175341796875,10.60190486907959,-2.09857177734375,3.60201358795166
1701054380733743900,2.888743896484375,8.500243186950684,-1.4716461896896362,3.3977694511413574
1701054380750734000,2.905734130859375,4.8860182762146,-1.468132495880127,3.4835410118103027
1701054380767726000,2.92272607421875,3.6815848350524902,-1.5810893774032593,3.7130918502807617
1701054380784717800,2.9397177734375,5.848492622375488,-2.0171470642089844,2.4411706924438477
1701054380801698300,2.9566982421875,8.555824279785156,-2.4702467918395996,0.7055888175964355
1701054380818692600,2.973692626953125,9.808853149414062,-2.4838743209838867,-1.0099248886108398
1701054380835690000,2.99068994140625,9.93424129486084,-2.310786247253418,-2.470974922180176
1701054380852680200,3.00768017578125,9.551080703735352,-2.534799098968506,-3.9310038089752197
1701054380869666800,3.024666748046875,8.88012981414795,-2.4734270572662354,-5.136964797973633
1701054380886659800,3.041659912109375,4.839416027069092,-1.0424423217773438,-5.793363571166992
1701054380903652000,3.058652099609375,4.985649108886719,-0.8839049339294434,-7.092713832855225
1701054380920638700,3.075638671875,6.577856063842773,-1.4537813663482666,-9.369715690612793
1701054380937632800,3.0926328125,6.629894256591797,-1.7752926349639893,-11.59245491027832
1701054380954622200,3.109622314453125,6.353831768035889,-2.2539029121398926,-10.95785140991211
1701054380971614700,3.12661474609375,6.975998878479004,-2.3146307468414307,-9.021265029907227
1701054380988604700,3.143604736328125,4.4445600509643555,-2.00010085105896,-8.183674812316895
1701054381005583600,3.16058349609375,0.9729256629943848,-1.8892474174499512,-7.746079921722412
1701054381022586400,3.17758642578125,-1.9893566370010376,-1.9940118789672852,-8.361027717590332
1701054381039576300,3.194576416015625,-2.8183984756469727,-2.1093568801879883,-8.559967994689941
1701054381056567000,3.211567138671875,-2.0464353561401367,-2.6018500328063965,-8.6904935836792
1701054381073543200,3.228543212890625,-1.7691214084625244,-3.06892728805542,-8.423882484436035
1701054381090539000,3.2455390625,-2.5800728797912598,-3.166168212890625,-7.363116264343262
1701054381107530000,3.262530029296875,-2.863914728164673,-3.2139735221862793,-6.438460350036621
1701054381124529700,3.27952978515625,-2.157689094543457,-3.1745710372924805,-6.330497741699219
1701054381141520400,3.296520263671875,-0.18601000308990479,-2.7228031158447266,-6.71110725402832
1701054381158506800,3.3135068359375,1.3833487033843994,-3.146097421646118,-6.422235488891602
1701054381175501300,3.330501220703125,2.144378423690796,-3.239705801010132,-5.720463275909424
1701054381192492300,3.3474921875,1.752481460571289,-3.5134270191192627,-5.015717506408691
1701054381209482500,3.364482421875,1.756314754486084,-3.6132848262786865,-5.5421576499938965
1701054381226473200,3.38147314453125,3.2278716564178467,-3.406444549560547,-6.531022071838379
1701054381243464000,3.3984638671875,4.825028419494629,-3.294346570968628,-6.732341766357422
1701054381260454700,3.41545458984375,5.02304220199585,-2.5875537395477295,-5.2928972244262695
1701054381277445000,3.432445068359375,2.046213388442993,-2.1959166526794434,-2.8442769050598145
1701054381294436000,3.44943603515625,0.6169295310974121,-2.212474822998047,-2.9281082153320312
1701054381311426300,3.46642626953125,1.9138422012329102,-2.1472361087799072,-4.282772541046143
1701054381328417000,3.4834169921875,3.2067084312438965,-1.4821410179138184,-5.038071632385254
1701054381345409300,3.5004091796875,3.569819927215576,-0.3139681816101074,-3.7012951374053955
1701054381362397000,3.51739697265625,3.310244560241699,0.6002287864685059,-2.0603954792022705
1701054381379378400,3.53437841796875,3.3450231552124023,0.591339111328125,-1.0635461807250977
1701054381396371500,3.551371337890625,2.250882148742676,0.6697030067443848,-0.6306028366088867
1701054381413358000,3.568358154296875,2.539064407348633,0.47501564025878906,-0.8505935668945312
1701054381430353400,3.585353515625,4.9575324058532715,-0.15574932098388672,-1.7013516426086426
1701054381447340000,3.602340087890625,7.266183376312256,-0.513920783996582,-0.9010252952575684
1701054381464332800,3.619332763671875,4.379090309143066,0.1517643928527832,1.7803945541381836
1701054381481325800,3.636325927734375,-0.12130117416381836,0.608922004699707,3.9500389099121094
1701054381498312700,3.653312744140625,0.014899730682373047,-0.5219511985778809,4.365885257720947
1701054381515306200,3.67030615234375,2.922452926635742,-1.9130661487579346,3.4108786582946777
1701054381532296000,3.6872958984375,5.29874324798584,-2.7980422973632812,3.347010374069214
1701054381549298200,3.704298095703125,5.053400039672852,-3.1498477458953857,4.641772270202637
1701054381566286000,3.7212861328125,1.3464150428771973,-2.978034019470215,6.143866062164307
1701054381583276500,3.738276611328125,-1.9746079444885254,-3.090883255004883,6.740413665771484
1701054381600267300,3.755267333984375,-2.609955310821533,-3.36322021484375,5.841362953186035
1701054381617258200,3.77225830078125,-0.20355510711669922,-3.5995657444000244,5.596145153045654
1701054381634248700,3.789248779296875,2.270552635192871,-4.004161834716797,6.0676679611206055
1701054381651239400,3.806239501953125,2.4067745208740234,-4.510067462921143,6.208892822265625
1701054381668230100,3.823230224609375,0.13953304290771484,-4.23079776763916,6.678488254547119
1701054381685220400,3.840220458984375,-1.566847801208496,-3.802905797958374,6.9363627433776855
1701054381702211300,3.85721142578125,-1.7232246398925781,-3.807525634765625,7.371272087097168
1701054381719199700,3.87419970703125,-0.05729484558105469,-3.9176435470581055,7.565171241760254
1701054381736188700,3.891188720703125,0.9187870025634766,-3.8602893352508545,7.616635322570801
1701054381753182500,3.908182373046875,1.5653228759765625,-3.7682387828826904,8.539984703063965
1701054381770174500,3.925174560546875,-0.11497116088867188,-3.5421128273010254,8.567863464355469
1701054381787164400,3.942164306640625,-0.34853696823120117,-3.681868553161621,8.389727592468262
1701054381804155100,3.959155029296875,0.10004138946533203,-3.60971736907959,8.88753890991211
1701054381821145600,3.9761455078125,0.10515213012695312,-3.248276948928833,6.615847587585449
1701054381838125800,3.993125732421875,0.4662284851074219,-3.0080628395080566,6.956178665161133
1701054381855110400,4.0101103515625,-0.7110123634338379,-2.5245301723480225,8.238151550292969
1701054381872109600,4.027109619140625,-4.934637069702148,-1.55024254322052,10.617115020751953
1701054381889108200,4.044108154296875,-6.301609992980957,-1.1847131252288818,12.411584854125977
1701054381906111000,4.061111083984375,-2.217400550842285,-2.391615629196167,10.907262802124023
1701054381923089400,4.07808935546875,3.6083993911743164,-4.438976287841797,9.05870246887207
1701054381940075300,4.0950751953125,6.40911865234375,-4.963428497314453,6.8954949378967285
1701054381957075200,4.1120751953125,6.788450717926025,-4.406597137451172,7.126512050628662
1701054381974057700,4.1290576171875,3.022106170654297,-3.170307159423828,8.304736137390137
1701054381991052000,4.146052001953125,0.2013721466064453,-2.3339529037475586,9.133139610290527
1701054382008042800,4.163042724609375,0.42914867401123047,-2.404608726501465,8.581338882446289
1701054382025033500,4.180033447265625,1.31809663772583,-2.2178807258605957,7.175724983215332
1701054382042023700,4.197023681640625,1.8146319389343262,-2.0123419761657715,6.360886573791504
1701054382059014400,4.214014404296875,2.4965062141418457,-2.4552927017211914,7.173635959625244
1701054382076005000,4.231005126953125,2.715813636779785,-2.8119940757751465,7.916791915893555
1701054382092997600,4.24799755859375,3.3881359100341797,-2.6521058082580566,6.852687358856201
1701054382109984300,4.264984375,7.1491265296936035,-2.6181492805480957,6.861467361450195
1701054382126977000,4.28197705078125,7.679744243621826,-1.3113141059875488,6.208935260772705
1701054382143967700,4.2989677734375,5.184196949005127,-1.5515263080596924,4.251918792724609
1701054382160958200,4.315958251953125,5.13886833190918,-3.247032403945923,1.7840027809143066
1701054382177943000,4.332943115234375,7.960943222045898,-4.486977577209473,0.8851618766784668
1701054382194942500,4.3499423828125,9.171964645385742,-3.219207286834717,-0.5650253295898438
1701054382211927000,4.366927001953125,10.385397911071777,-2.0789389610290527,-1.3969635963439941
1701054382228920600,4.383920654296875,12.239652633666992,-2.067260503768921,-2.9015636444091797
1701054382245911300,4.400911376953125,12.148414611816406,-2.391523838043213,-5.88200044631958
1701054382262902500,4.417902587890625,10.453413963317871,-3.054800033569336,-8.50984001159668
1701054382279892700,4.434892822265625,9.320219039916992,-3.8499059677124023,-9.946654319763184
1701054382296883200,4.45188330078125,5.558526992797852,-2.5994300842285156,-11.141376495361328
1701054382313871600,4.46887158203125,3.0654492378234863,-1.7241642475128174,-11.986886978149414
1701054382330867200,4.4858671875,2.9273247718811035,-0.9570374488830566,-14.058233261108398
1701054382347855400,4.50285546875,4.1689348220825195,-1.7144267559051514,-14.722368240356445
1701054382364843300,4.51984326171875,6.077463626861572,-2.243661403656006,-9.404925346374512
1701054382381839000,4.536839111328125,5.187601089477539,-2.126143217086792,-6.8652825355529785
1701054382398834400,4.55383447265625,2.745415210723877,-1.894798755645752,-6.13854455947876
1701054382415818000,4.57081787109375,1.1316595077514648,-2.127352476119995,-6.52134895324707
1701054382432806100,4.58780615234375,0.37849998474121094,-2.2789666652679443,-6.532253742218018
1701054382449801200,4.60480126953125,-0.5046600103378296,-2.002798080444336,-6.085755348205566
1701054382466779100,4.621779052734375,-1.477321743965149,-1.715968132019043,-5.562242031097412
1701054382483780400,4.6387802734375,-1.1058659553527832,-1.671006202697754,-5.655224800109863
1701054382500770800,4.655770751953125,-0.564241886138916,-1.834216594696045,-6.140686988830566
1701054382517758500,4.672758544921875,-0.7567908763885498,-1.9207053184509277,-5.608829975128174
1701054382534752500,4.68975244140625,-0.9039779305458069,-1.9328579902648926,-4.482522010803223
1701054382551743000,4.706742919921875,0.0008699893951416016,-1.818964958190918,-3.576878547668457
1701054382568737000,4.723737060546875,0.9858083724975586,-1.6986198425292969,-3.4527385234832764
1701054382585721000,4.74072119140625,1.6849353313446045,-1.7836928367614746,-3.6288652420043945
1701054382602715000,4.75771484375,2.161574125289917,-1.9677772521972656,-4.463327407836914
1701054382619705300,4.774705322265625,2.9222571849823,-2.2700796127319336,-4.58437442779541
1701054382636696300,4.7916962890625,3.335690975189209,-2.604802131652832,-5.090266227722168
1701054382653684500,4.8086845703125,3.517568349838257,-2.4449591636657715,-5.257156848907471
1701054382670679800,4.8256796875,2.518113374710083,-2.397334098815918,-5.084376335144043
1701054382687655200,4.8426552734375,1.3195350170135498,-2.105916976928711,-4.386250019073486
1701054382704649000,4.85964892578125,1.0301756858825684,-1.8422737121582031,-3.5244150161743164
1701054382721639200,4.87663916015625,0.9041399955749512,-1.8447742462158203,-2.9148287773132324
1701054382738629400,4.89362939453125,2.235053062438965,-1.8616480827331543,-3.2103683948516846
1701054382755619800,4.910619873046875,3.3197407722473145,-1.5469560623168945,-2.825566053390503
1701054382772611600,4.927611572265625,0.9311528205871582,-0.9163374900817871,-0.5035958290100098
1701054382789608200,4.944608154296875,-1.6898279190063477,-0.21760797500610352,-0.07142257690429688
1701054382806596400,4.961596435546875,0.45596742630004883,-0.8055620193481445,-0.32375574111938477
1701054382823585800,4.978585693359375,2.481678009033203,-1.0244698524475098,-0.04212236404418945
1701054382840576300,4.995576171875,4.2130584716796875,-1.8196415901184082,-0.04241466522216797
1701054382857566500,5.01256640625,3.664872169494629,-1.4409356117248535,1.2073020935058594
1701054382874555100,5.02955517578125,-1.1073360443115234,-0.5275726318359375,2.1113243103027344
1701054382891551700,5.0465517578125,-1.005321979522705,-0.037000179290771484,1.7484841346740723
1701054382908539000,5.063538818359375,0.9693646430969238,-0.6380200386047363,1.7664337158203125
1701054382925527000,5.080527099609375,2.7414960861206055,-0.855318546295166,2.0694479942321777
1701054382942529500,5.097529541015625,2.1329855918884277,-1.3197269439697266,2.998225450515747
1701054382959518200,5.114518310546875,-0.16459274291992188,-1.768181324005127,3.2645304203033447
1701054382976509000,5.131509033203125,-0.2989649772644043,-1.925915002822876,3.642328977584839
1701054382993499400,5.14849951171875,-0.14371442794799805,-1.7564496994018555,3.1001389026641846
1701054383010490000,5.165489990234375,0.7330741882324219,-2.0631141662597656,3.2217133045196533
1701054383027470600,5.182470703125,2.4179534912109375,-3.3528308868408203,4.23482608795166
1701054383044471600,5.199471435546875,3.1096887588500977,-4.583371162414551,4.63778018951416
1701054383061462300,5.216462158203125,1.6812057495117188,-4.600979328155518,3.2347283363342285
1701054383078452700,5.23345263671875,-0.9011173248291016,-3.548707962036133,4.524427890777588
1701054383095443200,5.250443115234375,-3.06911039352417,-2.9674949645996094,4.889689922332764
1701054383112434000,5.267433837890625,-1.7212190628051758,-3.3508729934692383,5.078878879547119
1701054383129424600,5.284424560546875,1.1643261909484863,-4.052568435668945,5.589212894439697
1701054383146415000,5.3014150390625,2.8477396965026855,-3.8619821071624756,6.255877494812012
1701054383163406000,5.318406005859375,1.6486515998840332,-2.760103702545166,7.120255947113037
1701054383180396500,5.335396484375,-1.2112150192260742,-1.712172031402588,8.330156326293945
1701054383197387300,5.35238720703125,-1.8397903442382812,-1.5501763820648193,9.135066986083984
1701054383214375400,5.36937548828125,0.5317025184631348,-2.0904340744018555,10.015254020690918
1701054383231371000,5.38637109375,2.049818992614746,-1.7883975505828857,11.01882553100586
1701054383248359000,5.40335888671875,1.221419334411621,-1.3312954902648926,11.117914199829102
1701054383265349600,5.420349609375,-1.8837952613830566,-1.9627134799957275,8.994405746459961
1701054383282343200,5.43734326171875,-5.526087760925293,-2.2292635440826416,10.69363784790039
1701054383299320300,5.4543203125,-7.579474925994873,-1.5119242668151855,10.249992370605469
1701054383316321500,5.471321533203125,-4.833890914916992,-1.7996337413787842,9.270273208618164
1701054383333312500,5.4883125,-0.4525489807128906,-2.6866581439971924,9.099538803100586
1701054383350303200,5.50530322265625,2.6335201263427734,-3.4033358097076416,9.032696723937988
1701054383367283500,5.522283447265625,3.1303648948669434,-3.7734415531158447,8.764841079711914
1701054383384282600,5.53928271484375,2.493204116821289,-2.917778491973877,9.171772003173828
1701054383401273900,5.55627392578125,0.34240007400512695,-2.0081324577331543,9.989643096923828
1701054383418268200,5.57326806640625,0.1065835952758789,-1.9751214981079102,10.294515609741211
1701054383435256300,5.59025634765625,0.61370849609375,-1.884525179862976,10.316112518310547
1701054383452246800,5.607246826171875,0.9689135551452637,-1.485081672668457,10.087163925170898
1701054383469237000,5.624237060546875,0.556096076965332,-1.4953045845031738,9.906089782714844
1701054383486228700,5.641228759765625,1.745866298675537,-1.9528361558914185,9.338125228881836
1701054383503218700,5.65821875,3.745300769805908,-2.3629417419433594,8.85720443725586
1701054383520198700,5.67519873046875,5.826253890991211,-2.9777090549468994,8.16448974609375
1701054383537199900,5.692199951171875,6.9351301193237305,-2.727116584777832,6.785310745239258
1701054383554190600,5.709190673828125,7.35965633392334,-3.018268346786499,4.672606945037842
1701054383571171300,5.72617138671875,7.524552345275879,-3.100679397583008,2.930661201477051
1701054383588172000,5.743172119140625,8.45659065246582,-3.5224835872650146,2.031515598297119
1701054383605162500,5.76016259765625,8.47596549987793,-2.455090045928955,1.7396669387817383
1701054383622153500,5.777153564453125,6.310525417327881,-1.3391022682189941,1.2458715438842773
1701054383639150000,5.794150146484375,9.690681457519531,-1.955794095993042,-0.156524658203125
1701054383656134400,5.811134521484375,11.792704582214355,-2.9191179275512695,-3.601433277130127
1701054383673118000,5.828117919921875,10.992335319519043,-2.780219554901123,-6.1427154541015625
1701054383690115800,5.84511572265625,5.509665489196777,-2.8462536334991455,-7.569972991943359
1701054383707106600,5.8621064453125,3.1122169494628906,-2.150364875793457,-8.388751983642578
1701054383724096800,5.8790966796875,2.0089025497436523,-1.4694862365722656,-7.96360969543457
1701054383741087700,5.896087646484375,3.1334662437438965,-1.837087631225586,-7.148811340332031
1701054383758073900,5.913073974609375,4.975884437561035,-1.7114341259002686,-8.202536582946777
1701054383775066000,5.930066162109375,6.930019855499268,-1.697054147720337,-9.17069149017334
1701054383792062000,5.94706201171875,5.855009078979492,-1.397226333618164,-9.067822456359863
1701054383809050000,5.964050048828125,2.7148711681365967,-2.089756727218628,-8.956219673156738
1701054383826053600,5.9810537109375,1.556004524230957,-2.3837358951568604,-8.741533279418945
1701054383843031600,5.998031494140625,0.8831446170806885,-2.7432971000671387,-9.038591384887695
1701054383860022000,6.01502197265625,0.8337593078613281,-2.8154044151306152,-9.223989486694336
1701054383877012700,6.0320126953125,0.32756781578063965,-2.4523024559020996,-7.861319065093994
1701054383894003500,6.04900341796875,-1.5328956842422485,-2.0801730155944824,-7.342104911804199
1701054383910991000,6.0659912109375,-2.10040020942688,-2.447525978088379,-7.401958465576172
1701054383927987200,6.0829873046875,-1.6399835348129272,-2.9457204341888428,-7.824422359466553
1701054383944975400,6.099975341796875,-1.2366787195205688,-3.0063631534576416,-7.999980926513672
1701054383961966000,6.116966064453125,-0.5930486917495728,-2.8025128841400146,-7.4794464111328125
1701054383978956500,6.13395654296875,0.46212124824523926,-2.317803382873535,-6.49590539932251
1701054383995947300,6.150947265625,0.8726418018341064,-1.971336841583252,-6.073480606079102
1701054384012938000,6.16793798828125,1.0477173328399658,-2.2090563774108887,-6.414586067199707
1701054384029927700,6.184927734375,1.940232515335083,-2.5182461738586426,-6.6148786544799805
1701054384046920000,6.201919921875,2.0586557388305664,-2.2946386337280273,-6.660704135894775
1701054384063910000,6.218909912109375,2.5446906089782715,-2.097806930541992,-6.145766735076904
1701054384080900400,6.235900390625,3.8265511989593506,-2.1898279190063477,-5.944333076477051
1701054384097891000,6.25289111328125,4.371351718902588,-1.868220329284668,-5.775813579559326
1701054384114878500,6.26987841796875,1.3681859970092773,-1.2644071578979492,-3.905247211456299
1701054384131875600,6.28687548828125,1.191927433013916,-1.1383280754089355,-3.6961939334869385
1701054384148863200,6.30386328125,2.0211963653564453,-0.7677631378173828,-3.6840996742248535
1701054384165853400,6.320853515625,3.0944595336914062,-0.630526065826416,-2.939713716506958
1701054384182844200,6.33784423828125,4.541779518127441,-1.1763219833374023,-2.3446741104125977
1701054384199835000,6.3548349609375,2.551359176635742,0.017930030822753906,-0.5996127128601074
1701054384216825600,6.37182568359375,-1.62599515914917,0.5685744285583496,2.5863914489746094
1701054384233813200,6.388813232421875,0.39818716049194336,0.24158811569213867,1.0612068176269531
1701054384250807600,6.4058076171875,1.6161842346191406,-0.027049541473388672,1.4747138023376465
1701054384267797000,6.422796875,2.8430652618408203,-0.4315829277038574,1.767287254333496
1701054384284787200,6.439787109375,3.173466205596924,-1.2281789779663086,2.2496585845947266
1701054384301780200,6.4567802734375,0.46825695037841797,-1.4412832260131836,3.897115707397461
1701054384318769700,6.473769775390625,-1.6492924690246582,-1.1831908226013184,4.901220798492432
1701054384335756000,6.490756103515625,0.9785747528076172,-1.444359302520752,3.940113067626953
1701054384352754400,6.50775439453125,2.7229318618774414,-1.551842212677002,3.558487892150879
1701054384369725400,6.524725341796875,4.418384075164795,-1.6700716018676758,4.603216171264648
1701054384386732000,6.54173193359375,4.3155975341796875,-2.1914851665496826,6.401500225067139
1701054384403722500,6.558722412109375,1.0525712966918945,-2.1869401931762695,6.532649993896484
1701054384420703000,6.575702880859375,-3.4039502143859863,-1.4617981910705566,6.309711456298828
1701054384437703700,6.59270361328125,-3.9877119064331055,-0.818758487701416,5.140971660614014
1701054384454694700,6.609694580078125,-1.305375099182129,-1.3399617671966553,5.304312705993652
1701054384471685000,6.62668505859375,1.0713691711425781,-2.017906904220581,5.786681652069092
1701054384488675800,6.64367578125,2.571744918823242,-2.518740177154541,6.7202653884887695
1701054384505666600,6.66066650390625,1.8072295188903809,-2.323953151702881,6.941254615783691
1701054384522657300,6.6776572265625,-0.15853643417358398,-1.8787782192230225,7.120186805725098
1701054384539637200,6.69463720703125,-1.6849312782287598,-1.4914677143096924,7.13768196105957
1701054384556638200,6.71163818359375,-1.4968023300170898,-1.7842507362365723,7.130747318267822
1701054384573629000,6.72862890625,-0.8720755577087402,-2.2908976078033447,7.492305755615234
1701054384590620000,6.745619873046875,0.2460918426513672,-2.560896873474121,7.668362617492676
1701054384607610400,6.7626103515625,0.6266593933105469,-2.4022068977355957,7.778581142425537
1701054384624601300,6.779601318359375,-0.912783145904541,-2.488964080810547,7.331699371337891
1701054384641591800,6.796591796875,-2.3216185569763184,-2.4137513637542725,8.686849594116211
1701054384658581500,6.81358154296875,-4.260831832885742,-2.3534419536590576,7.127882480621338
1701054384675572700,6.83057275390625,-6.476965427398682,-2.2378969192504883,9.348919868469238
1701054384692563200,6.847563232421875,-8.669072151184082,-1.5267934799194336,10.645756721496582
1701054384709551600,6.864551513671875,-10.592498779296875,-0.981201171875,10.498538970947266
1701054384726541800,6.881541748046875,-9.038348197937012,-2.2856149673461914,8.392642974853516
1701054384743535400,6.898535400390625,-3.6180546283721924,-4.470353603363037,8.131831169128418
1701054384760526000,6.915526123046875,1.076737403869629,-5.542519569396973,8.394319534301758
1701054384777516800,6.932516845703125,1.1965537071228027,-4.95074462890625,9.573704719543457
1701054384794506000,6.949506103515625,0.7253499031066895,-3.514603853225708,9.612028121948242
1701054384811499300,6.966499267578125,0.46267032623291016,-3.073721170425415,9.598833084106445
1701054384828488400,6.983488525390625,1.3441686630249023,-2.8857004642486572,8.026205062866211
1701054384845479200,7.000479248046875,1.5229387283325195,-2.551706075668335,7.524071216583252
1701054384862470100,7.01747021484375,-2.4982948303222656,-1.9674135446548462,8.399848937988281
1701054384879460600,7.034460693359375,-1.968949794769287,-2.2846927642822266,9.08796501159668
1701054384896441300,7.05144140625,0.5774126052856445,-3.536783456802368,7.513943672180176
1701054384913435400,7.068435302734375,4.279214382171631,-4.833944797515869,6.012449264526367
1701054384930423600,7.085423583984375,7.6555867195129395,-5.034004211425781,4.6717610359191895
1701054384947415300,7.102415283203125,8.776744842529297,-4.648434162139893,2.5035781860351562
1701054384964404500,7.119404541015625,8.75006103515625,-3.604827404022217,1.0297088623046875
1701054384981394000,7.136393798828125,7.579000949859619,-2.7153663635253906,0.13485288619995117
1701054384998384600,7.153384521484375,7.28695011138916,-2.5474212169647217,-0.3596978187561035
1701054385015377200,7.170377197265625,5.824686527252197,-2.522784948348999,-1.0747709274291992
1701054385032386300,7.18738623046875,4.398150444030762,-1.6205776929855347,-2.0481724739074707
1701054385049368600,7.20436865234375,4.612695693969727,-0.7830076217651367,-3.2306017875671387
1701054385066357500,7.221357421875,5.517128944396973,-0.4835386276245117,-4.829968452453613
1701054385083348000,7.238347900390625,5.044775009155273,-0.32285428047180176,-6.130342483520508
1701054385100343800,7.25534375,4.187163352966309,-0.09972476959228516,-7.189948558807373
1701054385117329700,7.27232958984375,3.430619716644287,0.330157995223999,-7.393629550933838
1701054385134320000,7.289320068359375,3.2521679401397705,0.6143648624420166,-6.81941032409668
1701054385151310600,7.306310546875,4.087187767028809,0.6049573421478271,-7.461674690246582
1701054385168301600,7.323301513671875,5.709089756011963,0.9883060455322266,-7.071366310119629
1701054385185292000,7.3402919921875,6.363265037536621,1.6719143390655518,-7.533970355987549
1701054385202272000,7.35727197265625,6.63718318939209,1.6287455558776855,-7.387750625610352
1701054385219272200,7.374272216796875,5.609554767608643,1.7088267803192139,-6.749094486236572
1701054385236257800,7.3912578125,3.6867148876190186,1.478672742843628,-6.487251281738281
1701054385253254700,7.408254638671875,1.3026647567749023,1.3135569095611572,-6.368656158447266
1701054385270235100,7.425235107421875,1.1386464834213257,1.214128017425537,-6.884378910064697
1701054385287235600,7.442235595703125,-0.362746000289917,1.1437458992004395,-7.2812886238098145
1701054385304226600,7.4592265625,-1.2654750347137451,0.6657543182373047,-6.124449253082275
1701054385321217300,7.47621728515625,-0.6113786101341248,0.12130308151245117,-5.491774559020996
1701054385338210300,7.493210205078125,0.3564091920852661,-0.2721247673034668,-5.052775859832764
1701054385355198200,7.5101982421875,-0.060726046562194824,-0.4391913414001465,-4.911800384521484
1701054385372189200,7.527189208984375,-0.014444112777709961,-0.43157196044921875,-4.725305557250977
1701054385389180000,7.544179931640625,0.3492906093597412,-0.545011043548584,-4.546825408935547
1701054385406170600,7.561170654296875,1.173973798751831,-0.7039022445678711,-4.586302280426025
1701054385423161000,7.5781611328125,2.200314998626709,-0.7007350921630859,-4.722072601318359
1701054385440151800,7.59515185546875,1.8699719905853271,-0.7323265075683594,-4.5771026611328125
1701054385457142300,7.612142333984375,0.4658372402191162,-1.0110223293304443,-4.28485107421875
1701054385474132700,7.6291328125,1.0429747104644775,-1.267463207244873,-4.593698024749756
1701054385491119400,7.646119384765625,1.9700753688812256,-1.1703264713287354,-4.815365791320801
1701054385508114400,7.663114501953125,2.3169667720794678,-1.2975504398345947,-5.544656753540039
1701054385525105200,7.680105224609375,1.978766918182373,-1.2833094596862793,-5.82496976852417
1701054385542095600,7.697095703125,1.3167352676391602,-0.7110862731933594,-5.122762680053711
1701054385559084300,7.714084228515625,1.1702561378479004,-0.5779561996459961,-4.325079917907715
1701054385576078800,7.731078857421875,2.3862433433532715,-0.23100709915161133,-3.3549907207489014
1701054385593067300,7.7480673828125,3.406924247741699,0.043355464935302734,-2.5180697441101074
1701054385610058000,7.76505810546875,3.69912052154541,-0.578486442565918,-2.2894697189331055
1701054385627048700,7.782048583984375,2.553600788116455,-0.6361103057861328,-1.0571527481079102
1701054385644039400,7.799039306640625,-0.6005926132202148,-0.3355841636657715,-0.09769248962402344
1701054385661030100,7.816030029296875,-0.6418209075927734,0.29689931869506836,-0.35958147048950195
1701054385678030300,7.8330302734375,0.7892017364501953,0.14132213592529297,-0.5771803855895996
1701054385695009300,7.85000927734375,3.176771640777588,-0.8799901008605957,0.5973958969116211
1701054385712003800,7.86700390625,3.8088955879211426,-1.5567965507507324,2.0935487747192383
1701054385728992500,7.883992431640625,1.3109703063964844,-1.1549897193908691,4.470189571380615
1701054385745983000,7.90098291015625,0.4199371337890625,-1.0929529666900635,6.354443073272705
1701054385762974200,7.91797412109375,0.7343487739562988,-1.2023684978485107,5.580954074859619
1701054385779964400,7.93496435546875,1.4459104537963867,-1.7510759830474854,5.260231018066406
1701054385796955400,7.951955322265625,1.7935786247253418,-1.8440499305725098,6.1620588302612305
1701054385813943300,7.968943359375,0.8425254821777344,-1.7623107433319092,7.276976108551025
1701054385830939100,7.985939208984375,-1.1860599517822266,-1.7340121269226074,8.243217468261719
1701054385847926800,8.0029267578125,-1.181797981262207,-2.205132007598877,9.107612609863281
1701054385864917500,8.01991748046875,0.25992441177368164,-2.5508947372436523,8.850181579589844
1701054385881902800,8.03690283203125,0.7468791007995605,-2.576392650604248,8.984928131103516
1701054385898899000,8.05389892578125,0.13613557815551758,-2.5223100185394287,9.598325729370117
1701054385915889700,8.0708896484375,-1.3646702766418457,-2.3915350437164307,10.55670166015625
1701054385932880400,8.08788037109375,-2.3280510902404785,-2.1672136783599854,10.927774429321289
1701054385949870800,8.104870849609375,-2.1046833992004395,-2.187983512878418,10.49894905090332
1701054385966861300,8.121861328125,-1.889805793762207,-2.51210880279541,10.04781436920166
1701054385983852300,8.138852294921875,-1.0133423805236816,-2.923543930053711,9.68780517578125
1701054386000842800,8.1558427734375,-0.590339183807373,-3.109132766723633,9.83757495880127
1701054386017825500,8.172825439453124,-1.3353228569030762,-3.372580051422119,9.397336959838867
1701054386034824400,8.189824462890625,-0.011148929595947266,-3.639026165008545,8.657100677490234
1701054386051815000,8.20681494140625,0.20249080657958984,-3.829209566116333,8.041086196899414
1701054386068804000,8.22380419921875,-0.46595001220703125,-3.220492362976074,7.541073322296143
1701054386085797000,8.240797119140625,-1.7382287979125977,-3.2462401390075684,7.539554595947266
1701054386102786800,8.257786865234374,-6.766327381134033,-2.964883804321289,8.540472030639648
1701054386119777000,8.274777099609375,-15.170903205871582,-3.1329329013824463,10.96474838256836
1701054386136768000,8.29176806640625,-10.728958129882812,-4.516464710235596,10.23104190826416
1701054386153757700,8.3087578125,1.5473346710205078,-6.087425231933594,7.46314811706543
1701054386170750500,8.32575048828125,4.766387939453125,-6.136896133422852,7.348210334777832
1701054386187740200,8.342740234375,5.068870544433594,-5.497161865234375,7.054783344268799
1701054386204721700,8.3597216796875,3.2643814086914062,-4.416408538818359,7.239257335662842
1701054386221707300,8.376707275390626,5.659636974334717,-3.5657262802124023,7.202490329742432
1701054386238703400,8.393703369140624,6.775375843048096,-2.2468314170837402,5.759771347045898
1701054386255691800,8.41069189453125,2.7692904472351074,-1.0543930530548096,5.497809410095215
1701054386272685600,8.427685546875,-4.305343151092529,-0.4818704128265381,6.46546745300293
1701054386289678800,8.444678955078125,-3.780484437942505,-1.4338290691375732,6.524739742279053
1701054386306671000,8.461671142578124,0.4798297882080078,-2.041058301925659,5.169638156890869
1701054386323659800,8.47865966796875,4.795931816101074,-2.003380060195923,4.425959587097168
1701054386340649000,8.49564892578125,5.012640476226807,-2.089555025100708,4.065492153167725
1701054386357638000,8.512637939453125,5.906999588012695,-2.0831995010375977,3.3712544441223145
1701054386374631000,8.529630859375,6.630064964294434,-2.052278518676758,2.2196807861328125
1701054386391617800,8.54661767578125,5.948718070983887,-1.5273460149765015,0.8577570915222168
1701054386408607700,8.563607666015624,6.932976245880127,-1.1950206756591797,0.26722240447998047
1701054386425600800,8.580600830078126,6.45491361618042,-0.875507116317749,-0.759681224822998
1701054386442601500,8.5976015625,4.847731590270996,-0.6027669906616211,-1.3084354400634766
1701054386459588000,8.614588134765626,4.589637756347656,-0.7467782497406006,-0.7160687446594238
1701054386476583400,8.63158349609375,3.875300884246826,0.23389363288879395,-1.7805366516113281
1701054386493568800,8.64856884765625,4.883009910583496,0.8008358478546143,-4.408012390136719
1701054386510564900,8.66556494140625,7.294886589050293,1.2911396026611328,-5.863512992858887
1701054386527549700,8.6825498046875,5.083118438720703,2.019435405731201,-7.215353012084961
1701054386544543200,8.699543212890624,5.143679618835449,1.9155566692352295,-8.021817207336426
1701054386561534200,8.7165341796875,5.2285003662109375,2.0134856700897217,-8.489749908447266
1701054386578524700,8.733524658203125,1.475954294204712,2.7275259494781494,-7.969537734985352
1701054386595515400,8.750515380859374,3.2516682147979736,1.366637945175171,-7.9928059577941895
1701054386612506000,8.767506103515625,4.405050277709961,0.6742687225341797,-7.424670696258545
1701054386629496600,8.78449658203125,5.729574203491211,1.0335536003112793,-7.151495456695557
1701054386646487000,8.801487060546876,5.486934185028076,0.7096056938171387,-5.325628280639648
1701054386663477800,8.818477783203125,3.195512056350708,0.47345542907714844,-4.979286193847656
1701054386680464600,8.835464599609375,1.7216616868972778,-0.2430720329284668,-5.875351905822754
1701054386697463000,8.852463134765625,0.19173341989517212,-0.6037523746490479,-6.616058349609375
1701054386714449700,8.86944970703125,-0.5577642917633057,-0.45461606979370117,-7.1153340339660645
1701054386731440400,8.8864404296875,-1.1578795909881592,-0.1350388526916504,-7.064919471740723
1701054386748431400,8.903431396484375,-1.3601181507110596,-0.17881298065185547,-6.413677215576172
1701054386765421600,8.920421630859375,-1.326970100402832,-0.4642329216003418,-5.577922821044922
1701054386782412300,8.937412353515626,-0.5968449711799622,-0.7307367324829102,-5.120177268981934
1701054386799392500,8.954392578125,0.06315058469772339,-0.8966200351715088,-4.892409801483154
1701054386816393700,8.971393798828124,-0.10559815168380737,-0.9846651554107666,-4.62509822845459
1701054386833384200,8.98838427734375,0.4394415616989136,-0.7238831520080566,-4.31453800201416
1701054386850374100,9.0053740234375,0.6336033344268799,-0.08366107940673828,-4.161542892456055
1701054386867361800,9.02236181640625,1.1673853397369385,0.3574557304382324,-4.407548427581787
1701054386884356000,9.039356201171875,1.394209861755371,0.19397354125976562,-4.669927597045898
1701054386901336300,9.05633642578125,1.8881447315216064,-0.06314849853515625,-4.424056529998779
1701054386918345200,9.07334521484375,2.6257259845733643,-0.1478886604309082,-3.778918743133545
1701054386935328000,9.090327880859375,2.514604091644287,-0.22342395782470703,-2.9740686416625977
1701054386952318700,9.107318603515624,2.527630090713501,-0.5456647872924805,-2.9907469749450684
1701054386969292300,9.124292236328126,2.080299139022827,-0.473541259765625,-3.533233165740967
1701054386986300200,9.141300048828125,2.1119821071624756,-0.11171960830688477,-3.539486885070801
1701054387003291100,9.158291015625,0.6602573394775391,0.5695414543151855,-2.5466251373291016
1701054387020281300,9.17528125,0.35674571990966797,1.0655817985534668,-2.003263473510742
1701054387037272000,9.19227197265625,1.8050365447998047,0.48141956329345703,-1.7960209846496582
1701054387054262800,9.2092626953125,1.5495367050170898,-0.44156694412231445,-1.0808238983154297
1701054387071253500,9.22625341796875,2.0461182594299316,-1.3397793769836426,-0.5402851104736328
1701054387088243700,9.24324365234375,1.947190284729004,-1.2103204727172852,-0.8013997077941895
1701054387105235000,9.26023486328125,0.34176063537597656,-0.5557403564453125,0.05855989456176758
1701054387122225400,9.277225341796875,0.4626498222351074,-0.9113898277282715,0.8660707473754883
1701054387139207000,9.29420703125,2.7536559104919434,-1.5511584281921387,2.4655299186706543
1701054387156207000,9.31120703125,5.063154697418213,-2.281022787094116,5.194768905639648
1701054387173197000,9.328197021484375,6.5964179039001465,-2.561187982559204,6.9937825202941895
1701054387190187500,9.3451875,3.9376211166381836,-1.708664894104004,6.807754039764404
1701054387207178500,9.362178466796875,0.6832079887390137,-1.0132317543029785,6.099591255187988
1701054387224169200,9.379169189453124,-0.16538667678833008,-1.0019865036010742,6.459164142608643
1701054387241159700,9.39615966796875,-0.6065669059753418,-1.6280369758605957,7.742774963378906
1701054387258140000,9.413139892578124,-1.0473966598510742,-2.044248104095459,8.55377197265625
1701054387275138300,9.43013818359375,-1.1759696006774902,-1.8423140048980713,9.308341979980469
1701054387292134400,9.447134521484376,-1.7601232528686523,-1.364180564880371,9.370882034301758
1701054387309121000,9.46412109375,-2.7233283519744873,-1.6929447650909424,9.185113906860352
1701054387326113000,9.481113037109376,-3.772824287414551,-2.533365488052368,8.500828742980957
1701054387343103700,9.498103759765625,-4.105681419372559,-3.348116159439087,7.802358150482178
1701054387360094200,9.51509423828125,-3.852362871170044,-3.394956111907959,6.773766994476318
1701054387377085000,9.5320849609375,-2.979498863220215,-3.0634407997131348,6.479351043701172
1701054387394075600,9.54907568359375,-3.1280434131622314,-3.0660006999969482,6.688174724578857
1701054387411065900,9.56606591796875,-4.093031883239746,-2.755263566970825,6.876274585723877
1701054387428056600,9.583056640625,-3.7225399017333984,-2.4530484676361084,6.709234237670898
1701054387445047600,9.600047607421875,-5.378845691680908,-3.0742313861846924,6.395941734313965
1701054387462026200,9.617026123046875,-9.073394775390625,-2.5637662410736084,7.611404895782471
1701054387479017200,9.634017333984374,-12.457213401794434,-2.7339231967926025,8.363863945007324
1701054387496022000,9.65102197265625,-7.493427276611328,-3.588214874267578,8.045254707336426
1701054387513010400,9.668010498046876,-1.5093183517456055,-4.963863849639893,7.390623092651367
1701054387529990100,9.684990234375,2.800050735473633,-6.0544657707214355,7.49505615234375
1701054387546991000,9.7019912109375,2.716517925262451,-5.145674228668213,7.596119403839111
1701054387563982000,9.718982177734375,1.766552448272705,-3.3054862022399902,7.0311455726623535
1701054387580972800,9.735972900390625,2.9115824699401855,-1.3152971267700195,7.613283634185791
1701054387597959000,9.752958984375,3.1662392616271973,-0.34445858001708984,8.231531143188477
1701054387614953500,9.769953369140625,1.2371826171875,-0.10071849822998047,7.886027812957764
1701054387631931400,9.786931396484375,-1.613173007965088,-0.2200632095336914,7.8914594650268555
1701054387648935200,9.80393505859375,-4.100818157196045,-0.24927949905395508,6.615715026855469
1701054387665925600,9.820925537109375,-2.329817533493042,-0.17235660552978516,5.8062334060668945
1701054387682916600,9.83791650390625,0.4401240348815918,-0.4785621166229248,6.3043646812438965
1701054387699893500,9.8548935546875,4.090991497039795,-1.6665301322937012,6.326923847198486
1701054387716897800,9.871897705078124,6.865311145782471,-1.4138274192810059,3.9621243476867676
1701054387733885700,9.8888857421875,6.364782333374023,-0.8448653221130371,2.593468189239502
1701054387750881500,9.905881591796875,4.218043327331543,-0.657681941986084,2.0610828399658203
1701054387767869700,9.92286962890625,2.5470380783081055,-0.4547281265258789,2.6844606399536133
1701054387784860200,9.939860107421875,1.6592764854431152,-1.3763856887817383,4.022286891937256
1701054387801853200,9.956853271484375,2.622126579284668,-1.700967788696289,3.6393322944641113
1701054387818841600,9.973841552734376,3.037630796432495,-1.3965301513671875,2.4573984146118164
1701054387835832300,9.990832275390625,3.626295566558838,-1.7100074291229248,2.0095415115356445
1701054387852823000,10.007822998046874,5.907618522644043,-2.1640565395355225,1.3583660125732422
1701054387869813200,10.024813232421875,8.321576118469238,-1.8283207416534424,-0.22476863861083984
1701054387886803700,10.0418037109375,8.044434547424316,-0.9724826812744141,-2.235579013824463
1701054387903795500,10.05879541015625,7.671258926391602,-0.20520591735839844,-4.3576860427856445
1701054387920785400,10.075785400390625,7.045661926269531,0.5376448631286621,-5.078672409057617
1701054387937758500,10.092758544921875,5.226202964782715,0.9638552665710449,-6.109302997589111
1701054387954773500,10.1097734375,3.9492526054382324,0.5793628692626953,-6.85060977935791
1701054387971747300,10.126747314453125,3.406771421432495,0.1896953582763672,-8.021021842956543
1701054387988745500,10.143745361328126,5.533398628234863,-0.3949546813964844,-7.8165764808654785
1701054388005741300,10.1607412109375,5.184100151062012,-0.40857410430908203,-6.356070518493652
1701054388022729500,10.1777294921875,3.453115463256836,-0.043277740478515625,-4.8574018478393555
1701054388039720000,10.194719970703124,1.7533482313156128,0.35434484481811523,-4.392880439758301
1701054388056710700,10.211710693359375,0.9243279099464417,0.2456812858581543,-5.315667152404785
1701054388073699300,10.22869921875,0.42200767993927,-0.09189701080322266,-6.073003768920898
1701054388090693600,10.245693603515624,0.2833859622478485,-0.7655701637268066,-6.125070571899414
1701054388107682600,10.2626826171875,0.007978320121765137,-1.1757841110229492,-6.298682689666748
1701054388124673300,10.27967333984375,-0.3390689194202423,-0.9077682495117188,-5.226381301879883
1701054388141663700,10.296663818359375,0.5124791860580444,-0.9753823280334473,-3.888059616088867
1701054388158654500,10.313654541015625,2.075747489929199,-0.9214673042297363,-2.500213146209717
1701054388175645000,10.33064501953125,0.903791606426239,-0.6232876777648926,-3.2558979988098145
1701054388192636700,10.34763671875,0.8426883220672607,-0.5475640296936035,-4.420357704162598
1701054388209626400,10.36462646484375,1.7357043027877808,-0.5692324638366699,-4.292874336242676
1701054388226619000,10.381618896484374,2.1695337295532227,-0.5331053733825684,-3.203835964202881
1701054388243606000,10.39860595703125,2.7634174823760986,-0.6749215126037598,-1.5112314224243164
1701054388260598300,10.415598388671874,3.094635486602783,-0.9797253608703613,-1.089003086090088
1701054388277591300,10.43259130859375,1.8510785102844238,-1.5190091133117676,-2.447427272796631
1701054388294577400,10.449577392578124,-0.07952654361724854,-1.8201847076416016,-3.634934902191162
1701054388311572200,10.466572265625,0.3201943635940552,-1.8051605224609375,-4.303750038146973
1701054388328560600,10.483560546875,3.262338161468506,-1.3422927856445312,-3.8358044624328613
1701054388345551000,10.500551025390624,4.116919040679932,-1.2337031364440918,-2.8801965713500977
1701054388362542000,10.5175419921875,3.2203898429870605,-1.6362919807434082,-2.128723621368408
1701054388379520800,10.534520751953124,2.071716785430908,-2.024474620819092,-2.1460890769958496
1701054388396515000,10.55151513671875,0.9734086990356445,-1.7059431076049805,-1.9965710639953613
1701054388413506000,10.568506103515626,2.9138340950012207,-1.8868541717529297,-1.9718303680419922
1701054388430497000,10.5854970703125,5.284781455993652,-1.701646327972412,-1.7430329322814941
1701054388447488500,10.602488525390624,4.903643608093262,-1.1916899681091309,-0.23653888702392578
1701054388464476200,10.61947607421875,2.716625213623047,-1.0335817337036133,-0.39763975143432617
1701054388481469700,10.6364697265625,1.4125702381134033,-0.488004207611084,-1.448476791381836
1701054388498455800,10.653455810546875,2.3803532123565674,-0.28673696517944336,-2.1309618949890137
1701054388515449300,10.670449462890625,2.582510471343994,-0.4270005226135254,-2.230257272720337
1701054388532451300,10.687451416015625,3.6675398349761963,-1.4580078125,-1.3098268508911133
1701054388549439200,10.704439208984375,3.748396873474121,-1.4937329292297363,-0.15235185623168945
1701054388566429700,10.7214296875,2.030890941619873,-1.396151065826416,0.40454816818237305
1701054388583420400,10.73842041015625,0.9745192527770996,-1.0331048965454102,0.41320085525512695
1701054388600411000,10.755410888671875,0.9606223106384277,-1.4231476783752441,0.5383577346801758
1701054388617401600,10.772401611328124,2.905177116394043,-2.4788708686828613,1.293447494506836
1701054388634381800,10.7893818359375,4.067167282104492,-2.617065906524658,2.717463493347168
1701054388651383000,10.806383056640625,2.685110569000244,-2.285566806793213,4.4083428382873535
1701054388668363800,10.82336376953125,0.6800031661987305,-1.7054381370544434,5.689213752746582
1701054388685364500,10.840364501953125,-2.1368541717529297,-1.4343295097351074,5.086778163909912
1701054388702344200,10.85734423828125,-0.6684408187866211,-1.877150535583496,4.785914421081543
1701054388719335700,10.874335693359376,0.8399930000305176,-2.7241766452789307,3.9766268730163574
1701054388736346600,10.8913466796875,2.088700294494629,-3.735283136367798,5.169132709503174
1701054388753326800,10.908326904296874,0.23184776306152344,-3.2355246543884277,5.96417236328125
1701054388770317600,10.925317626953126,-2.211047887802124,-2.2082433700561523,7.498039245605469
1701054388787308300,10.942308349609375,-1.9306974411010742,-2.125718116760254,8.42808723449707
1701054388804298800,10.959298828125,-0.7658915519714355,-2.511803388595581,9.025407791137695
1701054388821289500,10.97628955078125,-0.7773656845092773,-2.9608633518218994,8.893176078796387
1701054388838280200,10.9932802734375,-0.9940075874328613,-3.1687614917755127,8.150226593017578
1701054388855267800,11.010267822265625,-1.2814769744873047,-3.2896714210510254,7.071549415588379
1701054388872263200,11.02726318359375,-0.5191845893859863,-3.3903040885925293,7.451216220855713
1701054388889252900,11.0442529296875,-1.107065200805664,-2.2149746417999268,11.789088249206543
1701054388906242800,11.061242919921876,-4.478310585021973,-1.2635703086853027,9.772048950195312
1701054388923233300,11.0782333984375,-4.3335418701171875,-1.9834113121032715,8.589471817016602
1701054388940224000,11.09522412109375,-5.08529806137085,-4.011946201324463,5.856695175170898
1701054388957214500,11.11221435546875,-5.924607753753662,-5.175363063812256,6.86690092086792
1701054388974205200,11.129205078125,-6.372884273529053,-4.778000831604004,6.625396728515625
1701054388991196200,11.146196044921876,-4.329383850097656,-4.053566932678223,5.3026251792907715
1701054389008186600,11.1631865234375,-2.419342041015625,-3.631838321685791,6.932209491729736
1701054389025177300,11.18017724609375,-0.14439821243286133,-3.594588279724121,8.983484268188477
1701054389042168000,11.19716796875,-0.3059506416320801,-3.1831893920898438,8.900272369384766
1701054389059150300,11.214150390625,-0.18626117706298828,-2.2153937816619873,7.243739604949951
1701054389076149200,11.231149169921874,1.0088510513305664,-1.5611326694488525,7.440369606018066
1701054389093140000,11.248139892578125,1.0483369827270508,-1.3197166919708252,8.413476943969727
1701054389110130200,11.265130126953125,0.49221134185791016,-0.6341204643249512,9.546369552612305
1701054389127113500,11.282113525390624,-3.176557779312134,-0.21300077438354492,10.505854606628418
1701054389144111000,11.299111083984375,-5.135376930236816,-0.4519844055175781,10.280099868774414
1701054389161102300,11.316102294921874,-2.5228939056396484,-1.3473732471466064,8.955466270446777
1701054389178082600,11.33308251953125,0.3789205551147461,-1.607543706893921,7.7078704833984375
1701054389195081000,11.3500810546875,5.789074897766113,-2.26397442817688,7.316906452178955
1701054389212080000,11.367080078125,12.474523544311523,-2.6290178298950195,7.624388217926025
1701054389229064700,11.384064697265625,11.777178764343262,-0.7870104312896729,6.589224338531494
1701054389246055400,11.401055419921875,7.160612106323242,0.942467212677002,5.6890482902526855
1701054389263046100,11.418046142578126,5.138164043426514,-0.32745361328125,3.325317859649658
1701054389280036900,11.435036865234375,6.520443916320801,-2.255061388015747,1.3607282638549805
1701054389297027600,11.452027587890624,4.3227949142456055,-2.1278791427612305,0.013018608093261719
1701054389314018000,11.46901806640625,1.970654010772705,-0.7190556526184082,0.1930866241455078
1701054389331008800,11.4860087890625,3.8439338207244873,-0.12456083297729492,-0.6599445343017578
1701054389347999500,11.50299951171875,5.551090717315674,-0.40653204917907715,-2.6737332344055176
1701054389364990000,11.519989990234375,5.431790828704834,-0.5068809986114502,-3.931906223297119
1701054389381981000,11.53698095703125,4.338483810424805,-0.17487859725952148,-4.997020721435547
1701054389398971400,11.553971435546876,3.7651114463806152,0.3010091781616211,-6.139532089233398
1701054389415951400,11.570951416015625,4.065459251403809,1.0083098411560059,-7.252323150634766
1701054389432939800,11.587939697265625,3.9241952896118164,2.0975093841552734,-7.3895063400268555
1701054389449943000,11.604943115234375,4.505707263946533,2.8342390060424805,-6.882379055023193
1701054389466934000,11.62193408203125,5.262322902679443,3.013597011566162,-6.081953048706055
1701054389483924500,11.638924560546876,6.469358921051025,2.236968517303467,-4.373626708984375
1701054389500915000,11.6559150390625,5.510023593902588,1.9814858436584473,-4.004150867462158
1701054389517895400,11.6728955078125,5.537254333496094,1.6237120628356934,-4.2240166664123535
1701054389534897700,11.689897705078126,4.948731899261475,1.1743993759155273,-4.6660308837890625
1701054389551886000,11.706885986328125,4.720198631286621,0.9613542556762695,-4.793360710144043
1701054389568867600,11.72386767578125,3.1601099967956543,0.9848403930664062,-5.141203880310059
1701054389585868500,11.74086865234375,1.9519274234771729,0.5871458053588867,-5.3130950927734375
1701054389602859300,11.757859375,0.4782193601131439,-0.08303308486938477,-6.043288230895996
1701054389619839200,11.774839111328125,-0.4545396566390991,-0.698108434677124,-6.344332218170166
1701054389636840200,11.791840087890625,0.3956034183502197,-1.2843339443206787,-5.654087066650391
1701054389653828400,11.808828369140626,1.1266255378723145,-1.673306941986084,-5.429569721221924
1701054389670824200,11.82582421875,0.9737110137939453,-1.650540828704834,-5.159417152404785
1701054389687812400,11.842812255859375,1.719240427017212,-1.6146585941314697,-4.519217491149902
1701054389704789000,11.8597890625,2.484327793121338,-1.5420622825622559,-4.029598712921143
1701054389721784600,11.87678466796875,3.0261566638946533,-1.4754266738891602,-4.525202751159668
1701054389738775000,11.893775146484375,3.211733102798462,-1.3889501094818115,-4.929335594177246
1701054389755766000,11.91076611328125,2.7106339931488037,-1.3880667686462402,-4.759741306304932
1701054389772757800,11.9277578125,2.729536533355713,-1.5385262966156006,-4.16419792175293
1701054389789746400,11.944746337890624,3.4698941707611084,-1.69195556640625,-4.047086715698242
1701054389806736100,11.961736083984375,3.510251998901367,-1.644911766052246,-4.878046035766602
1701054389823730000,11.97872998046875,2.678584098815918,-1.4607038497924805,-5.358780860900879
1701054389840719600,11.9957197265625,2.030694007873535,-1.219426155090332,-5.50730037689209
1701054389857714200,12.012714111328124,1.9540019035339355,-0.9544005393981934,-4.739803314208984
1701054389874700800,12.02970068359375,2.1693978309631348,-0.6807723045349121,-4.470332145690918
1701054389891691800,12.04669189453125,4.41706657409668,-0.6023349761962891,-4.755401134490967
1701054389908683500,12.06368359375,4.962973594665527,0.08343696594238281,-4.236176013946533
1701054389925683500,12.080683349609375,4.8247575759887695,0.3900737762451172,-2.22914457321167
1701054389942672000,12.097671875,4.981315612792969,-0.059185028076171875,-1.6504206657409668
1701054389959662600,12.11466259765625,4.261706352233887,-0.7688279151916504,-1.2326231002807617
1701054389976653000,12.131653076171874,3.6811904907226562,-1.0700526237487793,-0.9303131103515625
1701054389993643500,12.1486435546875,4.452232837677002,-1.3826866149902344,0.1675577163696289
1701054390010634500,12.165634521484375,3.2646045684814453,-0.8110523223876953,1.5566110610961914
1701054390027625000,12.182625,2.7049450874328613,-0.11942434310913086,2.026103973388672
1701054390044615700,12.19961572265625,3.63533878326416,-0.7415390014648438,3.4831595420837402
1701054390061599500,12.216599609375,4.487616539001465,-1.7255263328552246,5.108798980712891
1701054390078597000,12.23359716796875,4.694917678833008,-2.185293197631836,6.023915767669678
1701054390095590400,12.25059033203125,2.0694918632507324,-1.8306031227111816,5.600650787353516
1701054390112575700,12.26757568359375,-0.4211697578430176,-0.9897918701171875,5.1888957023620605
1701054390129568800,12.28456884765625,-0.5065131187438965,-0.5992684364318848,5.679168224334717
1701054390146548700,12.301548828125,0.39176511764526367,-1.2498373985290527,6.653641223907471
1701054390163550700,12.31855078125,2.593933582305908,-2.215608596801758,7.461777687072754
1701054390180529000,12.33552880859375,2.4516115188598633,-2.564732313156128,7.283033847808838
1701054390197533200,12.352533203125,-0.16348648071289062,-1.9740872383117676,7.940415859222412
1701054390214534700,12.36953466796875,-1.8063151836395264,-1.588144302368164,8.048023223876953
1701054390231512800,12.386512939453125,-1.67626953125,-1.6443605422973633,8.994546890258789
1701054390248501000,12.4035009765625,-1.4173743724822998,-2.3309593200683594,9.356073379516602
1701054390265496800,12.420496826171876,-1.6148333549499512,-3.02752947807312,8.941644668579102
1701054390282475800,12.437475830078125,-1.758817195892334,-3.323542356491089,8.450407028198242
1701054390299475500,12.454475341796876,-3.629545211791992,-3.03564453125,8.254749298095703
1701054390316466200,12.471466064453125,-4.170182228088379,-3.051097869873047,8.292949676513672
1701054390333456600,12.48845654296875,-3.044480562210083,-3.434432029724121,9.386510848999023
1701054390350447000,12.505447021484375,-2.3242979049682617,-4.107431411743164,7.773232460021973
1701054390367437800,12.522437744140625,-1.4971716403961182,-4.844306945800781,7.30747127532959
1701054390384428500,12.539428466796876,-4.286789417266846,-5.04772424697876,6.898298740386963
1701054390401419300,12.556419189453125,-8.971060752868652,-4.966994762420654,7.515571594238281
1701054390418409700,12.57340966796875,-3.8804378509521484,-5.647073745727539,6.957789421081543
1701054390435400700,12.590400634765626,-1.0161807537078857,-5.643416404724121,6.623744964599609
1701054390452391200,12.60739111328125,-0.17188072204589844,-5.301912307739258,7.570450782775879
1701054390469382000,12.6243818359375,1.9823050498962402,-4.752378463745117,8.089536666870117
1701054390486372600,12.64137255859375,2.865570545196533,-3.7955563068389893,7.8044867515563965
1701054390503363000,12.658363037109375,2.245814800262451,-2.744398355484009,7.736248016357422
1701054390520353800,12.675353759765626,2.6720352172851562,-1.9306511878967285,8.607263565063477
1701054390537344300,12.69234423828125,1.145798683166504,-1.4253246784210205,8.782743453979492
1701054390554344400,12.709344482421875,-1.0120103359222412,-0.5653815269470215,9.05838394165039
1701054390571329800,12.726329833984375,-2.948734760284424,-0.6347689628601074,9.450427055358887
1701054390588316400,12.74331640625,-3.86067271232605,-1.5125958919525146,7.449337005615234
1701054390605307100,12.76030712890625,-0.11167573928833008,-2.1296541690826416,6.673147678375244
1701054390622297300,12.77729736328125,4.175631523132324,-2.1835379600524902,6.229869365692139
1701054390639278000,12.794278076171874,6.346890926361084,-1.8895518779754639,5.086554050445557
1701054390656269600,12.81126953125,7.072666645050049,-1.5751597881317139,3.9994678497314453
1701054390673255200,12.828255126953126,6.229515552520752,-1.0379116535186768,3.6541433334350586
1701054390690260200,12.84526025390625,3.931973695755005,-0.9260022640228271,2.67681884765625
1701054390707251000,12.8622509765625,3.7034811973571777,-1.6986701488494873,2.872983932495117
1701054390724241700,12.87924169921875,3.9706780910491943,-1.4811944961547852,2.0227203369140625
1701054390741232000,12.896232177734374,5.798242568969727,-1.5006732940673828,1.7159233093261719
1701054390758222800,12.913222900390625,7.230720520019531,-0.6031856536865234,1.2674474716186523
1701054390775213600,12.930213623046875,7.1442975997924805,0.6289205551147461,0.2937040328979492
1701054390792193500,12.947193603515625,7.589612007141113,1.6952903270721436,-0.45116138458251953
1701054390809194500,12.964194580078125,9.035117149353027,1.9814348220825195,-1.5738391876220703
1701054390826185500,12.981185546875,8.812997817993164,1.9555785655975342,-3.5489377975463867
1701054390843176000,12.998176025390626,7.908731460571289,1.6855354309082031,-4.963108539581299
1701054390860166700,13.015166748046875,5.830458641052246,1.7834560871124268,-6.304266929626465
1701054390877157400,13.032157470703124,5.185965061187744,1.9387924671173096,-7.2483015060424805
1701054390894147800,13.04914794921875,5.015570163726807,2.3687000274658203,-7.1869401931762695
1701054390911138300,13.06613818359375,4.929096698760986,2.4997076988220215,-7.099762916564941
1701054390928129000,13.08312890625,5.877368450164795,2.7178866863250732,-7.168534755706787
1701054390945119700,13.10011962890625,6.355460166931152,2.6733036041259766,-6.920279026031494
1701054390962101500,13.1171015625,4.977985858917236,3.5311412811279297,-6.0521135330200195
1701054390979101200,13.13410107421875,2.709526777267456,3.3823626041412354,-5.345839500427246
1701054390996092000,13.151091796875,1.1308259963989258,2.271897315979004,-5.560332298278809
1701054391013082000,13.16808203125,0.18549904227256775,1.0194978713989258,-5.640509605407715
1701054391030073300,13.1850732421875,-1.657079815864563,0.2585747241973877,-6.014105796813965
1701054391047063600,13.2020634765625,-2.3256490230560303,-0.6018569469451904,-5.845355033874512
1701054391064052200,13.21905224609375,-1.8645408153533936,-1.1599156856536865,-5.708045959472656
1701054391081046800,13.236046875,-1.3722634315490723,-1.4143760204315186,-5.669626712799072
1701054391098022400,13.2530224609375,-0.6554136872291565,-1.259953498840332,-5.666441440582275
1701054391115023600,13.270023681640625,0.2928040325641632,-0.9366681575775146,-4.862917900085449
1701054391132018000,13.287017822265625,0.6138702630996704,-0.762049674987793,-4.518135070800781
1701054391149007000,13.304007080078126,1.4248814582824707,-0.9329724311828613,-4.287964344024658
1701054391165998300,13.320998291015625,2.817653179168701,-1.3649332523345947,-4.61944055557251
1701054391182970000,13.33797021484375,2.871706008911133,-1.390286922454834,-5.120134353637695
1701054391199979500,13.3549794921875,2.9361789226531982,-1.2437291145324707,-5.8058624267578125
1701054391216959700,13.371959716796875,3.5778510570526123,-1.1048545837402344,-6.219516754150391
1701054391233960700,13.388960693359374,4.083388328552246,-1.4288532733917236,-6.349442958831787
1701054391250951400,13.405951416015625,3.608027935028076,-1.5285589694976807,-6.968185901641846
1701054391267942100,13.422942138671875,4.021483421325684,-1.5429236888885498,-6.85169792175293
1701054391284932600,13.4399326171875,3.2452094554901123,-1.4341099262237549,-6.233531951904297
1701054391301923300,13.45692333984375,3.8111934661865234,-1.6078073978424072,-5.548335075378418
1701054391318913800,13.473913818359375,4.246126174926758,-1.9091248512268066,-5.476719379425049
1701054391335904800,13.49090478515625,4.235752105712891,-1.7170944213867188,-6.176346778869629
1701054391352895200,13.507895263671875,5.992871284484863,-1.4346237182617188,-6.11178731918335
1701054391369886000,13.524885986328124,5.661453723907471,-0.24138593673706055,-3.6283230781555176
1701054391386876700,13.541876708984375,4.054511070251465,0.8801250457763672,-0.9733328819274902
1701054391403867400,13.558867431640625,4.791277885437012,0.3503842353820801,0.2554464340209961
1701054391420857900,13.57585791015625,3.842987537384033,-0.013312816619873047,0.2934379577636719
1701054391437852000,13.592851806640626,4.6191534996032715,0.12427043914794922,0.5860943794250488
1701054391454839000,13.609839111328125,3.1347885131835938,0.97613525390625,1.3067655563354492
1701054391471825200,13.6268251953125,3.5905957221984863,0.7947545051574707,1.9902434349060059
1701054391488825000,13.6438251953125,2.979440212249756,0.00903177261352539,2.6629648208618164
1701054391505811000,13.66081103515625,2.3009257316589355,-0.7799887657165527,3.7225160598754883
1701054391522801700,13.6778017578125,1.230048656463623,-0.07851696014404297,3.8664488792419434
1701054391539792100,13.694792236328125,1.2936244010925293,-0.532130241394043,4.663891792297363
1701054391556783000,13.711783203125,1.77662992477417,-1.7577202320098877,4.918239116668701
1701054391573775400,13.728775390625,1.965897560119629,-2.539646863937378,3.9764013290405273
1701054391590758400,13.74575830078125,2.7389626502990723,-3.291961193084717,3.8399596214294434
1701054391607755000,13.762755126953126,3.174717903137207,-3.354830026626587,3.710343360900879
1701054391624745500,13.779745361328125,1.718310832977295,-2.8494131565093994,4.707714557647705
1701054391641725700,13.7967255859375,0.11704301834106445,-3.2408909797668457,6.596945762634277
1701054391658727000,13.813726806640625,0.513054370880127,-3.5332109928131104,6.880412578582764
1701054391675725800,13.830725830078125,0.9069333076477051,-3.460292100906372,7.327790260314941
1701054391692694500,13.847694580078125,0.6592617034912109,-3.2262840270996094,7.880851745605469
1701054391709698600,13.864698486328125,-0.5484752655029297,-3.086643934249878,8.647136688232422
1701054391726689500,13.881689453125,-1.442917823791504,-2.956105947494507,9.197704315185547
1701054391743680000,13.898679931640626,-1.0945067405700684,-3.3582258224487305,9.142123222351074
1701054391760661200,13.9156611328125,-0.8931655883789062,-4.063607215881348,8.67950439453125
1701054391777660200,13.93266015625,-1.0681819915771484,-4.5069661140441895,8.118717193603516
1701054391794653200,13.949653076171876,-1.28336763381958,-4.285478115081787,8.139081954956055
1701054391811642600,13.966642578125,-1.1982107162475586,-3.6738996505737305,8.601625442504883
1701054391828646400,13.983646484375,-0.4705381393432617,-3.574759006500244,9.267011642456055
1701054391845624000,14.0006240234375,-0.10578346252441406,-3.922614574432373,9.951536178588867
1701054391862614500,14.017614501953124,-1.2667875289916992,-4.087069034576416,9.293766021728516
1701054391879593200,14.03459326171875,-2.3359217643737793,-4.025717735290527,6.347609043121338
1701054391896585200,14.051585205078124,-3.7705838680267334,-4.640988826751709,6.541003227233887
1701054391913579800,14.068579833984375,-11.613775253295898,-4.107841491699219,8.040410995483398
1701054391930569500,14.085569580078126,-15.717134475708008,-3.378000497817993,8.927562713623047
1701054391947559400,14.102559326171875,-6.68179988861084,-4.2600531578063965,7.521487712860107
1701054391964547800,14.1195478515625,1.0198030471801758,-5.496053218841553,5.909324645996094
1701054391981535700,14.13653564453125,4.71284294128418,-5.011951923370361,6.420555591583252
1701054391998529000,14.153529052734376,3.652820110321045,-3.7061281204223633,6.307839870452881
1701054392015532500,14.170532470703124,2.997101306915283,-2.206507682800293,7.81022310256958
1701054392032521000,14.18752099609375,3.136538505554199,-1.0806152820587158,6.658937454223633
1701054392049511700,14.20451171875,3.178734302520752,-1.3284611701965332,6.43930721282959
1701054392066502100,14.221502197265625,1.4997949600219727,-1.0973050594329834,6.2877197265625
1701054392083492900,14.238492919921875,-3.7624363899230957,-1.1969454288482666,6.927858829498291
1701054392100483300,14.2554833984375,-6.927921772003174,-1.413663387298584,7.353570461273193
1701054392117474300,14.272474365234375,-4.088771820068359,-2.500964879989624,7.104248046875
1701054392134465000,14.289465087890624,2.7744288444519043,-3.7122340202331543,6.447239875793457
1701054392151455200,14.306455322265625,6.694205284118652,-3.5791656970977783,4.661542892456055
1701054392168435500,14.323435546875,6.587832450866699,-2.669275999069214,4.240547180175781
1701054392185436700,14.340436767578124,4.926117897033691,-1.7244855165481567,4.189818382263184
1701054392202427600,14.357427734375,5.02272891998291,-1.1153385639190674,3.3346939086914062
1701054392219407400,14.374407470703124,6.135305404663086,-0.7016336917877197,1.273019790649414
1701054392236408800,14.391408935546876,6.332030296325684,-0.8925604820251465,0.5372152328491211
1701054392253399600,14.408399658203125,6.7070536613464355,-0.7250576019287109,-0.8700523376464844
1701054392270390000,14.42539013671875,5.7530517578125,1.323793888092041,-2.472921371459961
1701054392287380500,14.44238037109375,4.860762596130371,2.645792245864868,-4.515751838684082
1701054392304371000,14.459370849609375,2.9801671504974365,2.0682430267333984,-5.6984758377075195
1701054392321362000,14.47636181640625,5.456115245819092,0.9706707000732422,-4.167307376861572
1701054392338352600,14.4933525390625,7.652225494384766,1.481635570526123,-4.1366658210754395
1701054392355343000,14.510343017578125,6.3880157470703125,2.3736495971679688,-4.87923002243042
1701054392372323000,14.527322998046875,7.884255409240723,2.1048567295074463,-4.881452560424805
1701054392389316900,14.54431689453125,7.5531487464904785,2.412569046020508,-5.350475311279297
1701054392406315300,14.561315185546874,8.388696670532227,3.107440948486328,-6.10321569442749
1701054392423301600,14.578301513671875,7.444979667663574,3.387429714202881,-6.869380950927734
1701054392440300800,14.59530078125,5.735946178436279,3.222599983215332,-7.619748592376709
1701054392457287200,14.612287109375,4.165980339050293,2.3552145957946777,-7.887699604034424
1701054392474277400,14.62927734375,2.379972457885742,1.1028685569763184,-7.507948875427246
1701054392491261000,14.646260986328125,0.6533631086349487,0.1463634967803955,-7.004570484161377
1701054392508259000,14.663259033203126,-0.10198557376861572,-0.3393135070800781,-6.2510504722595215
1701054392525243100,14.6802431640625,0.0390470027923584,-0.5941808223724365,-5.495922088623047
1701054392542240300,14.697240234375,-0.3824247121810913,-0.5817315578460693,-5.936645030975342
1701054392559223800,14.714223876953126,0.21118104457855225,-0.6519010066986084,-6.097933769226074
1701054392576221400,14.731221435546875,0.9024103879928589,-0.6035094261169434,-6.381998538970947
1701054392593212200,14.748212158203126,1.0679807662963867,-0.7005577087402344,-6.547555923461914
1701054392610202600,14.76520263671875,1.7155122756958008,-1.10121750831604,-6.527750492095947
1701054392627193300,14.782193359375,2.3930113315582275,-1.3047442436218262,-6.6102213859558105
1701054392644184000,14.79918408203125,2.139768600463867,-1.0720820426940918,-6.789366245269775
1701054392661172200,14.816172119140624,2.6512222290039062,-1.024061918258667,-6.43537712097168
1701054392678157300,14.8331572265625,2.918517589569092,-1.1648757457733154,-6.585089683532715
1701054392695153400,14.8501533203125,3.49859356880188,-1.100370168685913,-6.976449966430664
1701054392712149200,14.867149169921875,5.088504791259766,-1.44720458984375,-6.105955123901367
1701054392729137400,14.884137451171876,5.4146409034729,-1.859832763671875,-5.095561504364014
1701054392746127600,14.901127685546875,5.318655967712402,-2.119321823120117,-4.4743123054504395
1701054392763116000,14.918115966796876,5.378652572631836,-1.7449543476104736,-4.624152660369873
1701054392780112000,14.93511181640625,4.967741966247559,-1.1798996925354004,-4.29949951171875
1701054392797100000,14.95210009765625,4.354506492614746,-0.42166900634765625,-2.300365924835205
1701054392814090500,14.969090576171874,3.616361141204834,0.5678601264953613,-0.37477588653564453
1701054392831081200,14.986081298828125,4.923746109008789,-0.36185359954833984,-0.2810368537902832
1701054392848072000,15.003072021484375,4.6605095863342285,-0.6040873527526855,-0.4463043212890625
1701054392865062100,15.020062255859376,4.038766860961914,-0.9302301406860352,-0.18260812759399414
1701054392882052900,15.037052978515625,4.257826328277588,-1.3754816055297852,0.4650707244873047
1701054392899043600,15.054043701171874,1.7499589920043945,-1.107856273651123,1.810779094696045
1701054392916034600,15.07103466796875,1.2510476112365723,-1.4321117401123047,1.7957878112792969
1701054392933025000,15.08802490234375,3.4822521209716797,-2.1151840686798096,1.387742519378662
1701054392950015000,15.105014892578126,4.137153148651123,-1.8271207809448242,2.0246310234069824
1701054392967007000,15.122007080078125,4.358203887939453,-1.5188260078430176,3.8127903938293457
1701054392983996700,15.13899658203125,3.036440372467041,-1.5731968879699707,5.256880760192871
1701054393000987400,15.1559873046875,1.1778526306152344,-1.8921020030975342,6.406480312347412
1701054393017965800,15.1729658203125,0.8399243354797363,-2.390244722366333,5.9092278480529785
1701054393034964000,15.1899638671875,1.358537197113037,-2.5883750915527344,5.645234107971191
1701054393051961900,15.2069619140625,0.5967888832092285,-2.508441209793091,5.908258438110352
1701054393068950000,15.223949951171875,0.20341968536376953,-2.7406222820281982,6.072035789489746
1701054393085940700,15.240940673828124,0.29003047943115234,-3.1161282062530518,7.3116068840026855
1701054393102931500,15.257931396484375,-1.0070476531982422,-2.6389031410217285,7.2727861404418945
1701054393119922000,15.274921875,-4.199184417724609,-1.7888360023498535,7.755524158477783
1701054393136912600,15.29191259765625,-6.785075664520264,-1.5289287567138672,8.05978775024414
1701054393153900800,15.30890087890625,-6.798539161682129,-1.6132473945617676,8.541265487670898
1701054393170904600,15.325904541015625,-5.076600074768066,-1.888862133026123,8.211784362792969
1701054393187882000,15.342882080078125,-3.7581396102905273,-2.1572108268737793,8.080780982971191
1701054393204875300,15.359875244140625,-3.3454360961914062,-2.084744930267334,8.462571144104004
1701054393230350000,15.38535009765625,-1.99643874168396,-2.2371633052825928,9.628960609436035
1701054393247347700,15.40234765625,-2.1372532844543457,-2.7662038803100586,9.869485855102539
1701054393264332300,15.419332275390625,-3.176013469696045,-2.3041274547576904,10.088335037231445
1701054393281324500,15.436324462890624,-5.006440162658691,-3.4677648544311523,6.44621467590332
1701054393298313500,15.4533134765625,-9.268357276916504,-4.717108249664307,6.386831283569336
1701054393315307500,15.4703076171875,-11.395801544189453,-4.973293781280518,5.184256076812744
1701054393332295000,15.487294921875,-5.474942207336426,-4.758409023284912,5.133720874786377
1701054393349291300,15.504291259765624,-1.3696331977844238,-5.749235153198242,5.5748677253723145
1701054393366277000,15.521277099609375,-0.20625686645507812,-5.574681758880615,7.175987243652344
1701054393383271400,15.538271484375,-2.4552955627441406,-4.3763909339904785,7.129923343658447
1701054393400258000,15.555258056640625,-0.14788246154785156,-3.098013401031494,7.924623012542725
1701054393417250600,15.57225048828125,3.834958553314209,-2.1812968254089355,9.84388256072998
1701054393434238000,15.589238037109375,3.943758487701416,-1.8898229598999023,10.237987518310547
1701054393451233000,15.60623291015625,1.3283305168151855,-1.7255959510803223,9.697247505187988
1701054393468230400,15.62323046875,-3.841855764389038,-0.7417192459106445,8.176261901855469
1701054393485222100,15.64022216796875,-8.924789428710938,-1.0458879470825195,9.378213882446289
1701054393502211300,15.65721142578125,-5.158677101135254,-2.511887550354004,9.57880973815918
1701054393519191300,15.67419140625,0.06852388381958008,-4.030917167663574,9.049105644226074
1701054393536192800,15.69119287109375,2.714308261871338,-4.429378509521484,7.835083484649658
1701054393553184800,15.708184814453125,7.018118381500244,-3.647681474685669,7.079107284545898
1701054393570173700,15.725173583984375,7.860022068023682,-2.2612128257751465,6.521721363067627
1701054393587165700,15.742165771484375,10.102258682250977,-2.334584951400757,5.712833404541016
1701054393604155400,15.7591552734375,9.65363883972168,-2.3197755813598633,4.787622451782227
1701054393621147100,15.776147216796875,7.153180122375488,-1.4280812740325928,4.023580551147461
1701054393638125800,15.793125732421874,5.90213680267334,-1.2413897514343262,3.2713623046875
1701054393655126000,15.8101259765625,8.136467933654785,-0.9567980766296387,1.4535245895385742
1701054393672109600,15.827109619140625,7.570227146148682,-0.6087863445281982,-1.6647019386291504
1701054393689110000,15.844110107421875,8.434242248535156,-0.47751617431640625,-3.5703606605529785
1701054393706098700,15.8610986328125,10.052730560302734,-0.3643639087677002,-4.659049034118652
1701054393723091000,15.878091064453125,9.550207138061523,0.3227660655975342,-6.0168561935424805
1701054393740080400,15.895080322265626,7.348560810089111,1.5057220458984375,-7.170651912689209
1701054393757072600,15.91207275390625,2.867605447769165,2.8189988136291504,-7.718410491943359
1701054393774061300,15.929061279296874,2.912169933319092,2.3266665935516357,-7.503730773925781
1701054393791053600,15.946053466796876,4.325519561767578,2.1319386959075928,-7.773950099945068
1701054393808043000,15.96304296875,5.289341449737549,1.6612958908081055,-8.078996658325195
1701054393825035000,15.980034912109375,5.668099880218506,1.390148639678955,-7.447664737701416
1701054393842014700,15.9970146484375,4.327971458435059,1.2090539932250977,-6.830430030822754
1701054393859021300,16.014021240234374,2.140651226043701,0.8968420028686523,-6.264401912689209
1701054393876002800,16.0310029296875,2.010528326034546,0.46393632888793945,-5.4752092361450195
1701054393892997600,16.04799755859375,0.7111713886260986,0.3984041213989258,-5.683184623718262
1701054393909986600,16.064986572265624,-0.8915432691574097,0.103240966796875,-6.848244667053223
1701054393926977300,16.081977294921874,-1.2319915294647217,-0.16478204727172852,-6.811511039733887
1701054393943969300,16.09896923828125,-1.5904479026794434,-0.217864990234375,-6.687346458435059
1701054393960960000,16.1159599609375,-1.257615566253662,-0.0454411506652832,-6.107625961303711
1701054393977943000,16.132943115234376,-1.0478124618530273,-0.004088878631591797,-5.776058197021484
1701054393994944300,16.1499443359375,-0.7601353526115417,0.0745840072631836,-5.952881813049316
1701054394011927800,16.166927734375,-0.2524556815624237,0.18951940536499023,-6.228923320770264
1701054394028922400,16.18392236328125,0.17720544338226318,0.15379095077514648,-6.933888912200928
1701054394045911600,16.20091162109375,0.22956466674804688,0.16527557373046875,-7.229280471801758
1701054394062903600,16.217903564453124,0.6755945682525635,0.14477109909057617,-7.155800819396973
1701054394079893200,16.234893310546877,1.4786770343780518,0.19274473190307617,-7.285619258880615
1701054394096885200,16.25188525390625,2.6099133491516113,0.31836700439453125,-7.471749782562256
1701054394113871600,16.26887158203125,2.861077308654785,0.2556281089782715,-7.637263774871826
1701054394130868700,16.28586865234375,2.6098215579986572,-0.3056373596191406,-7.7128167152404785
1701054394147841800,16.302841796875,3.7942230701446533,-0.5782241821289062,-7.356189250946045
1701054394164847600,16.31984765625,4.409692287445068,-0.20382165908813477,-6.1637983322143555
1701054394181834000,16.336833984375,5.506614685058594,-0.19243478775024414,-5.142932891845703
1701054394198831400,16.353831298828126,5.614353179931641,-0.13439321517944336,-4.988045692443848
1701054394215818500,16.370818603515627,5.6831231117248535,-0.3545708656311035,-4.9022216796875
1701054394232810500,16.387810546875,5.173088073730469,-0.5828671455383301,-4.225615978240967
1701054394249799400,16.40479931640625,5.879826068878174,-0.5400958061218262,-3.5474090576171875
1701054394266791200,16.421791259765627,6.345278739929199,-0.547020435333252,-1.830190658569336
1701054394283780900,16.43878076171875,6.372860908508301,-0.40418529510498047,-0.4035930633544922
1701054394300770600,16.4557705078125,6.581419944763184,-0.42118310928344727,0.49343109130859375
1701054394317760000,16.472760009765626,5.293117046356201,-0.9093751907348633,1.1848087310791016
1701054394334756600,16.489756591796876,4.376636981964111,-1.6218080520629883,1.509838581085205
1701054394351743500,16.506743408203125,3.94627046585083,-2.325805187225342,1.6914820671081543
1701054394368735500,16.523735595703126,2.819394588470459,-2.563986301422119,2.4504384994506836
1701054394385724400,16.540724365234375,3.8757052421569824,-2.012983798980713,2.772200584411621
1701054394402716400,16.55771630859375,4.132009983062744,-2.078744649887085,3.1925597190856934
1701054394419706000,16.5747060546875,5.8311076164245605,-3.328275680541992,4.019505023956299
1701054394436698000,16.591697998046875,6.234764099121094,-4.015303611755371,4.379823207855225
1701054394453684700,16.608684814453124,5.543157577514648,-3.5530662536621094,4.496663570404053
1701054394470681600,16.625681640625,3.878293037414551,-2.8989756107330322,5.0141754150390625
1701054394487668500,16.64266845703125,5.141966342926025,-3.5550928115844727,5.837540626525879
1701054394504660700,16.65966064453125,5.503705024719238,-4.809019088745117,6.395010471343994
1701054394521649700,16.676649658203125,2.989635944366455,-4.8242363929748535,6.906559467315674
1701054394538641700,16.6936416015625,0.497438907623291,-4.170064449310303,7.35821008682251
1701054394555630800,16.710630859375,-1.975599765777588,-3.039064407348633,7.133478164672852
1701054394572623400,16.727623291015625,-2.22956919670105,-2.9839060306549072,7.119054317474365
1701054394589612000,16.744612060546874,-1.9463090896606445,-3.0295464992523193,6.4784979820251465
1701054394606604300,16.761604248046876,-1.5726094245910645,-3.84604549407959,6.575045108795166
1701054394623594000,16.778593994140625,-1.23988676071167,-4.464219093322754,5.981466293334961
1701054394640583200,16.795583251953126,-1.915320634841919,-4.574323654174805,5.304136276245117
1701054394657577500,16.812577392578124,-2.442901134490967,-4.415621757507324,4.865808963775635
1701054394674566400,16.82956640625,-3.4322402477264404,-4.149408340454102,4.571427345275879
1701054394691558000,16.846557861328126,-3.694547176361084,-4.248491287231445,4.605226039886475
1701054394708548000,16.863548095703123,-2.612095355987549,-4.579433917999268,4.83792781829834
1701054394725537300,16.880537353515624,-0.8645753860473633,-4.41226863861084,5.020620822906494
1701054394742529300,16.897529296875,0.23569536209106445,-4.035741329193115,5.81813383102417
1701054394759518700,16.914518798828126,-0.7900481224060059,-3.706063985824585,6.215598106384277
1701054394776510700,16.9315107421875,-2.9150943756103516,-3.471189260482788,9.203157424926758
1701054394793500000,16.9485,-3.351276397705078,-3.93335223197937,7.7348246574401855
1701054394810491600,16.96549169921875,-5.9965715408325195,-5.150899887084961,6.8509016036987305
1701054394827481600,16.982481689453124,-10.500767707824707,-5.917669773101807,8.087145805358887
1701054394844473300,16.999473388671873,-7.49749755859375,-6.690517425537109,6.427184104919434
1701054394861462500,17.016462646484374,-3.3349621295928955,-7.068373203277588,6.1520538330078125
1701054394878454500,17.03345458984375,-0.049646854400634766,-6.767262935638428,6.952517509460449
1701054394895444000,17.05044384765625,1.6379828453063965,-5.700597286224365,8.157979965209961
1701054394912436000,17.06743603515625,1.5969667434692383,-5.039031505584717,8.933550834655762
1701054394929425200,17.084425048828123,2.4193882942199707,-3.76468563079834,8.528786659240723
1701054394946417000,17.1014169921875,4.308268070220947,-3.0898733139038086,8.124631881713867
1701054394963406300,17.11840625,1.2616262435913086,-1.9402661323547363,7.9497551918029785
1701054394980398600,17.135398681640623,-3.5343403816223145,-1.0087380409240723,9.099364280700684
1701054394997387500,17.152387451171876,-7.470190048217773,-1.9578361511230469,10.868444442749023
1701054395014379300,17.169379150390625,-5.5813117027282715,-3.194140911102295,9.516490936279297
1701054395031369200,17.186369140625,2.4029691219329834,-4.209195613861084,9.232810020446777
1701054395048361200,17.203361328125,6.037252426147461,-3.4671874046325684,8.504088401794434
1701054395065350100,17.22035009765625,8.025033950805664,-2.899756669998169,7.8982439041137695
1701054395082342000,17.237341796875,8.395387649536133,-2.8655288219451904,6.448235511779785
1701054395099321000,17.254321044921873,5.6218366622924805,-2.144665241241455,3.2022008895874023
1701054395116323800,17.27132373046875,5.049237251281738,-2.61501145362854,3.103424072265625
1701054395133314300,17.288314208984374,3.9055335521698,-2.233750820159912,3.252671241760254
1701054395150303000,17.305302978515623,4.947660446166992,-1.9073923826217651,3.3427419662475586
1701054395167294200,17.322294189453125,9.3445463180542,-1.841996669769287,2.77166748046875
1701054395184286200,17.3392861328125,9.14649772644043,-0.47815608978271484,0.41115570068359375
1701054395201275400,17.356275390625,10.194238662719727,-0.014352560043334961,-1.7198796272277832
1701054395218267100,17.37326708984375,10.560990333557129,0.1641538143157959,-3.945201873779297
1701054395235256600,17.390256591796874,11.210339546203613,0.45430684089660645,-5.74688196182251
1701054395252248600,17.40724853515625,8.402545928955078,1.4521069526672363,-6.021259307861328
1701054395269237800,17.42423779296875,5.661478042602539,2.2350897789001465,-6.783756732940674
1701054395286229800,17.441229736328125,6.491804122924805,2.4623546600341797,-7.539874076843262
1701054395303211300,17.458211181640625,5.41853666305542,2.958507537841797,-7.219431400299072
1701054395320211200,17.475211181640624,4.912319660186768,2.8854472637176514,-7.4200286865234375
1701054395337200400,17.492200439453125,5.5151286125183105,2.3034403324127197,-7.034433364868164
1701054395354192100,17.509192138671875,5.665153503417969,1.790562391281128,-6.662271499633789
1701054395371176400,17.526176513671874,5.053224563598633,1.9981660842895508,-6.658339500427246
1701054395388166400,17.54316650390625,4.168435573577881,2.155673027038574,-7.042837619781494
1701054395405155300,17.5601552734375,3.1636056900024414,1.6933081150054932,-7.259262561798096
1701054395422148600,17.577148681640626,0.6752308011054993,1.0139667987823486,-6.992924690246582
1701054395439140900,17.594140869140624,-0.10431196540594101,0.05477762222290039,-7.001326560974121
1701054395456127700,17.611127685546876,-0.23284411430358887,-0.4998815059661865,-6.600397109985352
1701054395473115400,17.628115478515625,-0.16135215759277344,-0.6898648738861084,-5.377824783325195
1701054395490111500,17.645111572265623,0.29134494066238403,-0.6972076892852783,-5.023229598999023
1701054395507099100,17.66209912109375,0.5309742093086243,-0.46967411041259766,-4.95957088470459
1701054395524101400,17.679101318359375,0.9694266319274902,-0.36353135108947754,-4.781634330749512
1701054395541088000,17.696087890625,1.205349326133728,-0.33043718338012695,-5.0113420486450195
1701054395558069200,17.7130693359375,2.1475536823272705,-0.1514759063720703,-4.973541259765625
1701054395575067100,17.730067138671874,2.663292169570923,-0.24973058700561523,-5.402498722076416
1701054395592063700,17.747063720703125,2.707124710083008,-0.28365325927734375,-5.785592079162598
1701054395609047800,17.7640478515625,2.2621877193450928,-0.4594764709472656,-5.961090087890625
1701054395626035200,17.78103515625,2.698911666870117,-0.9390490055084229,-6.0200581550598145
1701054395643032000,17.798031982421875,3.9675228595733643,-0.6748604774475098,-6.343395709991455
1701054395660024000,17.815024169921877,5.8504838943481445,-0.6839828491210938,-6.235260009765625
1701054395677013200,17.83201318359375,6.760307312011719,-0.8172125816345215,-5.888951301574707
1701054395694004500,17.84900439453125,5.68927001953125,-0.8179082870483398,-5.261487007141113
1701054395710994400,17.865994384765624,4.416787147521973,-1.232347011566162,-3.920349359512329
1701054395727986400,17.882986328125,3.403414249420166,-0.8054218292236328,-3.419417381286621
1701054395744975600,17.8999755859375,4.5299248695373535,-0.007125377655029297,-3.5264925956726074
1701054395761967600,17.916967529296876,5.619147777557373,0.32506513595581055,-3.146629571914673
1701054395778947300,17.933947265625,5.581759452819824,0.09482049942016602,-1.8493337631225586
1701054395795949000,17.950948974609375,4.752814292907715,-0.24071121215820312,-0.18001270294189453
1701054395812938000,17.96793798828125,2.0764219760894775,-0.05233049392700195,1.3400826454162598
1701054395829930200,17.98493017578125,1.1560137271881104,0.7095828056335449,1.5843849182128906
1701054395846909400,18.001909423828124,1.4933156967163086,1.6059222221374512,1.9975333213806152
1701054395863911700,18.01891162109375,1.4625039100646973,1.548973560333252,2.60739803314209
1701054395880898000,18.03589794921875,3.7059121131896973,0.7715730667114258,4.968373775482178
1701054395897890800,18.052890869140626,3.4119763374328613,-0.1076192855834961,6.24483585357666
1701054395914883000,18.069883056640624,2.771697521209717,-1.0901799201965332,6.48061466217041
1701054395931877600,18.086877685546874,0.6694645881652832,-1.845266342163086,5.077101707458496
1701054395948863500,18.103863525390626,-1.569450855255127,-2.211167812347412,5.177151679992676
1701054395965855200,18.120855224609375,-2.1009557247161865,-2.0839743614196777,6.3856306076049805
1701054395982845000,18.137844970703124,-3.2687954902648926,-2.0824012756347656,7.134342193603516
1701054395999836700,18.154836669921874,-3.9699950218200684,-2.183382987976074,7.499244689941406
1701054396016832500,18.17183251953125,-3.365975856781006,-2.4332945346832275,7.21078634262085
1701054396033815300,18.188815185546876,-3.0668435096740723,-2.9318838119506836,6.958927154541016
1701054396050808600,18.20580859375,-3.5313963890075684,-3.4860217571258545,7.024038791656494
1701054396067800800,18.22280078125,-3.2592506408691406,-4.0402913093566895,7.840065002441406
1701054396084788500,18.23978857421875,-3.0521833896636963,-4.767648696899414,9.071500778198242
1701054396101780500,18.256780517578125,-2.253727674484253,-4.730311393737793,10.536907196044922
1701054396118770000,18.27377001953125,-2.4367475509643555,-4.501217842102051,10.79149055480957
1701054396135764200,18.29076416015625,-3.647844076156616,-4.311437606811523,10.356607437133789
1701054396152750800,18.307750732421876,-5.528196811676025,-4.175058841705322,9.827211380004883
1701054396169742800,18.324742919921874,-8.09366226196289,-5.415127754211426,3.906035900115967
1701054396186732500,18.341732666015623,-7.260402202606201,-6.619784355163574,6.019842147827148
1701054396203724800,18.358724853515625,-3.661512851715088,-6.928194999694824,6.987372875213623
1701054396220713700,18.375713623046874,-1.4513025283813477,-6.390186786651611,8.389301300048828
1701054396237705200,18.392705322265623,-0.03156137466430664,-5.844648361206055,8.895166397094727
1701054396254695200,18.409695068359376,0.4069952964782715,-5.5581159591674805,8.67286491394043
1701054396271687200,18.426687255859374,-0.2239971160888672,-4.963849067687988,7.611722469329834
1701054396288676000,18.443676025390626,-1.094869613647461,-4.266092777252197,7.798700332641602
1701054396305668400,18.46066845703125,-1.164292573928833,-3.8460540771484375,9.379826545715332
1701054396322657500,18.477657470703125,-1.285545825958252,-2.9870705604553223,11.199344635009766
1701054396339639300,18.494639404296876,-3.6370530128479004,-2.31784725189209,12.066095352172852
1701054396356638700,18.511638671875,-3.86327862739563,-3.04093337059021,11.08121109008789
1701054396373630500,18.52863037109375,-0.4166278839111328,-3.8426997661590576,10.318370819091797
1701054396390620400,18.545620361328126,4.02766752243042,-4.6068010330200195,9.726577758789062
1701054396407612200,18.562612060546876,6.813091278076172,-4.319602966308594,8.192845344543457
1701054396424601300,18.579601318359376,7.8292717933654785,-3.0603561401367188,7.840815544128418
1701054396441593000,18.596593017578126,6.383198261260986,-1.777122974395752,7.777105331420898
1701054396458570200,18.6135703125,8.889487266540527,-2.1001603603363037,4.662841796875
1701054396475581700,18.630581787109374,10.179779052734375,-2.0933473110198975,2.4149951934814453
1701054396492561200,18.64756103515625,9.22401237487793,-1.4077212810516357,1.4094209671020508
1701054396509558000,18.66455810546875,7.027087688446045,-0.3335387706756592,-0.38880062103271484
1701054396526545200,18.681545166015624,9.00312614440918,0.14335370063781738,-1.9672560691833496
1701054396543537400,18.698537353515626,10.0469331741333,1.0061780214309692,-3.9917187690734863
1701054396560526300,18.7155263671875,10.848970413208008,1.6509485244750977,-6.030213356018066
1701054396577515800,18.732515869140624,7.967363357543945,2.6066603660583496,-6.375768661499023
1701054396594510600,18.749510498046874,4.343029975891113,2.7227299213409424,-6.143185615539551
1701054396611499800,18.766499755859375,2.8048839569091797,1.728589653968811,-6.668661117553711
1701054396628489000,18.783489013671876,3.428434371948242,0.5295193195343018,-7.117102146148682
1701054396645480700,18.800480712890625,4.34520149230957,0.4558093547821045,-7.828219413757324
1701054396662467800,18.8174677734375,3.893557071685791,0.7241520881652832,-8.103596687316895
1701054396679461000,18.834461181640624,4.047809600830078,0.8252599239349365,-8.2803955078125
1701054396696455200,18.851455078125,3.3741774559020996,0.9667208194732666,-8.47069263458252
1701054396713443300,18.868443359375,2.2728848457336426,0.9561431407928467,-7.534120559692383
1701054396730420000,18.885419921875,1.8410784006118774,0.46575140953063965,-7.652890205383301
1701054396747417600,18.90241748046875,-0.8417235016822815,0.7634639739990234,-7.210161209106445
1701054396764404200,18.919404296875,-0.7875902652740479,0.7357409000396729,-7.524322509765625
1701054396781397500,18.9363974609375,-1.369599461555481,0.5006628036499023,-7.363622188568115
1701054396798385400,18.953385498046874,-2.1246848106384277,0.3645439147949219,-7.429614543914795
1701054396815379500,18.97037939453125,-2.3597922325134277,0.130845308303833,-7.307649612426758
1701054396832370200,18.9873701171875,-1.5461037158966064,0.0049457550048828125,-7.025750160217285
1701054396849362000,19.00436181640625,-0.8701794743537903,0.22646379470825195,-6.66520881652832
1701054396866348800,19.021348876953127,-0.1591585874557495,0.7153568267822266,-6.64739990234375
1701054396883341000,19.038341064453125,0.6526036262512207,1.1874184608459473,-6.826395034790039
1701054396900327400,19.055327392578125,1.6141471862792969,1.5314221382141113,-7.042832851409912
1701054396917320700,19.07232080078125,1.8957175016403198,1.6384148597717285,-6.6819562911987305
1701054396934313000,19.08931298828125,2.6875531673431396,1.4755010604858398,-6.29979944229126
1701054396951305000,19.106304931640626,3.4281997680664062,1.3760285377502441,-6.123304843902588
1701054396968304000,19.12330419921875,3.822028636932373,1.1220245361328125,-5.831568241119385
1701054396985293600,19.14029345703125,3.1354763507843018,1.1295671463012695,-5.423644542694092
1701054397002283300,19.157283203125,2.9587149620056152,1.137343406677246,-5.144388198852539
1701054397019257600,19.174257568359376,4.348380088806152,1.1010222434997559,-4.662289619445801
1701054397036253400,19.19125341796875,4.766702175140381,0.9653615951538086,-4.03914737701416
1701054397053258800,19.2082587890625,3.65963077545166,0.7063097953796387,-2.7578954696655273
1701054397070247400,19.225247314453124,3.739872455596924,0.8056740760803223,-1.4497442245483398
1701054397087233500,19.242233642578125,3.0534801483154297,1.0916242599487305,-0.46916866302490234
1701054397104218400,19.25921826171875,3.0210070610046387,1.2320446968078613,-0.035977840423583984
1701054397121225000,19.276224853515625,4.626938819885254,1.2269783020019531,0.2489328384399414
1701054397138210600,19.29321044921875,3.3309011459350586,0.8235974311828613,1.3800153732299805
1701054397155197400,19.310197509765626,2.3401899337768555,-0.058313846588134766,2.408120632171631
1701054397172191700,19.327191650390624,2.586668014526367,-0.5511364936828613,2.4136428833007812
1701054397189170700,19.344170654296875,2.3575620651245117,-0.27465248107910156,2.384028434753418
1701054397206171000,19.3611708984375,1.8147878646850586,-0.10622882843017578,2.9870872497558594
1701054397223163000,19.378162841796875,2.4444260597229004,-0.2894115447998047,4.188717365264893
1701054397240151800,19.39515185546875,2.7384886741638184,-0.9097137451171875,5.929935932159424
1701054397257144000,19.41214404296875,1.536634922027588,-1.6902878284454346,6.791416168212891
1701054397274133500,19.429133544921875,0.19314289093017578,-2.3186118602752686,7.069543838500977
1701054397291125200,19.446125244140624,-0.684974193572998,-2.2350661754608154,6.006134986877441
1701054397308114400,19.463114501953125,-0.4241943359375,-2.095806121826172,5.857452392578125
1701054397325106200,19.480106201171875,-0.6432013511657715,-2.3986217975616455,6.757909297943115
1701054397342096100,19.49709619140625,-2.169405698776245,-2.5208096504211426,7.21174955368042
1701054397359087900,19.514087890625,-3.883744239807129,-2.4116950035095215,7.244290828704834
1701054397376077000,19.5310771484375,-3.9411773681640625,-2.351822853088379,7.82720422744751
1701054397393064700,19.548064697265627,-3.474275827407837,-2.609762668609619,8.15570068359375
1701054397410062600,19.5650625,-3.2566452026367188,-3.166246175765991,8.553924560546875
1701054397427061000,19.58206103515625,-4.147261142730713,-3.5499298572540283,8.745394706726074
1701054397444039700,19.599039794921875,-4.712350368499756,-3.940703868865967,8.656782150268555
1701054397461031400,19.616031494140625,-4.365898132324219,-4.241955280303955,8.455453872680664
1701054397478030800,19.63303076171875,-4.584423542022705,-4.754284858703613,8.75545883178711
1701054397495010000,19.650010009765627,-4.394097328186035,-5.356468200683594,9.093902587890625
1701054397512005000,19.667005126953125,-3.4278221130371094,-5.885311126708984,9.808873176574707
1701054397528994000,19.683994140625,-3.3337957859039307,-5.664295673370361,6.660622596740723
1701054397545983700,19.700983642578127,-6.788964748382568,-6.146042346954346,7.350655555725098
1701054397562975500,19.7179755859375,-10.795318603515625,-6.056414604187012,8.144815444946289
1701054397579964700,19.734964599609373,-10.902430534362793,-6.140108108520508,7.38145637512207
1701054397596956400,19.751956298828127,-5.72520112991333,-5.749229431152344,6.935655117034912
1701054397613943600,19.768943603515623,-3.3135194778442383,-5.742886066436768,8.028615951538086
1701054397630940400,19.7859404296875,-1.377568006515503,-4.973573684692383,9.19321060180664
1701054397647927000,19.802927001953126,-0.5863456726074219,-4.382665634155273,10.395004272460938
1701054397664919000,19.8199189453125,1.9711971282958984,-3.6060197353363037,10.780397415161133
1701054397681909000,19.836908935546877,4.340573787689209,-2.9817473888397217,8.693680763244629
1701054397698897000,19.85389697265625,4.239499568939209,-3.4069910049438477,7.55392599105835
1701054397715893500,19.8708935546875,3.8343091011047363,-3.7849371433258057,7.836956024169922
1701054397732881700,19.887881591796877,-0.7216458320617676,-3.173225164413452,7.385704517364502
1701054397749860900,19.90486083984375,-3.0350723266601562,-2.7447710037231445,8.354043960571289
1701054397766863400,19.92186328125,-1.8442368507385254,-3.4337358474731445,8.219438552856445
1701054397783852300,19.938852294921876,3.9423441886901855,-3.5029358863830566,8.621191024780273
1701054397800844000,19.955843994140626,7.328447341918945,-2.8790671825408936,8.83146858215332
1701054397817825500,19.972825439453125,8.823847770690918,-2.176760673522949,5.995326995849609
1701054397834825700,19.98982568359375,8.8677978515625,-1.2695896625518799,3.1455726623535156
1701054397851815000,20.00681494140625,10.100435256958008,-0.2625133991241455,-0.13387203216552734
1701054397868796400,20.02379638671875,9.563874244689941,0.7332124710083008,-1.3184165954589844
1701054397885796600,20.040796630859376,8.265070915222168,1.5957653522491455,-1.1730351448059082
1701054397902788400,20.057788330078125,5.851179599761963,2.8369646072387695,-1.774580955505371
1701054397919777500,20.074777587890626,5.276308536529541,3.1557729244232178,-2.20166015625
1701054397936770800,20.091770751953124,3.3931703567504883,2.8027420043945312,-3.4363083839416504
1701054397953760000,20.108760009765625,4.887510299682617,1.778946876525879,-4.104342460632324
1701054397970751700,20.125751708984374,5.579792022705078,1.5165507793426514,-6.541957855224609
1701054397987740200,20.142740234375,3.2356462478637695,1.837264895439148,-6.935312271118164
1701054398004732000,20.15973193359375,2.7786173820495605,2.2615599632263184,-6.793148517608643
1701054398021721600,20.1767216796875,1.7879035472869873,2.7696595191955566,-7.157344818115234
1701054398038713300,20.19371337890625,1.363295555114746,2.69252872467041,-7.6477813720703125
1701054398055702500,20.21070263671875,2.193387031555176,1.967016339302063,-7.61954927444458
1701054398072694300,20.2276943359375,3.1640431880950928,1.1990935802459717,-6.692575454711914
1701054398089684200,20.244684326171875,0.5512429475784302,1.2731544971466064,-6.05008602142334
1701054398106676000,20.261676025390624,0.4208146333694458,1.1133720874786377,-6.287564754486084
1701054398123665200,20.2786650390625,0.21098482608795166,1.3727831840515137,-6.915617942810059
1701054398140657000,20.295656982421875,-0.75792396068573,1.2732863426208496,-6.522500991821289
1701054398157650000,20.31264990234375,-0.0015301704406738281,0.7626185417175293,-6.025483131408691
1701054398174635300,20.32963525390625,-0.15650248527526855,0.4153130054473877,-6.275999069213867
1701054398191627500,20.34662744140625,0.010161519050598145,0.5514755249023438,-6.740076065063477
1701054398208619300,20.363619384765624,0.3909949064254761,0.9186756610870361,-6.7871551513671875
1701054398225609200,20.380609130859376,-0.008424758911132812,1.205470323562622,-6.9742350578308105
1701054398242601200,20.397601318359374,0.7480089664459229,1.2092924118041992,-6.984184265136719
1701054398259578600,20.41457861328125,1.3062512874603271,1.1713767051696777,-7.057849407196045
1701054398276580600,20.43158056640625,1.7602565288543701,1.0944125652313232,-7.15826416015625
1701054398293571600,20.448571533203125,2.653022289276123,1.032393217086792,-7.116042137145996
1701054398310566100,20.465566162109376,2.600557804107666,0.9647979736328125,-7.254149913787842
1701054398327552800,20.482552734375,3.2933735847473145,0.6489825248718262,-6.805243492126465
1701054398344544500,20.49954443359375,2.9307522773742676,0.8808679580688477,-6.058086395263672
1701054398361534200,20.5165341796875,2.8995323181152344,0.7031259536743164,-5.597568511962891
1701054398378526200,20.533526123046876,3.3661253452301025,1.2933669090270996,-5.411609649658203
1701054398395515100,20.55051513671875,2.9205892086029053,1.3173489570617676,-4.582159042358398
1701054398412507100,20.567507080078126,3.6439735889434814,0.8134870529174805,-4.136396408081055
1701054398429486800,20.58448681640625,2.9873108863830566,0.4910268783569336,-3.2463555335998535
1701054398446488600,20.601488525390625,2.941282272338867,0.5375666618347168,-2.4421896934509277
1701054398463477500,20.6184775390625,4.120639801025391,0.3874053955078125,-1.5338397026062012
1701054398480469800,20.6354697265625,1.985081672668457,1.591996192932129,1.1706256866455078
1701054398497452300,20.652452392578127,2.1674981117248535,1.5428738594055176,1.3688111305236816
1701054398514451200,20.669451171875,3.411625385284424,0.4813661575317383,1.4709601402282715
1701054398531440400,20.6864404296875,2.1312904357910156,-0.41593122482299805,1.5274782180786133
1701054398548432100,20.70343212890625,3.6311492919921875,-0.5251202583312988,2.6505355834960938
1701054398565421800,20.720421875,4.623109340667725,-1.2465589046478271,5.062067031860352
1701054398582413800,20.737413818359375,0.9730954170227051,-2.0494251251220703,6.185211181640625
1701054398599389700,20.7543896484375,-0.24410533905029297,-1.9062871932983398,5.363025665283203
1701054398616394800,20.771394775390625,-0.15587759017944336,-1.8766603469848633,4.260564804077148
1701054398633387000,20.788386962890623,-0.15404987335205078,-2.1143362522125244,4.289246082305908
1701054398650376400,20.80537646484375,-0.02900981903076172,-2.8584556579589844,4.954650402069092
1701054398667363000,20.822363037109376,-0.0832815170288086,-3.29664945602417,6.150820732116699
1701054398684360400,20.8393603515625,-1.098827838897705,-3.309138298034668,7.047459602355957
1701054398701347000,20.85634716796875,-1.779618263244629,-2.7129604816436768,6.539090156555176
1701054398718339000,20.873339111328125,-1.952052116394043,-2.6349246501922607,6.792458534240723
1701054398735315000,20.89031494140625,-1.8020367622375488,-2.8969900608062744,7.983860015869141
1701054398752322300,20.907322265625,-1.2399992942810059,-3.024169921875,8.99498176574707
1701054398769309700,20.924309814453125,-0.9910759925842285,-3.0542407035827637,9.730087280273438
1701054398786301700,20.9413017578125,-2.419740676879883,-3.093458652496338,9.402788162231445
1701054398803290600,20.95829052734375,-2.939239501953125,-2.8534693717956543,7.826992034912109
1701054398820282600,20.97528271484375,-2.9480173587799072,-3.253502130508423,7.337396144866943
1701054398837272300,20.992272216796874,-3.1275694370269775,-3.7408347129821777,7.790430545806885
1701054398854251500,21.00925146484375,-2.7184219360351562,-3.919264793395996,8.161367416381836
1701054398871246000,21.02624609375,-1.6187937259674072,-3.8525166511535645,8.696887969970703
1701054398888237000,21.043237060546875,-1.2229554653167725,-4.005963325500488,8.512757301330566
1701054398905225700,21.060225830078124,-2.9001057147979736,-3.891359806060791,8.107914924621582
1701054398922217700,21.0772177734375,-5.229333400726318,-2.975609302520752,7.840126037597656
1701054398939204400,21.094204345703126,-9.241466522216797,-4.540841102600098,6.973315715789795
1701054398956198100,21.1111982421875,-13.503070831298828,-5.424586296081543,7.533871650695801
1701054398973187300,21.128187255859373,-10.597942352294922,-4.987692832946777,8.194808959960938
1701054398990180000,21.14518017578125,-4.594998836517334,-4.985468864440918,7.823632717132568
1701054399007170600,21.162170654296876,-1.2374203205108643,-5.133472442626953,7.896148204803467
1701054399024170200,21.179170166015624,-0.6635255813598633,-4.9738240242004395,7.718340873718262
1701054399041159700,21.19615966796875,-1.53171968460083,-3.955160617828369,8.066200256347656
1701054399058141400,21.213141357421875,1.2273845672607422,-2.7313072681427,9.318975448608398
1701054399075138000,21.230137939453126,3.8881797790527344,-2.017530679702759,9.303603172302246
1701054399092129800,21.2471298828125,3.4870529174804688,-1.6438744068145752,8.575870513916016
1701054399109122300,21.264122314453125,1.6571168899536133,-2.8955607414245605,9.710922241210938
1701054399126114600,21.281114501953127,-5.9025678634643555,-4.6840596199035645,9.671289443969727
1701054399143103500,21.298103515625,-10.116600036621094,-4.394432544708252,7.16701602935791
1701054399160095200,21.31509521484375,-6.9785919189453125,-4.756505012512207,7.729678630828857
1701054399177085200,21.332085205078126,0.5433938503265381,-4.4307861328125,8.910563468933105
1701054399194077200,21.3490771484375,6.32735013961792,-3.8204474449157715,7.639845848083496
1701054399211066000,21.366066162109377,8.899306297302246,-2.7333896160125732,6.356249809265137
1701054399228058000,21.38305810546875,9.13238525390625,-0.625201940536499,5.240540504455566
1701054399245038000,21.4000380859375,10.655196189880371,0.03660225868225098,2.7620153427124023
1701054399262039600,21.41703955078125,9.260804176330566,0.45281338691711426,0.29268932342529297
1701054399279029800,21.43402978515625,6.065274238586426,0.5495963096618652,-2.0340585708618164
1701054399296019200,21.451019287109375,5.884335517883301,0.2829728126525879,-3.6552867889404297
1701054399313012000,21.468011962890625,7.147764205932617,1.2981808185577393,-3.7690963745117188
1701054399330000100,21.485000244140625,6.389598846435547,2.5739903450012207,-4.566078186035156
1701054399346988300,21.50198828125,6.390686988830566,2.976330518722534,-5.760820388793945
1701054399363985400,21.5189853515625,5.224112510681152,3.2979469299316406,-7.0142083168029785
1701054399380962300,21.53596240234375,0.9099676609039307,2.4890921115875244,-7.601954936981201
1701054399397959700,21.552959716796874,1.1390208005905151,1.1200835704803467,-7.359212875366211
1701054399414953200,21.569953125,3.3858444690704346,0.5078272819519043,-7.476062774658203
1701054399431946000,21.586946044921874,3.9580984115600586,0.8416965007781982,-7.384755611419678
1701054399448935200,21.60393505859375,4.456588268280029,1.5834214687347412,-6.510835647583008
1701054399465927200,21.62092724609375,5.566298484802246,2.459165096282959,-5.067333221435547
1701054399482916000,21.637916015625,5.593387603759766,2.7543535232543945,-4.352029323577881
