time,seconds_elapsed,z,y,x
1702153530126050600,0.008050537109375,0.6411030888557434,0.8733845949172974,-0.11331550031900406
1702153530144056600,0.026056640625,0.5720753073692322,0.6620252132415771,0.021838432177901268
1702153530173865700,0.05586572265625,0.4723515510559082,0.14416420459747314,0.22846360504627228
1702153530190753300,0.072753173828125,0.37919458746910095,0.07147123664617538,0.021532999351620674
1702153530207753000,0.0897529296875,0.1915062516927719,0.20815233886241913,-0.25671613216400146
1702153530224740900,0.106740966796875,0.04245513305068016,0.44455718994140625,-0.5019785165786743
1702153530241734100,0.123734130859375,0.005955935921519995,0.5222898125648499,-0.7177666425704956
1702153530258724900,0.140724853515625,0.02382374368607998,0.42668938636779785,-0.7921395301818848
1702153530275717600,0.157717529296875,0.03390302136540413,0.33276882767677307,-0.7527387142181396
1702153530292704300,0.174704345703125,0.018936822190880775,0.17272214591503143,-0.6985244154930115
1702153530309699800,0.191699951171875,0.05772676691412926,-0.0003054326225537807,-0.6484334468841553
1702153530326687200,0.208687255859375,0.12553280591964722,-0.04749477282166481,-0.6747006773948669
1702153530343678700,0.2256787109375,0.17821992933750153,0.0884227454662323,-0.7651087045669556
1702153530360671000,0.2426708984375,0.2295326143503189,0.12980885803699493,-0.8074111342430115
1702153530377666600,0.25966650390625,0.31322115659713745,0.13118331134319305,-0.7664831876754761
1702153530394652000,0.27665185546875,0.3471241891384125,0.10247264802455902,-0.7292203903198242
1702153530411646500,0.293646484375,0.21105393767356873,0.014202617108821869,-0.7484626173973083
1702153530428638200,0.31063818359375,0.04046982154250145,0.02367102913558483,-0.7573201656341553
1702153530445629400,0.32762939453125,0.03833179548382759,0.07437284290790558,-0.7504479289054871
1702153530462616800,0.344616943359375,0.1791362315416336,0.08246681094169617,-0.8072584271430969
1702153530479612000,0.36161181640625,0.2785545587539673,-0.05803219974040985,-0.9219483733177185
1702153530496604400,0.3786044921875,0.18677204847335815,-0.2217440903186798,-0.983340322971344
1702153530513590800,0.3955908203125,0.11682797968387604,-0.16569720208644867,-0.9172141551971436
1702153530530572500,0.412572509765625,0.29107728600502014,0.06750060617923737,-0.7945829629898071
1702153530547576000,0.429576171875,0.5325217843055725,0.23716843128204346,-0.7392996549606323
1702153530564574700,0.44657470703125,0.5473352670669556,0.18616119027137756,-0.7231117486953735
1702153530581558500,0.46355859375,0.34865134954452515,0.07330382615327835,-0.7134906053543091
1702153530598558200,0.48055810546875,0.1794416606426239,0.24694228172302246,-0.6724098920822144
1702153530615531800,0.49753173828125,0.23029619455337524,0.47250425815582275,-0.5717698931694031
1702153530632530200,0.5145302734375,0.37659841775894165,0.4447098970413208,-0.3205515444278717
1702153530649522400,0.5315224609375,0.42730024456977844,0.266642689704895,-0.03344487398862839
1702153530666515200,0.54851513671875,0.28817567229270935,0.19120082259178162,0.12171489745378494
1702153530683509500,0.565509521484375,0.04596760869026184,0.19547687470912933,0.0064140851609408855
1702153530700480300,0.582480224609375,-0.09697485715150833,0.32009339332580566,-0.25824329257011414
1702153530717487400,0.5994873046875,-0.03787364438176155,0.29917123913764954,-0.26679539680480957
1702153530734479400,0.616479248046875,0.20326541364192963,0.06230825558304787,-0.045204028487205505
1702153530751475500,0.633475341796875,0.3055853247642517,-0.21334469318389893,0.10842858254909515
1702153530768462800,0.650462890625,0.11133018881082535,-0.2773328125476837,0.1466076523065567
1702153530785454000,0.6674541015625,-0.2096794992685318,-0.024434609338641167,0.12110403180122375
1702153530802441500,0.68444140625,-0.3698789179325104,0.23900102078914642,0.06490442901849747
1702153530819434800,0.701434814453125,-0.33475416898727417,0.28817567229270935,0.10873401165008545
1702153530836428800,0.7184287109375,-0.25335636734962463,0.20066922903060913,0.15393804013729095
1702153530853415000,0.735414794921875,-0.2047925740480423,0.09208793938159943,0.11026117950677872
1702153530870408400,0.752408447265625,-0.24342979490756989,-0.07910704612731934,0.04138612002134323
1702153530887401200,0.769401123046875,-0.2909245789051056,-0.16172657907009125,-0.0731511116027832
1702153530904382500,0.786382568359375,-0.27000242471694946,-0.2197587788105011,-0.15485434234142303
1702153530921383000,0.8033828125,-0.24297164380550385,-0.34086281061172485,-0.06490442901849747
1702153530938372600,0.82037255859375,-0.28359419107437134,-0.275347501039505,0.033139441162347794
1702153530955367400,0.837367431640625,-0.4158465266227722,-0.0429132841527462,0.08002334833145142
1702153530972347600,0.85434765625,-0.5138903856277466,0.13576480746269226,0.17150041460990906
1702153530989354000,0.87135400390625,-0.4775438904762268,0.06994406878948212,0.24587325751781464
1702153531006339800,0.88833984375,-0.4521929919719696,-0.19135354459285736,0.2767219543457031
1702153531023327000,0.905326904296875,-0.6206390857696533,-0.22189679741859436,0.28588494658470154
1702153531040321800,0.92232177734375,-0.5768095254898071,0.34086281061172485,0.3911064863204956
1702153531057313500,0.9393134765625,-0.28787025809288025,0.7232644557952881,0.5462662577629089
1702153531074301000,0.956301025390625,0.022449297830462456,0.6485861539840698,0.7153232097625732
1702153531091295200,0.973295166015625,0.16539175808429718,0.3640756905078888,0.6682865619659424
1702153531108286700,0.99028662109375,-0.04734205827116966,-0.1973094791173935,0.23976461589336395
1702153531125272000,1.00727197265625,-0.30863967537879944,-0.55069500207901,-0.1999056488275528
1702153531142267000,1.024266845703125,-0.2623666226863861,-0.3649919927120209,-0.30634891986846924
1702153531159260000,1.041260009765625,-0.18814650177955627,0.019547687843441963,0.015271631069481373
1702153531176249900,1.058249755859375,-0.1540907621383667,0.5106833577156067,0.34162637591362
1702153531193240800,1.07524072265625,-0.3376557528972626,0.5079344511032104,0.24862214922904968
1702153531210234400,1.092234375,-0.7186829447746277,-0.057879481464624405,-0.206777885556221
1702153531227226000,1.10922607421875,-0.8414669036865234,-0.24495697021484375,-0.44745880365371704
1702153531244213000,1.126212890625,-0.6594290137290955,-0.04902193695306778,-0.3677408695220947
1702153531261213400,1.14321337890625,-0.36911532282829285,0.5874996781349182,-0.08567385375499725
1702153531278195000,1.16019482421875,-0.20357084274291992,1.0212140083312988,0.12324206531047821
1702153531295190800,1.177190673828125,-0.2626720666885376,0.7400632500648499,0.12492194026708603
1702153531312179500,1.194179443359375,-0.4053090810775757,0.06688974797725677,0.06017022579908371
1702153531329169700,1.211169677734375,-0.3597996234893799,-0.058184914290905,-0.1849394589662552
1702153531346157600,1.228157470703125,-0.2741257846355438,0.4283692538738251,-0.5187773108482361
1702153531363152400,1.24515234375,-0.13836097717285156,0.8717046976089478,-0.7325801253318787
1702153531380145000,1.262144775390625,0.011759156361222267,0.7759515643119812,-0.5103778839111328
1702153531397139200,1.27913916015625,0.0981965884566307,0.26404649019241333,0.008399397134780884
1702153531414125600,1.29612548828125,0.15027284622192383,-0.13439035415649414,0.3488040566444397
1702153531431119600,1.31311962890625,0.1794416606426239,0.036193765699863434,0.2848159074783325
1702153531448111400,1.330111328125,0.12308934330940247,0.31642818450927734,0.08491026610136032
1702153531465099500,1.347099609375,0.04734205827116966,0.49724429845809937,0.13836097717285156
1702153531482093000,1.364093017578125,0.05619960278272629,0.6782131195068359,0.36300668120384216
1702153531499083800,1.381083740234375,0.04948008432984352,0.7819074988365173,0.4999932050704956
1702153531516077600,1.39807763671875,0.016951510682702065,0.7799221873283386,0.5392413139343262
1702153531533063700,1.415063720703125,0.0025961773935705423,0.551305890083313,0.45326200127601624
1702153531550057500,1.432057373046875,-0.02626720629632473,0.2562579810619354,0.2099849283695221
1702153531567037200,1.449037109375,-0.08765916526317596,0.1895209401845932,0.0006108652451075613
1702153531584041000,1.466041015625,-0.09941831976175308,0.18555031716823578,-0.014966198243200779
1702153531601031700,1.48303173828125,-0.09162978827953339,0.07590000331401825,0.012675453908741474
1702153531618022400,1.5000224609375,-0.0959058403968811,0.06398813426494598,-0.0858265683054924
1702153531635011800,1.51701171875,-0.1342376321554184,0.11972958594560623,-0.2819143235683441
1702153531652002300,1.534002197265625,-0.2165517359972,-0.00733038317412138,-0.5648976564407349
1702153531669000200,1.551000244140625,-0.285121351480484,-0.20005837082862854,-0.6856962442398071
1702153531685987800,1.56798779296875,-0.1774563491344452,-0.2845104932785034,-0.5813909769058228
1702153531702977000,1.58497705078125,-0.0656680166721344,-0.375071257352829,-0.48976120352745056
1702153531719970800,1.601970703125,-0.07406741380691528,-0.48426342010498047,-0.41920626163482666
1702153531736963600,1.618963623046875,-0.1235474944114685,-0.36010506749153137,-0.38347065448760986
1702153531753947400,1.635947509765625,-0.24755313992500305,-0.37522396445274353,-0.5615378618240356
1702153531770944500,1.652944580078125,-0.37797287106513977,-0.42271876335144043,-0.7047857642173767
1702153531787936000,1.66993603515625,-0.479834645986557,-0.45005497336387634,-0.6624833345413208
1702153531804923400,1.68692333984375,-0.48227810859680176,-0.30253100395202637,-0.3982841372489929
1702153531821919000,1.7039189453125,-0.4537201523780823,-0.40225476026535034,-0.23273965716362
1702153531838907600,1.72090771484375,-0.5629123449325562,-0.6256787180900574,-0.3831652104854584
1702153531855899100,1.737899169921875,-0.7234171628952026,-0.5299255847930908,-0.5922338366508484
1702153531872892000,1.754891845703125,-0.6754642724990845,-0.2838996350765228,-0.5546656250953674
1702153531889881900,1.7718818359375,-0.3211624026298523,-0.22128593921661377,-0.3208569586277008
1702153531906875000,1.788875,-0.19043724238872528,-0.6553056836128235,-0.3767511546611786
1702153531923862800,1.80586279296875,0.00366519158706069,-0.4121813178062439,-0.3959933817386627
1702153531940855300,1.822855224609375,-0.005192354787141085,-0.08216137439012527,-0.28038713335990906
1702153531957848300,1.839848388671875,0.10995574295520782,0.015271631069481373,-0.12828169763088226
1702153531974835500,1.85683544921875,0.5885686874389648,-0.16172657907009125,-0.1339322030544281
1702153531991837700,1.873837646484375,0.9524916410446167,-0.7153232097625732,-0.3384193480014801
1702153532008820200,1.8908203125,0.6189591884613037,-0.7958046793937683,-0.3770565688610077
1702153532025803000,1.907802978515625,-0.013744467869400978,-0.1644754707813263,-0.17211128771305084
1702153532042800400,1.92480029296875,-0.14798210561275482,0.5728389024734497,-0.11178833991289139
1702153532059785200,1.94178515625,0.28038713335990906,0.44089198112487793,-0.25931230187416077
1702153532076787000,1.958786865234375,0.4366159439086914,-0.46853363513946533,-0.33429601788520813
1702153532093773800,1.97577392578125,-0.047189339995384216,-0.9807441234588623,-0.20723603665828705
1702153532110767900,1.992767822265625,-0.5496259927749634,-0.4714352488517761,-0.15577064454555511
1702153532127761400,2.009761474609375,-0.36193767189979553,0.3052799105644226,-0.2542726695537567
1702153532144747800,2.026747802734375,0.23182335495948792,0.4763221740722656,-0.21044307947158813
1702153532161739500,2.043739501953125,0.5674937963485718,0.15073099732398987,0.09651670604944229
1702153532178735000,2.060735107421875,0.44104471802711487,-0.24205535650253296,0.17928895354270935
1702153532195726300,2.077726318359375,0.024587325751781464,-0.4841107130050659,-0.11682797968387604
1702153532212713000,2.094712890625,-0.41141775250434875,-0.36300668120384216,-0.4265366494655609
1702153532229706200,2.111706298828125,-0.611934244632721,-0.11133018881082535,-0.5729916095733643
1702153532246699500,2.128699462890625,-0.5004513263702393,0.006261368747800589,-0.5691736936569214
1702153532263687200,2.145687255859375,-0.2093740701675415,0.00366519158706069,-0.3335324227809906
1702153532280680000,2.162679931640625,0.05864306539297104,-0.24266621470451355,-0.13744467496871948
1702153532297673000,2.1796728515625,0.23655757308006287,-0.43386703729629517,-0.3576616048812866
1702153532314659800,2.196659912109375,0.42348232865333557,-0.45631635189056396,-0.6940956115722656
1702153532331655400,2.213655517578125,0.5233588218688965,-0.48655417561531067,-0.6264423131942749
1702153532348643000,2.23064306640625,0.6864598393440247,-0.4999932050704956,-0.13179416954517365
1702153532365631500,2.247631591796875,0.9115636348724365,-0.27580565214157104,0.403323769569397
1702153532382625300,2.264625244140625,0.946382999420166,-0.12828169763088226,0.5532912015914917
1702153532399619600,2.28161962890625,0.7278459668159485,-0.1212567538022995,0.25305092334747314
1702153532416611600,2.298611572265625,0.40072759985923767,-0.3390302062034607,-0.13209961354732513
1702153532433598500,2.315598388671875,0.06765332818031311,-0.44715335965156555,-0.07406741380691528
1702153532450592300,2.33259228515625,-0.00855211354792118,-0.17867808043956757,0.10018189996480942
1702153532467586300,2.34958642578125,0.19104810059070587,0.07254024595022202,0.11194105446338654
1702153532484572400,2.366572509765625,0.40515637397766113,-0.014202617108821869,0.13148874044418335
1702153532501564200,2.383564208984375,0.35781431198120117,-0.3549126982688904,0.12629638612270355
1702153532518559700,2.400559814453125,0.13255776464939117,-0.5277875661849976,-0.06108652427792549
1702153532535551000,2.417551025390625,-0.09483683109283447,-0.2831360399723053,-0.22479841113090515
1702153532552537000,2.434537109375,-0.05345070734620094,0.05161811411380768,-0.21533000469207764
1702153532569531000,2.45153076171875,0.14614951610565186,0.062460970133543015,0.008399397134780884
1702153532586524000,2.46852392578125,0.2926044464111328,-0.08414668589830399,0.299018532037735
1702153532603513900,2.485513916015625,0.11621711403131485,-0.4691445231437683,0.26740625500679016
1702153532620515000,2.50251513671875,-0.21868975460529327,-0.6528622508049011,0.16294831037521362
1702153532637487900,2.51948779296875,-0.22052235901355743,-0.5345070958137512,0.3585779070854187
1702153532654485200,2.5364853515625,0.12828169763088226,0.08338310569524765,0.5296201705932617
1702153532671472000,2.55347216796875,0.38240164518356323,0.6116288304328918,0.5015203952789307
1702153532688474000,2.57047412109375,0.2938261926174164,0.6198754906654358,0.3029891550540924
1702153532705463000,2.587463134765625,-0.09773843735456467,-0.0007635815418325365,0.22189679741859436
1702153532722449400,2.604449462890625,-0.13316862285137177,-0.4795292317867279,0.30604347586631775
1702153532739444200,2.6214443359375,0.1690569519996643,-0.17592918872833252,0.3032945990562439
1702153532756436200,2.638436279296875,0.5482515692710876,0.5878050923347473,0.23121249675750732
1702153532773423000,2.655423095703125,0.665232241153717,1.1035280227661133,0.07849618047475815
1702153532790416600,2.672416748046875,0.290313720703125,1.1746938228607178,-0.02687807008624077
1702153532807423200,2.68942333984375,-0.2816088795661926,0.33276882767677307,-0.025961773470044136
1702153532824397000,2.70639697265625,-0.2871066629886627,-0.45173484086990356,0.17211128771305084
1702153532841391000,2.72339111328125,0.3066543638706207,-0.12461651116609573,0.2376265823841095
1702153532858380000,2.740380126953125,0.7930558323860168,0.6258314251899719,-0.030695978552103043
1702153532875377400,2.75737744140625,0.6776022911071777,1.0879509449005127,-0.3413209617137909
1702153532892363300,2.77436328125,-0.06291911751031876,0.982729434967041,-0.36422839760780334
1702153532909366300,2.7913662109375,-0.5765040516853333,0.08643743395805359,-0.036193765699863434
1702153532926348500,2.8083486328125,-0.47448956966400146,-0.3260493278503418,0.1547016203403473
1702153532943336400,2.82533642578125,-0.07498370856046677,0.24862214922904968,-0.003512475173920393
1702153532960318500,2.842318359375,0.11407908797264099,0.925308108329773,-0.18417587876319885
1702153532977319700,2.859319580078125,0.15454891324043274,1.0018190145492554,-0.17669276893138885
1702153532994311700,2.876311767578125,0.0555887371301651,0.8417723178863525,0.060933809727430344
1702153533011304700,2.8933046875,-0.16111570596694946,0.5015203952789307,0.35903605818748474
1702153533028292900,2.91029296875,-0.34162637591362,0.16233743727207184,0.479834645986557
1702153533045288000,2.927287841796875,-0.3107776939868927,0.09728029370307922,0.4225660264492035
1702153533062274800,2.94427490234375,-0.13973543047904968,0.22846360504627228,0.3098613917827606
1702153533079259000,2.9612587890625,-0.04993823543190956,0.2866485118865967,0.23777928948402405
1702153533096262700,2.9782626953125,-0.10735956579446793,0.14584407210350037,0.1690569519996643
1702153533113242600,2.99524267578125,-0.2422080636024475,-0.0734565481543541,-0.02168571576476097
1702153533130244000,3.012244140625,-0.36132678389549255,-0.1866193264722824,-0.26572638750076294
1702153533147225600,3.0292255859375,-0.44394633173942566,-0.22647829353809357,-0.38148534297943115
1702153533164219600,3.0462197265625,-0.4103487432003021,-0.2765692472457886,-0.36682456731796265
1702153533181218000,3.063218017578125,-0.3830125033855438,-0.2480112910270691,-0.42042800784111023
1702153533198194200,3.080194091796875,-0.2785545587539673,-0.1059851199388504,-0.45631635189056396
1702153533215198700,3.09719873046875,-0.30283644795417786,-0.19257527589797974,-0.5549710988998413
1702153533232187000,3.114186767578125,-0.4314235746860504,-0.18356500566005707,-0.5572618246078491
1702153533249177600,3.131177490234375,-0.5600107312202454,-0.18157969415187836,-0.4440990388393402
1702153533266171400,3.14817138671875,-0.6215553879737854,-0.04612032696604729,-0.35384368896484375
1702153533283154000,3.16515380859375,-0.6206390857696533,0.20311269164085388,-0.25503623485565186
1702153533300154600,3.182154541015625,-0.630871057510376,0.49984049797058105,0.010995574295520782
1702153533317143300,3.199143310546875,-0.46043968200683594,0.5126686692237854,0.3286454975605011
1702153533334139600,3.2161396484375,-0.3165809214115143,0.3471241891384125,0.29825496673583984
1702153533351129600,3.233129638671875,-0.24724771082401276,0.3533855378627777,-0.025961773470044136
1702153533368109800,3.25010986328125,-0.20555615425109863,0.2393064647912979,-0.32681289315223694
1702153533385112300,3.2671123046875,-0.2243402600288391,0.04566217586398125,-0.38240164518356323
1702153533402100700,3.284100830078125,-0.1719585657119751,-0.30695977807044983,-0.13530665636062622
1702153533419094300,3.30109423828125,0.2545780837535858,-0.5907067060470581,0.4265366494655609
1702153533436084500,3.31808447265625,0.688903272151947,-0.8733845949172974,0.702800452709198
1702153533453059000,3.33505908203125,0.6904304623603821,-0.8475755453109741,0.5019785165786743
1702153533470067200,3.352067138671875,0.3738495409488678,-0.616973876953125,-0.05742133408784866
1702153533487046700,3.369046630859375,-0.0754418596625328,-0.7357872128486633,-0.5694791078567505
1702153533504049400,3.38604931640625,-0.3196352422237396,-0.6655376553535461,-0.3269656300544739
1702153533521040600,3.40304052734375,-0.15851953625679016,-0.39645153284072876,0.2788599729537964
1702153533538032400,3.420032470703125,-0.02474004216492176,-0.13484850525856018,0.5229006409645081
1702153533555025000,3.43702490234375,-0.2301434874534607,0.31551191210746765,0.14294247329235077
1702153533572013600,3.454013671875,-0.47311514616012573,0.579405665397644,-0.2698497176170349
1702153533588995000,3.4709951171875,-0.42149701714515686,0.25274550914764404,-0.18417587876319885
1702153533605997000,3.4879970703125,-0.24419337511062622,-0.3084869384765625,0.0907134860754013
1702153533622986200,3.504986328125,-0.09987647086381912,-0.5542075037956238,-0.01038470957428217
1702153533639982300,3.521982421875,-0.17516560852527618,-0.48945578932762146,-0.39354994893074036
1702153533656970500,3.538970458984375,-0.4957171380519867,-0.32360586524009705,-0.38377609848976135
1702153533673962000,3.5559619140625,-0.49984049797058105,-0.07788532227277756,0.009010262787342072
1702153533690954000,3.5729541015625,-0.1921171247959137,0.00366519158706069,0.13179416954517365
1702153533707933700,3.58993359375,0.21807889640331268,-0.15500704944133759,-0.021991148591041565
1702153533724935700,3.606935791015625,0.16920967400074005,-0.720820963382721,-0.28557950258255005
1702153533741923000,3.623923095703125,-0.23915374279022217,-0.7841982841491699,-0.280539870262146
1702153533758922800,3.6409228515625,-0.3594942092895508,-0.009773843921720982,-0.031612277030944824
1702153533775907300,3.6579072265625,-0.08231408894062042,0.13347405195236206,-0.08460483700037003
1702153533792902400,3.67490234375,0.3248275816440582,-0.13775011897087097,-0.12522737681865692
1702153533809891600,3.6918916015625,0.38011088967323303,-0.631481945514679,-0.28527405858039856
1702153533826883800,3.7088837890625,-0.018478672951459885,-0.6575964093208313,-0.5342016816139221
1702153533843874300,3.725874267578125,-0.34162637591362,-0.2974913716316223,-0.5412266254425049
1702153533860865300,3.742865234375,-0.2695443034172058,-0.1598939746618271,-0.05864306539297104
1702153533877856800,3.759856689453125,0.0656680166721344,-0.07284568250179291,0.2834414839744568
1702153533894849000,3.77684912109375,0.4535674452781677,0.098502017557621,0.1699732542037964
1702153533911839500,3.793839599609375,0.44226643443107605,-0.03833179548382759,0.03695734590291977
1702153533928830500,3.81083056640625,0.17806722223758698,-0.35246923565864563,0.00809396430850029
1702153533945821400,3.827821533203125,-0.040622539818286896,-0.6349944472312927,0.18646661937236786
1702153533962803500,3.844803466796875,-0.029932396486401558,-0.5496259927749634,0.275958389043808
1702153533979804000,3.861803955078125,0.12339477986097336,-0.31520646810531616,0.26740625500679016
1702153533996795400,3.87879541015625,0.20723603665828705,-0.1915062516927719,0.22510384023189545
1702153534013767700,3.895767578125,0.12431107461452484,-0.20799961686134338,0.19379699230194092
1702153534030779000,3.91277880859375,0.03390302136540413,-0.3465133011341095,0.2223549485206604
1702153534047772200,3.929772216796875,0.06750060617923737,-0.35063666105270386,0.3397938013076782
1702153534064757000,3.946757080078125,0.20845776796340942,-0.3543018400669098,0.2854267954826355
1702153534081751300,3.963751220703125,0.2525927722454071,-0.4170682430267334,0.23945917189121246
1702153534098743800,3.980743896484375,0.19013181328773499,-0.5065600275993347,0.16203200817108154
1702153534115733800,3.997733642578125,0.07131851464509964,-0.4001167416572571,0.13790282607078552
1702153534132725200,4.014725341796875,0.09957103431224823,-0.09392052888870239,0.19486601650714874
1702153534149716500,4.031716552734375,0.29275718331336975,0.13561208546161652,0.192422553896904
1702153534166709000,4.048708984375,0.6629415154457092,0.17409659922122955,0.21991148591041565
1702153534183699000,4.065698974609375,0.8199338912963867,-0.028557950630784035,0.058948494493961334
1702153534200690000,4.08268994140625,0.5717698931694031,-0.4190535545349121,0.11804971098899841
1702153534217681400,4.099681396484375,0.4590652287006378,-0.32070425152778625,0.3494149148464203
1702153534234665500,4.11666552734375,0.46364670991897583,0.24908030033111572,0.385303258895874
1702153534251661000,4.1336611328125,0.6684392690658569,0.7852672934532166,0.408363401889801
1702153534268658000,4.150657958984375,0.6166684627532959,0.8268061280250549,0.46700647473335266
1702153534285646300,4.167646240234375,0.3101668357849121,0.5349652171134949,0.5505422949790955
1702153534302628400,4.18462841796875,0.18997909128665924,0.4311181604862213,0.7144069075584412
1702153534319628800,4.20162890625,0.2551889419555664,0.43157628178596497,0.6661485433578491
1702153534336617500,4.218617431640625,0.49984049797058105,0.7073819637298584,0.3680463135242462
1702153534353613800,4.23561376953125,0.5015203952789307,0.451582133769989,-0.0734565481543541
1702153534370603500,4.252603515625,0.35246923565864563,-0.078343465924263,-0.046273041516542435
1702153534387593700,4.26959375,0.18784105777740479,-0.17516560852527618,0.39797869324684143
1702153534404583400,4.28658349609375,0.034666601568460464,0.029932396486401558,0.699288010597229
1702153534421578000,4.303577880859375,-0.059864792972803116,0.3770565688610077,0.6177374720573425
1702153534438568400,4.320568359375,0.01878410577774048,0.6101016402244568,0.21349740028381348
1702153534455558700,4.33755859375,0.09285151958465576,0.2840523421764374,-0.0861319974064827
1702153534472539400,4.354539306640625,0.20815233886241913,-0.12247848510742188,0.13775011897087097
1702153534489541400,4.371541259765625,0.24877487123012543,-0.26313021779060364,0.47907108068466187
1702153534506533400,4.388533447265625,0.13271047174930573,0.06582073122262955,0.622013509273529
1702153534523523600,4.405523681640625,0.07773260027170181,0.5169447064399719,0.5458080768585205
1702153534540515000,4.42251513671875,0.12110403180122375,0.7096726894378662,0.4207334518432617
1702153534557503500,4.43950341796875,0.08002334833145142,0.7096726894378662,0.23518311977386475
1702153534574501000,4.456501220703125,-0.06322455406188965,0.6719517707824707,0.08628471940755844
1702153534591488500,4.473488525390625,-0.13439035415649414,0.7148650288581848,0.16050484776496887
1702153534608479700,4.490479736328125,-0.09117163717746735,0.6542366743087769,0.30772337317466736
1702153534625471200,4.50747119140625,-0.0064140851609408855,0.4161519408226013,0.38347065448760986
1702153534642463200,4.524463134765625,0.14217889308929443,0.40591996908187866,0.34055736660957336
1702153534659453400,4.541453369140625,0.20586158335208893,0.6055201888084412,0.166460782289505
1702153534676445000,4.55844482421875,0.12660181522369385,0.6774495840072632,0.08475755155086517
1702153534693436200,4.575436279296875,0.017867809161543846,0.5636758804321289,0.12278391420841217
1702153534710418000,4.59241796875,-0.06108652427792549,0.4622722864151001,0.19226983189582825
1702153534727418400,4.60941845703125,-0.06215553730726242,0.31031954288482666,0.21319197118282318
1702153534744409900,4.626409912109375,-0.03405573591589928,0.16752979159355164,0.03298672288656235
1702153534761403100,4.643403076171875,-0.05604688450694084,0.2776382565498352,-0.3381139039993286
1702153534778391000,4.66039111328125,-0.17241671681404114,0.518471896648407,-0.5010622143745422
1702153534795383600,4.677383544921875,-0.25961771607398987,0.5326744914054871,-0.4231768846511841
1702153534812374800,4.694374755859375,-0.3023782968521118,0.24602597951889038,-0.384845107793808
1702153534829366300,4.7113662109375,-0.3068070709705353,0.02779436856508255,-0.48090365529060364
1702153534846355500,4.72835546875,-0.35781431198120117,-0.02015855349600315,-0.6908885836601257
1702153534863351000,4.74535107421875,-0.3937026560306549,-0.03726277872920036,-0.8695666790008545
1702153534880324600,4.76232470703125,-0.33017265796661377,-0.015577063895761967,-0.874453604221344
1702153534897331700,4.779331787109375,-0.28298333287239075,-0.22143864631652832,-0.8251262307167053
1702153534914322700,4.79632275390625,-0.29596421122550964,-0.4772384762763977,-0.7015787363052368
1702153534931313400,4.8133134765625,-0.30115658044815063,-0.7707592248916626,-0.6653849482536316
1702153534948305000,4.830304931640625,-0.1889100819826126,-0.7727445363998413,-0.6414085030555725
1702153534965295900,4.8472958984375,-0.06322455406188965,-0.47342056035995483,-0.6378960609436035
1702153534982288100,4.8642880859375,0.0754418596625328,-0.07910704612731934,-0.6719517707824707
1702153534999278300,4.8812783203125,0.01970040425658226,0.056810468435287476,-0.5314527750015259
1702153535016260000,4.898260009765625,-0.23609942197799683,0.10354165732860565,-0.2324342280626297
1702153535033260800,4.9152607421875,-0.3585779070854187,0.09865473955869675,-0.15821409225463867
1702153535050253000,4.932253173828125,-0.40622538328170776,0.24419337511062622,-0.4605923891067505
1702153535067245000,4.9492451171875,-0.42531493306159973,0.3959933817386627,-0.7887797355651855
1702153535084222500,4.966222412109375,-0.4726569950580597,0.32788193225860596,-0.7476990818977356
1702153535101225700,4.983225830078125,-0.38988474011421204,0.07880161702632904,-0.3006984293460846
1702153535118218000,5.000218017578125,-0.34376442432403564,-0.3019201457500458,-0.10461067408323288
1702153535135202600,5.01720263671875,-0.5308418869972229,-0.5477933883666992,-0.46670106053352356
1702153535152199700,5.03419970703125,-0.8057312369346619,-0.14508049190044403,-0.6840163469314575
1702153535169191000,5.05119091796875,-0.9222537875175476,0.4564690589904785,-0.4596760869026184
1702153535186183000,5.068182861328125,-0.6950119137763977,0.1514945775270462,-0.1621847152709961
1702153535203173000,5.085173095703125,-0.14966198801994324,-0.5108360648155212,-0.03191770985722542
1702153535220164600,5.10216455078125,0.0705549344420433,-1.216843605041504,-0.40591996908187866
1702153535237155600,5.119155517578125,-0.18219055235385895,-1.4593570232391357,-0.5705481171607971
1702153535254148000,5.136148193359375,-0.45555275678634644,-0.8724682927131653,-0.06734789162874222
1702153535271138000,5.153137939453125,-0.27947086095809937,-0.01572977937757969,0.19975294172763824
1702153535288129500,5.170129638671875,0.22113321721553802,0.30253100395202637,0.18081611394882202
1702153535305120800,5.187120849609375,0.4040873646736145,-0.11224649101495743,0.03436116874217987
1702153535322113000,5.204113037109375,-0.19303341209888458,-0.4691445231437683,0.014966198243200779
1702153535339103200,5.221103271484375,-0.8483390808105469,-0.15943582355976105,-0.05726861581206322
1702153535356094500,5.238094482421875,-0.9764680862426758,0.11621711403131485,-0.18417587876319885
1702153535373085700,5.255085693359375,-0.44257187843322754,0.13408492505550385,-0.07177666574716568
1702153535390078000,5.272077880859375,0.18799377977848053,-0.07590000331401825,0.16829337179660797
1702153535407068200,5.289068115234375,0.43936482071876526,-0.15027284622192383,0.2252565622329712
1702153535424059400,5.306059326171875,0.24037547409534454,-0.154396191239357,0.03176499158143997
1702153535441050600,5.323050537109375,-0.08491026610136032,-0.33460143208503723,-0.11820242553949356
1702153535458043000,5.34004296875,-0.3289509415626526,-0.4905247986316681,-0.03145955875515938
1702153535475033000,5.357033203125,-0.3237585723400116,-0.39095374941825867,0.009162978269159794
1702153535492024300,5.3740244140625,-0.06688974797725677,-0.2993239760398865,0.16294831037521362
1702153535509015600,5.391015625,0.2590068578720093,-0.23686300218105316,0.33796119689941406
1702153535526007800,5.4080078125,0.4109596014022827,-0.2174680233001709,0.3043636083602905
1702153535542998000,5.424998046875,0.33857205510139465,-0.22678372263908386,0.2600758671760559
1702153535559988200,5.44198828125,0.26832255721092224,-0.18570303916931152,0.2733621895313263
1702153535576981800,5.458981689453125,0.27977627515792847,-0.08811730891466141,0.2840523421764374
1702153535593972700,5.47597265625,0.3384193480014801,-0.13072516024112701,0.2791654169559479
1702153535610963200,5.492963134765625,0.3269656300544739,-0.2678644061088562,0.3049744665622711
1702153535627954200,5.5099541015625,0.2474004179239273,-0.4161519408226013,0.29535335302352905
1702153535644946000,5.52694580078125,0.13377949595451355,-0.3813326358795166,0.27779096364974976
1702153535661937700,5.543937744140625,0.10674870014190674,-0.24724771082401276,0.22098049521446228
1702153535678928100,5.56092822265625,0.15515977144241333,-0.21960605680942535,0.16752979159355164
1702153535695919400,5.57791943359375,0.16829337179660797,-0.25014930963516235,0.16523905098438263
1702153535712910600,5.59491064453125,0.18799377977848053,-0.20326541364192963,0.13087788224220276
1702153535729902800,5.61190283203125,0.2223549485206604,-0.09483683109283447,0.11530081182718277
1702153535746893000,5.62889306640625,0.235030397772789,0.005039638374000788,0.12095131725072861
1702153535763884000,5.645884033203125,0.26679539680480957,-0.00015271631127689034,0.12431107461452484
1702153535780875500,5.66287548828125,0.33628132939338684,-0.008399397134780884,0.13866640627384186
1702153535797867800,5.67986767578125,0.44913867115974426,-0.009162978269159794,0.16951510310173035
1702153535814858000,5.69685791015625,0.5745187401771545,-0.17501288652420044,0.2125810980796814
1702153535831849200,5.71384912109375,0.6027712821960449,-0.20051652193069458,0.3000875413417816
1702153535848838400,5.73083837890625,0.5097670555114746,-0.13118331134319305,0.43447789549827576
1702153535865841200,5.747841064453125,0.4346306324005127,-0.02886338345706463,0.6360634565353394
1702153535882823000,5.764822998046875,0.4069889783859253,0.0679587572813034,0.770301103591919
1702153535899814100,5.781814208984375,0.4398229718208313,-0.048105638474226,0.8382598161697388
1702153535916805400,5.798805419921875,0.3882048726081848,-0.12431107461452484,0.8984300494194031
1702153535933797600,5.815797607421875,0.14278975129127502,0.17119498550891876,0.9356928467750549
1702153535950787800,5.832787841796875,0.056352317333221436,0.4915938079357147,0.8895725011825562
1702153535967779300,5.849779296875,0.18616119027137756,0.6875288486480713,0.8358163833618164
1702153535984769800,5.866769775390625,0.44180828332901,0.6185010671615601,0.7057020664215088
1702153536001767200,5.88376708984375,0.5395467281341553,0.3376557528972626,0.5068654417991638
1702153536018752800,5.900752685546875,0.31261029839515686,-0.007024950347840786,0.2724458873271942
1702153536035744000,5.917743896484375,-0.05925392732024193,-0.13087788224220276,0.023976460099220276
1702153536052735500,5.934735595703125,-0.13454307615756989,0.020005837082862854,-0.15241087973117828
1702153536069727700,5.951727783203125,-0.10980302840471268,0.1670716404914856,-0.00931569468230009
1702153536086717700,5.9687177734375,-0.09056077152490616,0.1843285858631134,0.16722436249256134
1702153536103710500,5.98571044921875,-0.2076941877603531,0.15393804013729095,0.2197587788105011
1702153536120699100,6.00269921875,-0.3926336467266083,0.29626965522766113,0.23518311977386475
1702153536137692700,6.019692626953125,-0.2681698501110077,0.537408709526062,0.059864792972803116
1702153536154682600,6.0366826171875,-0.08567385375499725,0.29474249482154846,0.014049900695681572
1702153536171674000,6.053674072265625,-0.01237002108246088,0.2428189367055893,0.18096883594989777
1702153536188657000,6.070656982421875,-0.059406645596027374,0.5357288122177124,0.2817615866661072
1702153536205657600,6.08765771484375,-0.09666942805051804,0.746019184589386,0.33689218759536743
1702153536222647800,6.104647705078125,-0.13500121235847473,0.46563202142715454,0.22189679741859436
1702153536239632600,6.121632568359375,-0.20143280923366547,0.3286454975605011,0.02321287989616394
1702153536256628000,6.1386279296875,-0.2154827117919922,0.4411974251270294,-0.2119702398777008
1702153536273625000,6.155625,-0.21594086289405823,0.608727216720581,-0.35659259557724
1702153536290612700,6.17261279296875,-0.12568552792072296,0.6401867866516113,-0.11682797968387604
1702153536307601400,6.189601318359375,0.04612032696604729,0.451123982667923,0.1950187236070633
1702153536324598000,6.206597900390625,0.2125810980796814,0.31780263781547546,0.3326161205768585
1702153536341587500,6.22358740234375,0.19226983189582825,0.34773504734039307,0.303600013256073
1702153536358577700,6.24057763671875,0.1950187236070633,0.38438695669174194,0.14049901068210602
1702153536375569000,6.25756884765625,0.18417587876319885,0.5022839307785034,0.04214970022439957
1702153536392560400,6.274560302734375,0.1661553531885147,0.4671591818332672,0.03680463135242462
1702153536409552400,6.291552490234375,0.06933320313692093,0.30024027824401855,-0.04199698567390442
1702153536426542600,6.30854248046875,-0.022143865004181862,0.28985556960105896,-0.14905111491680145
1702153536443534000,6.3255341796875,-0.02474004216492176,0.3199406862258911,-0.1595885455608368
1702153536460524800,6.34252490234375,0.023976460099220276,0.18616119027137756,-0.14844025671482086
1702153536477518000,6.35951806640625,0.0708603709936142,0.060933809727430344,-0.1437060534954071
1702153536494507800,6.3765078125,0.014049900695681572,0.010537425056099892,-0.24342979490756989
1702153536511499000,6.3934990234375,-0.12431107461452484,0.054825156927108765,-0.33597588539123535
1702153536528490500,6.410490478515625,-0.29657506942749023,0.06872233748435974,-0.4280638098716736
1702153536545480200,6.427480224609375,-0.3491095006465912,0.08032877743244171,-0.4056145250797272
1702153536562467000,6.444467041015625,-0.2591595947742462,-0.03985895588994026,-0.36911532282829285
1702153536579466800,6.461466796875,-0.15424346923828125,-0.16569720208644867,-0.3150537610054016
1702153536596455200,6.478455078125,-0.2025018334388733,-0.1316414624452591,-0.31551191210746765
1702153536613447400,6.495447509765625,-0.35323283076286316,0.016035212203860283,-0.3286454975605011
1702153536630437600,6.512437744140625,-0.3585779070854187,-0.013897184282541275,-0.34865134954452515
1702153536647441400,6.52944140625,-0.1690569519996643,-0.11560624837875366,-0.3724750876426697
1702153536664420400,6.54642041015625,0.07819075137376785,-0.23350323736667633,-0.3903428912162781
1702153536681412600,6.56341259765625,0.21273382008075714,-0.4334088861942291,-0.1791362315416336
1702153536698392300,6.580392333984375,0.058184914290905,-0.5595525503158569,-0.016035212203860283
1702153536715393800,6.597393798828125,-0.14263702929019928,-0.3504839241504669,-0.2076941877603531
1702153536732385300,6.61438525390625,-0.23151792585849762,-0.13271047174930573,-0.5444336533546448
1702153536749377500,6.63137744140625,-0.1310305893421173,0.1186605766415596,-0.6937901973724365
1702153536766365200,6.648365234375,-0.11407908797264099,-0.048105638474226,-0.7338019013404846
1702153536783361800,6.66536181640625,-0.20295998454093933,-0.19593502581119537,-0.5187773108482361
1702153536800350200,6.68235009765625,-0.12263119965791702,-0.28557950258255005,-0.2565633952617645
1702153536817342500,6.699342529296875,0.03726277872920036,-0.18035796284675598,-0.14767667651176453
1702153536834332700,6.716332763671875,0.05955936014652252,-0.2562579810619354,-0.22937989234924316
1702153536851324000,6.733323974609375,-0.062460970133543015,-0.2496911734342575,-0.351400226354599
1702153536868315100,6.750315185546875,-0.1976149082183838,0.0607810914516449,-0.2379320114850998
1702153536885298400,6.76729833984375,-0.14767667651176453,0.1814269721508026,-0.05955936014652252
1702153536902298400,6.78429833984375,0.0503963828086853,0.1875356286764145,0.0835358202457428
1702153536919288300,6.801288330078125,0.17791450023651123,-0.5134322643280029,-0.03634648025035858
1702153536936280000,6.818280029296875,-0.11743884533643723,-1.2385293245315552,-0.12996158003807068
1702153536953271300,6.835271240234375,-0.6322455406188965,-1.0684033632278442,0.016035212203860283
1702153536970263800,6.852263916015625,-0.8475755453109741,-0.06352998316287994,0.14477506279945374
1702153536987253800,6.869253662109375,-0.49205195903778076,0.7588473558425903,0.058337632566690445
1702153537004245200,6.886245361328125,0.07284568250179291,0.489608496427536,-0.07666359096765518
1702153537021237200,6.9032373046875,0.17760907113552094,-0.35582900047302246,0.01771509274840355
1702153537038227700,6.920227783203125,-0.36682456731796265,-0.5832235813140869,0.07528914511203766
1702153537055219000,6.937218994140625,-0.9808968901634216,-0.023060163483023643,-0.19288070499897003
1702153537072210200,6.954210205078125,-1.003804326057434,0.3856086730957031,-0.4389066696166992
1702153537089202400,6.971202392578125,-0.48777589201927185,0.5963571667671204,-0.3260493278503418
1702153537106192600,6.988192626953125,0.12751811742782593,0.2790127098560333,-0.0403171069920063
1702153537123183900,7.005183837890625,0.3504839241504669,-0.35674530267715454,0.23839016258716583
1702153537140165000,7.0221650390625,0.1359175145626068,-0.3543018400669098,0.3761402666568756
1702153537157167400,7.03916748046875,-0.16661348938941956,-0.014202617108821869,0.10048733651638031
1702153537174157800,7.05615771484375,-0.2344195395708084,0.12018773704767227,-0.1898263692855835
1702153537191148800,7.073148681640625,-0.12538009881973267,-0.11010845750570297,-0.2402227520942688
1702153537208140500,7.090140625,-0.1846340149641037,-0.39904773235321045,-0.1287398487329483
1702153537225121800,7.107121826171875,-0.4407392740249634,-0.30543261766433716,-0.03039054572582245
1702153537242122500,7.12412255859375,-0.574976921081543,-0.1921171247959137,-0.15836681425571442
1702153537259113700,7.14111376953125,-0.40286561846733093,-0.34895676374435425,-0.294437050819397
1702153537276105200,7.158105224609375,-0.07101308554410934,-0.6866125464439392,-0.23426681756973267
1702153537293096400,7.175096435546875,-0.04199698567390442,-0.7049384713172913,0.11133018881082535
1702153537310088400,7.19208837890625,-0.32131510972976685,-0.03985895588994026,0.13484850525856018
1702153537327079000,7.209078857421875,-0.45204028487205505,0.17318029701709747,-0.017562376335263252
1702153537344070100,7.226070068359375,-0.32268956303596497,-0.1996002197265625,-0.05604688450694084
1702153537361062400,7.2430625,0.007941247895359993,-0.46410486102104187,-0.00015271631127689034
1702153537378052600,7.260052490234375,0.32100969552993774,-0.29077184200286865,0.14676037430763245
1702153537395043800,7.2770439453125,0.3962988257408142,0.07742717117071152,0.16982053220272064
1702153537412035000,7.29403515625,0.31673362851142883,0.26893341541290283,0.050243668258190155
1702153537429027300,7.31102734375,0.2405281960964203,0.08949175477027893,0.01466076634824276
1702153537446017500,7.328017578125,0.17409659922122955,-0.2177734673023224,0.08261952549219131
1702153537463008800,7.3450087890625,0.19562959671020508,-0.2906191349029541,0.0835358202457428
1702153537480000000,7.362,0.19776763021945953,-0.29306259751319885,0.06994406878948212
1702153537496992300,7.3789921875,0.21303924918174744,-0.2649627923965454,0.08231408894062042
1702153537513982700,7.395982666015625,0.2515237629413605,-0.2122756689786911,0.09269879758358002
1702153537530974000,7.412973876953125,0.256868839263916,-0.008399397134780884,0.10705413669347763
1702153537547965200,7.429965087890625,0.25564709305763245,0.1621847152709961,0.078343465924263
1702153537564947000,7.446947021484375,0.28695395588874817,0.17333301901817322,0.05268712714314461
1702153537581947600,7.46394775390625,0.27779096364974976,-0.0013744467869400978,0.034666601568460464
1702153537598939000,7.48093896484375,0.2828305959701538,-0.14782938361167908,0.059406645596027374
1702153537615930000,7.49793017578125,0.32650747895240784,-0.14156801998615265,0.10842858254909515
1702153537632919800,7.514919921875,0.39645153284072876,0.12889257073402405,0.2194533348083496
1702153537649905000,7.53190478515625,0.4792237877845764,0.46471574902534485,0.3149010241031647
1702153537666904000,7.548904052734375,0.5296201705932617,0.39248090982437134,0.3975205719470978
1702153537683895000,7.56589501953125,0.5542075037956238,0.3194825351238251,0.6189591884613037
1702153537700887600,7.582887451171875,0.5589417219161987,0.1915062516927719,0.7638869881629944
1702153537717877500,7.59987744140625,0.5613851547241211,-0.02428189292550087,0.7305948138237
1702153537734866200,7.6168662109375,0.5861251950263977,0.12782354652881622,0.4662429094314575
1702153537751862500,7.633862548828125,0.4954117238521576,0.3039054572582245,0.06520986557006836
1702153537768845600,7.650845458984375,0.2646573781967163,0.5352706909179688,0.26832255721092224
1702153537785839900,7.66783984375,0.156686931848526,0.6155994534492493,0.741284966468811
1702153537802835700,7.684835693359375,0.10934487730264664,0.5363397002220154,0.9141598343849182
1702153537819826000,7.701825927734375,0.0455094613134861,0.4153883755207062,0.6499606370925903
1702153537836817200,7.718817138671875,-0.03894266113638878,0.546571671962738,0.2399173229932785
1702153537853807600,7.7358076171875,-0.15363261103630066,0.7634288668632507,0.16004669666290283
1702153537870798800,7.752798828125,-0.11392636597156525,0.8823948502540588,0.4421137273311615
1702153537887790000,7.7697900390625,0.05513058975338936,0.6739370822906494,0.7446447610855103
1702153537904782300,7.7867822265625,0.12278391420841217,0.0988074541091919,0.8721628785133362
1702153537921772500,7.8037724609375,-0.10949759185314178,-0.1339322030544281,0.6815729141235352
1702153537938763800,7.820763671875,-0.44577890634536743,0.5088507533073425,0.1788308024406433
1702153537955752400,7.83775244140625,-0.618195652961731,0.9127854108810425,-0.12431107461452484
1702153537972750000,7.85475,-0.206777885556221,0.5187773108482361,0.32681289315223694
1702153537989737500,7.871737548828125,0.2886338233947754,-0.46929723024368286,0.9185886383056641
1702153538006729000,7.88872900390625,0.408974289894104,-0.617584764957428,1.2554807662963867
1702153538023720200,7.90572021484375,0.25106561183929443,-0.0959058403968811,0.8918632864952087
1702153538040712200,7.922712158203125,0.09254608303308487,0.6707300543785095,0.38117989897727966
1702153538057702700,7.93970263671875,0.024434609338641167,0.6223189830780029,0.27870726585388184
1702153538074694000,7.95669384765625,0.06979135423898697,0.3900374472141266,0.4489859640598297
1702153538091685000,7.97368505859375,0.11453723162412643,0.28817567229270935,0.48548516631126404
1702153538108677400,7.990677490234375,-0.044745877385139465,0.35873061418533325,0.5016731023788452
1702153538125667600,8.00766748046875,-0.235030397772789,0.5697845816612244,0.6221662759780884
1702153538142658800,8.024658935546874,-0.32971450686454773,0.5531384944915771,0.5688682794570923
1702153538159647500,8.0416474609375,-0.3150537610054016,0.6247624158859253,0.4928155243396759
1702153538176645000,8.05864501953125,-0.14676037430763245,0.5589417219161987,0.4639521539211273
1702153538193630200,8.075630126953126,-0.17852537333965302,0.4715879559516907,0.4108068645000458
1702153538210624300,8.092624267578126,-0.16920967400074005,0.3292563557624817,0.23197607696056366
1702153538227617000,8.109616943359375,-0.13408492505550385,0.15424346923828125,0.060933809727430344
1702153538244605000,8.12660498046875,-0.144622340798378,0.08949175477027893,-0.16600263118743896
1702153538261599000,8.143598876953124,-0.1241583600640297,0.16081027686595917,-0.34758231043815613
1702153538278590000,8.16058984375,-0.10659598559141159,0.0503963828086853,-0.4138612151145935
1702153538295580200,8.177580078125,-0.11972958594560623,-0.20784689486026764,-0.36163222789764404
1702153538312572400,8.194572509765624,-0.1267545372247696,-0.41752639412879944,-0.4277583956718445
1702153538329562600,8.211562744140625,-0.22770002484321594,-0.4544837474822998,-0.5592471361160278
1702153538346553900,8.228553955078125,-0.40133845806121826,-0.33505958318710327,-0.5201517343521118
1702153538363545000,8.245545166015624,-0.40882155299186707,-0.22892175614833832,-0.5267185568809509
1702153538380534800,8.26253466796875,-0.29733866453170776,-0.1592831164598465,-0.5543602108955383
1702153538397530400,8.2795302734375,-0.2197587788105011,-0.2200642079114914,-0.5419901609420776
1702153538414518800,8.296518798828124,-0.12538009881973267,-0.36071592569351196,-0.4331034719944
1702153538431508500,8.313508544921875,0.07192938029766083,-0.3608686327934265,-0.26572638750076294
1702153538448504000,8.330504150390626,0.25641068816185,-0.3497203588485718,-0.15302173793315887
1702153538465481500,8.3474814453125,0.25106561183929443,-0.4674646258354187,-0.0959058403968811
1702153538482483700,8.364483642578126,0.14294247329235077,-0.499382346868515,-0.24037547409534454
1702153538499474700,8.381474609375,0.0705549344420433,-0.3433062732219696,-0.39706242084503174
1702153538516468200,8.39846826171875,0.20861047506332397,-0.06841690838336945,-0.38698312640190125
1702153538533457700,8.415457763671874,0.3804163336753845,0.11301007121801376,-0.35292738676071167
1702153538550449000,8.432448974609375,0.2064724564552307,-0.07116580009460449,-0.49877145886421204
1702153538567440400,8.4494404296875,-0.001679879380390048,-0.6107125282287598,-0.35934147238731384
1702153538584432400,8.466432373046874,-0.003817907767370343,-0.9897544384002686,-0.12660181522369385
1702153538601419300,8.483419189453125,0.10384709388017654,-0.9372199773788452,-0.3501785099506378
1702153538618417200,8.500417236328126,0.2684752643108368,-0.42928555607795715,-0.5809328556060791
1702153538635405000,8.517405029296874,0.2324342280626297,-0.16691893339157104,-0.4584543704986572
1702153538652391000,8.534390869140625,-0.0933096632361412,-0.13897185027599335,-0.2376265823841095
1702153538669387800,8.5513876953125,-0.19944749772548676,-0.4680754840373993,-0.2880229651927948
1702153538686378800,8.568378662109374,-0.07528914511203766,-0.8923214077949524,-0.49098294973373413
1702153538703373300,8.585373291015625,-0.04841107130050659,-0.6798930168151855,-0.6342308521270752
1702153538720359400,8.602359375,-0.16432274878025055,0.020005837082862854,-0.6091853380203247
1702153538737352700,8.619352783203125,-0.08414668589830399,0.41859540343284607,-0.3452915847301483
1702153538754343700,8.63634375,0.07651086896657944,0.007941247895359993,-0.1713477075099945
1702153538771335200,8.653335205078125,0.04963280260562897,-0.7506006956100464,-0.24694228172302246
1702153538788327400,8.670327392578125,-0.27641651034355164,-0.9521862268447876,-0.48655417561531067
1702153538805317600,8.687317626953124,-0.6007859706878662,-0.4164573848247528,-0.721737265586853
1702153538822308900,8.704308837890625,-0.5207626223564148,0.16798794269561768,-0.669966459274292
1702153538839300400,8.72130029296875,-0.044745877385139465,0.23228150606155396,-0.3978259861469269
1702153538856292400,8.738292236328125,0.41370847821235657,-0.18280142545700073,-0.3026837408542633
1702153538873282600,8.755282470703126,0.4150829315185547,-0.5484042763710022,-0.5357288122177124
1702153538890274000,8.772274169921875,-0.12751811742782593,-0.7443392872810364,-0.9685268402099609
1702153538907265300,8.789265380859375,-0.9231700897216797,-0.7255551815032959,-1.2101240158081055
1702153538924257500,8.806257568359374,-1.1398745775222778,-0.503047525882721,-1.0013608932495117
1702153538941247500,8.82324755859375,-0.598647952079773,-0.23869559168815613,-0.29397889971733093
1702153538958239000,8.840239013671875,0.33399057388305664,-0.04581489413976669,0.45402559638023376
1702153538975228400,8.857228515625,0.8283332586288452,0.02932153269648552,0.3888157308101654
1702153538992224300,8.874224365234374,0.7506006956100464,-0.3602577745914459,-0.00931569468230009
1702153539009212700,8.891212646484375,0.24129177629947662,-0.8515461683273315,-0.044745877385139465
1702153539026203100,8.908203125,-0.09514226019382477,-0.9520334601402283,0.022143865004181862
1702153539043196200,8.925196044921876,-0.0006108652451075613,-0.4931209683418274,0.14767667651176453
1702153539060187400,8.9421875,0.31291571259498596,0.05192354694008827,0.12736541032791138
1702153539077177600,8.959177490234374,0.5413793325424194,0.13087788224220276,0.05910121276974678
1702153539094164200,8.976164306640625,0.5890268087387085,-0.24785856902599335,0.02275473065674305
1702153539111160600,8.99316064453125,0.33368512988090515,-0.5893322229385376,-0.02932153269648552
1702153539128152300,9.01015234375,-0.02382374368607998,-0.6407976150512695,-0.05054909735918045
1702153539145142500,9.027142578125,-0.028099801391363144,-0.31291571259498596,0.035124752670526505
1702153539162133800,9.0441337890625,0.17150041460990906,-0.17333301901817322,0.06536258012056351
1702153539179125200,9.061125244140625,0.34345898032188416,-0.2122756689786911,0.034666601568460464
1702153539196117500,9.078117431640624,0.4063780903816223,-0.39874228835105896,0.05971207842230797
1702153539213107700,9.095107666015625,0.3917173445224762,-0.5227479338645935,0.09086620807647705
1702153539230099000,9.112098876953125,0.40591996908187866,-0.385303258895874,0.08246681094169617
1702153539247084800,9.129084716796875,0.38408151268959045,-0.1359175145626068,0.060933809727430344
1702153539264082400,9.14608251953125,0.35246923565864563,-0.014202617108821869,0.05604688450694084
1702153539281072600,9.16307275390625,0.31551191210746765,-0.10583240538835526,0.07498370856046677
1702153539298064000,9.18006396484375,0.2704605758190155,-0.20830504596233368,0.10002918541431427
1702153539315055600,9.1970556640625,0.24892759323120117,-0.2542726695537567,0.12278391420841217
1702153539332047400,9.21404736328125,0.3156646192073822,-0.31673362851142883,0.14324790239334106
1702153539349037800,9.231037841796875,0.3770565688610077,-0.0861319974064827,0.17104226350784302
1702153539366029300,9.248029296875,0.40912699699401855,0.23686300218105316,0.19288070499897003
1702153539383020500,9.2650205078125,0.4291328489780426,0.2762638032436371,0.2431243658065796
1702153539400012500,9.282012451171875,0.43417248129844666,0.16722436249256134,0.34376442432403564
1702153539417002800,9.299002685546874,0.4495968222618103,0.0884227454662323,0.4508185386657715
1702153539433983500,9.3159833984375,0.5267185568809509,0.03237585723400116,0.40194934606552124
1702153539450985700,9.33298583984375,0.6311765313148499,0.02932153269648552,0.2548835277557373
1702153539467975200,9.34997509765625,0.6438519954681396,0.01863138936460018,0.192422553896904
1702153539484970500,9.366970458984374,0.5884159207344055,-0.16462817788124084,0.24404066801071167
1702153539501959200,9.383959228515625,0.40362921357154846,-0.15561792254447937,0.2551889419555664
1702153539518950400,9.400950439453124,0.16814066469669342,0.1560760736465454,-0.04535674303770065
1702153539535942700,9.417942626953124,-0.09300423413515091,0.3159700334072113,-0.38698312640190125
1702153539552932900,9.434932861328125,-0.25106561183929443,0.36880987882614136,-0.156686931848526
1702153539569923800,9.451923828125,-0.09544769674539566,0.2744311988353729,0.21273382008075714
1702153539586915600,9.46891552734375,0.08689557760953903,0.2942843437194824,0.37262779474258423
1702153539603907600,9.485907470703125,0.197004035115242,0.3497203588485718,0.1748601794242859
1702153539620897800,9.502897705078125,0.26801711320877075,0.42898011207580566,-0.27382034063339233
1702153539637889000,9.519888916015624,0.18081611394882202,0.39996400475502014,-0.4291328489780426
1702153539654880500,9.536880615234375,0.13316862285137177,0.4138612151145935,-0.11423180252313614
1702153539671872500,9.55387255859375,0.20005837082862854,0.3500257730484009,0.1371392458677292
1702153539688862700,9.57086279296875,0.24083362519741058,0.5960517525672913,0.2793181240558624
1702153539705854000,9.58785400390625,0.24633140861988068,0.7478517889976501,0.04092797264456749
1702153539722845400,9.604845458984375,0.17501288652420044,0.6458373069763184,-0.2539672255516052
1702153539739827500,9.621827392578124,0.15363261103630066,0.5497786998748779,-0.18005253374576569
1702153539756828200,9.638828125,0.1394299864768982,0.36132678389549255,0.006261368747800589
1702153539773819100,9.655819091796875,0.09575312584638596,0.26740625500679016,0.1088867336511612
1702153539790810600,9.672810546875,-0.019089538604021072,0.39614611864089966,0.16065755486488342
1702153539807802600,9.689802734375,-0.11499538272619247,0.5540547966957092,0.10170906037092209
1702153539824792800,9.706792724609375,-0.20799961686134338,0.6372851729393005,-0.007635815534740686
1702153539841784000,9.7237841796875,-0.2768746614456177,0.5647448897361755,-0.09697485715150833
1702153539858775300,9.740775390625,-0.2883284091949463,0.4558582007884979,-0.06719517707824707
1702153539875767600,9.757767578125,-0.3065016269683838,0.4268420934677124,-0.0832303911447525
1702153539892757800,9.7747578125,-0.33200526237487793,0.5010622143745422,-0.14737124741077423
1702153539909749000,9.7917490234375,-0.3874412775039673,0.5907067060470581,-0.21884247660636902
1702153539926738200,9.80873828125,-0.5076290369033813,0.5580254197120667,-0.2672535479068756
1702153539943725800,9.825725830078126,-0.4381431043148041,0.3813326358795166,-0.2194533348083496
1702153539960714200,9.84271435546875,-0.23090706765651703,0.24297164380550385,-0.16600263118743896
1702153539977712400,9.85971240234375,-0.1537853181362152,0.460897833108902,-0.05268712714314461
1702153539994705400,9.876705322265625,-0.18051068484783173,0.7547240257263184,0.15134187042713165
1702153540011699000,9.893698974609375,-0.16768251359462738,0.6983717083930969,0.3211624026298523
1702153540028686300,9.910686279296876,-0.09453139454126358,0.2996293902397156,0.3065016269683838
1702153540045669000,9.927669189453125,-0.006108652334660292,-0.052381694316864014,0.24144448339939117
1702153540062667000,9.9446669921875,0.016493361443281174,-0.05100724846124649,0.2629774808883667
1702153540079666200,9.961666259765625,-0.04352414980530739,0.204487144947052,0.32528573274612427
1702153540096652800,9.97865283203125,-0.07254024595022202,0.27519479393959045,0.31261029839515686
1702153540113642500,9.995642578125,-0.1414152979850769,-0.11850785464048386,0.2002110779285431
1702153540130628400,10.01262841796875,-0.34116822481155396,-0.4528038501739502,0.019089538604021072
1702153540147627500,10.02962744140625,-0.5618433356285095,-0.4118759036064148,-0.19868391752243042
1702153540164609000,10.046609130859375,-0.5671883821487427,-0.20387627184391022,-0.34406983852386475
1702153540181609200,10.063609130859374,-0.3799581825733185,-0.11988230794668198,-0.280539870262146
1702153540198600400,10.080600341796876,-0.20570887625217438,-0.21502456068992615,-0.11804971098899841
1702153540215592700,10.0975927734375,-0.15729780495166779,-0.3292563557624817,0.028099801391363144
1702153540232583000,10.1145830078125,-0.21059578657150269,-0.3862195611000061,-0.03588833287358284
1702153540249563600,10.131563720703125,-0.3121521472930908,-0.318566232919693,-0.29016098380088806
1702153540266565600,10.148565673828125,-0.21273382008075714,-0.22220222651958466,-0.4164573848247528
1702153540283558000,10.165557861328125,0.08292495459318161,-0.1033889427781105,-0.2301434874534607
1702153540300547800,10.1825478515625,0.30024027824401855,-0.06811147183179855,0.11682797968387604
1702153540317539000,10.1995390625,0.4034765064716339,-0.1511891484260559,0.3507893681526184
1702153540334527700,10.21652783203125,0.2814561724662781,-0.27351492643356323,0.294437050819397
1702153540351525600,10.233525634765625,0.12660181522369385,-0.24923302233219147,0.05619960278272629
1702153540368512800,10.2505126953125,0.03130684420466423,-0.00931569468230009,-0.2073887437582016
1702153540385504300,10.267504150390625,0.16432274878025055,0.1837177276611328,-0.19654589891433716
1702153540402495500,10.28449560546875,0.39446622133255005,-0.05192354694008827,0.027183502912521362
1702153540419487700,10.30148779296875,0.5641340613365173,-0.28130343556404114,0.21074850857257843
1702153540436478000,10.31847802734375,0.5731443166732788,-0.40225476026535034,0.20066922903060913
1702153540453469200,10.33546923828125,0.3315471112728119,-0.4853324294090271,0.029474247246980667
1702153540470460700,10.352460693359374,0.07208210229873657,-0.4495968222618103,-0.22143864631652832
1702153540487453000,10.369452880859376,0.12217304855585098,-0.270766019821167,-0.3338378667831421
1702153540504443000,10.38644287109375,0.28038713335990906,-0.4729624092578888,-0.3588833212852478
1702153540521434400,10.403434326171874,0.50335294008255,-0.6133087277412415,-0.0708603709936142
1702153540538425600,10.420425537109375,0.4853324294090271,-0.5335907936096191,0.14614951610565186
1702153540555417900,10.43741796875,0.24938572943210602,-0.24159720540046692,0.04856378585100174
1702153540572408000,10.454407958984374,-0.0455094613134861,-0.13041973114013672,-0.21624629199504852
1702153540589397500,10.4713974609375,-0.10277807712554932,-0.4697553813457489,-0.3323107063770294
1702153540606392300,10.488392333984375,0.11621711403131485,-0.9822713136672974,-0.22632557153701782
1702153540623383000,10.505383056640625,0.3430008292198181,-0.780380368232727,0.06963863968849182
1702153540640372500,10.52237255859375,0.4262312352657318,-0.11071932315826416,0.2678644061088562
1702153540657365000,10.539364990234375,0.31520646810531616,0.19456058740615845,0.24327708780765533
1702153540674355500,10.55635546875,0.0403171069920063,-0.025961773470044136,0.204487144947052
1702153540691348000,10.573347900390624,-0.010690141469240189,-0.30543261766433716,0.20693060755729675
1702153540708338000,10.590337890625,0.11881329119205475,-0.32650747895240784,0.10751228034496307
1702153540725329400,10.607329345703125,0.32559117674827576,-0.23136521875858307,0.05451972410082817
1702153540742321000,10.62432080078125,0.3399465084075928,-0.1241583600640297,0.13500121235847473
1702153540759314400,10.641314453125,0.16142113506793976,-0.2539672255516052,0.12538009881973267
1702153540776303000,10.65830322265625,-0.11545353382825851,-0.5494732856750488,0.0003054326225537807
1702153540793293600,10.67529345703125,-0.3507893681526184,-0.6829473376274109,-0.15515977144241333
1702153540810286300,10.692286376953126,-0.5025894045829773,-0.5473352670669556,-0.3274237811565399
1702153540827277800,10.70927783203125,-0.4911356568336487,-0.3217732608318329,-0.38835757970809937
1702153540844268000,10.72626806640625,-0.35033121705055237,-0.23136521875858307,-0.27229318022727966
1702153540861242000,10.7432421875,-0.24923302233219147,-0.4004221558570862,0.025961773470044136
1702153540878250800,10.760250732421875,-0.17241671681404114,-0.5218316316604614,0.34376442432403564
1702153540895242800,10.77724267578125,-0.10919216275215149,-0.5413793325424194,0.22708915174007416
1702153540912233200,10.794233154296874,-0.144622340798378,-0.5355761051177979,0.055283304303884506
1702153540929224400,10.811224365234375,-0.16508632898330688,-0.2295326143503189,0.10186178237199783
1702153540946216000,10.8282158203125,-0.08536841720342636,0.11178833991289139,0.1927279829978943
1702153540963214600,10.845214599609376,0.05726861581206322,0.4170682430267334,0.15454891324043274
1702153540980198100,10.8621982421875,0.16294831037521362,0.3049744665622711,0.11041389405727386
1702153540997189400,10.879189453125,0.1966986060142517,-0.07269296050071716,0.060933809727430344
1702153541014180600,10.8961806640625,0.07971791177988052,-0.4060726761817932,-0.01664607785642147
1702153541031172900,10.9131728515625,-0.03237585723400116,-0.39477166533470154,-0.008704829961061478
1702153541048152800,10.93015283203125,0.044745877385139465,-0.06750060617923737,-0.00015271631127689034
1702153541065154600,10.947154541015625,0.15042556822299957,0.12629638612270355,0.06185010448098183
1702153541082143700,10.964143798828125,0.16859880089759827,0.16523905098438263,0.09346238523721695
1702153541099130000,10.981130126953126,0.11148291081190109,0.10522153973579407,0.03298672288656235
1702153541116128300,10.998128173828125,0.02076941914856434,-0.05009094998240471,-0.005955935921519995
1702153541133119500,11.015119384765624,0.01664607785642147,-0.028557950630784035,0.05467243865132332
1702153541150110700,11.03211083984375,0.07101308554410934,0.055894169956445694,0.11438451707363129
1702153541167103000,11.04910302734375,0.20265454053878784,0.09773843735456467,0.1443169116973877
1702153541184093700,11.06609375,0.3020728528499603,0.06688974797725677,0.22403483092784882
1702153541201084200,11.083084228515625,0.22678372263908386,0.15546520054340363,0.1849394589662552
1702153541218075600,11.10007568359375,0.01664607785642147,0.23060162365436554,0.02168571576476097
1702153541235068200,11.117068115234375,-0.07987063378095627,0.3497203588485718,0.10949759185314178
1702153541252058400,11.134058349609376,0.011759156361222267,0.3949243724346161,0.4567744731903076
1702153541269049600,11.151049560546875,0.26083946228027344,0.21563543379306793,0.702800452709198
1702153541286030600,11.168030517578124,0.580016553401947,0.021991148591041565,0.532369077205658
1702153541303033000,11.185033203125,0.6604980230331421,-0.3228422701358795,-0.15561792254447937
1702153541320023300,11.202023193359375,0.17806722223758698,-0.5845980644226074,-0.48685958981513977
1702153541337014800,11.219014892578125,-0.2993239760398865,-0.18219055235385895,-0.02382374368607998
1702153541354005800,11.236005859375,-0.44364088773727417,0.3400992155075073,0.5664247870445251
1702153541370998300,11.252998291015626,-0.22418753802776337,0.6291912198066711,0.7150177955627441
1702153541387988200,11.26998828125,-0.07727445662021637,0.5361869931221008,0.23075434565544128
1702153541404977400,11.286977294921876,-0.32391130924224854,0.16982053220272064,-0.580016553401947
1702153541421968600,11.30396875,-0.6481280326843262,-0.0064140851609408855,-1.059393048286438
1702153541438967600,11.320967529296874,-0.6679811477661133,0.3225368559360504,-0.770606517791748
1702153541455963600,11.337963623046875,-0.3695734739303589,0.6432411074638367,-0.009162978269159794
1702153541472944600,11.354944580078126,0.04138612002134323,0.7771732807159424,0.5074763298034668
1702153541489936100,11.37193603515625,0.1459967941045761,0.7660250067710876,0.4314235746860504
1702153541506928000,11.38892822265625,-0.06169738993048668,0.4251621961593628,-0.09147707372903824
1702153541523918300,11.40591845703125,-0.24297164380550385,0.22357667982578278,-0.46105054020881653
1702153541540909600,11.42290966796875,-0.16569720208644867,0.4795292317867279,-0.3533855378627777
1702153541557901000,11.439901123046875,0.15286903083324432,0.6278167366981506,0.0429132841527462
1702153541574893300,11.456893310546874,0.3257438838481903,0.6296493411064148,0.5120577812194824
1702153541591883300,11.47388330078125,0.2871066629886627,0.5091561675071716,0.8184067010879517
1702153541608874800,11.490874755859375,0.0003054326225537807,0.6685920357704163,0.7136433124542236
1702153541625866200,11.5078662109375,-0.33276882767677307,0.9465357065200806,0.33689218759536743
1702153541642847700,11.52484765625,-0.5018258094787598,0.841619610786438,0.009621127508580685
1702153541659850500,11.5418505859375,-0.4294382631778717,0.4622722864151001,0.04230241850018501
1702153541676839700,11.558839599609374,-0.18539759516716003,0.20570887625217438,0.23609942197799683
1702153541693831000,11.575830810546876,0.10903944820165634,0.20555615425109863,0.37171149253845215
1702153541710823400,11.592823486328125,0.2893974184989929,0.22388210892677307,0.3352122902870178
1702153541727803000,11.609802978515624,0.21578814089298248,0.20525072515010834,0.2379320114850998
1702153541744804600,11.6268046875,0.13011430203914642,0.11652254313230515,0.20876319706439972
1702153541761794000,11.6437939453125,0.07513642311096191,0.06688974797725677,0.1921171247959137
1702153541778790700,11.660790771484375,0.01191187184303999,0.0503963828086853,0.34758231043815613
1702153541795778600,11.677778564453124,-0.08246681094169617,0.019089538604021072,0.4332561790943146
1702153541812769800,11.694769775390625,-0.12110403180122375,0.18631389737129211,0.35094207525253296
1702153541829761000,11.711760986328125,-0.10766500234603882,0.25473082065582275,0.26969701051712036
1702153541846753500,11.72875341796875,-0.18646661937236786,-0.06154467165470123,0.0887281745672226
1702153541863743500,11.745743408203126,-0.22540926933288574,-0.058948494493961334,-0.08109235763549805
1702153541880734700,11.762734619140625,-0.16554448008537292,0.04566217586398125,-0.08017606288194656
1702153541897726200,11.779726318359375,-0.09834930300712585,0.01863138936460018,-0.10644327104091644
1702153541914718500,11.796718505859374,-0.05360342562198639,0.018020525574684143,-0.15714508295059204
1702153541931709000,11.813708984375,-0.06185010448098183,-0.16890424489974976,-0.17272214591503143
1702153541948700000,11.830699951171875,-0.1359175145626068,-0.44806966185569763,-0.31413745880126953
1702153541965680600,11.8476806640625,-0.23090706765651703,-0.5922338366508484,-0.5839871764183044
1702153541982683400,11.864683349609376,-0.28130343556404114,-0.531147301197052,-0.6988298296928406
1702153541999673600,11.881673583984375,-0.2379320114850998,-0.42271876335144043,-0.6155994534492493
1702153542016652000,11.898652099609375,-0.13301590085029602,-0.15027284622192383,-0.4346306324005127
1702153542033654300,11.915654296875,-0.00427605677396059,-0.0013744467869400978,-0.1388191282749176
1702153542050653000,11.93265283203125,0.12721268832683563,-0.35292738676071167,0.06490442901849747
1702153542067638800,11.949638671875,0.12278391420841217,-0.45326200127601624,-0.14309518039226532
1702153542084624600,11.966624755859375,0.02886338345706463,-0.23151792585849762,-0.37888917326927185
1702153542101621500,11.98362158203125,0.08170322328805923,0.021074850112199783,-0.38117989897727966
1702153542118613500,12.000613525390625,0.2174680233001709,-0.02519819140434265,-0.08216137439012527
1702153542135603700,12.017603759765626,0.18677204847335815,-0.4918992519378662,0.2444988191127777
1702153542152584700,12.034584716796875,0.012064588256180286,-0.6249151229858398,0.06169738993048668
1702153542169586400,12.05158642578125,-0.1108720451593399,-0.6351471543312073,-0.3546072840690613
1702153542186578400,12.068578369140624,-0.14813482761383057,-0.5232060551643372,-0.48579058051109314
1702153542203566000,12.085566162109375,-0.01542434748262167,-0.30695977807044983,-0.4966334402561188
1702153542220560000,12.102559814453125,0.2528982162475586,0.007788531947880983,-0.4970915913581848
1702153542237554000,12.119553955078125,0.31322115659713745,0.05253441259264946,-0.3700316250324249
1702153542254543600,12.136543701171876,0.18784105777740479,-0.1915062516927719,0.004581489134579897
1702153542271533800,12.153533935546875,-0.05161811411380768,-0.4356996417045593,-0.02672535367310047
1702153542288524800,12.17052490234375,-0.10797043144702911,-0.21013765037059784,-0.40653082728385925
1702153542305501400,12.18750146484375,0.05375614017248154,0.06643159687519073,-0.3446807265281677
1702153542322496500,12.20449658203125,0.27748554944992065,0.09865473955869675,0.03451388701796532
1702153542339496200,12.22149609375,0.44547349214553833,0.26450464129447937,0.30695977807044983
1702153542356492800,12.238492919921875,0.18646661937236786,0.47800204157829285,0.2724458873271942
1702153542373481500,12.2554814453125,-0.23228150606155396,0.5198463201522827,0.05161811411380768
1702153542390473700,12.2724736328125,-0.3813326358795166,0.3862195611000061,-0.10002918541431427
1702153542407464000,12.2894638671875,-0.1866193264722824,0.0006108652451075613,-0.19013181328773499
1702153542424455200,12.306455078125,-0.08521570265293121,-0.5012149214744568,-0.4323398768901825
1702153542441446100,12.323446044921875,-0.34544429183006287,-0.5583308339118958,-0.5934556126594543
1702153542458438700,12.340438720703125,-0.7687739133834839,-0.13866640627384186,-0.6253733038902283
1702153542475428900,12.357428955078126,-1.0572550296783447,0.22968533635139465,-0.6227771043777466
1702153542492417000,12.3744169921875,-0.8739954233169556,0.19898934662342072,-0.46670106053352356
1702153542509414700,12.39141455078125,-0.4424191415309906,-0.266184538602829,-0.26343563199043274
1702153542526403600,12.408403564453126,-0.3254384696483612,-0.7144069075584412,-0.28817567229270935
1702153542543393800,12.425393798828125,-0.5073235630989075,-0.5377141237258911,-0.3975205719470978
1702153542560382700,12.4423828125,-0.7380779385566711,-0.2664899528026581,-0.31154128909111023
1702153542577379000,12.459379150390625,-0.6542366743087769,-0.2220495194196701,0.10965031385421753
1702153542594368800,12.47636865234375,-0.2701551616191864,0.035582900047302246,0.2148718535900116
1702153542611359000,12.49335888671875,0.058948494493961334,0.10506882518529892,0.11804971098899841
1702153542628350200,12.51035009765625,0.16203200817108154,-0.03940080851316452,0.17119498550891876
1702153542645341400,12.527341552734375,0.0429132841527462,0.08491026610136032,0.17959438264369965
1702153542662333700,12.544333740234375,-0.08368854224681854,0.33887749910354614,0.13286319375038147
1702153542679320800,12.56132080078125,-0.07773260027170181,0.30085113644599915,0.14446963369846344
1702153542696315400,12.5783154296875,-0.023518312722444534,0.0429132841527462,0.14523321390151978
1702153542713306600,12.595306640625,-0.019547687843441963,-0.18631389737129211,0.08124507963657379
1702153542730298600,12.612298583984375,-0.09804387390613556,-0.2762638032436371,0.11881329119205475
1702153542747289000,12.6292890625,-0.15256360173225403,-0.3197879493236542,0.19364428520202637
1702153542764280300,12.6462802734375,-0.19654589891433716,-0.256868839263916,0.14782938361167908
1702153542781271600,12.663271484375,-0.20601430535316467,-0.13148874044418335,0.07147123664617538
1702153542798263800,12.680263916015624,-0.11163562536239624,-0.02535090781748295,0.04688390716910362
1702153542815254000,12.69725390625,0.01114829070866108,0.01618792861700058,0.06673702597618103
1702153542832245200,12.714245361328125,0.10461067408323288,0.04260785132646561,0.035582900047302246
1702153542849236700,12.73123681640625,0.1595885455608368,0.054825156927108765,0.005345070734620094
1702153542866229000,12.74822900390625,0.21899518370628357,0.05146539583802223,-0.00809396430850029
1702153542883219200,12.76521923828125,0.2724458873271942,0.0754418596625328,-0.05711590126156807
1702153542900210400,12.78221044921875,0.33078351616859436,-0.016493361443281174,-0.09346238523721695
1702153542917198800,12.79919873046875,0.39965859055519104,-0.20662516355514526,-0.06841690838336945
1702153542934184700,12.816184814453125,0.43188172578811646,-0.2616030275821686,0.00015271631127689034
1702153542951186400,12.8331865234375,0.4127921760082245,-0.0959058403968811,0.10277807712554932
1702153542968175900,12.85017578125,0.3349068760871887,0.0933096632361412,0.3442225754261017
1702153542985166600,12.86716650390625,0.35155296325683594,0.21899518370628357,0.5141957998275757
1702153543002160000,12.88416015625,0.5071708559989929,0.2926044464111328,0.4735732674598694
1702153543019148300,12.901148193359376,0.699288010597229,0.1267545372247696,0.3930917978286743
1702153543036140500,12.918140625,0.8634580373764038,0.02733621932566166,0.47448956966400146
1702153543053132000,12.935132080078125,0.8393288254737854,-0.15943582355976105,0.5204572081565857
1702153543070113500,12.952113525390626,0.5742133259773254,-0.35384368896484375,0.5195409059524536
1702153543087114200,12.9691142578125,0.29565876722335815,-0.14477506279945374,0.4579962193965912
1702153543104105500,12.98610546875,0.2840523421764374,0.24694228172302246,0.31551191210746765
1702153543121087700,13.003087646484374,0.3504839241504669,0.35384368896484375,0.30711251497268677
1702153543138087200,13.020087158203125,0.15546520054340363,0.25503623485565186,0.3959933817386627
1702153543155081200,13.037081298828125,-0.3020728528499603,-0.11316278576850891,0.1212567538022995
1702153543172060200,13.05406005859375,-0.5679519772529602,-0.34834590554237366,-0.06704246252775192
1702153543189062000,13.071061767578126,-0.337503045797348,0.010537425056099892,-0.04703662544488907
1702153543206054100,13.08805419921875,-0.05619960278272629,0.3266601860523224,0.0429132841527462
1702153543223044400,13.10504443359375,0.1420261710882187,0.3399465084075928,0.13790282607078552
1702153543240035600,13.12203564453125,-0.014202617108821869,0.1287398487329483,-0.03741549700498581
1702153543257027000,13.139027099609375,-0.4167627990245819,-0.18035796284675598,-0.460897833108902
1702153543274019000,13.15601904296875,-0.5088507533073425,-0.0887281745672226,-0.6586654782295227
1702153543291006700,13.1730068359375,-0.28848111629486084,0.3718642294406891,-0.3804163336753845
1702153543308003000,13.190003173828124,-0.039706241339445114,0.6299547553062439,0.23487769067287445
1702153543324992000,13.206991943359375,0.1586722433567047,0.5826127529144287,0.5135849714279175
1702153543341984300,13.223984375,0.03176499158143997,0.45005497336387634,0.2370157092809677
1702153543358974200,13.24097412109375,-0.2741257846355438,0.21868975460529327,-0.33597588539123535
1702153543375964200,13.257964111328125,-0.44318273663520813,0.4251621961593628,-0.5862779021263123
1702153543392961000,13.2749609375,-0.4576907753944397,0.8110763430595398,-0.2932153046131134
1702153543409947000,13.29194677734375,-0.2970332205295563,0.8022187948226929,0.21441370248794556
1702153543426939400,13.308939453125,-0.21303924918174744,0.4964807331562042,0.27000242471694946
1702153543443930600,13.3259306640625,-0.43020185828208923,0.31459560990333557,-0.2900082767009735
1702153543460921900,13.342921875,-0.6377432942390442,0.7559457421302795,-0.7367035150527954
1702153543477914400,13.359914306640626,-0.5719226002693176,1.08718740940094,-0.5468770861625671
1702153543494904300,13.376904296875,-0.2151772826910019,0.7919867634773254,0.12461651116609573
1702153543511895800,13.393895751953124,0.23121249675750732,0.5210680365562439,0.618195652961731
1702153543528887000,13.410886962890626,0.4082106947898865,0.611934244632721,0.6692028641700745
1702153543545879300,13.42787939453125,0.3039054572582245,0.7017314434051514,0.5719226002693176
1702153543562869500,13.444869384765624,0.08765916526317596,0.48915034532546997,0.4714352488517761
1702153543579860700,13.46186083984375,-0.019394971430301666,0.3614795207977295,0.3539963960647583
1702153543596852200,13.478852294921875,-0.022602014243602753,0.323147714138031,0.13087788224220276
1702153543613843500,13.495843505859375,0.06062837690114975,0.28267788887023926,0.022907447069883347
1702153543630835500,13.51283544921875,0.050854530185461044,0.13439035415649414,-0.022449297830462456
1702153543647825700,13.52982568359375,-0.05772676691412926,0.17409659922122955,0.03084869496524334
1702153543664814000,13.54681396484375,-0.17119498550891876,0.1394299864768982,0.03451388701796532
1702153543681809400,13.563809326171874,-0.21807889640331268,-0.029016099870204926,-0.038026362657547
1702153543698799600,13.580799560546875,-0.2168571650981903,-0.06291911751031876,-0.0734565481543541
1702153543715791000,13.597791015625,-0.27580565214157104,-0.05711590126156807,-0.2825251817703247
1702153543732782300,13.6147822265625,-0.27748554944992065,-0.013439035043120384,-0.44135013222694397
1702153543749774600,13.631774658203126,-0.2093740701675415,-0.14446963369846344,-0.4291328489780426
1702153543766764800,13.648764892578125,-0.18600846827030182,-0.29764407873153687,-0.37888917326927185
1702153543783756000,13.665756103515625,-0.2399173229932785,-0.31184670329093933,-0.3723223805427551
1702153543800747300,13.682747314453126,-0.3142901659011841,-0.21624629199504852,-0.33567044138908386
1702153543817739300,13.6997392578125,-0.19074267148971558,-0.13087788224220276,-0.2675589919090271
1702153543834729700,13.716729736328125,0.040622539818286896,-0.21930062770843506,-0.18738290667533875
1702153543851713300,13.73371337890625,0.24236078560352325,-0.12461651116609573,-0.1817324161529541
1702153543868712400,13.75071240234375,0.32070425152778625,0.14416420459747314,-0.15485434234142303
1702153543885704400,13.767704345703125,0.16890424489974976,0.1563815027475357,-0.051770828664302826
1702153543902695000,13.78469482421875,-0.04703662544488907,0.04749477282166481,0.15271630883216858
1702153543919686100,13.80168603515625,-0.2535090744495392,-0.27870726585388184,0.24984388053417206
1702153543936677400,13.818677490234375,-0.23396138846874237,-0.12660181522369385,0.07177666574716568
1702153543953669600,13.835669677734375,-0.12339477986097336,0.41370847821235657,-0.20143280923366547
1702153543970659800,13.852659912109376,-0.12476922571659088,0.6606507897377014,-0.3116939961910248
1702153543987651000,13.869651123046875,-0.0607810914516449,0.3397938013076782,-0.16798794269561768
1702153544004642300,13.886642333984375,-0.08597928285598755,-0.4381431043148041,-0.1661553531885147
1702153544021634600,13.903634521484374,-0.13118331134319305,-0.7354817390441895,-0.4781547784805298
1702153544038625000,13.920625,-0.21991148591041565,-0.5526803135871887,-0.7947356700897217
1702153544055610000,13.937610107421875,-0.16798794269561768,-0.07635815441608429,-0.616973876953125
1702153544072609800,13.95460986328125,0.11530081182718277,0.24694228172302246,-0.0065668015740811825
1702153544089599700,13.971599853515626,0.3341432809829712,-0.005345070734620094,0.33658674359321594
1702153544106590000,13.98858984375,0.14645494520664215,-0.39675697684288025,0.18677204847335815
1702153544123581200,14.005581298828124,-0.26343563199043274,-0.49327367544174194,-0.19120082259178162
1702153544140572400,14.022572509765626,-0.5416847467422485,-0.2739730477333069,-0.48288896679878235
1702153544157565000,14.03956494140625,-0.2785545587539673,-0.06123924255371094,-0.3828597962856293
1702153544174555100,14.05655517578125,0.18096883594989777,0.14492778480052948,0.011301007121801376
1702153544191546400,14.07354638671875,0.4415028691291809,0.06612616032361984,0.42180246114730835
1702153544208526000,14.090526123046875,0.1189660057425499,-0.15073099732398987,0.5206099152565002
1702153544225513000,14.107512939453125,-0.35934147238731384,-0.1408044397830963,0.3929390609264374
1702153544242520000,14.12452001953125,-0.7704538106918335,-0.078343465924263,0.009773843921720982
1702153544259511300,14.14151123046875,-0.9492846131324768,-0.13026700913906097,-0.49357911944389343
1702153544276502500,14.15850244140625,-0.9077457785606384,-0.19624045491218567,-0.7353290319442749
1702153544293494800,14.175494873046874,-0.551916778087616,-0.17791450023651123,-0.34513887763023376
1702153544310485000,14.192485107421875,-0.18219055235385895,-0.35323283076286316,0.20051652193069458
1702153544327476200,14.209476318359375,0.04505131021142006,-0.45234572887420654,0.32421672344207764
1702153544344467700,14.2264677734375,-0.04459316283464432,-0.413097620010376,0.11194105446338654
1702153544361457200,14.24345703125,-0.31261029839515686,-0.535881519317627,0.08659014850854874
1702153544378452700,14.26045263671875,-0.42042800784111023,-0.49724429845809937,0.3245221674442291
1702153544395441400,14.27744140625,-0.2506074607372284,-0.23380866646766663,0.370947927236557
1702153544412432600,14.2944326171875,-0.007024950347840786,-0.154396191239357,0.3455969989299774
1702153544429422300,14.31142236328125,0.12461651116609573,-0.2710714638233185,0.35323283076286316
1702153544446418000,14.32841796875,0.08460483700037003,-0.46181413531303406,0.19349156320095062
1702153544463406300,14.34540625,-0.20601430535316467,-0.3956879675388336,0.0835358202457428
1702153544480397800,14.362397705078125,-0.34544429183006287,-0.2788599729537964,0.13500121235847473
1702153544497390000,14.37939013671875,-0.07467827945947647,-0.3058907687664032,0.25992316007614136
1702153544514380300,14.39638037109375,0.3234531581401825,-0.266642689704895,0.19226983189582825
1702153544531371500,14.41337158203125,0.5106833577156067,-0.41890084743499756,0.06261368840932846
1702153544548363000,14.430363037109375,0.3865249752998352,-0.5396994352340698,-0.006108652334660292
1702153544565355300,14.447355224609375,0.18188512325286865,-0.39553526043891907,-0.008857546374201775
1702153544582345200,14.46434521484375,0.03436116874217987,-0.18448130786418915,-0.01725694350898266
1702153544599336700,14.481336669921875,-0.02076941914856434,0.1736384481191635,-0.041233405470848083
1702153544616335600,14.498335693359374,0.22479841113090515,0.3127630054950714,-0.049785517156124115
1702153544633320000,14.51531982421875,0.5488623976707458,0.2603813111782074,0.043676864355802536
1702153544650310400,14.532310302734375,0.6908885836601257,0.06154467165470123,0.15745051205158234
1702153544667301600,14.549301513671875,0.6609562039375305,-0.22067506611347198,0.24984388053417206
1702153544684292900,14.56629296875,0.48288896679878235,-0.18249599635601044,0.23747386038303375
1702153544701285000,14.58328515625,0.4046982228755951,0.01618792861700058,0.06414084881544113
1702153544718272300,14.600272216796874,0.698677122592926,-0.07651086896657944,-0.003359758760780096
1702153544735269600,14.61726953125,0.9634872078895569,-0.25534167885780334,0.22937989234924316
1702153544752257800,14.6342578125,0.8397870063781738,0.10461067408323288,0.5238169431686401
1702153544769250300,14.651250244140625,0.43249258399009705,0.26190847158432007,0.5942191481590271
1702153544786240500,14.668240478515624,0.009773843921720982,0.14935655891895294,0.5354233980178833
1702153544803229200,14.685229248046875,0.012828170321881771,0.08933904021978378,0.34865134954452515
1702153544820226000,14.70222607421875,0.39965859055519104,-0.15347988903522491,0.16508632898330688
1702153544837215500,14.719215576171875,0.40485092997550964,-0.005192354787141085,0.23258693516254425
1702153544854205400,14.736205322265626,-0.10216721147298813,0.503963828086853,0.34544429183006287
1702153544871196700,14.75319677734375,-0.6537785530090332,0.9216429591178894,0.3758348524570465
1702153544888192300,14.770192138671876,-0.5389358401298523,1.085965633392334,0.08735372871160507
1702153544905180400,14.787180419921874,0.1713477075099945,0.622624397277832,-0.16294831037521362
1702153544922170400,14.80417041015625,0.8411614298820496,-0.19379699230194092,0.0019853119738399982
1702153544939161900,14.821161865234375,1.0299187898635864,-0.38988474011421204,0.33505958318710327
1702153544956153000,14.838153076171874,0.6835582256317139,-0.08964447677135468,0.5404630303382874
1702153544973145300,14.855145263671876,0.34376442432403564,0.4489859640598297,0.6346889734268188
1702153544990135600,14.872135498046875,0.2715296149253845,0.7959573864936829,0.5911648273468018
1702153545007127000,14.889126953125,0.3065016269683838,0.7195992469787598,0.42989641427993774
1702153545024118300,14.9061181640625,0.31123584508895874,0.44394633173942566,0.37308594584465027
1702153545041110500,14.923110595703125,-0.00855211354792118,0.09743300825357437,0.33017265796661377
1702153545058100700,14.940100830078125,-0.3799581825733185,0.2070833146572113,0.37339138984680176
1702153545075092000,14.957092041015626,-0.26251932978630066,0.5739079117774963,0.4538728892803192
1702153545092083500,14.97408349609375,0.14095716178417206,0.589790403842926,0.6010913848876953
1702153545109075200,14.9910751953125,0.4980078935623169,0.2093740701675415,0.9297369122505188
1702153545126065700,15.008065673828124,0.4712825417518616,-0.05314527451992035,1.0290025472640991
1702153545143057000,15.025056884765625,0.2402227520942688,0.126143679022789,0.727998673915863
1702153545160048400,15.04204833984375,0.0007635815418325365,0.37919458746910095,0.2054034322500229
1702153545177040400,15.059040283203124,-0.06673702597618103,0.4193589985370636,0.028099801391363144
1702153545194030800,15.07603076171875,0.03451388701796532,0.23457226157188416,0.10048733651638031
1702153545211025200,15.093025146484376,0.08750644326210022,0.02519819140434265,0.20662516355514526
1702153545228010800,15.1100107421875,0.13011430203914642,0.04917465150356293,0.37079519033432007
1702153545245005600,15.127005615234374,0.14294247329235077,0.2580905556678772,0.46334129571914673
1702153545261995800,15.143995849609375,0.21502456068992615,0.1996002197265625,0.4954117238521576
1702153545278984700,15.160984619140624,0.34086281061172485,-0.2968805134296417,0.42577308416366577
1702153545295978500,15.177978515625,0.31352660059928894,-0.5193881988525391,0.2922990322113037
1702153545312970800,15.194970703125,0.11133018881082535,-0.11407908797264099,0.09010262042284012
1702153545329961000,15.2119609375,-0.07101308554410934,0.323147714138031,0.00366519158706069
1702153545346952200,15.2289521484375,-0.031612277030944824,0.24495697021484375,0.0659734457731247
1702153545363943400,15.245943359375,0.030543262138962746,-0.08597928285598755,0.09483683109283447
1702153545380935700,15.262935791015625,0.050854530185461044,-0.19456058740615845,0.038637228310108185
1702153545397926000,15.27992578125,0.008399397134780884,-0.23609942197799683,-0.12110403180122375
1702153545414917000,15.296917236328126,-0.10506882518529892,-0.3321579694747925,-0.27641651034355164
1702153545431908600,15.31390869140625,-0.15302173793315887,-0.4541783034801483,-0.2591595947742462
1702153545448900600,15.330900634765625,-0.1739438772201538,-0.646295428276062,-0.32498031854629517
1702153545465880600,15.347880615234375,-0.14477506279945374,-0.6155994534492493,-0.365755558013916
1702153545482882300,15.36488232421875,-0.04382958263158798,-0.5577199459075928,-0.4072943925857544
1702153545499873500,15.38187353515625,0.11652254313230515,-0.5520694851875305,-0.31062498688697815
1702153545516865800,15.39886572265625,0.1638645976781845,-0.8110763430595398,-0.23839016258716583
1702153545533856000,15.41585595703125,0.1215621829032898,-0.6801984310150146,-0.20723603665828705
1702153545550847200,15.43284716796875,0.038026362657547,-0.2834414839744568,-0.18768835067749023
1702153545567838500,15.44983837890625,-0.05054909735918045,-0.13469578325748444,-0.22143864631652832
1702153545584831000,15.4668310546875,0.008857546374201775,-0.27611109614372253,-0.3196352422237396
1702153545601818000,15.483818115234374,0.14782938361167908,-0.4427245855331421,-0.43799036741256714
1702153545618815200,15.500815185546875,0.1999056488275528,-0.4101960062980652,-0.4856378734111786
1702153545635803600,15.5178037109375,0.08277224004268646,-0.35323283076286316,-0.33735033869743347
1702153545652796200,15.534796142578125,0.05207626149058342,0.11438451707363129,-0.1788308024406433
1702153545669787400,15.551787353515625,0.09957103431224823,0.24862214922904968,-0.3234531581401825
1702153545686777300,15.56877734375,0.18845193088054657,-0.06643159687519073,-0.45921793580055237
1702153545703768600,15.5857685546875,0.1661553531885147,-0.4541783034801483,-0.3842342495918274
1702153545720761000,15.602760986328125,-0.07819075137376785,-0.5163338780403137,-0.2142609804868698
1702153545737751000,15.6197509765625,-0.1189660057425499,-0.13515393435955048,-0.152105450630188
1702153545754740000,15.636739990234375,0.1748601794242859,0.06841690838336945,-0.16554448008537292
1702153545771736300,15.653736328125,0.5707008838653564,0.03634648025035858,-0.16508632898330688
1702153545788726300,15.670726318359375,0.7099781036376953,0.09224065393209457,-0.03405573591589928
1702153545805716200,15.68771630859375,0.5543602108955383,0.2643519341945648,0.1082758679986
1702153545822707700,15.704707763671875,0.28557950258255005,0.3830125033855438,0.08491026610136032
1702153545839699000,15.721698974609374,0.2278527319431305,0.4444044530391693,-0.10842858254909515
1702153545856691200,15.738691162109374,0.2168571650981903,0.28099802136421204,-0.2796235680580139
1702153545873681400,15.755681396484375,0.12247848510742188,-0.2174680233001709,-0.32879820466041565
1702153545890673000,15.7726728515625,-0.08704829961061478,-0.45921793580055237,-0.20173825323581696
1702153545907664000,15.789663818359376,-0.2200642079114914,-0.5108360648155212,-0.3039054572582245
1702153545924656000,15.80665625,-0.20463985204696655,-0.30085113644599915,-0.44364088773727417
1702153545941646300,15.823646240234375,-0.23655757308006287,-0.22418753802776337,-0.5100724697113037
1702153545958640000,15.84064013671875,-0.38026362657546997,-0.22372940182685852,-0.4178318381309509
1702153545975626800,15.857626708984375,-0.42791110277175903,-0.2938261926174164,-0.29016098380088806
1702153545992621300,15.874621337890625,-0.3827070891857147,-0.5502368807792664,-0.3677408695220947
1702153546009611500,15.891611572265624,-0.36529740691185,-0.6589708924293518,-0.5722280144691467
1702153546026602800,15.908602783203126,-0.4101960062980652,-0.6850853562355042,-0.6430884003639221
1702153546043594000,15.925593994140625,-0.40194934606552124,-0.5290092825889587,-0.3959933817386627
1702153546060580400,15.942580322265625,-0.3885102868080139,-0.4075998365879059,-0.05955936014652252
1702153546077581300,15.959581298828125,-0.22831088304519653,-0.33047810196876526,0.08903361111879349
1702153546094567700,15.976567626953125,-0.1621847152709961,-0.2295326143503189,-0.13469578325748444
1702153546111546400,15.99354638671875,-0.2399173229932785,-0.15714508295059204,-0.4999932050704956
1702153546128554500,16.010554443359375,-0.22586742043495178,-0.1950187236070633,-0.551916778087616
1702153546145541600,16.027541748046875,-0.1388191282749176,-0.10797043144702911,-0.2223549485206604
1702153546162522000,16.044522216796874,0.058337632566690445,0.019547687843441963,0.08475755155086517
1702153546179524600,16.061524658203126,0.21410827338695526,0.09086620807647705,0.1699732542037964
1702153546196516600,16.0785166015625,0.16340644657611847,0.04092797264456749,0.04382958263158798
1702153546213506600,16.095506591796877,-0.031001411378383636,-0.11270463466644287,-0.08261952549219131
1702153546230498000,16.112498046875,-0.15302173793315887,-0.10842858254909515,-0.08307767659425735
1702153546247489300,16.1294892578125,-0.1241583600640297,-0.008246680721640587,-0.07192938029766083
1702153546264481500,16.1464814453125,0.01038470957428217,0.03176499158143997,0.011301007121801376
1702153546281467000,16.163466796875,0.10018189996480942,-0.03436116874217987,0.12202033400535583
1702153546298463000,16.180462890625,0.07437284290790558,-0.09208793938159943,0.13255776464939117
1702153546315454200,16.1974541015625,-0.03985895588994026,-0.13148874044418335,0.08567385375499725
1702153546332446700,16.21444677734375,-0.1036943718791008,-0.08521570265293121,0.1111774742603302
1702153546349436700,16.231436767578124,-0.0009162978967651725,-0.03420845419168472,0.16783522069454193
1702153546366428200,16.24842822265625,0.1635591685771942,-0.030237829312682152,0.28466320037841797
1702153546383419400,16.26541943359375,0.28955012559890747,0.010231993161141872,0.38957929611206055
1702153546400409000,16.2824091796875,0.3032945990562439,0.062460970133543015,0.40714168548583984
1702153546417404400,16.299404296875,0.2958115041255951,-0.0039706239476799965,0.47418415546417236
1702153546434393000,16.31639306640625,0.42210787534713745,-0.005039638374000788,0.6178901791572571
1702153546451384600,16.333384521484376,0.6291912198066711,0.2099849283695221,0.7376197576522827
1702153546468377000,16.350377197265626,0.8013024926185608,0.3182607889175415,0.727998673915863
1702153546485367000,16.367366943359375,0.8104654550552368,0.23411411046981812,0.6827946305274963
1702153546502360300,16.3843603515625,0.6466008424758911,-0.04153883829712868,0.5566509366035461
1702153546519351300,16.401351318359374,0.422871470451355,-0.15760323405265808,0.42012256383895874
1702153546536341800,16.418341796875,0.2964223623275757,0.12308934330940247,0.2974913716316223
1702153546553332000,16.43533203125,0.27290403842926025,0.42531493306159973,0.2483167201280594
1702153546570323200,16.4523232421875,0.3358231782913208,0.4908302128314972,0.33429601788520813
1702153546587314400,16.469314453125,0.3778201639652252,0.20402899384498596,0.39187005162239075
1702153546604307000,16.486306884765625,0.2993239760398865,-0.21700987219810486,0.35643985867500305
1702153546621297200,16.503297119140626,0.1589776873588562,-0.26374107599258423,0.1745547503232956
1702153546638285800,16.520285888671875,0.22770002484321594,0.055283304303884506,-0.16035212576389313
1702153546655282400,16.537282470703126,0.2952006161212921,0.3842342495918274,-0.21578814089298248
1702153546672272000,16.55427197265625,0.22602014243602753,0.471129834651947,0.0682641938328743
1702153546689262000,16.571261962890624,0.13484850525856018,0.20357084274291992,0.1918116807937622
1702153546706243000,16.5882431640625,0.03436116874217987,-0.26893341541290283,-0.03375030308961868
1702153546723244800,16.605244873046875,0.02687807008624077,-0.23915374279022217,-0.15806138515472412
1702153546740237000,16.622237060546876,0.1264491081237793,0.14095716178417206,-0.12018773704767227
1702153546757227300,16.639227294921874,0.14782938361167908,0.5369505286216736,0.19715675711631775
1702153546774218000,16.656218017578126,0.12599095702171326,0.6879869699478149,0.49556443095207214
1702153546791209700,16.673209716796876,0.0884227454662323,0.531758189201355,0.4938845634460449
1702153546808202000,16.690201904296874,-0.055741455405950546,0.013286318629980087,0.15974126756191254
1702153546825192200,16.707192138671875,-0.3326161205768585,-0.06215553730726242,0.25106561183929443
1702153546842183700,16.72418359375,-0.346818745136261,0.5280929803848267,0.6200281977653503
1702153546859175000,16.7411748046875,-0.27977627515792847,0.7049384713172913,0.9063712954521179
1702153546876167200,16.758167236328124,-0.2041817009449005,0.49495357275009155,1.0506882667541504
1702153546893157400,16.775157470703125,-0.030543262138962746,0.30253100395202637,0.7929030656814575
1702153546910148600,16.792148681640626,0.12171489745378494,0.22327125072479248,0.13225232064723969
1702153546927139800,16.809139892578123,0.09560041129589081,0.6575964093208313,-0.18448130786418915
1702153546944132000,16.826132080078125,0.11942415684461594,0.8200865983963013,0.04444044828414917
1702153546961122300,16.843122314453126,0.32498031854629517,0.5902485251426697,0.5271766781806946
1702153546978113800,16.86011376953125,0.5455026626586914,0.3107776939868927,0.8733845949172974
1702153546995094500,16.877094482421874,0.5461135506629944,0.08735372871160507,0.8402451276779175
1702153547012084000,16.894083984375,0.36529740691185,0.12018773704767227,0.4392121136188507
1702153547029085000,16.9110849609375,0.052839845418930054,0.3784310221672058,-0.07742717117071152
1702153547046079000,16.928078857421873,-0.3344487249851227,0.5044219493865967,-0.42241331934928894
1702153547063072800,16.94507275390625,-0.6415612101554871,0.45753806829452515,-0.4407392740249634
1702153547080062500,16.9620625,-0.7562511563301086,0.13377949595451355,-0.35475999116897583
1702153547097063200,16.979063232421876,-0.7843509912490845,-0.19517144560813904,-0.44287729263305664
1702153547114044000,16.9960439453125,-0.816421389579773,-0.09468411654233932,-0.6417139172554016
1702153547131035100,17.01303515625,-0.8535314798355103,0.022449297830462456,-0.7490735054016113
1702153547148027400,17.03002734375,-0.8556694984436035,-0.1667662113904953,-0.698066234588623
1702153547165017900,17.047017822265627,-0.8266534209251404,-0.30405816435813904,-0.5816964507102966
1702153547182009000,17.064009033203124,-0.7716755270957947,-0.27030786871910095,-0.6246097087860107
1702153547198997800,17.080997802734377,-0.7144069075584412,-0.13179416954517365,-0.750142514705658
1702153547215989800,17.09798974609375,-0.6130032539367676,-0.2626720666885376,-0.868803083896637
1702153547232973800,17.114973876953126,-0.5493205785751343,-0.5760459303855896,-0.8104654550552368
1702153547249974000,17.13197412109375,-0.6099489331245422,-0.7237225770950317,-0.8115344643592834
1702153547266963000,17.148962890625,-0.7883216142654419,-0.28557950258255005,-0.9531024694442749
1702153547283960000,17.1659599609375,-0.8229882121086121,0.10812314599752426,-1.089020013809204
1702153547300948000,17.182947998046874,-0.6238461136817932,-0.12217304855585098,-1.1853840351104736
1702153547317939000,17.19993896484375,-0.399200439453125,-0.7162395119667053,-1.1099421977996826
1702153547334930200,17.21693017578125,-0.34697145223617554,-0.7402159571647644,-0.8017606139183044
1702153547351922700,17.233922607421874,-0.3891211748123169,-0.27290403842926025,-0.5879577994346619
1702153547368913000,17.250912841796875,-0.3822489380836487,0.04153883829712868,-0.5606215596199036
1702153547385904000,17.267904052734377,-0.1313360333442688,0.23335053026676178,-0.5306891798973083
1702153547402895400,17.284895263671874,-0.19257527589797974,-0.07513642311096191,-0.4905247986316681
1702153547419885600,17.301885498046875,-0.4352414906024933,-0.3176499307155609,-0.4550946056842804
1702153547436880100,17.318880126953125,-0.5902485251426697,-0.36651915311813354,-0.6210972666740417
1702153547453869000,17.335869140625,-0.4407392740249634,-0.11133018881082535,-0.6044511795043945
1702153547470860800,17.35286083984375,-0.032528575509786606,0.08781187981367111,-0.3081815242767334
1702153547487852800,17.369852783203125,0.4179845452308655,0.17241671681404114,0.10842858254909515
1702153547504843000,17.386843017578126,0.41263946890830994,-0.0027488935738801956,0.2431243658065796
1702153547521834000,17.403833984375,0.24495697021484375,-0.11820242553949356,0.09773843735456467
1702153547538825700,17.42082568359375,0.11453723162412643,-0.20876319706439972,-0.052839845418930054
1702153547555817700,17.437817626953127,0.2344195395708084,-0.43508878350257874,-0.03680463135242462
1702153547572808200,17.45480810546875,0.6568328738212585,-0.6137668490409851,0.10766500234603882
1702153547589799400,17.47179931640625,0.7009678483009338,-0.48777589201927185,0.2330450862646103
1702153547606790700,17.488790771484375,0.4735732674598694,-0.25992316007614136,0.42577308416366577
1702153547623772400,17.5057724609375,0.10766500234603882,-0.21181751787662506,0.34162637591362
1702153547640779300,17.522779296875,-0.27779096364974976,-0.17760907113552094,0.02871066704392433
1702153547657764400,17.539764404296875,-0.3318525552749634,-0.14309518039226532,-0.3381139039993286
1702153547674755600,17.556755615234376,-0.1667662113904953,-0.24678955972194672,-0.5768095254898071
1702153547691747800,17.573747802734374,-0.02122756652534008,-0.4505131244659424,-0.39935314655303955
1702153547708737300,17.5907373046875,0.049785517156124115,-0.6403394937515259,-0.050854530185461044
1702153547725729300,17.607729248046876,-0.00855211354792118,-0.6817256212234497,0.029932396486401558
1702153547742720800,17.624720703125,-0.13179416954517365,-0.7192938327789307,-0.2496911734342575
1702153547759713000,17.641713134765624,-0.2785545587539673,-0.7583891749382019,-0.3553708493709564
1702153547776703200,17.658703125,-0.22586742043495178,-0.7860308289527893,0.007788531947880983
1702153547793694500,17.675694580078126,0.06017022579908371,-0.5551238059997559,0.24984388053417206
1702153547810684700,17.6926845703125,0.3095559775829315,-0.19226983189582825,0.1699732542037964
1702153547827677000,17.709677001953125,0.37048977613449097,-0.15913039445877075,0.09651670604944229
1702153547844670700,17.726670654296875,0.2716823220252991,-0.19608774781227112,0.10399980843067169
1702153547861650200,17.743650146484374,0.1492038369178772,-0.09010262042284012,0.07849618047475815
1702153547878642700,17.760642578125,0.16249015927314758,0.029168816283345222,0.06398813426494598
1702153547895643100,17.77764306640625,0.31871894001960754,0.00427605677396059,0.06490442901849747
1702153547912633300,17.79463330078125,0.3747658133506775,-0.25824329257011414,0.07238753139972687
1702153547929624600,17.81162451171875,0.32498031854629517,-0.4262312352657318,0.051312681287527084
1702153547946616000,17.828615966796875,0.16019940376281738,-0.26419922709465027,0.07452555745840073
1702153547963608300,17.8456083984375,0.03833179548382759,0.09254608303308487,0.10720685124397278
1702153547980595700,17.862595703125,0.06520986557006836,0.2551889419555664,0.11331550031900406
1702153547997592300,17.87959228515625,0.05726861581206322,0.18631389737129211,0.13805554807186127
1702153548014581200,17.896581298828124,0.09498954564332962,0.044135015457868576,0.15561792254447937
1702153548031573200,17.9135732421875,0.12018773704767227,-0.04642575979232788,0.1693623960018158
1702153548048563500,17.9305634765625,0.14553864300251007,-0.05513058975338936,0.17547103762626648
1702153548065561000,17.94756103515625,0.17760907113552094,-0.14782938361167908,0.14737124741077423
1702153548082541000,17.964541015625,0.18310685455799103,-0.08659014850854874,0.18188512325286865
1702153548099541000,17.981541015625,0.2719877362251282,0.14034628868103027,0.19532416760921478
1702153548116518000,17.998517822265626,0.3851505517959595,0.3081815242767334,0.1722639948129654
1702153548133520000,18.015519775390626,0.40454551577568054,0.39797869324684143,0.1921171247959137
1702153548150511000,18.032510986328123,0.4178318381309509,0.38011088967323303,0.24373523890972137
1702153548167503600,18.049503662109377,0.5054910182952881,0.2402227520942688,0.3663664162158966
1702153548184493600,18.06649365234375,0.6230825781822205,0.24587325751781464,0.48716503381729126
1702153548201485000,18.083485107421875,0.7226535677909851,0.5665774941444397,0.5357288122177124
1702153548218476300,18.100476318359377,0.8049677014350891,0.9153815507888794,0.5878050923347473
1702153548235468500,18.117468505859375,0.8781188130378723,0.8856018781661987,0.6481280326843262
1702153548252458800,18.134458740234376,0.8266534209251404,0.566119372844696,0.6366742849349976
1702153548269456100,18.1514560546875,0.5722280144691467,0.2958115041255951,0.4812090992927551
1702153548286441500,18.16844140625,0.27229318022727966,0.3205515444278717,0.15760323405265808
1702153548303433000,18.185432861328124,0.2370157092809677,0.41523563861846924,-0.013439035043120384
1702153548320424700,18.2024248046875,0.3729332387447357,0.3680463135242462,0.1748601794242859
1702153548337405400,18.219405517578124,0.40714168548583984,0.17898350954055786,0.4170682430267334
1702153548354406400,18.236406494140624,0.23396138846874237,0.08506298810243607,0.4662429094314575
1702153548371398700,18.253398681640626,-0.05421429127454758,0.13469578325748444,0.13209961354732513
1702153548388388900,18.270388916015627,-0.16493362188339233,0.26832255721092224,-0.2477058619260788
1702153548405380000,18.287380126953124,-0.07895433157682419,0.028557950630784035,-0.24908030033111572
1702153548422371600,18.30437158203125,0.12018773704767227,0.01160643994808197,0.03573561832308769
1702153548439363800,18.32136376953125,0.25244006514549255,0.07666359096765518,0.21212296187877655
1702153548456354000,18.33835400390625,0.2499966025352478,0.054367005825042725,0.270766019821167
1702153548473345300,18.35534521484375,0.07773260027170181,-0.018478672951459885,0.19853121042251587
1702153548490326500,18.372326416015625,-0.03787364438176155,0.02779436856508255,-0.01572977937757969
1702153548507328800,18.389328857421877,-0.06765332818031311,0.3462078869342804,-0.2269364446401596
1702153548524321800,18.40632177734375,-0.045204028487205505,0.4862487316131592,-0.2961169183254242
1702153548541307600,18.4233076171875,-0.07299839705228806,0.4034765064716339,-0.05955936014652252
1702153548558308400,18.440308349609374,-0.09407325088977814,0.23365595936775208,0.1765400618314743
1702153548575294000,18.4572939453125,-0.07101308554410934,0.18112154304981232,0.3274237811565399
1702153548592282000,18.4742822265625,0.08979719132184982,0.21914790570735931,0.3433062732219696
1702153548609277700,18.491277587890625,0.046731192618608475,0.46868637204170227,0.28848111629486084
1702153548626267100,18.50826708984375,-0.16279558837413788,0.7420485615730286,0.24785856902599335
1702153548643259000,18.5252587890625,-0.31551191210746765,0.6073527932167053,0.16340644657611847
1702153548660249300,18.542249267578125,-0.308792382478714,0.37919458746910095,0.23686300218105316
1702153548677240600,18.559240478515626,-0.19517144560813904,0.34773504734039307,0.3289509415626526
1702153548694229200,18.576229248046875,-0.09407325088977814,0.42928555607795715,0.2515237629413605
1702153548711216000,18.593216064453124,-0.0708603709936142,0.34544429183006287,0.17806722223758698
1702153548728213500,18.610213623046874,-0.12599095702171326,0.14706580340862274,0.2603813111782074
1702153548745205500,18.62720556640625,-0.24908030033111572,0.038026362657547,0.4541783034801483
1702153548762197000,18.644197021484374,-0.3445279896259308,0.08643743395805359,0.4726569950580597
1702153548779190800,18.661190673828123,-0.2779437005519867,0.22311852872371674,0.1518000066280365
1702153548796168400,18.67816845703125,-0.13668109476566315,0.32162055373191833,-0.182648703455925
1702153548813171000,18.6951708984375,-0.016035212203860283,0.25763240456581116,-0.2562579810619354
1702153548830162200,18.712162109375,-0.005039638374000788,0.1414152979850769,-0.1921171247959137
1702153548847151600,18.729151611328124,-0.11010845750570297,0.022143865004181862,-0.13698652386665344
1702153548864147200,18.746147216796874,-0.3378084897994995,-0.12721268832683563,-0.2819143235683441
1702153548881135600,18.763135498046875,-0.5132794976234436,-0.15485434234142303,-0.47250425815582275
1702153548898127000,18.780127197265625,-0.5736024379730225,-0.2926044464111328,-0.5488623976707458
1702153548915116800,18.79711669921875,-0.5917757153511047,-0.3300199508666992,-0.5306891798973083
1702153548932112400,18.8141123046875,-0.5600107312202454,0.07177666574716568,-0.3556762933731079
1702153548949100800,18.831100830078125,-0.4795292317867279,0.039706241339445114,-0.1569923609495163
1702153548966080800,18.848080810546875,-0.4564690589904785,-0.31154128909111023,0.04153883829712868
1702153548983084500,18.86508447265625,-0.4905247986316681,-0.44715335965156555,0.15943582355976105
1702153549000074800,18.88207470703125,-0.5861251950263977,-0.5992587804794312,0.04306599870324135
1702153549017056000,18.899055908203124,-0.5728389024734497,-0.5074763298034668,-0.1739438772201538
1702153549034057200,18.91605712890625,-0.5803219676017761,0.01572977937757969,-0.2616030275821686
1702153549051049500,18.933049560546873,-0.4882340431213379,0.26404649019241333,-0.025045474991202354
1702153549068040000,18.9500400390625,-0.1443169116973877,0.20112738013267517,0.3605632185935974
1702153549085031000,18.967031005859376,0.2580905556678772,-0.18188512325286865,0.5580254197120667
1702153549102022700,18.984022705078125,0.3975205719470978,-0.6727153658866882,0.5125159621238708
1702153549119014700,19.0010146484375,0.17806722223758698,-0.7064656615257263,0.20861047506332397
1702153549136000800,19.018000732421875,-0.2603813111782074,-0.35735616087913513,-0.3295617997646332
1702153549152998400,19.034998291015626,-0.5174028873443604,0.03481931984424591,-0.6409503817558289
1702153549169989400,19.0519892578125,-0.39248090982437134,0.13057245314121246,-0.5410739183425903
1702153549186973000,19.068972900390627,-0.019853120669722557,0.09178250283002853,-0.27229318022727966
1702153549203969000,19.085968994140625,0.15836681425571442,0.07040221989154816,-0.1293507218360901
1702153549220962300,19.10296240234375,-0.12293662875890732,-0.049785517156124115,-0.2200642079114914
1702153549237952500,19.119952392578124,-0.36422839760780334,0.0731511116027832,-0.23716843128204346
1702153549254941000,19.13694091796875,-0.23594669997692108,-0.044745877385139465,-0.2451096773147583
1702153549271937800,19.153937744140624,0.15241087973117828,-0.39736783504486084,-0.275347501039505
1702153549288927200,19.17092724609375,0.5969680547714233,-0.5900958180427551,-0.14752395451068878
1702153549305908200,19.187908203125,0.7974845767021179,-0.5377141237258911,0.12492194026708603
1702153549322910000,19.204909912109375,0.3604104816913605,-0.011301007121801376,0.24938572943210602
1702153549339900200,19.221900146484376,-0.3130684494972229,0.5300782918930054,0.06062837690114975
1702153549356891400,19.238891357421874,-0.6090326309204102,0.717308521270752,-0.3116939961910248
1702153549373883000,19.2558828125,-0.39675697684288025,0.4628831446170807,-0.5754350423812866
1702153549390875100,19.272875244140625,-0.029168816283345222,0.0607810914516449,-0.5067127346992493
1702153549407855000,19.289855224609376,0.22815817594528198,-0.23945917189121246,-0.26939156651496887
1702153549424856600,19.306856689453124,0.23365595936775208,-0.28649580478668213,-0.12507465481758118
1702153549441847800,19.323847900390625,0.08384125679731369,-0.08078692853450775,-0.05253441259264946
1702153549458840000,19.340840087890626,-0.03344487398862839,0.07040221989154816,-0.10674870014190674
1702153549475830300,19.357830322265624,0.01114829070866108,0.03191770985722542,-0.22388210892677307
1702153549492821500,19.374821533203125,0.0455094613134861,-0.16798794269561768,-0.2893974184989929
1702153549509813000,19.39181298828125,-0.04092797264456749,-0.24617868661880493,-0.21899518370628357
1702153549526805000,19.408804931640624,-0.15913039445877075,-0.22708915174007416,-0.1287398487329483
1702153549543795500,19.42579541015625,-0.20754146575927734,-0.3098613917827606,-0.16294831037521362
1702153549560786700,19.44278662109375,-0.2002110779285431,-0.46334129571914673,-0.2906191349029541
1702153549577769000,19.45976904296875,-0.17150041460990906,-0.6641632318496704,-0.46899178624153137
1702153549594770200,19.476770263671874,-0.21762074530124664,-0.8393288254737854,-0.42012256383895874
1702153549611760600,19.4937607421875,-0.2041817009449005,-0.9450085163116455,-0.15027284622192383
1702153549628749600,19.51074951171875,-0.08124507963657379,-0.831845760345459,0.16142113506793976
1702153549645743600,19.52774365234375,0.10445795953273773,-0.44104471802711487,0.24236078560352325
1702153549662737000,19.54473681640625,0.096211276948452,-0.23029619455337524,0.03298672288656235
1702153549679723000,19.561722900390624,-0.1010981947183609,-0.2538145184516907,-0.11148291081190109
1702153549696707000,19.57870703125,-0.16920967400074005,-0.4024074673652649,-0.12461651116609573
1702153549713710000,19.5957099609375,0.012217304669320583,-0.4231768846511841,-0.02886338345706463
1702153549730700300,19.6127001953125,0.24846944212913513,-0.1843285858631134,0.10308351367712021
1702153549747690800,19.629690673828126,0.3813326358795166,-0.023060163483023643,0.1388191282749176
1702153549764682000,19.646681884765623,0.3090978264808655,-0.031154127791523933,0.13011430203914642
1702153549781673500,19.663673583984377,0.1339322030544281,-0.1615738570690155,0.1238529309630394
1702153549798665500,19.68066552734375,0.062460970133543015,-0.2200642079114914,0.15271630883216858
1702153549815651800,19.69765185546875,0.22739458084106445,-0.19914206862449646,0.22479841113090515
1702153549832650800,19.714650634765626,0.44974952936172485,-0.07483099400997162,0.25641068816185
1702153549849638400,19.731638427734374,0.5371032953262329,0.009926560334861279,0.22281309962272644
1702153549866630700,19.748630615234376,0.44135013222694397,-0.06688974797725677,0.2376265823841095
1702153549883620900,19.765620849609373,0.36361753940582275,-0.22632557153701782,0.2793181240558624
1702153549900612000,19.782612060546874,0.4216497242450714,-0.2116648107767105,0.31932979822158813
1702153549917603600,19.799603515625,0.5798638463020325,0.01542434748262167,0.3933972120285034
1702153549934595600,19.816595703125,0.7188356518745422,0.21365012228488922,0.46471574902534485
1702153549951586000,19.8335859375,0.7218900322914124,0.1212567538022995,0.42867469787597656
1702153549968577300,19.850577392578124,0.6417139172554016,-0.096211276948452,0.5616905689239502
1702153549985568500,19.867568603515625,0.7093672752380371,-0.08139779418706894,0.7748825550079346
1702153550002561000,19.88456103515625,0.7397578358650208,0.2480112910270691,0.7919867634773254
1702153550019551000,19.901551025390624,0.7379252314567566,0.6730207800865173,0.43157628178596497
1702153550036533000,19.918532958984375,0.512210488319397,0.46303585171699524,0.06520986557006836
1702153550053533700,19.93553369140625,0.5097670555114746,0.4411974251270294,0.5248859524726868
1702153550070526000,19.95252587890625,0.7072292566299438,0.41981714963912964,1.0242682695388794
1702153550087523300,19.9695234375,0.8465065360069275,0.5407684445381165,1.200197458267212
1702153550104507400,19.98650732421875,0.7722864151000977,0.5859724879264832,0.8845328688621521
1702153550121498000,20.003498046875,0.5071708559989929,0.40622538328170776,0.1840231567621231
1702153550138491600,20.02049169921875,0.046273041516542435,-0.1411098688840866,-0.4596760869026184
1702153550155481300,20.0374814453125,-0.24678955972194672,0.08567385375499725,-0.3669773042201996
1702153550172472600,20.05447265625,-0.42348232865333557,0.5042692422866821,-0.04963280260562897
1702153550189464000,20.071464111328126,-0.46761733293533325,0.4943426847457886,0.11820242553949356
1702153550206439000,20.08843896484375,-0.5140430927276611,0.018478672951459885,-0.07864890247583389
1702153550223443700,20.105443603515624,-0.3478877544403076,-0.08200865983963013,-0.46013423800468445
1702153550240440300,20.1224404296875,-0.19807305932044983,0.07162395119667053,-0.6676757335662842
1702153550257429000,20.139428955078124,-0.19288070499897003,0.49877145886421204,-0.33719760179519653
1702153550274421200,20.156421142578125,-0.17791450023651123,0.7596109509468079,0.11468994617462158
1702153550291413200,20.173413330078127,-0.09926560521125793,0.5326744914054871,0.242513507604599
1702153550308401000,20.19040087890625,0.08735372871160507,0.3341432809829712,0.09666942805051804
1702153550325394000,20.207393798828125,0.2353358417749405,0.39874228835105896,-0.2941316068172455
1702153550342386200,20.22438623046875,0.1241583600640297,0.6527095437049866,-0.5061018466949463
1702153550359376400,20.24137646484375,-0.10659598559141159,0.8839219808578491,-0.2096794992685318
1702153550376367600,20.25836767578125,-0.19746218621730804,0.8287914395332336,0.1443169116973877
1702153550393359000,20.275359130859375,-0.09254608303308487,0.8848382830619812,0.36651915311813354
1702153550410356000,20.29235595703125,0.062460970133543015,0.9178250432014465,0.2857322096824646
1702153550427341600,20.309341552734374,0.17669276893138885,0.9935722947120667,0.0507018156349659
1702153550444332800,20.326332763671875,0.13576480746269226,0.8950703144073486,-0.06918048858642578
1702153550461321500,20.343321533203124,-0.040622539818286896,0.7822129726409912,-0.01863138936460018
1702153550478301400,20.360301513671875,-0.1417207419872284,0.7586946487426758,0.1794416606426239
1702153550495306800,20.377306640625,-0.08460483700037003,0.617584764957428,0.3491095006465912
1702153550512298000,20.394298095703125,0.07941248267889023,0.5497786998748779,0.4317290186882019
1702153550529289200,20.411289306640626,0.12400564551353455,0.41401392221450806,0.24892759323120117
1702153550546281700,20.42828173828125,0.0708603709936142,0.3747658133506775,0.1186605766415596
1702153550563271700,20.445271728515625,-0.11362093687057495,0.2739730477333069,0.027641652151942253
1702153550580263000,20.462262939453126,-0.28496864438056946,0.23640485107898712,-0.03481931984424591
1702153550597254400,20.47925439453125,-0.256868839263916,0.25961771607398987,-0.04214970022439957
1702153550614246700,20.49624658203125,-0.11499538272619247,0.08674286305904388,-0.08720101416110992
1702153550631236900,20.51323681640625,-0.01572977937757969,-0.02428189292550087,-0.15164729952812195
1702153550648228000,20.53022802734375,-0.10674870014190674,-0.05650503560900688,-0.2018909603357315
1702153550665219600,20.547219482421873,-0.36911532282829285,-0.04260785132646561,-0.30146199464797974
1702153550682211800,20.5642119140625,-0.5416847467422485,-0.07116580009460449,-0.3628539443016052
1702153550699201800,20.581201904296876,-0.5439754724502563,-0.2594650089740753,-0.39584067463874817
1702153550716183000,20.59818310546875,-0.49495357275009155,-0.4082106947898865,-0.4053090810775757
1702153550733184500,20.6151845703125,-0.4297437071800232,-0.3019201457500458,-0.33887749910354614
1702153550750176800,20.6321767578125,-0.43279802799224854,-0.2142609804868698,-0.2278527319431305
1702153550767167200,20.649167236328125,-0.5155702829360962,-0.24572055041790009,-0.17592918872833252
1702153550784158500,20.666158447265627,-0.5461135506629944,-0.3361285924911499,-0.14095716178417206
1702153550801149700,20.683149658203124,-0.5598580241203308,-0.5283984541893005,-0.2499966025352478
1702153550818142000,20.700141845703126,-0.43508878350257874,-0.5167919993400574,-0.3393356502056122
1702153550835132200,20.717132080078127,-0.2819143235683441,-0.41370847821235657,-0.33597588539123535
1702153550852123400,20.734123291015624,-0.26481008529663086,-0.31780263781547546,-0.23487769067287445
1702153550869115000,20.751114990234374,-0.2590068578720093,-0.33429601788520813,0.01970040425658226
1702153550886107100,20.768107177734375,-0.32360586524009705,-0.44364088773727417,0.041233405470848083
1702153550903097000,20.78509716796875,-0.41813725233078003,-0.35384368896484375,-0.11316278576850891
1702153550920088600,20.802088623046874,-0.5528330206871033,-0.30375275015830994,-0.3735440969467163
1702153550937079800,20.819079833984375,-0.5911648273468018,-0.34055736660957336,-0.55695641040802
1702153550954072000,20.836072021484377,-0.5189300179481506,-0.06643159687519073,-0.3758348524570465
1702153550971052000,20.853052001953124,-0.30054569244384766,0.10384709388017654,-0.04077525436878204
1702153550988053500,20.870053466796875,-0.10155634582042694,0.022449297830462456,0.1010981947183609
