time,seconds_elapsed,z,y,x
1702153581963209700,0.066209716796875,-0.05421429127454758,-0.2565633952617645,0.16493362188339233
1702153581980201700,0.08320166015625,0.05345070734620094,-0.37950003147125244,0.24602597951889038
1702153581997193700,0.10019384765625,0.01664607785642147,-0.7906123399734497,0.3952298164367676
1702153582014189600,0.117189453125,-0.29184088110923767,-0.8906415104866028,0.5119050741195679
1702153582031178000,0.134177978515625,-0.8130616545677185,-0.6916521787643433,0.6142250299453735
1702153582048170500,0.15117041015625,-1.0201449394226074,-0.29596421122550964,0.5271766781806946
1702153582065159400,0.168159423828125,-0.7925976514816284,-0.20128010213375092,0.08536841720342636
1702153582082152000,0.18515185546875,-0.2756529450416565,0.6934847831726074,-0.6565274000167847
1702153582099145200,0.202145263671875,-0.15974126756191254,0.6524040699005127,-1.2817480564117432
1702153582116132000,0.219132080078125,-0.49816060066223145,0.0328340083360672,-1.4862351417541504
1702153582133124600,0.23612451171875,-0.4537201523780823,-0.29138273000717163,-1.389107584953308
1702153582150121700,0.253121826171875,0.04398229718208313,-0.5723807215690613,-1.1908818483352661
1702153582167106800,0.27010693359375,0.12660181522369385,-1.0207557678222656,-1.043968677520752
1702153582184100900,0.287100830078125,0.11026117950677872,-0.954018771648407,-1.1039862632751465
1702153582201090300,0.30409033203125,-0.019089538604021072,-0.3303253948688507,-1.359175205230713
1702153582218087200,0.321087158203125,-0.09300423413515091,0.23029619455337524,-1.5560264587402344
1702153582235072500,0.338072509765625,-0.05696318298578262,0.07742717117071152,-1.430493712425232
1702153582252065500,0.3550654296875,-0.16065755486488342,-0.28008171916007996,-1.1650726795196533
1702153582269059600,0.3720595703125,-0.3602577745914459,-0.4401284158229828,-1.1789699792861938
1702153582286047200,0.389047119140625,-0.46731191873550415,-0.3474296033382416,-1.5462526082992554
1702153582303040500,0.40604052734375,-0.2802344262599945,-0.12003502249717712,-2.018756866455078
1702153582320033000,0.423032958984375,-0.14324790239334106,-0.23640485107898712,-2.1951441764831543
1702153582337013800,0.440013671875,-0.37491855025291443,-0.47250425815582275,-2.0195205211639404
1702153582354016500,0.4570166015625,-0.5977316498756409,-0.6524040699005127,-1.7531832456588745
1702153582371006200,0.474006103515625,-0.46303585171699524,-0.6768386960029602,-1.5332717895507812
1702153582387998200,0.490998291015625,-0.3208569586277008,-0.9544769525527954,-1.3799445629119873
1702153582404986600,0.507986572265625,-0.5613851547241211,-1.0409144163131714,-1.2696833610534668
1702153582421981000,0.52498095703125,-0.5853615999221802,-0.7622070908546448,-1.212720274925232
1702153582438963200,0.541963134765625,-0.23350323736667633,-0.41202861070632935,-1.2275336980819702
1702153582455960000,0.5589599609375,0.18829920887947083,-0.1840231567621231,-1.0506882667541504
1702153582472952800,0.575952880859375,0.31444287300109863,-0.13240504264831543,-0.7006624341011047
1702153582489950000,0.592949951171875,0.30482175946235657,-0.16844609379768372,-0.43615779280662537
1702153582506935300,0.609935302734375,0.20234911143779755,-0.0685696229338646,-0.30894508957862854
1702153582523929000,0.62692919921875,0.11972958594560623,0.03787364438176155,-0.2632829248905182
1702153582540920600,0.643920654296875,0.08857546001672745,0.10522153973579407,-0.2018909603357315
1702153582557913900,0.660913818359375,0.1036943718791008,0.07971791177988052,-0.15485434234142303
1702153582574900500,0.677900390625,0.1059851199388504,-0.024434609338641167,-0.16310101747512817
1702153582591891200,0.69489111328125,0.10735956579446793,-0.18570303916931152,-0.144622340798378
1702153582608890000,0.71189013671875,0.09315694868564606,-0.25473082065582275,-0.06658431142568588
1702153582625868800,0.728868896484375,0.1661553531885147,-0.22632557153701782,-0.019853120669722557
1702153582642869200,0.745869140625,0.337503045797348,-0.15271630883216858,-0.05925392732024193
1702153582659860500,0.762860595703125,0.489608496427536,-0.11468994617462158,-0.0933096632361412
1702153582676849200,0.77984912109375,0.5264131426811218,-0.12339477986097336,-0.04749477282166481
1702153582693844200,0.79684423828125,0.41691553592681885,-0.21212296187877655,-0.012675453908741474
1702153582710830800,0.813830810546875,0.22846360504627228,-0.2782491147518158,-0.005039638374000788
1702153582727832000,0.83083203125,0.17104226350784302,-0.18539759516716003,-0.032681290060281754
1702153582744823800,0.84782373046875,0.2857322096824646,0.04001167416572571,-0.09529497474431992
1702153582761803000,0.864802978515625,0.38957929611206055,0.15332718193531036,-0.08078692853450775
1702153582778795800,0.881795654296875,0.32788193225860596,0.09957103431224823,0.00931569468230009
1702153582795789000,0.8987890625,0.17043140530586243,-0.021532999351620674,0.13469578325748444
1702153582812790500,0.91579052734375,0.04734205827116966,-0.03420845419168472,0.1498146951198578
1702153582829777400,0.93277734375,0.11774427443742752,0.0025961773935705423,0.07040221989154816
1702153582846763000,0.949762939453125,0.3669773042201996,0.0529925599694252,0.06383541971445084
1702153582863754800,0.966754638671875,0.6389650702476501,0.0988074541091919,0.1440114825963974
1702153582880750800,0.983750732421875,0.651945948600769,0.19593502581119537,0.30543261766433716
1702153582897745200,1.0007451171875,0.48838675022125244,0.24465152621269226,0.4404338300228119
1702153582914726400,1.017726318359375,0.26740625500679016,0.20784689486026764,0.4905247986316681
1702153582931722200,1.03472216796875,0.23671028017997742,0.008246680721640587,0.44318273663520813
1702153582948715800,1.0517158203125,0.3058907687664032,-0.3075706362724304,0.3266601860523224
1702153582965696300,1.0686962890625,0.361174076795578,-0.6609562039375305,0.13179416954517365
1702153582982696700,1.08569677734375,-0.06643159687519073,-1.0757336616516113,-0.20723603665828705
1702153582999679200,1.10267919921875,-0.8373435139656067,-1.145830512046814,-0.242513507604599
1702153583016677000,1.119677001953125,-1.1336132287979126,-0.6879869699478149,-0.10674870014190674
1702153583033672400,1.13667236328125,-0.4043927788734436,-0.19868391752243042,0.04948008432984352
1702153583050670800,1.1536708984375,0.5345070958137512,0.0029016099870204926,0.2571742534637451
1702153583067655200,1.1706552734375,0.8793405294418335,0.02275473065674305,0.37797287106513977
1702153583084643300,1.187643310546875,0.6690501570701599,-0.13255776464939117,0.15790866315364838
1702153583101637400,1.204637451171875,0.07223481684923172,-0.5097670555114746,-0.1849394589662552
1702153583118627000,1.221626953125,-0.22571471333503723,-0.5488623976707458,-0.23319780826568604
1702153583135619000,1.238619140625,-0.08720101416110992,-0.1310305893421173,0.04642575979232788
1702153583152610800,1.25561083984375,0.2750420868396759,0.44623705744743347,0.3822489380836487
1702153583169604600,1.2726044921875,0.5642867684364319,0.7367035150527954,0.5009095072746277
1702153583186591200,1.28959130859375,0.5435173511505127,0.6192646622657776,0.4079052805900574
1702153583203576000,1.306576171875,0.3246748745441437,0.3029891550540924,0.20128010213375092
1702153583220569300,1.3235693359375,-0.06261368840932846,-0.11163562536239624,-0.034666601568460464
1702153583237586000,1.3405859375,-0.1976149082183838,0.09437867999076843,-0.12828169763088226
1702153583254561000,1.35756103515625,-0.03145955875515938,0.654542088508606,-0.197004035115242
1702153583271553300,1.37455322265625,0.20097467303276062,0.9834930300712585,-0.15317445993423462
1702153583288533000,1.391532958984375,0.3433062732219696,0.5653557777404785,0.02672535367310047
1702153583305527300,1.40852734375,0.33337971568107605,-0.10354165732860565,0.24724771082401276
1702153583322527500,1.425527587890625,0.09972374886274338,-0.7238753437995911,0.07849618047475815
1702153583339515600,1.442515625,-0.17104226350784302,-0.746630072593689,-0.34177911281585693
1702153583356506000,1.459506103515625,-0.18997909128665924,-0.3263547718524933,-0.7426594495773315
1702153583373498600,1.47649853515625,-0.11927144229412079,0.027641652151942253,-0.831234872341156
1702153583390493700,1.49349365234375,-0.01970040425658226,0.154396191239357,-0.5337435007095337
1702153583407480800,1.510480712890625,0.0025961773935705423,-0.02015855349600315,-0.19425514340400696
1702153583424462800,1.527462890625,-0.06200282275676727,-0.20861047506332397,-0.02367102913558483
1702153583441443600,1.544443603515625,-0.18600846827030182,-0.3045163154602051,-0.08933904021978378
1702153583458428200,1.56142822265625,-0.308792382478714,-0.3084869384765625,-0.308792382478714
1702153583475448000,1.578447998046875,-0.33689218759536743,-0.18616119027137756,-0.46563202142715454
1702153583492426200,1.59542626953125,-0.26374107599258423,-0.10308351367712021,-0.48227810859680176
1702153583509432800,1.612432861328125,-0.1563815027475357,-0.08002334833145142,-0.3724750876426697
1702153583526419700,1.629419677734375,-0.09468411654233932,-0.041691552847623825,-0.2477058619260788
1702153583543413800,1.646413818359375,-0.11789698898792267,-0.1281289905309677,-0.22067506611347198
1702153583560403000,1.66340283203125,-0.21120665967464447,-0.18417587876319885,-0.24877487123012543
1702153583577397000,1.68039697265625,-0.26740625500679016,-0.23640485107898712,-0.3445279896259308
1702153583594388500,1.697388427734375,-0.2756529450416565,-0.39156460762023926,-0.4434881806373596
1702153583611372300,1.714372314453125,-0.16798794269561768,-0.2967278063297272,-0.3937026560306549
1702153583628372200,1.731372314453125,-0.02672535367310047,-0.025045474991202354,-0.2687807083129883
1702153583645360000,1.748360107421875,0.0429132841527462,0.09957103431224823,-0.24205535650253296
1702153583662353400,1.765353515625,0.08185594528913498,0.1033889427781105,-0.2295326143503189
1702153583679345700,1.782345703125,0.12034045159816742,-0.06765332818031311,-0.19486601650714874
1702153583696333800,1.799333740234375,0.1394299864768982,-0.1765400618314743,-0.07987063378095627
1702153583713330000,1.816329833984375,0.25182920694351196,-0.17638733983039856,-0.051312681287527084
1702153583730316000,1.83331591796875,0.34376442432403564,-0.24633140861988068,-0.13637566566467285
1702153583747309800,1.850309814453125,0.3637702465057373,-0.16783522069454193,-0.21533000469207764
1702153583764302600,1.867302490234375,0.40622538328170776,-0.18280142545700073,-0.39538252353668213
1702153583781293800,1.8842939453125,0.47418415546417236,0.15531249344348907,-0.35033121705055237
1702153583798287400,1.901287353515625,0.3323107063770294,0.42149701714515686,-0.30970868468284607
1702153583815271700,1.918271728515625,0.04245513305068016,0.41599923372268677,-0.46441030502319336
1702153583832268500,1.9352685546875,-0.07223481684923172,0.16783522069454193,-0.6901249885559082
1702153583849262600,1.9522626953125,0.11071932315826416,-0.432645320892334,-0.749531626701355
1702153583866248400,1.96924853515625,0.531147301197052,-0.38698312640190125,-0.44547349214553833
1702153583883242200,1.9862421875,0.6012440919876099,0.20051652193069458,-0.22999076545238495
1702153583900234800,2.00323486328125,0.32788193225860596,0.875064492225647,-0.2968805134296417
1702153583917219800,2.0202197265625,-0.2528982162475586,1.4300355911254883,-0.4031710624694824
1702153583934220000,2.037219970703125,-0.6449210047721863,1.3025174140930176,-0.34865134954452515
1702153583951203800,2.054203857421875,-0.6304129362106323,0.49006664752960205,-0.26542094349861145
1702153583968186000,2.07118603515625,-0.351400226354599,-0.23884831368923187,-0.17806722223758698
1702153583985185800,2.088185791015625,-0.19562959671020508,-0.3384193480014801,-0.16859880089759827
1702153584002184200,2.10518408203125,-0.12278391420841217,0.05009094998240471,-0.1007927656173706
1702153584019174100,2.122174072265625,-0.03191770985722542,0.42867469787597656,-0.027183502912521362
1702153584036162000,2.139162109375,-0.028557950630784035,0.4005748927593231,0.020616702735424042
1702153584053156400,2.15615625,-0.12461651116609573,0.2834414839744568,-0.05253441259264946
1702153584070148900,2.17314892578125,-0.16081027686595917,0.351400226354599,-0.15531249344348907
1702153584087135700,2.1901357421875,0.0065668015740811825,0.4343251883983612,-0.0734565481543541
1702153584104131000,2.207131103515625,0.21853704750537872,0.4355469346046448,0.14263702929019928
1702153584121122300,2.224122314453125,0.2246456891298294,0.3474296033382416,0.2611449062824249
1702153584138114800,2.24111474609375,0.04444044828414917,0.21868975460529327,0.16768251359462738
1702153584155101400,2.258101318359375,-0.18539759516716003,0.09773843735456467,-0.01572977937757969
1702153584172095700,2.275095703125,-0.23609942197799683,-0.03940080851316452,-0.09162978827953339
1702153584189084400,2.29208447265625,-0.09911288321018219,-0.1408044397830963,-0.03527746722102165
1702153584206079000,2.309078857421875,0.09560041129589081,-0.18356500566005707,0.1290452778339386
1702153584223069400,2.3260693359375,0.22281309962272644,-0.07024950534105301,0.289244681596756
1702153584240063200,2.343063232421875,0.1241583600640297,0.12965615093708038,0.25442537665367126
1702153584257051100,2.360051025390625,-0.17989981174468994,0.21823160350322723,0.05375614017248154
1702153584274045200,2.377045166015625,-0.3568980097770691,0.17302757501602173,-0.10797043144702911
1702153584291035400,2.394035400390625,-0.30863967537879944,-0.025961773470044136,-0.11316278576850891
1702153584308029000,2.41102880859375,-0.16264286637306213,-0.18738290667533875,-0.09162978827953339
1702153584325014300,2.42801416015625,-0.024129176512360573,-0.1875356286764145,-0.1362229436635971
1702153584342012700,2.4450126953125,0.0009162978967651725,-0.2695443034172058,-0.18249599635601044
1702153584359002600,2.462002685546875,-0.0981965884566307,-0.45814892649650574,-0.19165897369384766
1702153584375992600,2.47899267578125,-0.1774563491344452,-0.526107668876648,-0.23075434565544128
1702153584392985000,2.495985107421875,-0.14263702929019928,-0.45463645458221436,-0.046273041516542435
1702153584409979400,2.5129794921875,-0.041691552847623825,-0.37140607833862305,0.2845104932785034
1702153584426962400,2.52996240234375,0.011301007121801376,-0.15363261103630066,0.3952298164367676
1702153584443959300,2.546959228515625,0.08338310569524765,-0.005650503560900688,0.2964223623275757
1702153584460950500,2.563950439453125,0.17928895354270935,-0.1638645976781845,0.24526239931583405
1702153584477943000,2.580943115234375,0.28527405858039856,-0.2070833146572113,0.2617557644844055
1702153584494930000,2.597929931640625,0.35552358627319336,-0.07070764899253845,0.2454151064157486
1702153584511924200,2.61492431640625,0.38667771220207214,0.0328340083360672,0.22449298202991486
1702153584528917800,2.631917724609375,0.4095851480960846,-0.013744467869400978,0.24633140861988068
1702153584545912600,2.64891259765625,0.4908302128314972,-0.16462817788124084,0.3390302062034607
1702153584562898200,2.665898193359375,0.6511823534965515,-0.1950187236070633,0.494189977645874
1702153584579891500,2.682891357421875,0.7687739133834839,-0.06780604273080826,0.5566509366035461
1702153584596879600,2.699879638671875,0.7903069257736206,0.10384709388017654,0.6821837425231934
1702153584613873700,2.716873779296875,0.8471173644065857,0.34284812211990356,0.7953465580940247
1702153584630861800,2.73386181640625,0.9057604670524597,0.4763221740722656,0.7757988572120667
1702153584647849500,2.750849365234375,0.9256135821342468,0.34697145223617554,0.5632177591323853
1702153584664839700,2.767839599609375,0.9240863919258118,-0.2174680233001709,0.21303924918174744
1702153584681838600,2.784838623046875,0.7396050691604614,-0.566119372844696,0.08017606288194656
1702153584698832100,2.80183203125,0.49037206172943115,-0.12171489745378494,-0.00809396430850029
1702153584715819000,2.818819091796875,0.4534147381782532,0.48976120352745056,0.007635815534740686
1702153584732804900,2.835804931640625,0.6586654782295227,0.7898487448692322,0.23777928948402405
1702153584749805800,2.852805908203125,0.899040937423706,0.6192646622657776,0.31261029839515686
1702153584766796000,2.869796142578125,1.0059423446655273,0.034666601568460464,0.18035796284675598
1702153584783778000,2.886778076171875,0.865290641784668,-0.5274821519851685,-0.02321287989616394
1702153584800782300,2.9037822265625,0.6033821702003479,-0.7012733221054077,-0.16783522069454193
1702153584817772300,2.920772216796875,0.5054910182952881,-0.2857322096824646,0.04612032696604729
1702153584834758400,2.93775830078125,0.5862779021263123,0.27320948243141174,0.42180246114730835
1702153584851753000,2.9547529296875,0.6041457056999207,0.5314527750015259,0.6688974499702454
1702153584868746500,2.97174658203125,0.4118759036064148,0.4964807331562042,0.6453791260719299
1702153584885733400,2.9887333984375,0.08827003091573715,0.2562579810619354,0.30634891986846924
1702153584902726700,3.0057265625,0.018478672951459885,0.2942843437194824,-0.07208210229873657
1702153584919720200,3.02272021484375,0.15821409225463867,0.2941316068172455,-0.2298380434513092
1702153584936707800,3.039707763671875,0.2301434874534607,0.22907446324825287,-0.14217889308929443
1702153584953702100,3.0567021484375,0.15790866315364838,0.20754146575927734,-0.1362229436635971
1702153584970680000,3.07368017578125,-0.23273965716362,0.20005837082862854,-0.15561792254447937
1702153584987687700,3.090687744140625,-0.39767327904701233,0.49754974246025085,0.09728029370307922
1702153585004674600,3.107674560546875,-0.19058994948863983,0.5627595782279968,0.2617557644844055
1702153585021667800,3.124667724609375,0.1463022232055664,0.49754974246025085,0.2997821271419525
1702153585038659000,3.1416591796875,0.2611449062824249,0.44516804814338684,0.30970868468284607
1702153585055651000,3.158651123046875,0.1293507218360901,0.3107776939868927,0.2200642079114914
1702153585072632300,3.17563232421875,-0.12308934330940247,0.09560041129589081,0.06505715101957321
1702153585089633800,3.1926337890625,-0.25564709305763245,0.32620203495025635,0.02825251780450344
1702153585106624500,3.20962451171875,-0.28909197449684143,0.49754974246025085,0.00733038317412138
1702153585123616500,3.226616455078125,-0.23915374279022217,0.5094616413116455,0.054367005825042725
1702153585140608300,3.243608154296875,-0.1889100819826126,0.31581732630729675,0.0806342139840126
1702153585157590500,3.260590576171875,-0.15500704944133759,0.1160643994808197,0.11026117950677872
1702153585174580500,3.27758056640625,-0.1638645976781845,0.12278391420841217,0.04764748737215996
1702153585191582000,3.29458203125,-0.2770273983478546,0.29825496673583984,-0.06627888232469559
1702153585208574200,3.31157421875,-0.3094032406806946,0.30634891986846924,-0.12339477986097336
1702153585225565200,3.328565185546875,-0.19135354459285736,0.030085112899541855,-0.13454307615756989
1702153585242556200,3.34555615234375,-0.13729196786880493,-0.2710714638233185,-0.2054034322500229
1702153585259548000,3.3625478515625,-0.31093040108680725,-0.3764457106590271,-0.347276896238327
1702153585276540000,3.379539794921875,-0.5410739183425903,-0.14782938361167908,-0.4407392740249634
1702153585293518000,3.39651806640625,-0.6101016402244568,0.058184914290905,-0.4262312352657318
1702153585310521600,3.413521484375,-0.5745187401771545,-0.010231993161141872,-0.3634648323059082
1702153585327513900,3.430513916015625,-0.42119157314300537,-0.07819075137376785,-0.23579397797584534
1702153585344505600,3.447505615234375,-0.3962988257408142,-0.06979135423898697,-0.19425514340400696
1702153585361494000,3.464493896484375,-0.4970915913581848,-0.10705413669347763,-0.18814650177955627
1702153585378490000,3.481489990234375,-0.6805039048194885,-0.12660181522369385,-0.09957103431224823
1702153585395481900,3.49848193359375,-0.9944885969161987,-0.1736384481191635,-0.15256360173225403
1702153585412471300,3.51547119140625,-1.1850786209106445,-0.08888089656829834,-0.32986724376678467
1702153585429469700,3.5324697265625,-1.048397421836853,-0.05192354694008827,-0.4178318381309509
1702153585446453200,3.549453369140625,-0.7177666425704956,-0.11881329119205475,-0.26450464129447937
1702153585463445000,3.566445068359375,-0.49357911944389343,-0.3312416672706604,-0.007635815534740686
1702153585480437000,3.58343701171875,-0.49754974246025085,-0.3032945990562439,0.1215621829032898
1702153585497428000,3.600427978515625,-0.7525860071182251,-0.1950187236070633,-0.13576480746269226
1702153585514419000,3.6174189453125,-0.9082038998603821,-0.00855211354792118,-0.3568980097770691
1702153585531411000,3.634410888671875,-0.598953366279602,-0.14767667651176453,-0.2935207486152649
1702153585548402700,3.651402587890625,-0.14217889308929443,-0.6681338548660278,-0.1463022232055664
1702153585565393700,3.6683935546875,-0.10766500234603882,-0.717613935470581,-0.013897184282541275
1702153585582381800,3.6853818359375,-0.3683517575263977,-0.1082758679986,-0.0809396430850029
1702153585599368700,3.70236865234375,-0.4735732674598694,0.4680754840373993,-0.17501288652420044
1702153585616355800,3.71935595703125,-0.10277807712554932,0.17104226350784302,-0.12324206531047821
1702153585633359400,3.736359375,0.44226643443107605,-0.654542088508606,0.08292495459318161
1702153585650350300,3.753350341796875,0.5855143666267395,-0.8845328688621521,0.313373863697052
1702153585667342300,3.77034228515625,0.29535335302352905,-0.126143679022789,0.33169981837272644
1702153585684334000,3.787333984375,-0.08231408894062042,0.6661485433578491,0.11667526513338089
1702153585701325300,3.8043251953125,-0.3127630054950714,0.7104362845420837,-0.020616702735424042
1702153585718316000,3.82131591796875,-0.3165809214115143,0.18906278908252716,-0.05345070734620094
1702153585735308000,3.83830810546875,-0.3663664162158966,-0.31413745880126953,-0.13545936346054077
1702153585752300300,3.85530029296875,-0.4024074673652649,-0.3604104816913605,-0.17348572611808777
1702153585769290800,3.872290771484375,-0.4502076804637909,-0.0010690141934901476,-0.04077525436878204
1702153585786281700,3.88928173828125,-0.3199406862258911,0.3643811047077179,0.12522737681865692
1702153585803271000,3.90627099609375,-0.005345070734620094,0.304669052362442,0.11988230794668198
1702153585820276500,3.9232763671875,0.057879481464624405,-0.0708603709936142,-0.04138612002134323
1702153585837246700,3.940246826171875,-0.13087788224220276,-0.3072652220726013,-0.2483167201280594
1702153585854244900,3.957244873046875,-0.23258693516254425,-0.3546072840690613,-0.4034765064716339
1702153585871242200,3.9742421875,-0.06185010448098183,-0.470671683549881,-0.41401392221450806
1702153585888221000,3.991220947265625,0.28649580478668213,-0.6139195561408997,-0.31444287300109863
1702153585905219600,4.008219482421875,0.6299547553062439,-0.6928738951683044,-0.34697145223617554
1702153585922216000,4.0252158203125,0.5624541640281677,-0.6640105247497559,-0.39385536313056946
1702153585939205000,4.042205078125,0.2716823220252991,-0.546571671962738,-0.280539870262146
1702153585956197000,4.059197021484375,0.0555887371301651,-0.3923282027244568,-0.15775595605373383
1702153585973188000,4.07618798828125,-0.06902777403593063,-0.3199406862258911,-0.10873401165008545
1702153585990179000,4.093178955078125,-0.0933096632361412,-0.3839288055896759,-0.08918632566928864
1702153586007170800,4.1101708984375,0.059406645596027374,-0.4986187517642975,-0.13897185027599335
1702153586024162800,4.127162841796875,0.08643743395805359,-0.5551238059997559,-0.1973094791173935
1702153586041153800,4.14415380859375,0.08307767659425735,-0.5543602108955383,-0.16951510310173035
1702153586058144800,4.161144775390625,0.05513058975338936,-0.6039929986000061,-0.09086620807647705
1702153586075136500,4.178136474609375,0.010995574295520782,-0.5870414972305298,-0.03726277872920036
1702153586092128500,4.19512841796875,0.06918048858642578,-0.4963280260562897,-0.007788531947880983
1702153586109119500,4.212119384765625,0.2747366428375244,-0.3995058834552765,0.11530081182718277
1702153586126110200,4.229110107421875,0.4720461070537567,-0.15027284622192383,0.17592918872833252
1702153586143102500,4.2461025390625,0.4813618063926697,-0.004734205547720194,0.13927727937698364
1702153586160083500,4.26308349609375,0.4063780903816223,-0.08475755155086517,0.09758572280406952
1702153586177085200,4.280085205078125,0.37308594584465027,-0.1463022232055664,0.08765916526317596
1702153586194072800,4.29707275390625,0.4196644127368927,-0.12568552792072296,0.21151208877563477
1702153586211071200,4.3140712890625,0.5668829679489136,-0.0328340083360672,0.3813326358795166
1702153586228060000,4.331059814453125,0.6655376553535461,0.1690569519996643,0.44745880365371704
1702153586245051000,4.34805078125,0.6388123035430908,0.26893341541290283,0.46043968200683594
1702153586262042000,4.3650419921875,0.49205195903778076,0.2125810980796814,0.46013423800468445
1702153586279039500,4.38203955078125,0.3026837408542633,0.11209376901388168,0.5048801302909851
1702153586296023300,4.399023193359375,0.3520110845565796,0.304210901260376,0.579405665397644
1702153586313009400,4.416009521484375,0.5760459303855896,0.5807801485061646,0.6200281977653503
1702153586330007600,4.433007568359375,0.7507534027099609,0.5988006591796875,0.6592763066291809
1702153586346999600,4.44999951171875,0.7272350788116455,0.46990808844566345,0.7234171628952026
1702153586363992000,4.466991943359375,0.45204028487205505,0.5076290369033813,0.7881689071655273
1702153586380982500,4.483982421875,0.19028452038764954,0.8749117255210876,0.6922630667686462
1702153586397970700,4.500970703125,0.19104810059070587,1.1342240571975708,0.45326200127601624
1702153586414968000,4.517968017578125,0.28557950258255005,0.9908234477043152,0.5607742667198181
1702153586431957500,4.53495751953125,0.3448334336280823,0.8436049222946167,1.0109820365905762
1702153586448948200,4.5519482421875,0.3625485301017761,0.9622654914855957,1.226922869682312
1702153586465929200,4.56892919921875,0.24846944212913513,1.1690434217453003,1.1734721660614014
1702153586482928400,4.585928466796875,0.055741455405950546,1.2522737979888916,0.9323330521583557
1702153586499925800,4.60292578125,-0.1059851199388504,0.879493236541748,0.578489363193512
1702153586516914000,4.619913818359375,-0.002138028386980295,0.09117163717746735,0.5222898125648499
1702153586533894400,4.636894287109375,0.11667526513338089,-0.3110831379890442,0.547182559967041
1702153586550897000,4.65389697265625,-0.09224065393209457,0.2298380434513092,0.5413793325424194
1702153586567886000,4.670885986328125,-0.3674354553222656,0.9456194043159485,0.4291328489780426
1702153586584882400,4.68788232421875,-0.513126790523529,1.023046612739563,0.27580565214157104
1702153586601870600,4.70487060546875,-0.33918291330337524,0.5936083197593689,0.14004085958003998
1702153586618862600,4.721862548828125,-0.15347988903522491,0.1485929638147354,-0.1563815027475357
1702153586635854600,4.7388544921875,-0.3804163336753845,0.351400226354599,-0.34605515003204346
1702153586652845600,4.755845458984375,-0.8436049222946167,0.769079327583313,-0.3315471112728119
1702153586669836300,4.772836181640625,-0.8735373020172119,0.85994553565979,-0.12599095702171326
1702153586686828300,4.789828369140625,-0.6064364910125732,0.5303837656974792,-0.09453139454126358
1702153586703820300,4.8068203125,-0.3225368559360504,0.4625777006149292,-0.2819143235683441
1702153586720808400,4.823808349609375,-0.32650747895240784,0.6989825367927551,-0.4167627990245819
1702153586737804500,4.840804443359375,-0.5928447246551514,0.9990701079368591,-0.16829337179660797
1702153586754794000,4.8577939453125,-0.6337726712226868,0.8468119502067566,0.16584990918636322
1702153586771786000,4.874785888671875,-0.5917757153511047,0.5699372887611389,0.3550654351711273
1702153586788777000,4.89177685546875,-0.5186246037483215,0.4769330322742462,0.33475416898727417
1702153586805768000,4.908767822265625,-0.6200281977653503,0.5711590051651001,0.05971207842230797
1702153586822759700,4.925759765625,-0.7915286421775818,0.7603744864463806,-0.18219055235385895
1702153586839751700,4.942751708984375,-0.8231409192085266,0.5896376967430115,-0.28878653049468994
1702153586856732200,4.959732177734375,-0.6831000447273254,0.29336804151535034,-0.2912299931049347
1702153586873731000,4.97673095703125,-0.5294674634933472,0.03573561832308769,-0.3222314119338989
1702153586890728200,4.993728271484375,-0.39996400475502014,0.015271631069481373,-0.25961771607398987
1702153586907717400,5.01071728515625,-0.3917173445224762,0.004886921960860491,-0.21639901399612427
1702153586924707800,5.027707763671875,-0.4179845452308655,-0.0887281745672226,-0.23182335495948792
1702153586941700000,5.0447001953125,-0.5433646440505981,-0.17959438264369965,-0.3289509415626526
1702153586958691300,5.06169140625,-0.6835582256317139,-0.1498146951198578,-0.3859141170978546
1702153586975683300,5.078683349609375,-0.6907358765602112,-0.14538592100143433,-0.4101960062980652
1702153586992674300,5.09567431640625,-0.5809328556060791,-0.2203696370124817,-0.3735440969467163
1702153587009665000,5.1126650390625,-0.40026944875717163,-0.3243694305419922,-0.22281309962272644
1702153587026657000,5.129656982421875,-0.289244681596756,-0.35674530267715454,-0.04398229718208313
1702153587043649000,5.14664892578125,-0.3065016269683838,-0.2736676335334778,0.07910704612731934
1702153587060637200,5.16363720703125,-0.5132794976234436,-0.3095559775829315,-0.009010262787342072
1702153587077633500,5.180633544921875,-0.5545129179954529,-0.4103487432003021,-0.10002918541431427
1702153587094622700,5.197622802734375,-0.5117523670196533,-0.5157229900360107,-0.10323622822761536
1702153587111614700,5.21461474609375,-0.4447098970413208,-0.4567744731903076,-0.11850785464048386
1702153587128605700,5.231605712890625,-0.2893974184989929,-0.4714352488517761,-0.10201449692249298
1702153587145596700,5.2485966796875,-0.0734565481543541,-0.6737843751907349,0.04505131021142006
1702153587162585900,5.2655859375,0.046273041516542435,-0.9402743577957153,0.12339477986097336
1702153587179580700,5.28258056640625,0.04184427112340927,-0.9955576062202454,0.0685696229338646
1702153587196574200,5.29957421875,-0.08002334833145142,-0.8701775670051575,-0.07757988572120667
1702153587213562400,5.316562255859375,-0.16890424489974976,-0.7124215960502625,-0.20586158335208893
1702153587230554400,5.333554443359375,0.04917465150356293,-0.8000807762145996,-0.2834414839744568
1702153587247545300,5.35054541015625,0.3269656300544739,-0.8472700715065002,-0.2116648107767105
1702153587264537300,5.367537353515625,0.4057672321796417,-0.5190827250480652,0.001679879380390048
1702153587281528000,5.384528076171875,0.10461067408323288,-0.08475755155086517,0.18127426505088806
1702153587298520000,5.40152001953125,-0.06918048858642578,0.026572637259960175,0.21502456068992615
1702153587315512000,5.418511962890625,-0.013897184282541275,-0.12629638612270355,0.18860463798046112
1702153587332503000,5.4355029296875,-0.013897184282541275,-0.4239404797554016,0.025961773470044136
1702153587349494000,5.452493896484375,-0.14645494520664215,-0.33307427167892456,-0.128434419631958
1702153587366485800,5.46948583984375,-0.18295414745807648,-0.08445212244987488,-0.21914790570735931
1702153587383477800,5.486477783203125,-0.06368270516395569,0.1788308024406433,-0.19608774781227112
1702153587400468700,5.50346875,0.01160643994808197,0.14935655891895294,-0.1817324161529541
1702153587417460000,5.5204599609375,0.008399397134780884,-0.22388210892677307,-0.24037547409534454
1702153587434451200,5.537451171875,-0.10720685124397278,-0.5398521423339844,-0.26343563199043274
1702153587451443500,5.554443359375,-0.09498954564332962,-0.6052147150039673,-0.30146199464797974
1702153587468434700,5.5714345703125,0.009926560334861279,-0.6730207800865173,-0.2922990322113037
1702153587485425400,5.58842529296875,0.2802344262599945,-0.8558222055435181,-0.1059851199388504
1702153587502417200,5.605417236328125,0.34987306594848633,-0.780380368232727,0.08429940044879913
1702153587519409400,5.622409423828125,0.14966198801994324,-0.35262197256088257,0.08949175477027893
1702153587536400100,5.639400146484375,-0.058184914290905,-0.2050980031490326,-0.03726277872920036
1702153587553391000,5.65639111328125,-0.06704246252775192,-0.517861008644104,-0.17180584371089935
1702153587570374100,5.6733740234375,-0.15775595605373383,-1.1374311447143555,-0.5503895878791809
1702153587587376000,5.690376220703125,-0.4792237877845764,-1.4753923416137695,-0.7547240257263184
1702153587604368600,5.70736865234375,-0.5557346343994141,-1.189354658126831,-0.5972734689712524
1702153587621357000,5.724357177734375,-0.31612277030944824,-0.5777258276939392,-0.32910364866256714
1702153587638348800,5.741348876953125,0.02779436856508255,0.03894266113638878,-0.10842858254909515
1702153587655340800,5.7583408203125,0.04489859566092491,0.29764407873153687,-0.1362229436635971
1702153587672331800,5.775331787109375,-0.24587325751781464,0.1647808998823166,-0.2623666226863861
1702153587689322500,5.792322509765625,-0.3546072840690613,0.009621127508580685,-0.1368338167667389
1702153587706314800,5.809314697265625,-0.19776763021945953,-0.13240504264831543,0.02535090781748295
1702153587723304400,5.826304443359375,0.16004669666290283,-0.13301590085029602,-0.010537425056099892
1702153587740289000,5.8432890625,0.45921793580055237,-0.24984388053417206,-0.1592831164598465
1702153587757288400,5.860288330078125,0.5352706909179688,-0.3672827184200287,-0.21410827338695526
1702153587774280400,5.877280517578125,0.40775254368782043,-0.45463645458221436,-0.1823432743549347
1702153587791272200,5.894272216796875,0.16294831037521362,-0.5392413139343262,-0.08979719132184982
1702153587808263200,5.91126318359375,-0.0328340083360672,-0.42409318685531616,-0.005497787147760391
1702153587825254100,5.928254150390625,-0.06673702597618103,-0.206777885556221,-0.030695978552103043
1702153587842246100,5.94524609375,0.010537425056099892,-0.04153883829712868,-0.0024434609804302454
1702153587859238100,5.962238037109375,0.17547103762626648,0.10186178237199783,0.09728029370307922
1702153587876229000,5.97922900390625,0.38698312640190125,0.1033889427781105,0.13759739696979523
1702153587893219800,5.9962197265625,0.5149593949317932,-0.05451972410082817,0.14966198801994324
1702153587910211800,6.0132119140625,0.5361869931221008,-0.31444287300109863,0.13820825517177582
1702153587927203800,6.030203857421875,0.4579962193965912,-0.2945897579193115,0.1592831164598465
1702153587944194800,6.04719482421875,0.3576616048812866,0.03039054572582245,0.22800545394420624
1702153587961185800,6.064185791015625,0.36102136969566345,0.2848159074783325,0.327729195356369
1702153587978177500,6.081177490234375,0.48915034532546997,0.36651915311813354,0.42012256383895874
1702153587995160800,6.098160888671875,0.6348416805267334,0.275958389043808,0.4401284158229828
1702153588012153600,6.115153564453125,0.6546948552131653,0.18387043476104736,0.3856086730957031
1702153588029143000,6.13214306640625,0.5598580241203308,0.22388210892677307,0.4095851480960846
1702153588046143500,6.1491435546875,0.5613851547241211,0.451582133769989,0.5239696502685547
1702153588063135500,6.166135498046875,0.6328563690185547,0.4528038501739502,0.5416847467422485
1702153588080126200,6.183126220703125,0.7638869881629944,0.4717406928539276,0.44837507605552673
1702153588097117200,6.2001171875,0.7105889916419983,0.3058907687664032,0.13759739696979523
1702153588114109200,6.217109130859375,0.632398247718811,0.256868839263916,0.07590000331401825
1702153588131101200,6.23410107421875,0.7415903806686401,0.30573806166648865,0.2577851414680481
1702153588148092200,6.251092041015625,0.8436049222946167,0.3202461004257202,0.4564690589904785
1702153588165083100,6.268083251953125,0.9221010804176331,0.3390302062034607,0.5546656250953674
1702153588182075100,6.2850751953125,0.8575021028518677,0.24007004499435425,0.49128836393356323
1702153588199067000,6.30206689453125,0.6563746929168701,0.2405281960964203,0.3127630054950714
1702153588216057900,6.319057861328125,0.48609602451324463,0.2860376536846161,0.0988074541091919
1702153588233049000,6.336049072265625,0.39095374941825867,0.29275718331336975,0.14278975129127502
1702153588250045700,6.353045654296875,0.3634648323059082,0.39248090982437134,0.42378777265548706
1702153588267032800,6.37003271484375,0.413097620010376,0.46868637204170227,0.5821545720100403
1702153588284022000,6.38702197265625,0.4343251883983612,0.4763221740722656,0.5349652171134949
1702153588301014800,6.404014892578125,0.3830125033855438,0.37430769205093384,0.3920227587223053
1702153588318006500,6.421006591796875,0.25595253705978394,0.17928895354270935,0.3228422701358795
1702153588334996200,6.437996337890625,0.2370157092809677,0.35521814227104187,0.3523165285587311
1702153588351991600,6.454991455078125,0.27061331272125244,0.6130032539367676,0.3969096839427948
1702153588368983300,6.4719833984375,0.3550654351711273,0.6201809644699097,0.39125919342041016
1702153588385972200,6.48897216796875,0.3326161205768585,0.22159136831760406,0.3349068760871887
1702153588402964200,6.505964111328125,0.23884831368923187,0.10384709388017654,0.3646865487098694
1702153588419961600,6.522961669921875,0.1212567538022995,0.4911356568336487,0.22418753802776337
1702153588436946200,6.5399462890625,0.09208793938159943,0.892779529094696,-0.1111774742603302
1702153588453938000,6.55693798828125,0.29657506942749023,0.630871057510376,-0.14828753471374512
1702153588470930000,6.573929931640625,0.44180828332901,-0.06734789162874222,0.24205535650253296
1702153588487921000,6.5909208984375,0.43646320700645447,-0.26419922709465027,0.560468852519989
1702153588504912000,6.607911865234375,0.37720927596092224,-0.029626963660120964,0.4628831446170807
1702153588521903900,6.62490380859375,0.31642818450927734,0.05757404863834381,0.13439035415649414
1702153588538896100,6.641896240234375,0.13668109476566315,-0.03726277872920036,-0.09911288321018219
1702153588555886600,6.658886474609375,-0.13347405195236206,-0.06001751124858856,-0.18707747757434845
1702153588572877800,6.6758779296875,-0.337503045797348,0.06230825558304787,-0.29856038093566895
1702153588589866000,6.692865966796875,-0.4129449129104614,0.1915062516927719,-0.3396410644054413
1702153588606862600,6.709862548828125,-0.3530801236629486,0.12797626852989197,-0.18066339194774628
1702153588623854600,6.7268544921875,-0.24174992740154266,-0.11453723162412643,0.03405573591589928
1702153588640843300,6.74384326171875,-0.16752979159355164,-0.21242839097976685,0.04795292019844055
1702153588657835300,6.760835205078125,-0.15500704944133759,-0.0006108652451075613,-0.07895433157682419
1702153588674824700,6.77782470703125,-0.08918632566928864,0.04948008432984352,-0.1488984078168869
1702153588691820800,6.79482080078125,-0.11530081182718277,-0.2399173229932785,-0.17898350954055786
1702153588708798500,6.811798583984375,-0.22831088304519653,-0.38759398460388184,-0.17150041460990906
1702153588725801200,6.82880126953125,-0.36071592569351196,-0.2770273983478546,-0.22876903414726257
1702153588742793000,6.84579296875,-0.45692721009254456,-0.2590068578720093,-0.3321579694747925
1702153588759784400,6.862784423828125,-0.44364088773727417,-0.3013092875480652,-0.2791654169559479
1702153588776775000,6.87977490234375,-0.5077817440032959,-0.23579397797584534,-0.17852537333965302
1702153588793767000,6.896766845703125,-0.6209444999694824,-0.18784105777740479,-0.1085812970995903
1702153588810759000,6.913759033203125,-0.6075055003166199,-0.26511552929878235,-0.11255192011594772
1702153588827752400,6.93075244140625,-0.4360050559043884,-0.26053401827812195,-0.2226603776216507
1702153588844730600,6.947730712890625,-0.08246681094169617,-0.12568552792072296,-0.36331209540367126
1702153588861744400,6.964744384765625,0.21135938167572021,-0.37110063433647156,-0.4645630121231079
1702153588878724900,6.981724853515625,0.30543261766433716,-0.6126978397369385,-0.36590829491615295
1702153588895715800,6.9987158203125,0.17562375962734222,-0.5120577812194824,-0.38637226819992065
1702153588912706300,7.015706298828125,-0.028405234217643738,-0.25824329257011414,-0.6319400668144226
1702153588929698600,7.032698486328125,-0.22510384023189545,-0.32879820466041565,-0.6846272349357605
1702153588946690300,7.049690185546875,-0.12797626852989197,-0.7214318513870239,-0.2825251817703247
1702153588963681500,7.066681640625,0.03344487398862839,-0.8854491710662842,0.09972374886274338
1702153588980672300,7.08367236328125,0.11804971098899841,-0.42042800784111023,0.15271630883216858
1702153588997664300,7.100664306640625,0.06734789162874222,-0.06322455406188965,-0.09682214260101318
1702153589014656300,7.11765625,-0.001832595793530345,-0.2269364446401596,-0.12858712673187256
1702153589031647200,7.134647216796875,-0.24724771082401276,-0.5984952449798584,0.02122756652534008
1702153589048638000,7.151637939453125,-0.395077109336853,-0.5285511612892151,0.004581489134579897
1702153589065619500,7.168619384765625,-0.2538145184516907,-0.14385876059532166,-0.0679587572813034
1702153589082622000,7.1856220703125,0.13561208546161652,-0.05360342562198639,0.056810468435287476
1702153589099613000,7.202613037109375,0.39996400475502014,-0.2612976133823395,0.266642689704895
1702153589116604000,7.21960400390625,0.1713477075099945,-0.5283984541893005,0.18906278908252716
1702153589133596000,7.236595947265625,-0.24846944212913513,-0.31581732630729675,-0.13087788224220276
1702153589150588000,7.253587890625,-0.44654250144958496,0.10094548016786575,-0.32528573274612427
1702153589167579000,7.270578857421875,-0.2765692472457886,0.256868839263916,-0.22968533635139465
1702153589184569600,7.287569580078125,0.18860463798046112,-0.12721268832683563,-0.035582900047302246
1702153589201561600,7.3045615234375,0.4282165467739105,-0.788627028465271,0.021074850112199783
1702153589218553600,7.3215537109375,0.2301434874534607,-1.15178644657135,-0.1518000066280365
1702153589235544600,7.338544677734375,-0.18157969415187836,-0.9595165848731995,-0.43127086758613586
1702153589252535600,7.35553564453125,-0.4262312352657318,-0.6352998614311218,-0.6637051105499268
1702153589269524000,7.37252392578125,-0.40393465757369995,-0.5378668308258057,-0.755793035030365
1702153589286523000,7.38952294921875,-0.4124867618083954,-0.4155410826206207,-0.7528914213180542
1702153589303499500,7.40649951171875,-0.26022860407829285,-0.3234531581401825,-0.5874996781349182
1702153589320501200,7.423501220703125,-0.12431107461452484,-0.40454551577568054,-0.45066583156585693
1702153589337493200,7.4404931640625,-0.03726277872920036,-0.4355469346046448,-0.3378084897994995
1702153589354485000,7.457485107421875,0.17867808043956757,-0.3686571717262268,-0.2921462953090668
1702153589371476000,7.47447607421875,0.3107776939868927,-0.3695734739303589,-0.34956762194633484
1702153589388467000,7.491467041015625,0.2554943859577179,-0.34345898032188416,-0.2736676335334778
1702153589405459500,7.50845947265625,0.24663683772087097,-0.3013092875480652,0.03375030308961868
1702153589422451000,7.525450927734375,0.30283644795417786,-0.2565633952617645,0.15363261103630066
1702153589439442000,7.54244189453125,0.351400226354599,-0.29306259751319885,0.09926560521125793
1702153589456417300,7.559417236328125,0.303600013256073,-0.32391130924224854,-0.026419922709465027
1702153589473423400,7.57642333984375,0.16172657907009125,-0.4288274049758911,-0.19226983189582825
1702153589490418000,7.59341796875,-0.0064140851609408855,-0.5093088746070862,-0.1463022232055664
1702153589507407600,7.61040771484375,-0.08155050873756409,-0.4434881806373596,-0.028405234217643738
1702153589524396300,7.627396240234375,-0.004123340360820293,-0.3393356502056122,-0.06368270516395569
1702153589541390600,7.644390625,0.08781187981367111,-0.24266621470451355,-0.07360926270484924
1702153589558382600,7.661382568359375,0.17058411240577698,-0.2165517359972,-0.011759156361222267
1702153589575370800,7.678370849609375,0.1966986060142517,-0.26542094349861145,0.039248090237379074
1702153589592356600,7.695356689453125,0.18478673696517944,-0.33689218759536743,0.0679587572813034
1702153589609356300,7.712356201171875,0.16539175808429718,-0.3173444867134094,0.10735956579446793
1702153589626345700,7.729345703125,0.22250767052173615,-0.21868975460529327,0.14187344908714294
1702153589643341800,7.746341796875,0.3243694305419922,-0.0806342139840126,0.15592335164546967
1702153589660329700,7.763329833984375,0.3680463135242462,0.05543602257966995,0.21594086289405823
1702153589677322500,7.780322509765625,0.342237263917923,0.11392636597156525,0.27840182185173035
1702153589694311400,7.7973115234375,0.33047810196876526,0.11331550031900406,0.30283644795417786
1702153589711307500,7.8143076171875,0.3770565688610077,0.022907447069883347,0.2580905556678772
1702153589728293400,7.83129345703125,0.5120577812194824,-0.23747386038303375,0.2002110779285431
1702153589745290800,7.848290771484375,0.5761986374855042,-0.19776763021945953,0.22602014243602753
1702153589762280000,7.865280029296875,0.5810855627059937,0.023060163483023643,0.24724771082401276
1702153589779270400,7.8822705078125,0.4349360466003418,0.2142609804868698,0.3582724630832672
1702153589796262100,7.89926220703125,0.2165517359972,0.26832255721092224,0.4999932050704956
1702153589813254000,7.91625390625,0.12965615093708038,0.36789360642433167,0.5693264007568359
1702153589830245600,7.93324560546875,0.28955012559890747,0.5349652171134949,0.589790403842926
1702153589847236600,7.950236572265625,0.5262604355812073,0.6820310354232788,0.603076696395874
1702153589864227600,7.9672275390625,0.6991352438926697,0.7305948138237,0.6429356932640076
1702153589881219300,7.98421923828125,0.7533495426177979,0.7615962624549866,0.7072292566299438
1702153589898211600,8.001211669921876,0.6395758986473083,0.7353290319442749,0.7716755270957947
1702153589915202300,8.018202392578125,0.4236350357532501,0.522595226764679,0.8087855577468872
1702153589932193300,8.035193359375,0.21884247660636902,0.5351179838180542,0.8063421249389648
1702153589949174800,8.0521748046875,0.09789115190505981,0.8472700715065002,0.7072292566299438
1702153589966177500,8.069177490234376,0.18799377977848053,1.0995573997497559,0.6356052756309509
1702153589983168300,8.086168212890625,0.3813326358795166,0.7820602059364319,0.6644686460494995
1702153590000159200,8.1031591796875,0.4674646258354187,0.3139847218990326,0.7910705208778381
1702153590017151000,8.12015087890625,0.4300491213798523,0.012217304669320583,0.6882924437522888
1702153590034143000,8.13714306640625,0.0705549344420433,0.005192354787141085,0.30024027824401855
1702153590051134000,8.154134033203125,-0.20387627184391022,0.41202861070632935,0.12324206531047821
1702153590068125200,8.171125244140624,-0.032681290060281754,0.6073527932167053,0.1976149082183838
1702153590085117000,8.188116943359375,0.30543261766433716,0.6172793507575989,0.2736676335334778
1702153590102108700,8.205108642578125,0.47418415546417236,0.47601673007011414,0.10491610318422318
1702153590119100000,8.222099853515624,0.2015855312347412,0.8694139719009399,-0.10170906037092209
1702153590136090000,8.239090087890625,-0.2588541507720947,1.126282811164856,-0.3956879675388336
1702153590153083000,8.256082763671875,-0.04535674303770065,0.8610145449638367,-0.2718350291252136
1702153590170074600,8.27307470703125,0.5688682794570923,0.2834414839744568,0.14553864300251007
1702153590187065600,8.290065673828124,0.9611964821815491,-0.04566217586398125,0.34406983852386475
1702153590204046000,8.307046142578125,0.721737265586853,0.6348416805267334,0.32818734645843506
1702153590221048600,8.324048583984375,0.09636399149894714,1.3339769840240479,0.3101668357849121
1702153590238029800,8.34102978515625,-0.16982053220272064,1.4811954498291016,0.5070181488990784
1702153590255031300,8.35803125,-0.19685132801532745,1.006400465965271,0.5699372887611389
1702153590272022300,8.375022216796875,-0.164170041680336,0.5780312418937683,0.39477166533470154
1702153590289009400,8.392009521484376,-0.07651086896657944,0.35873061418533325,-0.008704829961061478
1702153590306004700,8.409004638671876,-0.25992316007614136,0.5125159621238708,-0.19074267148971558
1702153590322998800,8.425998779296876,-0.4651738703250885,0.6479753255844116,0.009010262787342072
1702153590339988000,8.442988037109375,-0.44089198112487793,0.5108360648155212,0.3016147017478943
1702153590356980000,8.45997998046875,-0.25564709305763245,0.44104471802711487,0.4662429094314575
1702153590373972000,8.476971923828126,-0.055283304303884506,0.5396994352340698,0.3640756905078888
1702153590390960400,8.49396044921875,-0.007024950347840786,0.46441030502319336,0.09498954564332962
1702153590407947800,8.51094775390625,0.04917465150356293,0.043218716979026794,-0.04841107130050659
1702153590424946000,8.52794580078125,0.012980886735022068,-0.3660610020160675,0.010995574295520782
1702153590441935400,8.544935302734375,-0.11575896292924881,-0.3098613917827606,0.16493362188339233
1702153590458931200,8.56193115234375,-0.2041817009449005,-0.027030786499381065,0.13561208546161652
1702153590475919600,8.578919677734374,-0.2070833146572113,0.10735956579446793,-0.04459316283464432
1702153590492911600,8.59591162109375,-0.15546520054340363,0.04535674303770065,-0.19685132801532745
1702153590509903600,8.612903564453125,-0.1319468915462494,-0.19517144560813904,-0.26862800121307373
1702153590526894600,8.62989453125,-0.2638937830924988,-0.3672827184200287,-0.29504790902137756
1702153590543885300,8.64688525390625,-0.532369077205658,-0.14416420459747314,-0.27061331272125244
1702153590560877600,8.663877685546876,-0.6711881756782532,0.10705413669347763,-0.21960605680942535
1702153590577869300,8.680869384765625,-0.6542366743087769,-0.0507018156349659,-0.17562375962734222
1702153590594860300,8.6978603515625,-0.5832235813140869,-0.3335324227809906,-0.14767667651176453
1702153590611851000,8.71485107421875,-0.470060795545578,-0.4363104999065399,-0.21410827338695526
1702153590628843300,8.73184326171875,-0.49953505396842957,-0.2866485118865967,-0.38637226819992065
1702153590645835300,8.748835205078125,-0.655458390712738,-0.14828753471374512,-0.5062545537948608
1702153590662826000,8.765825927734374,-0.6811147332191467,-0.3191770911216736,-0.389426589012146
1702153590679816700,8.782816650390625,-0.6094908118247986,-0.6214026808738708,-0.1270599663257599
1702153590696809500,8.7998095703125,-0.48059824109077454,-0.8159632682800293,-0.07773260027170181
1702153590713801000,8.816801025390625,-0.45142942667007446,-0.6753115057945251,-0.24663683772087097
1702153590730792000,8.8337919921875,-0.5155702829360962,-0.3891211748123169,-0.34895676374435425
1702153590747782700,8.85078271484375,-0.5627595782279968,-0.36789360642433167,-0.28038713335990906
1702153590764770800,8.867770751953126,-0.644768238067627,-0.6491970419883728,-0.1270599663257599
1702153590781766700,8.8847666015625,-0.6427829265594482,-0.8823948502540588,-0.0734565481543541
1702153590798758000,8.9017578125,-0.5535966157913208,-0.9443976879119873,-0.15302173793315887
1702153590815748600,8.91874853515625,-0.566730260848999,-0.816421389579773,-0.18616119027137756
1702153590832740600,8.93574072265625,-0.6244570016860962,-0.7764097452163696,-0.029016099870204926
1702153590849732600,8.952732666015624,-0.6508769392967224,-0.7012733221054077,0.2623666226863861
1702153590866706200,8.9697060546875,-0.5881105065345764,-0.45631635189056396,0.3839288055896759
1702153590883715600,8.986715576171875,-0.4951062798500061,-0.06322455406188965,0.18066339194774628
1702153590900705000,9.003705078125,-0.33139440417289734,0.01878410577774048,-0.09987647086381912
1702153590917688300,9.020688232421875,-0.17669276893138885,-0.36483925580978394,-0.047189339995384216
1702153590934689300,9.037689208984375,-0.11621711403131485,-0.8068002462387085,0.2538145184516907
1702153590951680300,9.05468017578125,-0.055741455405950546,-0.8072584271430969,0.39538252353668213
1702153590968672300,9.07167236328125,0.03481931984424591,-0.33505958318710327,0.34376442432403564
1702153590985664300,9.088664306640625,0.08689557760953903,-0.013286318629980087,0.16279558837413788
1702153591002652400,9.10565234375,0.07422012835741043,-0.10995574295520782,0.009010262787342072
1702153591019646000,9.12264599609375,-0.13820825517177582,-0.5597052574157715,-0.10781771689653397
1702153591036638000,9.139637939453126,-0.4697553813457489,-0.7417431473731995,-0.06352998316287994
1702153591053630000,9.1566298828125,-0.5850561857223511,-0.5603161454200745,-0.0010690141934901476
1702153591070621000,9.173620849609375,-0.35674530267715454,-0.17699819803237915,0.045204028487205505
1702153591087612000,9.19061181640625,0.08414668589830399,-0.1598939746618271,0.03405573591589928
1702153591104603600,9.207603759765625,0.15806138515472412,-0.21792617440223694,0.07391469180583954
1702153591121595600,9.224595703125,-0.08170322328805923,-0.22449298202991486,0.11499538272619247
1702153591138586600,9.241586669921874,-0.3445279896259308,-0.09789115190505981,0.053297992795705795
1702153591155577600,9.25857763671875,-0.3666718602180481,-0.048105638474226,-0.0731511116027832
1702153591172569300,9.2755693359375,-0.026572637259960175,-0.1264491081237793,-0.1992947906255722
1702153591189561600,9.2925615234375,0.3274237811565399,-0.19318613409996033,-0.26145032048225403
1702153591206549800,9.3095498046875,0.3995058834552765,0.10995574295520782,-0.22479841113090515
1702153591223546000,9.326546142578126,0.18906278908252716,0.4167627990245819,-0.3162754774093628
1702153591240531700,9.34353173828125,-0.02672535367310047,0.37598755955696106,-0.3747658133506775
1702153591257519000,9.36051904296875,-0.04948008432984352,-0.04764748737215996,-0.46379944682121277
1702153591274518300,9.377518310546876,-0.11988230794668198,-0.3804163336753845,-0.6777549982070923
1702153591291509200,9.39450927734375,-0.2837468981742859,-0.3956879675388336,-0.8174903988838196
1702153591308498000,9.411497802734376,-0.432645320892334,-0.22342395782470703,-0.7709119319915771
1702153591325496300,9.428496337890625,-0.4888449013233185,-0.23365595936775208,-0.7640396952629089
1702153591342484000,9.44548388671875,-0.541532039642334,-0.34345898032188416,-0.7388415336608887
1702153591359475200,9.46247509765625,-0.6388123035430908,-0.5603161454200745,-0.6711881756782532
1702153591376467000,9.479467041015624,-0.6609562039375305,-0.5167919993400574,-0.38117989897727966
1702153591393459000,9.496458984375,-0.5670356750488281,-0.14508049190044403,-0.07254024595022202
1702153591410450000,9.513449951171875,-0.36193767189979553,0.2197587788105011,-0.08292495459318161
1702153591427430100,9.53043017578125,-0.15577064454555511,0.23716843128204346,-0.19776763021945953
1702153591444430000,9.54743017578125,-0.054825156927108765,-0.06582073122262955,-0.27030786871910095
1702153591461423600,9.564423583984375,-0.09208793938159943,-0.3666718602180481,-0.3182607889175415
1702153591478419200,9.581419189453126,-0.17256943881511688,-0.3349068760871887,-0.22281309962272644
1702153591495409700,9.59840966796875,-0.09422596544027328,-0.09147707372903824,0.004734205547720194
1702153591512395500,9.6153955078125,0.05757404863834381,0.12339477986097336,0.1511891484260559
1702153591529380900,9.632380859375,0.08124507963657379,0.27718010544776917,0.11988230794668198
1702153591546381000,9.649381103515625,0.03787364438176155,0.2860376536846161,-0.04138612002134323
1702153591563372300,9.666372314453126,-0.06780604273080826,0.12476922571659088,-0.12690725922584534
1702153591580364300,9.6833642578125,-0.11927144229412079,0.0503963828086853,-0.06123924255371094
1702153591597356300,9.700356201171875,-0.005650503560900688,0.08964447677135468,0.032681290060281754
1702153591614343200,9.71734326171875,0.17256943881511688,0.08597928285598755,0.06505715101957321
1702153591631338200,9.734338134765625,0.24434609711170197,0.0731511116027832,0.08643743395805359
1702153591648330000,9.751330078125,0.17608191072940826,0.060933809727430344,0.09025534242391586
1702153591665311500,9.7683115234375,0.07987063378095627,0.05467243865132332,0.14385876059532166
1702153591682313000,9.78531298828125,-0.0007635815418325365,0.1238529309630394,0.24266621470451355
1702153591699304000,9.802303955078125,0.001832595793530345,0.27091872692108154,0.3217732608318329
1702153591716296000,9.8192958984375,0.1739438772201538,0.41691553592681885,0.3507893681526184
1702153591733285600,9.83628564453125,0.4738787114620209,0.32421672344207764,0.432645320892334
1702153591750281200,9.85328125,0.7509061098098755,0.23808473348617554,0.5439754724502563
1702153591767283200,9.870283203125,0.7014260292053223,0.3136793076992035,0.5797111392021179
1702153591784262000,9.887261962890625,0.5429064631462097,0.4573853611946106,0.5670356750488281
1702153591801253600,9.904253662109374,0.48548516631126404,0.5088507533073425,0.5280929803848267
1702153591818244600,9.92124462890625,0.5441282391548157,0.3851505517959595,0.47311514616012573
1702153591835235600,9.938235595703125,0.619111955165863,0.1765400618314743,0.4378376603126526
1702153591852227300,9.955227294921874,0.5346598029136658,0.13439035415649414,0.4893030524253845
1702153591869219600,9.972219482421876,0.4153883755207062,0.29184088110923767,0.5146539807319641
1702153591886208500,9.98920849609375,0.4178318381309509,0.42791110277175903,0.48456886410713196
1702153591903203300,10.006203369140625,0.4766276180744171,0.4430300295352936,0.4593706727027893
1702153591920193300,10.023193359375,0.5505422949790955,0.3081815242767334,0.31841349601745605
1702153591937185000,10.04018505859375,0.6759223937988281,0.18035796284675598,0.3523165285587311
1702153591954176300,10.05717626953125,0.7278459668159485,0.20204368233680725,0.5128213763237
1702153591971173600,10.074173583984376,0.6783658266067505,0.3338378667831421,0.55069500207901
1702153591988156400,10.091156494140625,0.6012440919876099,0.5584835410118103,0.37308594584465027
1702153592005153800,10.10815380859375,0.5681046843528748,0.41370847821235657,0.0861319974064827
1702153592022142000,10.125141845703125,0.6288857460021973,0.2321287989616394,0.18738290667533875
1702153592039133000,10.1421328125,0.6985244154930115,0.2987131178379059,0.4415028691291809
1702153592056124700,10.159124755859375,0.6562219858169556,0.6482807397842407,0.5083925724029541
1702153592073106400,10.1761064453125,0.6155994534492493,0.8023715019226074,0.22999076545238495
1702153592090108000,10.19310791015625,0.6850853562355042,0.3462078869342804,-0.14355333149433136
1702153592107098600,10.2100986328125,0.4294382631778717,-0.26083946228027344,-0.2255619913339615
1702153592124091000,10.2270908203125,0.06185010448098183,0.021838432177901268,-0.07330382615327835
1702153592141082600,10.24408251953125,-0.05009094998240471,0.6994407176971436,0.0010690141934901476
1702153592158073600,10.261073486328126,0.21624629199504852,0.9086620807647705,0.06536258012056351
1702153592175064300,10.278064208984375,0.5360342264175415,0.41523563861846924,0.1414152979850769
1702153592192056600,10.295056640625,0.702800452709198,-0.043676864355802536,0.17852537333965302
1702153592209048600,10.312048583984375,0.6235406994819641,-0.30115658044815063,0.0074830991216003895
1702153592226039300,10.329039306640626,0.35643985867500305,-0.15057829022407532,-0.07116580009460449
1702153592243030300,10.3460302734375,0.09896016865968704,0.11911872029304504,0.02977968007326126
1702153592260022300,10.363022216796875,0.09636399149894714,0.3243694305419922,0.17531833052635193
1702153592277014500,10.3800146484375,0.27122417092323303,0.2701551616191864,0.31352660059928894
1702153592294005200,10.397005126953125,0.408363401889801,0.14477506279945374,0.4375322461128235
1702153592310996000,10.413995849609375,0.4772384762763977,-0.027947084978222847,0.38209620118141174
1702153592327988200,10.43098828125,0.3778201639652252,0.08521570265293121,0.32788193225860596
1702153592344980200,10.447980224609376,0.19578230381011963,0.2070833146572113,0.20876319706439972
1702153592361971000,10.464970947265625,0.098502017557621,0.24724771082401276,0.12110403180122375
1702153592378962000,10.4819619140625,0.007635815534740686,0.11591167747974396,0.15225815773010254
1702153592395943200,10.498943115234376,-0.08552113175392151,-0.024892758578062057,0.244804248213768
1702153592412946000,10.51594580078125,-0.2405281960964203,0.05955936014652252,0.20861047506332397
1702153592429936600,10.5329365234375,-0.4069889783859253,0.2970332205295563,0.014508049935102463
1702153592446932200,10.54993212890625,-0.4567744731903076,0.35811975598335266,-0.17669276893138885
1702153592463919600,10.566919677734376,-0.3396410644054413,0.002138028386980295,-0.37461310625076294
1702153592480911600,10.58391162109375,-0.23029619455337524,-0.3504839241504669,-0.4358523488044739
1702153592497902600,10.600902587890625,-0.4433354437351227,-0.3732386529445648,-0.379652738571167
1702153592514893600,10.6178935546875,-0.7970264554023743,-0.027641652151942253,-0.3358231782913208
1702153592531885600,10.634885498046875,-1.01617431640625,0.1667662113904953,-0.2886338233947754
1702153592548877300,10.651877197265625,-0.965319812297821,-0.11041389405727386,-0.2073887437582016
1702153592565868500,10.66886865234375,-0.6285803318023682,-0.4124867618083954,-0.058337632566690445
1702153592582859300,10.685859375,-0.3744603991508484,-0.5181664228439331,-0.03344487398862839
1702153592599844600,10.7028447265625,-0.33169981837272644,-0.13148874044418335,-0.11285735666751862
1702153592616843300,10.71984326171875,-0.4337143301963806,0.18784105777740479,-0.20082195103168488
1702153592633834200,10.736834228515624,-0.44623705744743347,0.013133603148162365,-0.10323622822761536
1702153592650825200,10.7538251953125,-0.4389066696166992,-0.4521929919719696,0.012217304669320583
1702153592667814000,10.77081396484375,-0.4550946056842804,-0.7278459668159485,-0.10537425428628922
1702153592684812300,10.787812255859375,-0.4576907753944397,-0.4732678532600403,-0.37201693654060364
1702153592701797400,10.80479736328125,-0.49327367544174194,-0.16065755486488342,-0.5728389024734497
1702153592718793500,10.82179345703125,-0.49525898694992065,-0.05375614017248154,-0.47250425815582275
1702153592735782700,10.83878271484375,-0.5467243790626526,-0.11239920556545258,-0.2721404731273651
1702153592752775000,10.85577490234375,-0.5528330206871033,-0.031001411378383636,-0.2799290120601654
1702153592769767000,10.872766845703126,-0.5913175344467163,0.18157969415187836,-0.637132465839386
1702153592786756900,10.8897568359375,-0.7351763248443604,0.041233405470848083,-1.0644327402114868
1702153592803748600,10.90674853515625,-0.8068002462387085,-0.46181413531303406,-1.017701506614685
1702153592820740600,10.92374072265625,-0.7428121566772461,-0.9445503950119019,-0.5855143666267395
1702153592837730600,10.94073046875,-0.7221954464912415,-0.7872526049613953,-0.3527746796607971
1702153592854722600,10.95772265625,-0.7244861721992493,0.058337632566690445,-0.43905940651893616
1702153592871703800,10.974703857421876,-0.4810563921928406,0.5349652171134949,-0.5542075037956238
1702153592888706300,10.991706298828126,-0.2405281960964203,0.17730364203453064,-0.36392298340797424
1702153592905697500,11.008697509765625,-0.3098613917827606,-0.42302417755126953,-0.1134682223200798
1702153592922688000,11.02568798828125,-0.5170974135398865,-0.2562579810619354,-0.22250767052173615
1702153592939680300,11.04268017578125,-0.6339253783226013,0.2165517359972,-0.5729916095733643
1702153592956672300,11.05967236328125,-0.4005748927593231,0.4859432876110077,-0.5371032953262329
1702153592973663200,11.076663330078125,-0.06582073122262955,0.256868839263916,-0.3029891550540924
1702153592990654000,11.093654052734376,0.0019853119738399982,-0.1739438772201538,-0.12736541032791138
1702153593007646000,11.11064599609375,-0.12232576310634613,-0.14263702929019928,-0.18875735998153687
1702153593024634400,11.12763427734375,-0.28909197449684143,0.12889257073402405,-0.4915938079357147
1702153593041629400,11.14462939453125,-0.17058411240577698,0.08750644326210022,-0.6640105247497559
1702153593058620000,11.161619873046876,0.09483683109283447,-0.1814269721508026,-0.6423248052597046
1702153593075611600,11.178611572265625,-0.02367102913558483,-0.16814066469669342,-0.6230825781822205
1702153593092604000,11.19560400390625,-0.4879286289215088,0.13408492505550385,-0.46211954951286316
1702153593109594600,11.2125947265625,-0.8776606321334839,0.48640143871307373,-0.260992169380188
1702153593126583000,11.2295830078125,-0.9462302923202515,0.6027712821960449,-0.2716823220252991
1702153593143580400,11.246580322265626,-0.7305948138237,0.2739730477333069,-0.3741549551486969
1702153593160569300,11.2635693359375,-0.3744603991508484,-0.37400224804878235,-0.40103304386138916
1702153593177560600,11.280560546875,-0.09514226019382477,-0.503963828086853,-0.26603180170059204
1702153593194551300,11.29755126953125,-0.007941247895359993,-0.19685132801532745,-0.17989981174468994
1702153593211543300,11.314543212890625,-0.0933096632361412,0.02229658141732216,-0.16050484776496887
1702153593228535300,11.331535400390624,-0.28878653049468994,0.00045814894838258624,-0.17928895354270935
1702153593245526300,11.3485263671875,-0.44226643443107605,-0.17440202832221985,-0.24724771082401276
1702153593262517500,11.365517578125,-0.4512766897678375,-0.2845104932785034,-0.31810808181762695
1702153593279509000,11.382509033203124,-0.3588833212852478,-0.3191770911216736,-0.32528573274612427
1702153593296513800,11.399513671875,-0.28985556960105896,-0.3523165285587311,-0.2330450862646103
1702153593313492000,11.416491943359375,-0.15851953625679016,-0.3481931984424591,-0.1820378452539444
1702153593330483000,11.43348291015625,-0.06918048858642578,-0.3582724630832672,-0.15103642642498016
1702153593347475000,11.450474853515624,-0.021532999351620674,-0.4749477207660675,0.25595253705978394
1702153593364467000,11.467467041015626,0.014202617108821869,-0.25106561183929443,0.2880229651927948
1702153593381458000,11.4844580078125,0.006872233934700489,-0.01710422709584236,0.04184427112340927
1702153593398449000,11.501448974609374,-0.0024434609804302454,0.001527163083665073,-0.04444044828414917
1702153593415438800,11.51843896484375,0.02977968007326126,-0.15974126756191254,0.02626720629632473
1702153593432434700,11.5354345703125,0.17608191072940826,-0.20143280923366547,0.10384709388017654
1702153593449421800,11.552421875,0.3315471112728119,-0.1592831164598465,0.1293507218360901
1702153593466414800,11.569414794921874,0.3831652104854584,-0.08552113175392151,0.10583240538835526
1702153593483404000,11.586404052734375,0.4179845452308655,-0.1111774742603302,0.08429940044879913
1702153593500391000,11.603390869140625,0.4893030524253845,-0.11560624837875366,0.09407325088977814
1702153593517389600,11.6203896484375,0.49205195903778076,-0.09117163717746735,0.11988230794668198
1702153593534383000,11.637383056640624,0.4170682430267334,-0.027947084978222847,0.13118331134319305
1702153593551367000,11.654366943359374,0.36942076683044434,0.04993823543190956,0.17012597620487213
1702153593568367000,11.6713671875,0.3549126982688904,0.09896016865968704,0.31383201479911804
1702153593585355300,11.688355224609374,0.38148534297943115,0.10170906037092209,0.41599923372268677
1702153593602346200,11.70534619140625,0.42791110277175903,0.06979135423898697,0.39767327904701233
1702153593619338200,11.722338134765625,0.49098294973373413,-0.11636982858181,0.32131510972976685
1702153593636330200,11.739330322265625,0.5791002511978149,-0.2125810980796814,0.3929390609264374
1702153593653321200,11.7563212890625,0.6110179424285889,-0.11575896292924881,0.5091561675071716
1702153593670312000,11.77331201171875,0.535881519317627,0.039706241339445114,0.569631814956665
1702153593687304000,11.790303955078125,0.4311181604862213,0.11239920556545258,0.49098294973373413
1702153593704293600,11.807293701171876,0.31154128909111023,0.12095131725072861,0.39584067463874817
1702153593721289000,11.8242890625,0.3614795207977295,0.10491610318422318,0.33628132939338684
1702153593738277600,11.841277587890625,0.6352998614311218,-0.038026362657547,0.3013092875480652
1702153593755270000,11.858269775390625,0.825584352016449,-0.24434609711170197,0.327729195356369
1702153593772262000,11.875261962890624,0.8678867816925049,-0.18997909128665924,0.4856378734111786
1702153593789252600,11.892252685546875,0.8637634515762329,-0.13805554807186127,0.5772676467895508
1702153593806243600,11.90924365234375,0.8636107444763184,-0.1160643994808197,0.6026185750961304
1702153593823235600,11.926235595703124,0.9222537875175476,-0.15485434234142303,0.3827070891857147
1702153593840227600,11.9432275390625,0.8616254329681396,-0.11010845750570297,0.23716843128204346
1702153593857218600,11.960218505859375,0.6417139172554016,-0.0032070425804704428,0.30695977807044983
1702153593874199000,11.977198974609376,0.3969096839427948,0.16539175808429718,0.4867068827152252
1702153593891201300,11.994201171875,0.4075998365879059,0.304669052362442,0.6113234162330627
1702153593908193300,12.011193359375,0.5441282391548157,0.1774563491344452,0.4888449013233185
1702153593925184300,12.028184326171875,0.5914703011512756,0.044745877385139465,0.20922134816646576
1702153593942175200,12.04517529296875,0.37797287106513977,0.22143864631652832,-0.011453723534941673
1702153593959154000,12.06215380859375,0.29367345571517944,0.46853363513946533,0.08811730891466141
1702153593976159000,12.079158935546875,0.355981707572937,0.31749722361564636,0.3136793076992035
1702153593993150000,12.09614990234375,0.5100724697113037,0.1342376321554184,0.4489859640598297
1702153594010141200,12.11314111328125,0.6580545902252197,-0.09376781433820724,0.34834590554237366
1702153594027133000,12.1301328125,0.5893322229385376,-0.4303545653820038,-0.058948494493961334
1702153594044125000,12.147125,0.11026117950677872,-0.5963571667671204,-0.5616905689239502
1702153594061113000,12.164113037109376,-0.2649627923965454,-0.05604688450694084,-0.4749477207660675
1702153594078109700,12.181109619140624,-0.39538252353668213,0.39584067463874817,-0.05268712714314461
1702153594095098600,12.1980986328125,-0.399200439453125,0.3888157308101654,0.34315356612205505
1702153594112089000,12.215089111328124,-0.327271044254303,0.37858372926712036,0.5864306092262268
1702153594129081300,12.232081298828126,-0.23976461589336395,0.24816401302814484,0.3303253948688507
1702153594146072600,12.249072509765625,-0.3341432809829712,0.04764748737215996,-0.33399057388305664
1702153594163062000,12.26606201171875,-0.3494149148464203,-0.04963280260562897,-0.7238753437995911
1702153594180059100,12.28305908203125,-0.30604347586631775,-0.1281289905309677,-0.5274821519851685
1702153594197040600,12.30004052734375,-0.20387627184391022,-0.08445212244987488,-0.09254608303308487
1702153594214041000,12.317041015625,0.033139441162347794,0.19288070499897003,0.2886338233947754
1702153594231030300,12.3340302734375,0.34987306594848633,0.5342016816139221,0.5384777188301086
1702153594248022500,12.3510224609375,0.45494189858436584,0.6916521787643433,0.5792529582977295
1702153594265020400,12.3680205078125,0.3959933817386627,0.5852088928222656,0.43157628178596497
1702153594282004200,12.385004150390625,0.2886338233947754,0.24174992740154266,0.2906191349029541
1702153594298996200,12.401996337890624,0.14935655891895294,-0.017562376335263252,0.21639901399612427
1702153594315988000,12.418988037109376,-0.05314527451992035,0.16279558837413788,-0.01542434748262167
1702153594332979000,12.43597900390625,-0.17776179313659668,0.6328563690185547,-0.1837177276611328
1702153594349970000,12.452969970703125,-0.2571742534637451,0.7015787363052368,-0.17867808043956757
1702153594366962000,12.4699619140625,-0.484416127204895,0.266184538602829,-0.2321287989616394
1702153594383954000,12.486953857421875,-0.7020368576049805,-0.008399397134780884,-0.40026944875717163
1702153594400942800,12.50394287109375,-0.7890852093696594,0.00366519158706069,-0.6577491760253906
1702153594417937700,12.520937744140625,-0.7903069257736206,0.039706241339445114,-0.8616254329681396
1702153594434917400,12.53791748046875,-0.6649268269538879,-0.1394299864768982,-0.8741481900215149
1702153594451919600,12.554919677734375,-0.5143485069274902,-0.22999076545238495,-0.6174320578575134
1702153594468895000,12.57189501953125,-0.3533855378627777,-0.1921171247959137,-0.3326161205768585
1702153594485901600,12.588901611328126,-0.3016147017478943,-0.18967366218566895,-0.2565633952617645
1702153594502893600,12.6058935546875,-0.2863430976867676,-0.22815817594528198,-0.37537670135498047
1702153594519885300,12.62288525390625,-0.40882155299186707,-0.2525927722454071,-0.570853590965271
1702153594536875000,12.639875,-0.5338962078094482,-0.2782491147518158,-0.7363980412483215
1702153594553866200,12.6568662109375,-0.4918992519378662,-0.25534167885780334,-0.6882924437522888
1702153594570861800,12.67386181640625,-0.4558582007884979,-0.41202861070632935,-0.5297728776931763
1702153594587851300,12.690851318359375,-0.3191770911216736,-0.2906191349029541,-0.33735033869743347
1702153594604842200,12.70784228515625,-0.37079519033432007,-0.3043636083602905,-0.4775438904762268
1702153594621835000,12.7248349609375,-0.5453499555587769,-0.6377432942390442,-0.6850853562355042
1702153594638823000,12.741822998046874,-0.7590000629425049,-0.8663596510887146,-0.7686212062835693
1702153594655826200,12.758826171875,-0.7635815739631653,-0.7108944058418274,-0.7087563872337341
1702153594672808000,12.775807861328126,-0.5664247870445251,-0.6247624158859253,-0.5658139586448669
1702153594689799000,12.792798828125,-0.2272418737411499,-0.23716843128204346,-0.2431243658065796
1702153594706788400,12.809788330078124,-0.27947086095809937,-0.1716531366109848,-0.1866193264722824
1702153594723780400,12.8267802734375,-0.5684100985527039,-0.3758348524570465,-0.18631389737129211
1702153594740775700,12.843775634765626,-0.6327036619186401,-0.4882340431213379,-0.1336267739534378
1702153594757764600,12.8607646484375,-0.4109596014022827,-0.41722095012664795,-0.13408492505550385
1702153594774756600,12.877756591796874,-0.006261368747800589,-0.1469130963087082,-0.027641652151942253
1702153594791748600,12.89474853515625,0.3497203588485718,0.10262536257505417,0.06994406878948212
1702153594808739600,12.911739501953125,0.42638394236564636,0.14767667651176453,0.22098049521446228
1702153594825730600,12.92873046875,0.251676470041275,-0.1082758679986,0.3147483170032501
1702153594842722300,12.945722412109374,0.02580905705690384,-0.30314189195632935,0.2499966025352478
1702153594859714600,12.962714599609376,-0.028557950630784035,-0.033597588539123535,0.1840231567621231
1702153594876705300,12.979705322265625,0.11133018881082535,0.41691553592681885,0.2744311988353729
1702153594893696300,12.9966962890625,0.33567044138908386,0.4360050559043884,0.4265366494655609
1702153594910688000,13.01368798828125,0.39187005162239075,0.013286318629980087,0.5390886068344116
1702153594927680300,13.03068017578125,0.2541199326515198,-0.3116939961910248,0.4642575979232788
1702153594944671200,13.047671142578125,0.0027488935738801956,-0.32986724376678467,0.1014036312699318
1702153594961659600,13.06465966796875,-0.03039054572582245,-0.14156801998615265,-0.11652254313230515
1702153594978656500,13.081656494140624,0.16951510310173035,-0.16844609379768372,-0.02122756652534008
1702153594995634000,13.098634033203124,0.2919935882091522,-0.2961169183254242,0.09269879758358002
1702153595012635000,13.115634765625,0.346818745136261,-0.11407908797264099,0.17898350954055786
1702153595029630000,13.1326298828125,0.2945897579193115,0.006872233934700489,0.15531249344348907
1702153595046602500,13.1496025390625,0.18081611394882202,-0.13057245314121246,-0.004734205547720194
1702153595063609900,13.16660986328125,-0.044287730008363724,-0.1791362315416336,-0.22143864631652832
1702153595080604700,13.183604736328125,-0.31642818450927734,-0.10247264802455902,-0.427452951669693
1702153595097593600,13.200593505859375,-0.43386703729629517,-0.04046982154250145,-0.39614611864089966
1702153595114585600,13.217585693359375,-0.3620903789997101,-0.02382374368607998,-0.20265454053878784
1702153595131577600,13.23457763671875,-0.13897185027599335,-0.02871066704392433,-0.005803219974040985
1702153595148568600,13.251568603515626,-0.038637228310108185,-0.12492194026708603,-0.029016099870204926
1702153595165555200,13.26855517578125,-0.03481931984424591,-0.1589776873588562,-0.22510384023189545
1702153595182546700,13.285546630859375,-0.10415252298116684,-0.31520646810531616,-0.06261368840932846
1702153595199532500,13.302532470703126,-0.04612032696604729,-0.4222606122493744,0.251218318939209
1702153595216534300,13.3195341796875,0.22021691501140594,-0.07513642311096191,0.30634891986846924
1702153595233525200,13.336525146484375,0.399200439453125,0.08017606288194656,0.2275473028421402
1702153595250517200,13.353517333984374,0.39965859055519104,0.12522737681865692,0.24495697021484375
1702153595267500000,13.3705,0.4196644127368927,0.20631973445415497,0.20754146575927734
1702153595284500200,13.387500244140625,0.4294382631778717,0.1621847152709961,0.11438451707363129
1702153595301491000,13.404490966796875,0.4311181604862213,0.02168571576476097,0.07360926270484924
1702153595318483000,13.42148291015625,0.4411974251270294,-0.13225232064723969,0.10537425428628922
1702153595335475000,13.438474853515626,0.4889976382255554,-0.20234911143779755,0.1108720451593399
1702153595352466000,13.4554658203125,0.5552765130996704,-0.2102903574705124,0.09697485715150833
1702153595369457000,13.472456787109374,0.5691736936569214,-0.17409659922122955,0.06994406878948212
1702153595386449000,13.489448974609376,0.5279402732849121,-0.26022860407829285,0.010231993161141872
1702153595403440600,13.506440673828125,0.3568980097770691,-0.3436116874217987,-0.03985895588994026
1702153595420431600,13.523431640625,0.25442537665367126,-0.26481008529663086,-0.011301007121801376
1702153595437422600,13.540422607421876,0.3055853247642517,-0.20112738013267517,0.00733038317412138
1702153595454414600,13.55741455078125,0.3617849349975586,-0.2142609804868698,0.06475171446800232
1702153595471396400,13.574396240234375,0.3712533414363861,-0.28496864438056946,0.11423180252313614
1702153595488397600,13.5913974609375,0.30741792917251587,-0.2200642079114914,0.12293662875890732
1702153595505388300,13.60838818359375,0.25014930963516235,-0.11453723162412643,0.16783522069454193
1702153595522380300,13.62538037109375,0.2756529450416565,-0.07284568250179291,0.2632829248905182
1702153595539372300,13.642372314453125,0.33047810196876526,0.024434609338641167,0.256868839263916
1702153595556363300,13.65936328125,0.41920626163482666,0.048716504126787186,0.2347249686717987
1702153595573354000,13.67635400390625,0.5106833577156067,0.08918632566928864,0.38667771220207214
1702153595590346000,13.693345947265625,0.6230825781822205,0.1595885455608368,0.6201809644699097
1702153595607338000,13.710337890625,0.7211264371871948,0.3179553747177124,0.7629706859588623
1702153595624326400,13.727326416015625,0.7443392872810364,0.50335294008255,0.7237225770950317
1702153595641321500,13.744321533203125,0.661719799041748,0.4911356568336487,0.5262604355812073
1702153595658313000,13.76131298828125,0.4479169547557831,0.4021020531654358,0.31093040108680725
1702153595675295000,13.778294921875,0.1359175145626068,0.32818734645843506,0.2474004179239273
1702153595692295000,13.795294921875,0.07162395119667053,0.23258693516254425,0.2828305959701538
1702153595709285600,13.81228564453125,0.38927388191223145,0.17821992933750153,0.35185837745666504
1702153595726278000,13.82927783203125,0.7539604306221008,0.15913039445877075,0.3830125033855438
1702153595743269600,13.84626953125,0.8504771590232849,0.21624629199504852,0.4625777006149292
1702153595760260600,13.863260498046875,0.5674937963485718,0.3900374472141266,0.4210388660430908
1702153595777251600,13.88025146484375,-0.02275473065674305,0.6206390857696533,0.23640485107898712
1702153595794243600,13.89724365234375,-0.3701843321323395,0.6194173693656921,0.04856378585100174
1702153595811235600,13.914235595703126,-0.1007927656173706,0.3543018400669098,-0.015118914656341076
1702153595828226300,13.931226318359375,0.20525072515010834,0.10522153973579407,-0.06979135423898697
1702153595845217300,13.94821728515625,0.15683965384960175,0.4430300295352936,-0.15531249344348907
1702153595862209800,13.965209716796876,-0.4531092941761017,1.2344059944152832,-0.3110831379890442
1702153595879200500,13.982200439453125,-1.0700831413269043,1.4143058061599731,-0.3081815242767334
1702153595896196900,13.99919677734375,-0.4882340431213379,0.7354817390441895,0.16264286637306213
1702153595913183000,14.016182861328126,0.34636059403419495,0.006261368747800589,0.6171266436576843
1702153595930175000,14.033175048828125,0.7463245987892151,-0.023365596309304237,0.7757988572120667
1702153595947167000,14.0501669921875,0.609338104724884,0.5728389024734497,0.6250678896903992
1702153595964158000,14.067157958984374,0.10965031385421753,1.1804970502853394,0.39675697684288025
1702153595981149000,14.08414892578125,-0.379652738571167,1.0096075534820557,0.11316278576850891
1702153595998141000,14.101140869140625,-0.4967861473560333,0.750142514705658,-0.10445795953273773
1702153596015132700,14.118132568359375,-0.34956762194633484,0.5274821519851685,-0.35475999116897583
1702153596032123600,14.13512353515625,-0.20387627184391022,0.5386304259300232,-0.3292563557624817
1702153596049114600,14.152114501953125,-0.242513507604599,0.6475171446800232,-0.021991148591041565
1702153596066106600,14.169106689453125,-0.3868304193019867,0.5258022546768188,0.1927279829978943
1702153596083109000,14.186109130859375,-0.6747006773948669,0.23808473348617554,0.14004085958003998
1702153596100089300,14.20308935546875,-1.0641272068023682,-0.17577648162841797,-0.1716531366109848
1702153596117080600,14.22008056640625,-1.250288486480713,-0.3805690407752991,-0.3810271918773651
1702153596134072600,14.237072509765625,-1.1273517608642578,-0.01725694350898266,-0.29794952273368835
1702153596151064300,14.254064208984374,-0.5766568183898926,0.5424483418464661,-0.2422080636024475
1702153596168055600,14.2710556640625,0.16203200817108154,0.8388707041740417,-0.13820825517177582
1702153596185037000,14.288037109375,0.5413793325424194,0.4395175576210022,0.14614951610565186
1702153596202038000,14.3050380859375,0.39996400475502014,-0.038637228310108185,0.38988474011421204
1702153596219030500,14.322030517578124,-0.01542434748262167,0.13209961354732513,0.28359419107437134
1702153596236021000,14.33902099609375,-0.29275718331336975,0.3400992155075073,-0.19104810059070587
1702153596253012000,14.356011962890625,-0.25793784856796265,0.33567044138908386,-0.4277583956718445
1702153596270004500,14.37300439453125,-0.019853120669722557,0.11804971098899841,-0.2971859276294708
1702153596286996000,14.389995849609376,0.08048149943351746,0.0429132841527462,-0.07162395119667053
1702153596303987000,14.406987060546875,-0.055283304303884506,0.025045474991202354,0.08155050873756409
1702153596320977700,14.423977783203124,-0.2921462953090668,-0.10201449692249298,0.08903361111879349
1702153596337961500,14.44096142578125,-0.5232060551643372,-0.18799377977848053,-0.12461651116609573
1702153596354962000,14.4579619140625,-0.5813909769058228,-0.2880229651927948,-0.4375322461128235
1702153596371952600,14.47495263671875,-0.38469240069389343,-0.4363104999065399,-0.48915034532546997
1702153596388943600,14.491943603515624,-0.24388794600963593,-0.41859540343284607,-0.25534167885780334
1702153596405933000,14.50893310546875,-0.14676037430763245,-0.1722639948129654,0.07330382615327835
1702153596422930200,14.52593017578125,-0.15424346923828125,-0.12797626852989197,0.19562959671020508
1702153596439918300,14.54291845703125,-0.07192938029766083,-0.1872301995754242,0.28680121898651123
1702153596456909300,14.559909423828126,-0.06719517707824707,-0.44776421785354614,0.21410827338695526
1702153596473901300,14.5769013671875,-0.12431107461452484,-0.5557346343994141,0.07467827945947647
1702153596490890800,14.593890869140624,-0.15012013912200928,-0.43829581141471863,-0.025045474991202354
1702153596507886800,14.610886962890625,-0.1310305893421173,-0.2515237629413605,-0.07635815441608429
1702153596524875300,14.627875244140625,-0.1586722433567047,-0.17501288652420044,-0.11148291081190109
1702153596541880000,14.644880126953124,-0.15256360173225403,-0.25045475363731384,-0.13347405195236206
1702153596558859300,14.661859375,-0.15057829022407532,-0.4564690589904785,-0.21731531620025635
1702153596575850000,14.67885009765625,-0.3698789179325104,-0.7319692969322205,-0.5186246037483215
1702153596592842500,14.695842529296876,-0.5725334286689758,-0.5929974317550659,-0.6927211880683899
1702153596609831200,14.7128310546875,-0.6551529765129089,-0.266184538602829,-0.7160868048667908
1702153596626824700,14.72982470703125,-0.45753806829452515,-0.29733866453170776,-0.4815145432949066
1702153596643815700,14.746815673828126,-0.02367102913558483,-0.48915034532546997,-0.1748601794242859
1702153596660807000,14.763806884765625,0.09178250283002853,-0.36682456731796265,-0.20830504596233368
1702153596677798700,14.780798583984375,-0.12293662875890732,-0.05406157299876213,-0.4599815309047699
1702153596694790700,14.797790771484374,-0.561079740524292,-0.04886921867728233,-0.6646214127540588
1702153596711782000,14.814781982421875,-0.7292203903198242,-0.39935314655303955,-0.7009678483009338
1702153596728764200,14.83176416015625,-0.760832667350769,-0.58062744140625,-0.7533495426177979
1702153596745764600,14.8487646484375,-0.5807801485061646,-0.2848159074783325,-0.5991060733795166
1702153596762756400,14.86575634765625,-0.24923302233219147,0.18616119027137756,-0.18906278908252716
1702153596779747300,14.882747314453125,0.1459967941045761,0.36819902062416077,0.2808452844619751
1702153596796735200,14.8997353515625,0.22372940182685852,0.19807305932044983,0.4086688458919525
1702153596813733400,14.9167333984375,0.013744467869400978,-0.07956519722938538,0.21303924918174744
1702153596830722300,14.933722412109375,-0.3978259861469269,-0.27382034063339233,-0.2177734673023224
1702153596847713300,14.95071337890625,-0.5400048494338989,-0.2148718535900116,-0.26221391558647156
1702153596864700400,14.967700439453125,-0.2921462953090668,-0.154396191239357,0.05803219974040985
1702153596881698600,14.984698486328124,0.20784689486026764,-0.11652254313230515,0.4583016633987427
1702153596898688000,15.00168798828125,0.3510948121547699,0.013286318629980087,0.569631814956665
1702153596915679000,15.018678955078125,0.11804971098899841,0.21441370248794556,0.43539419770240784
1702153596932660200,15.03566015625,-0.12034045159816742,0.043676864355802536,0.2431243658065796
1702153596949662000,15.052661865234375,-0.21395555138587952,-0.3530801236629486,0.14278975129127502
1702153596966647000,15.06964697265625,-0.14049901068210602,-0.5432119369506836,0.09926560521125793
1702153596983645000,15.08664501953125,-0.2863430976867676,-0.36819902062416077,0.007635815534740686
1702153597000635600,15.1036357421875,-0.5001459121704102,0.0685696229338646,0.10155634582042694
1702153597017621000,15.12062109375,-0.7150177955627441,0.19257527589797974,0.09743300825357437
1702153597034619600,15.13761962890625,-0.7541131377220154,0.047800205647945404,-0.04138612002134323
1702153597051610600,15.154610595703126,-0.6522513628005981,-0.3608686327934265,-0.32986724376678467
1702153597068601600,15.1716015625,-0.6676757335662842,-0.6604980230331421,-0.5734497308731079
1702153597085593300,15.18859326171875,-0.5694791078567505,-0.6543893814086914,-0.4190535545349121
1702153597102585300,15.20558544921875,-0.4098905920982361,-0.5232060551643372,-0.12461651116609573
1702153597119576600,15.22257666015625,-0.17638733983039856,-0.304210901260376,0.04092797264456749
1702153597136567300,15.2395673828125,0.055283304303884506,-0.22831088304519653,-0.04214970022439957
1702153597153559000,15.25655908203125,0.016340645030140877,-0.31871894001960754,-0.23060162365436554
1702153597170542800,15.27354296875,-0.21181751787662506,-0.5195409059524536,-0.014049900695681572
1702153597187542300,15.290542236328125,-0.27580565214157104,-0.422871470451355,0.06261368840932846
1702153597204533200,15.307533203125,-0.14065171778202057,-0.26404649019241333,0.004581489134579897
1702153597221514800,15.3245146484375,0.08918632566928864,-0.266184538602829,0.01466076634824276
1702153597238517000,15.34151708984375,0.17898350954055786,-0.29397889971733093,-0.019547687843441963
1702153597255502800,15.3585029296875,0.10919216275215149,-0.24923302233219147,-0.0705549344420433
1702153597272498700,15.375498779296874,0.00015271631127689034,-0.22250767052173615,-0.07422012835741043
1702153597289490700,15.39249072265625,0.005345070734620094,-0.23487769067287445,-0.055283304303884506
1702153597306483000,15.40948291015625,0.14645494520664215,-0.2571742534637451,-0.01725694350898266
1702153597323473700,15.4264736328125,0.2993239760398865,-0.18814650177955627,0.004734205547720194
1702153597340464600,15.443464599609374,0.33735033869743347,-0.08032877743244171,-0.026419922709465027
1702153597357456400,15.460456298828126,0.22418753802776337,-0.052839845418930054,-0.021838432177901268
1702153597374448400,15.477448486328125,0.07483099400997162,-0.0757472887635231,0.00015271631127689034
1702153597391439400,15.494439453125,0.039248090237379074,-0.10308351367712021,0.056810468435287476
1702153597408422400,15.51142236328125,0.13545936346054077,-0.06902777403593063,0.0933096632361412
1702153597425422300,15.52842236328125,0.2750420868396759,-0.11102475970983505,0.0455094613134861
1702153597442411800,15.545411865234374,0.3318525552749634,-0.2525927722454071,0.08078692853450775
1702153597459406300,15.56240625,0.3101668357849121,-0.26572638750076294,0.11881329119205475
1702153597476397800,15.579397705078126,0.28206703066825867,-0.0705549344420433,0.13637566566467285
1702153597493388000,15.596387939453125,0.31749722361564636,0.07757988572120667,0.17104226350784302
1702153597510380000,15.613380126953125,0.41813725233078003,0.16432274878025055,0.17760907113552094
1702153597527371000,15.63037109375,0.551916778087616,0.13744467496871948,0.16310101747512817
1702153597544362000,15.647362060546875,0.6950119137763977,-0.03527746722102165,0.11652254313230515
1702153597561351400,15.664351318359374,0.6672175526618958,-0.3830125033855438,0.14966198801994324
1702153597578348500,15.6813486328125,0.5210680365562439,-0.27488934993743896,0.4778493344783783
1702153597595332400,15.698332275390625,0.418748140335083,0.14966198801994324,0.8907942175865173
1702153597612332000,15.71533203125,0.45784351229667664,0.4714352488517761,1.151481032371521
1702153597629319700,15.732319580078125,0.5896376967430115,0.64217209815979,1.076344609260559
1702153597646311700,15.749311767578124,0.6716463565826416,0.48059824109077454,0.7064656615257263
1702153597663302700,15.766302734375,0.7443392872810364,-0.15745051205158234,0.5027421116828918
1702153597680293400,15.78329345703125,0.7837401032447815,-0.34865134954452515,0.7177666425704956
1702153597697285600,15.80028564453125,0.7748825550079346,0.028557950630784035,0.8872817754745483
1702153597714277600,15.817277587890626,0.8151996731758118,0.4415028691291809,0.9043859839439392
1702153597731268400,15.834268310546875,0.8607091307640076,0.43737950921058655,0.7820602059364319
1702153597748259300,15.85125927734375,0.9043859839439392,-0.041233405470848083,0.4375322461128235
1702153597765251300,15.868251220703126,0.7812966704368591,-0.4021020531654358,0.11545353382825851
1702153597782243300,15.885243408203126,0.5470298528671265,-0.251676470041275,0.08689557760953903
1702153597799234000,15.902234130859375,0.5600107312202454,0.44745880365371704,0.39156460762023926
1702153597816227000,15.91922705078125,0.7221954464912415,1.006400465965271,0.542142927646637
1702153597833212700,15.936212646484375,0.7947356700897217,1.3138184547424316,0.4329507350921631
1702153597850211600,15.953211669921876,0.6663012504577637,0.9769262671470642,0.19043724238872528
1702153597867200500,15.970200439453125,0.28557950258255005,0.2571742534637451,-0.013591751456260681
1702153597884191000,15.98719091796875,-0.1586722433567047,-0.1394299864768982,-0.012675453908741474
1702153597901172200,16.004172119140627,-0.37568211555480957,0.1817324161529541,0.11301007121801376
1702153597918175200,16.02117529296875,-0.33017265796661377,0.7634288668632507,0.35216382145881653
1702153597935165700,16.038165771484376,-0.05161811411380768,0.8943067193031311,0.5209153294563293
1702153597952156700,16.05515673828125,0.23808473348617554,0.6259841322898865,0.6015495657920837
1702153597969149000,16.07214892578125,0.37522396445274353,0.18188512325286865,0.5963571667671204
1702153597986140700,16.089140625,0.2483167201280594,-0.15714508295059204,0.2741257846355438
1702153598003131600,16.106131591796874,0.025503624230623245,-0.2779437005519867,-0.3078760802745819
1702153598020122400,16.123122314453123,-0.11026117950677872,-0.2405281960964203,-0.6073527932167053
1702153598037114400,16.1401142578125,-0.13408492505550385,-0.12064588814973831,-0.37919458746910095
1702153598054106400,16.1571064453125,-0.04917465150356293,-0.046731192618608475,0.04657847434282303
1702153598071097300,16.174097412109376,0.09697485715150833,0.23945917189121246,0.3225368559360504
1702153598088088000,16.191088134765625,0.21441370248794556,0.461355984210968,0.4199698567390442
1702153598105080300,16.208080322265626,0.2177734673023224,0.35705074667930603,0.3399465084075928
1702153598122072000,16.225072021484376,0.056352317333221436,0.14309518039226532,0.17287486791610718
1702153598139060500,16.242060546875,-0.2353358417749405,0.07773260027170181,-0.013744467869400978
1702153598156056600,16.259056640625,-0.43997567892074585,0.16951510310173035,-0.1014036312699318
1702153598173046000,16.2760458984375,-0.5400048494338989,0.26282477378845215,-0.10934487730264664
1702153598190038300,16.293038330078126,-0.4729624092578888,0.2961169183254242,-0.0884227454662323
1702153598207029000,16.310029052734375,-0.41752639412879944,0.18005253374576569,-0.11316278576850891
1702153598224019700,16.327019775390625,-0.3620903789997101,-0.11468994617462158,-0.20983220636844635
1702153598241011700,16.34401171875,-0.35735616087913513,-0.20631973445415497,-0.41523563861846924
1702153598258003700,16.361003662109376,-0.4576907753944397,0.13255776464939117,-0.5375614166259766
1702153598274994700,16.37799462890625,-0.5520694851875305,0.2828305959701538,-0.471129834651947
1702153598291981600,16.394981689453125,-0.41828998923301697,0.19562959671020508,-0.12095131725072861
1702153598308977400,16.411977294921876,-0.28695395588874817,0.0685696229338646,0.0754418596625328
1702153598325969400,16.428969482421873,-0.20387627184391022,0.04917465150356293,-0.04642575979232788
1702153598342960600,16.445960693359375,-0.1794416606426239,0.1540907621383667,-0.2295326143503189
1702153598359951400,16.462951416015624,-0.20051652193069458,0.22250767052173615,-0.21349740028381348
1702153598376943400,16.479943359375,-0.18997909128665924,0.12461651116609573,-0.10186178237199783
1702153598393935000,16.49693505859375,-0.16951510310173035,0.08261952549219131,0.014202617108821869
1702153598410926000,16.513926025390624,-0.21105393767356873,0.0019853119738399982,0.03191770985722542
1702153598427917300,16.530917236328126,-0.3023782968521118,-0.14263702929019928,-0.052381694316864014
1702153598444909000,16.547908935546875,-0.3669773042201996,-0.09789115190505981,-0.2773328125476837
1702153598461901000,16.564901123046877,-0.4479169547557831,0.17852537333965302,-0.4207334518432617
1702153598478891800,16.581891845703126,-0.4746423065662384,0.08567385375499725,-0.4384485185146332
1702153598495883000,16.598883056640624,-0.34697145223617554,-0.2096794992685318,-0.260992169380188
1702153598512874800,16.615874755859377,-0.2814561724662781,-0.6440047025680542,-0.21365012228488922
1702153598529878000,16.6328779296875,-0.33429601788520813,-0.7299839854240417,-0.41172316670417786
1702153598546857700,16.649857666015624,-0.5484042763710022,-0.35811975598335266,-0.7667886018753052
1702153598563848700,16.6668486328125,-0.7389942407608032,-0.02367102913558483,-0.9048441648483276
1702153598580840700,16.6838408203125,-0.6261368989944458,-0.24648413062095642,-0.7764097452163696
1702153598597832700,16.700832763671876,-0.3761402666568756,-0.7000515460968018,-0.55069500207901
1702153598614823000,16.717822998046874,-0.17898350954055786,-1.0832167863845825,-0.5161811113357544
1702153598631815200,16.734815185546875,-0.2790127098560333,-0.969443142414093,-0.640644907951355
1702153598648806400,16.751806396484376,-0.7058547735214233,-0.41630467772483826,-0.6788240075111389
1702153598665788000,16.768787841796875,-0.793361246585846,0.08765916526317596,-0.4977024495601654
1702153598682774800,16.78577490234375,-0.5688682794570923,0.11804971098899841,-0.28359419107437134
1702153598699778300,16.8027783203125,-0.20631973445415497,-0.18112154304981232,-0.19257527589797974
1702153598716777200,16.819777099609375,-0.06811147183179855,-0.45036038756370544,-0.3153591752052307
1702153598733761300,16.83676123046875,-0.36590829491615295,-0.5319108963012695,-0.48976120352745056
1702153598750755000,16.853755126953125,-0.6678284406661987,-0.2646573781967163,-0.38866302371025085
1702153598767746300,16.870746337890626,-0.5957463383674622,0.15882496535778046,-0.17287486791610718
1702153598784735200,16.8877353515625,-0.23640485107898712,0.32498031854629517,-0.13271047174930573
1702153598801732600,16.904732666015626,-0.04932736977934837,0.08216137439012527,-0.25702154636383057
1702153598818721000,16.921720947265626,-0.10262536257505417,0.004581489134579897,-0.17867808043956757
1702153598835711700,16.938711669921876,-0.20433442294597626,0.024587325751781464,-0.07101308554410934
1702153598852703700,16.955703857421874,-0.07880161702632904,0.03237585723400116,-0.01863138936460018
1702153598869696000,16.972696044921875,0.20295998454093933,0.01038470957428217,0.060933809727430344
1702153598886686700,16.989686767578124,0.2148718535900116,-0.07299839705228806,-0.010231993161141872
1702153598903677700,17.006677734375,0.07040221989154816,-0.098502017557621,0.03848451003432274
1702153598920669400,17.02366943359375,0.004581489134579897,-0.07727445662021637,0.20830504596233368
1702153598937661700,17.04066162109375,0.076052725315094,-0.06948592513799667,0.21563543379306793
1702153598954652400,17.05765234375,0.16081027686595917,0.08338310569524765,0.09483683109283447
1702153598971643400,17.074643310546875,0.08903361111879349,0.07360926270484924,-0.02367102913558483
1702153598988635400,17.091635498046877,-0.07223481684923172,0.005803219974040985,0.08903361111879349
1702153599005617000,17.108616943359376,-0.13805554807186127,0.08491026610136032,0.2790127098560333
1702153599022618400,17.125618408203124,0.004428773187100887,0.16081027686595917,0.21609358489513397
1702153599039609000,17.142609130859373,0.1391245573759079,0.1212567538022995,0.031001411378383636
1702153599056601000,17.15960107421875,0.12018773704767227,-0.051770828664302826,-0.14767667651176453
1702153599073593000,17.176593017578124,0.01924225501716137,-0.15363261103630066,-0.18219055235385895
1702153599090584000,17.193583984375,-0.07681630551815033,-0.0682641938328743,-0.09865473955869675
1702153599107575000,17.210574951171875,-0.15622878074645996,0.046273041516542435,-0.09208793938159943
1702153599124567000,17.227567138671876,-0.12232576310634613,0.03436116874217987,-0.07910704612731934
1702153599141558800,17.244558837890626,0.01710422709584236,0.020463986322283745,-0.1365283876657486
1702153599158550000,17.261550048828123,0.12568552792072296,-0.018020525574684143,-0.22647829353809357
1702153599175540700,17.278540771484376,0.14416420459747314,-0.2915354371070862,-0.009621127508580685
1702153599192532700,17.29553271484375,0.182648703455925,-0.43447789549827576,0.19853121042251587
1702153599209524500,17.3125244140625,0.09468411654233932,-0.4138612151145935,0.10064005106687546
1702153599226518800,17.329518798828126,-0.07452555745840073,-0.447000652551651,0.1033889427781105
1702153599243503000,17.346503173828125,-0.10247264802455902,-0.33169981837272644,0.10842858254909515
1702153599260494300,17.363494384765627,0.08552113175392151,-0.2701551616191864,0.10323622822761536
1702153599277494800,17.380494873046874,0.25442537665367126,-0.251218318939209,0.1459967941045761
1702153599294481400,17.3974814453125,0.32910364866256714,-0.2649627923965454,0.13087788224220276
1702153599311472400,17.414472412109376,0.34284812211990356,-0.30634891986846924,0.09117163717746735
1702153599328464100,17.431464111328125,0.32039880752563477,-0.37720927596092224,0.09560041129589081
1702153599345456400,17.448456298828123,0.2695443034172058,-0.294895201921463,0.08491026610136032
1702153599362447000,17.465447021484376,0.2616030275821686,-0.052228979766368866,0.12492194026708603
1702153599379438000,17.48243798828125,0.3387247920036316,0.07757988572120667,0.14905111491680145
1702153599396426800,17.4994267578125,0.4207334518432617,0.021380282938480377,0.1411098688840866
1702153599413425700,17.51642578125,0.5238169431686401,-0.10766500234603882,0.14492778480052948
1702153599430412800,17.533412841796874,0.6024658679962158,-0.1892155110836029,0.22739458084106445
1702153599447403800,17.55040380859375,0.5723807215690613,-0.07880161702632904,0.3597996234893799
1702153599464385000,17.567385009765626,0.4334088861942291,0.058795779943466187,0.44806966185569763
1702153599481388000,17.584387939453126,0.3865249752998352,0.09758572280406952,0.49067750573158264
1702153599498378800,17.601378662109376,0.4879286289215088,0.19822576642036438,0.5890268087387085
1702153599515369700,17.61836962890625,0.527634859085083,0.44257187843322754,0.6737843751907349
1702153599532361700,17.63536181640625,0.21441370248794556,0.8622363209724426,0.6301075220108032
1702153599549353700,17.652353759765624,0.05726861581206322,1.107040524482727,0.5658139586448669
1702153599566342000,17.669341796875,0.1918116807937622,1.07771897315979,0.8124507665634155
1702153599583338000,17.686337890625,0.5748242139816284,0.7646505832672119,1.0615310668945312
1702153599600327400,17.703327392578124,0.7472409009933472,0.707840085029602,0.8849910497665405
1702153599617319400,17.7203193359375,0.6345362663269043,0.9471465349197388,0.5736024379730225
1702153599634313200,17.737313232421876,0.23060162365436554,0.9062185883522034,0.30115658044815063
1702153599651298000,17.754298095703124,-0.04444044828414917,0.7489207983016968,0.14156801998615265
1702153599668293600,17.771293701171874,0.02229658141732216,0.8158105611801147,-0.05772676691412926
1702153599685285000,17.78828515625,0.2577851414680481,0.726471483707428,-0.31642818450927734
1702153599702276000,17.805276123046873,0.37888917326927185,0.5036584138870239,-0.2739730477333069
1702153599719267000,17.82226708984375,0.25824329257011414,0.4190535545349121,-0.11850785464048386
1702153599736259000,17.839259033203124,0.055283304303884506,0.6710354685783386,0.021991148591041565
1702153599753250800,17.856250732421874,0.08827003091573715,0.6488916277885437,0.11178833991289139
1702153599770242000,17.873241943359375,0.26572638750076294,0.38866302371025085,0.01924225501716137
1702153599787232800,17.890232666015624,0.34574973583221436,0.05467243865132332,-0.26083946228027344
1702153599804224800,17.907224853515626,0.10033461451530457,-0.03741549700498581,-0.4271475374698639
1702153599821216800,17.924216796875,-0.3637702465057373,0.588874101638794,-0.1371392458677292
1702153599838207700,17.941207763671876,-0.6629415154457092,0.9344711303710938,0.1547016203403473
1702153599855198500,17.958198486328126,-0.5175555944442749,0.9234755635261536,0.3176499307155609
1702153599872190500,17.9751904296875,-0.3254384696483612,0.6530149579048157,0.32620203495025635
1702153599889182500,17.992182373046877,-0.3724750876426697,0.10735956579446793,0.08261952549219131
1702153599906173400,18.00917333984375,-0.6433938145637512,0.2747366428375244,0.007635815534740686
1702153599923164400,18.026164306640624,-0.7728972434997559,0.49296826124191284,0.10567969083786011
1702153599940156200,18.04315625,-0.5416847467422485,0.4150829315185547,0.2854267954826355
1702153599957148200,18.060148193359375,-0.12599095702171326,0.2919935882091522,0.35124751925468445
1702153599974139100,18.07713916015625,0.1598939746618271,0.2987131178379059,0.2822197377681732
1702153599991130000,18.094130126953125,0.24358251690864563,0.21044307947158813,0.2744311988353729
1702153600008122000,18.1111220703125,0.0757472887635231,0.11071932315826416,0.34406983852386475
1702153600025114000,18.128114013671876,-0.049785517156124115,0.12400564551353455,0.3494149148464203
1702153600042101000,18.14510107421875,-0.047800205647945404,0.19226983189582825,0.21273382008075714
1702153600059100000,18.162099853515624,0.08002334833145142,0.22708915174007416,0.1336267739534378
1702153600076087800,18.179087890625,0.11911872029304504,0.285121351480484,0.11453723162412643
1702153600093079800,18.196079833984374,0.050854530185461044,0.2600758671760559,0.1385136991739273
1702153600110070800,18.21307080078125,-0.057879481464624405,0.1586722433567047,0.10903944820165634
1702153600127061800,18.230061767578125,-0.17791450023651123,0.1414152979850769,-0.021380282938480377
1702153600144053500,18.247053466796874,-0.25961771607398987,0.11255192011594772,-0.2116648107767105
1702153600161046000,18.2640458984375,-0.35033121705055237,0.012064588256180286,-0.3445279896259308
1702153600178036700,18.28103662109375,-0.4066835343837738,0.021074850112199783,-0.3700316250324249
1702153600195026200,18.298026123046874,-0.437226802110672,0.11102475970983505,-0.3579670190811157
1702153600212020700,18.315020751953124,-0.4124867618083954,0.1316414624452591,-0.2249511331319809
1702153600229011500,18.332011474609374,-0.3778201639652252,0.05054909735918045,-0.09285151958465576
1702153600246001400,18.34900146484375,-0.28008171916007996,0.04917465150356293,-0.07452555745840073
1702153600262994200,18.365994140625,-0.2623666226863861,-0.02779436856508255,-0.20922134816646576
1702153600279985200,18.382985107421874,-0.2675589919090271,-0.1007927656173706,-0.2643519341945648
1702153600296977200,18.39997705078125,-0.2929098904132843,-0.22082778811454773,-0.26679539680480957
1702153600313968000,18.416968017578125,-0.2600758671760559,-0.24373523890972137,-0.24846944212913513
1702153600330959000,18.433958984375,-0.26572638750076294,-0.23900102078914642,-0.3013092875480652
1702153600347940900,18.45094091796875,-0.23808473348617554,-0.09804387390613556,-0.3113885521888733
1702153600364933000,18.46793310546875,-0.20204368233680725,-0.01771509274840355,-0.37140607833862305
1702153600381934000,18.48493408203125,-0.18081611394882202,-0.3130684494972229,-0.3828597962856293
1702153600398924800,18.5019248046875,-0.18417587876319885,-0.6815729141235352,-0.2721404731273651
1702153600415916800,18.518916748046873,-0.12629638612270355,-0.5703954100608826,-0.15653422474861145
1702153600432906500,18.535906494140626,-0.005803219974040985,-0.11530081182718277,-0.15714508295059204
1702153600449902000,18.552902099609376,0.19807305932044983,0.15302173793315887,-0.09025534242391586
1702153600466890800,18.569890869140625,0.22739458084106445,-0.058948494493961334,0.11224649101495743
1702153600483882500,18.586882568359375,-0.12370020896196365,-0.2538145184516907,0.18600846827030182
1702153600500874500,18.60387451171875,-0.6102544069290161,-0.2076941877603531,-0.13271047174930573
1702153600517865500,18.620865478515626,-0.7429648637771606,-0.048105638474226,-0.4769330322742462
1702153600534856400,18.6378564453125,-0.4963280260562897,-0.11316278576850891,-0.49235737323760986
1702153600551848400,18.654848388671876,-0.035124752670526505,-0.4778493344783783,-0.24755313992500305
1702153600568840400,18.67184033203125,0.0887281745672226,-0.7370089292526245,-0.04077525436878204
1702153600585831400,18.68883154296875,-0.11331550031900406,-0.5218316316604614,0.05314527451992035
1702153600602822100,18.705822265625,-0.45631635189056396,-0.23518311977386475,-0.07177666574716568
1702153600619814100,18.722814208984374,-0.5607742667198181,-0.2324342280626297,-0.21273382008075714
1702153600636806100,18.73980615234375,-0.470060795545578,-0.45005497336387634,-0.24938572943210602
1702153600653797400,18.75679736328125,-0.46899178624153137,-0.4859432876110077,-0.25305092334747314
1702153600670788000,18.7737880859375,-0.4124867618083954,-0.5653557777404785,-0.08933904021978378
1702153600687779800,18.79077978515625,-0.3222314119338989,-0.6302602291107178,0.1560760736465454
1702153600704771800,18.807771728515625,-0.14767667651176453,-0.47540587186813354,0.2838996350765228
1702153600721760300,18.82476025390625,-0.010842857882380486,-0.260992169380188,0.0757472887635231
1702153600738756400,18.84175634765625,0.09178250283002853,-0.1258382350206375,-0.1059851199388504
1702153600755745500,18.85874560546875,0.03848451003432274,-0.2750420868396759,-0.1466076523065567
1702153600772737500,18.875737548828123,-0.24068090319633484,-0.44318273663520813,-0.14737124741077423
1702153600789728800,18.892728759765625,-0.3549126982688904,-0.44196099042892456,-0.13209961354732513
1702153600806719700,18.9097197265625,-0.25305092334747314,-0.43936482071876526,-0.17531833052635193
1702153600823711500,18.92671142578125,-0.11133018881082535,-0.4219551682472229,-0.2958115041255951
1702153600840703500,18.943703369140625,-0.2506074607372284,-0.2142609804868698,-0.4349360466003418
1702153600857694200,18.960694091796874,-0.4951062798500061,-0.31581732630729675,-0.31352660059928894
1702153600874685200,18.977685302734375,-0.8038986921310425,-0.8709411025047302,-0.049785517156124115
1702153600891669800,18.994669677734375,-0.902247965335846,-1.1261301040649414,0.07528914511203766
1702153600908669200,19.011669189453126,-0.811687171459198,-0.8869763612747192,-0.14340060949325562
1702153600925660200,19.02866015625,-0.5908594131469727,-0.5587889552116394,-0.28878653049468994
1702153600942651100,19.045651123046873,-0.14645494520664215,-0.6120869517326355,-0.14324790239334106
1702153600959640800,19.062640869140626,0.1609629988670349,-0.8258898258209229,0.10048733651638031
1702153600976637200,19.07963720703125,0.26710084080696106,-0.898124635219574,0.3799581825733185
1702153600993617400,19.096617431640624,0.23487769067287445,-0.618195652961731,0.29016098380088806
1702153601010616800,19.113616943359375,0.12140946835279465,-0.35781431198120117,0.13011430203914642
1702153601027608800,19.13060888671875,0.11423180252313614,-0.18249599635601044,0.13286319375038147
1702153601044600800,19.147600830078126,0.1866193264722824,-0.19058994948863983,0.10567969083786011
1702153601061600000,19.16460009765625,0.2428189367055893,-0.36560285091400146,0.11239920556545258
1702153601078582800,19.181582763671877,0.2736676335334778,-0.44593164324760437,0.14049901068210602
1702153601095564000,19.19856396484375,0.23625212907791138,-0.45402559638023376,0.12950342893600464
1702153601112569300,19.2155693359375,0.19593502581119537,-0.39904773235321045,0.11133018881082535
1702153601129557500,19.2325576171875,0.19074267148971558,-0.28496864438056946,0.08261952549219131
1702153601146548500,19.249548583984375,0.2483167201280594,-0.2165517359972,0.055741455405950546
1702153601163540200,19.266540283203124,0.27748554944992065,-0.2532036304473877,0.060322944074869156
1702153601180529700,19.28352978515625,0.20876319706439972,-0.28099802136421204,0.08170322328805923
1702153601197525800,19.30052587890625,0.14828753471374512,-0.16691893339157104,0.08307767659425735
1702153601214511600,19.31751171875,0.22815817594528198,0.058337632566690445,0.04841107130050659
1702153601231508700,19.3345087890625,0.3591887652873993,0.23808473348617554,0.005345070734620094
1702153601248495900,19.351495849609375,0.5163338780403137,0.22678372263908386,-0.01038470957428217
1702153601265491200,19.3684912109375,0.6065891981124878,0.09911288321018219,0.030543262138962746
1702153601282479900,19.38547998046875,0.5801692605018616,-0.08521570265293121,0.06994406878948212
1702153601299472000,19.402471923828124,0.4057672321796417,-0.19257527589797974,0.13500121235847473
1702153601316463900,19.4194638671875,0.23090706765651703,-0.1411098688840866,0.17898350954055786
1702153601333454800,19.436454833984374,0.17791450023651123,0.05543602257966995,0.12446379661560059
1702153601350445800,19.45344580078125,0.25335636734962463,0.27488934993743896,0.1463022232055664
1702153601367437800,19.470437744140625,0.38499781489372253,0.43478333950042725,0.24556782841682434
1702153601384429600,19.4874296875,0.4300491213798523,0.5435173511505127,0.34177911281585693
1702153601401420500,19.504420654296876,0.4492913782596588,0.5797111392021179,0.4544837474822998
1702153601418411500,19.52141162109375,0.5288565754890442,0.5745187401771545,0.5218316316604614
1702153601435403500,19.538403564453127,0.7139487266540527,0.6038402915000916,0.42378777265548706
1702153601452395500,19.5553955078125,0.7855727076530457,0.4161519408226013,0.2382374405860901
1702153601469386500,19.572386474609374,0.6201809644699097,0.17577648162841797,0.20097467303276062
1702153601486377500,19.58937744140625,0.5149593949317932,0.1713477075099945,0.2597704529762268
1702153601503369200,19.606369140625,0.5363397002220154,0.304210901260376,0.28069257736206055
1702153601520361200,19.623361328125,0.513737678527832,0.289702832698822,0.3205515444278717
1702153601537352200,19.640352294921875,0.4314235746860504,0.12492194026708603,0.28420504927635193
1702153601554343000,19.657343017578125,0.27641651034355164,0.2509129047393799,0.22999076545238495
1702153601571335000,19.6743349609375,0.09514226019382477,0.38148534297943115,0.15271630883216858
1702153601588327000,19.691326904296876,-0.07131851464509964,0.16294831037521362,0.12202033400535583
1702153601605313000,19.70831298828125,-0.3627012372016907,-0.06673702597618103,0.17058411240577698
1702153601622308900,19.725308837890626,-0.4358523488044739,0.02733621932566166,0.15286903083324432
1702153601639301000,19.742301025390624,-0.18860463798046112,0.09498954564332962,-0.044745877385139465
1702153601656292900,19.75929296875,0.18997909128665924,-0.14645494520664215,-0.05497787147760391
1702153601673273300,19.7762734375,0.2675589919090271,-0.3695734739303589,0.12629638612270355
1702153601690274800,19.79327490234375,-0.006261368747800589,0.1774563491344452,0.38576140999794006
1702153601707266600,19.8102666015625,-0.1368338167667389,0.41722095012664795,0.44913867115974426
1702153601724258600,19.827258544921875,0.06169738993048668,0.1621847152709961,0.5158756971359253
1702153601741249500,19.84424951171875,0.47311514616012573,-0.1293507218360901,0.4847215712070465
1702153601758230000,19.86122998046875,0.6058256030082703,-0.02229658141732216,0.29886582493782043
1702153601775232300,19.878232177734375,0.3150537610054016,0.5627595782279968,0.10277807712554932
1702153601792224300,19.895224365234377,0.07070764899253845,0.9375254511833191,0.2796235680580139
1702153601809215200,19.91221533203125,0.26053401827812195,0.4288274049758911,0.637132465839386
1702153601826206200,19.929206298828124,0.44852781295776367,0.0029016099870204926,0.7742717266082764
1702153601843195600,19.946195556640625,0.4639521539211273,0.3666718602180481,0.5416847467422485
1702153601860192800,19.96319287109375,0.2997821271419525,0.9233227968215942,0.266642689704895
1702153601877181200,19.98018115234375,0.030543262138962746,0.8683449625968933,0.18784105777740479
1702153601894172000,19.997171875,-0.2405281960964203,0.578489363193512,0.16172657907009125
1702153601911164000,20.014163818359375,-0.2513710558414459,0.7544185519218445,0.15302173793315887
1702153601928156000,20.031156005859376,-0.04214970022439957,0.950506329536438,0.14935655891895294
1702153601945147000,20.04814697265625,0.1667662113904953,0.9668469429016113,0.3744603991508484
1702153601962137900,20.065137939453123,0.2912299931049347,0.8217664957046509,0.6811147332191467
1702153601979129600,20.082129638671876,0.2272418737411499,0.5926920175552368,0.7254024744033813
1702153601996121900,20.099121826171874,0.08781187981367111,0.3871358633041382,0.5665774941444397
1702153602013112600,20.116112548828124,0.003512475173920393,0.36789360642433167,0.3998112976551056
1702153602030101000,20.13310107421875,-0.06108652427792549,0.32391130924224854,0.1635591685771942
1702153602047098000,20.15009814453125,-0.03222314268350601,0.2721404731273651,-0.008246680721640587
1702153602064087000,20.167087158203124,-0.025045474991202354,0.16325373947620392,-0.06414084881544113
1702153602081075700,20.18407568359375,-0.08368854224681854,-0.057879481464624405,-0.05925392732024193
1702153602098072000,20.201072021484375,-0.24923302233219147,-0.3677408695220947,-0.15057829022407532
1702153602115061500,20.2180615234375,-0.4902193546295166,-0.35659259557724,-0.4210388660430908
1702153602132053500,20.235053466796874,-0.7327328324317932,-0.2041817009449005,-0.665232241153717
1702153602149044000,20.2520439453125,-0.745408296585083,-0.3321579694747925,-0.6522513628005981
1702153602166035500,20.269035400390624,-0.6094908118247986,-0.4940372705459595,-0.5621487498283386
1702153602183027000,20.28602685546875,-0.4210388660430908,-0.37751471996307373,-0.48517972230911255
1702153602200019200,20.303019287109375,-0.2877175211906433,-0.14340060949325562,-0.4001167416572571
1702153602217010000,20.320010009765625,-0.3130684494972229,-0.13607023656368256,-0.28267788887023926
1702153602234001000,20.3370009765625,-0.470671683549881,-0.21013765037059784,-0.07467827945947647
1702153602250993000,20.353992919921875,-0.5522221922874451,-0.29397889971733093,-0.0377209298312664
1702153602267985200,20.370985107421873,-0.4876231849193573,-0.13377949595451355,-0.1612684279680252
1702153602284975600,20.3879755859375,-0.44486260414123535,-0.050243668258190155,-0.3839288055896759
1702153602301966800,20.404966796875,-0.3399465084075928,-0.21838432550430298,-0.3660610020160675
1702153602318958600,20.42195849609375,-0.2744311988353729,-0.3891211748123169,-0.13209961354732513
1702153602335940400,20.4389404296875,-0.25335636734962463,-0.3582724630832672,-0.1615738570690155
1702153602352941600,20.455941650390624,-0.43050727248191833,-0.030695978552103043,-0.5369505286216736
1702153602369932500,20.4729326171875,-0.46181413531303406,0.04642575979232788,-0.9051495790481567
1702153602386924500,20.489924560546875,-0.14217889308929443,-0.28787025809288025,-0.7800748944282532
1702153602403916500,20.50691650390625,0.3712533414363861,-0.7619016766548157,-0.3891211748123169
1702153602420897000,20.52389697265625,0.5245805382728577,-0.52702397108078,-0.285121351480484
1702153602437892400,20.540892333984374,0.19944749772548676,0.1915062516927719,-0.42302417755126953
1702153602454890200,20.55789013671875,-0.13820825517177582,0.36163222789764404,-0.45723262429237366
1702153602471882200,20.57488232421875,-0.10567969083786011,-0.20005837082862854,-0.3396410644054413
1702153602488862700,20.59186279296875,0.168751522898674,-0.7950411438941956,-0.31352660059928894
1702153602505861400,20.608861328125,0.22815817594528198,-0.5047274231910706,-0.5141957998275757
1702153602522861600,20.625861572265624,0.00809396430850029,0.08704829961061478,-0.6711881756782532
1702153602539844900,20.642844970703123,-0.308792382478714,0.11911872029304504,-0.4934264123439789
1702153602556839000,20.6598388671875,-0.4124867618083954,-0.38698312640190125,-0.2802344262599945
1702153602573829600,20.67682958984375,-0.30115658044815063,-0.827722430229187,-0.21395555138587952
1702153602590821600,20.693821533203124,-0.16508632898330688,-1.000749945640564,-0.4260784983634949
1702153602607814000,20.71081396484375,-0.054825156927108765,-0.7748825550079346,-0.6404922008514404
1702153602624804900,20.727804931640627,-0.08750644326210022,-0.5902485251426697,-0.39064833521842957
1702153602641794300,20.744794189453124,-0.01878410577774048,-0.6522513628005981,0.06490442901849747
1702153602658778000,20.761778076171876,0.16783522069454193,-0.8177958726882935,0.17348572611808777
1702153602675779600,20.778779541015624,0.3718642294406891,-0.7903069257736206,-0.024434609338641167
1702153602692770300,20.795770263671876,0.31810808181762695,-0.5983424782752991,-0.29856038093566895
1702153602709761300,20.81276123046875,0.07162395119667053,-0.42302417755126953,-0.22907446324825287
1702153602726742800,20.82974267578125,0.020922135561704636,-0.7455610036849976,0.15485434234142303
1702153602743745300,20.846745361328125,0.5161811113357544,-1.1114692687988281,0.5482515692710876
1702153602760739000,20.863739013671875,1.1916453838348389,-1.06657075881958,0.5742133259773254
1702153602777724400,20.880724365234375,1.2770137786865234,-0.5665774941444397,0.2678644061088562
1702153602794719200,20.89771923828125,0.5662720799446106,0.053297992795705795,0.02367102913558483
