time,seconds_elapsed,z,y,x
1702064090624928800,0.0619287109375,0.28130343556404114,-0.17012597620487213,-0.37629300355911255
1702064090641584600,0.078584716796875,0.303600013256073,-0.06933320313692093,-0.4558582007884979
1702064090658413300,0.095413330078125,0.3773620128631592,-0.09666942805051804,-0.6101016402244568
1702064090675397400,0.1123974609375,0.45921793580055237,-0.10216721147298813,-0.7664831876754761
1702064090692395800,0.129395751953125,0.493731826543808,-0.050243668258190155,-0.9086620807647705
1702064090709385500,0.146385498046875,0.4834998548030853,-0.040164388716220856,-1.0355693101882935
1702064090726381600,0.163381591796875,0.4518875777721405,-0.1186605766415596,-1.155604362487793
1702064090743376600,0.180376708984375,0.4334088861942291,-0.22296582162380219,-1.1977540254592896
1702064090760366300,0.197366455078125,0.5267185568809509,-0.21181751787662506,-1.1140655279159546
1702064090777362400,0.214362548828125,0.6591235995292664,-0.13607023656368256,-0.9547823667526245
1702064090794357800,0.231357666015625,0.6753115057945251,-0.15164729952812195,-0.8449793457984924
1702064090811350500,0.2483505859375,0.6235406994819641,-0.20051652193069458,-0.8298604488372803
1702064090828340700,0.2653408203125,0.6155994534492493,-0.1615738570690155,-0.8417723178863525
1702064090845328600,0.28232861328125,0.6130032539367676,-0.09315694868564606,-0.8582656979560852
1702064090862332400,0.29933251953125,0.5783366560935974,-0.016951510682702065,-0.811687171459198
1702064090879322400,0.316322265625,0.5381723046302795,0.013897184282541275,-0.7420485615730286
1702064090896318200,0.333318115234375,0.4964807331562042,0.07925976812839508,-0.7101308703422546
1702064090913311700,0.350311767578125,0.33169981837272644,-0.021838432177901268,-0.7834346890449524
1702064090930299400,0.36729931640625,0.1212567538022995,-0.17073683440685272,-0.8622363209724426
1702064090947299000,0.384299072265625,0.07360926270484924,-0.09208793938159943,-0.8092437386512756
1702064090964294700,0.401294677734375,0.11056660860776901,0.06154467165470123,-0.7475463151931763
1702064090981283800,0.418283935546875,-0.04214970022439957,-0.10002918541431427,-0.8437576293945312
1702064090998280700,0.43528076171875,-0.25335636734962463,-0.17272214591503143,-0.864068865776062
1702064091015273700,0.452273681640625,-0.15653422474861145,0.05009094998240471,-0.7379252314567566
1702064091032272400,0.4692724609375,0.09758572280406952,0.10690141469240189,-0.5516113042831421
1702064091049255200,0.486255126953125,0.2096794992685318,-0.07406741380691528,-0.40851613879203796
1702064091066248000,0.503248046875,0.12767083942890167,-0.31062498688697815,-0.3355177342891693
1702064091083250000,0.52025,-0.07528914511203766,-0.3323107063770294,-0.3675881624221802
1702064091100237600,0.537237548828125,-0.19868391752243042,-0.16814066469669342,-0.498924195766449
1702064091117227800,0.554227783203125,-0.19822576642036438,0.1134682223200798,-0.5755877494812012
1702064091134229000,0.57122900390625,-0.15760323405265808,0.24556782841682434,-0.5684100985527039
1702064091151225900,0.588225830078125,-0.1866193264722824,0.09712757170200348,-0.4769330322742462
1702064091168212700,0.605212646484375,-0.16019940376281738,-0.06704246252775192,-0.28955012559890747
1702064091185211100,0.622211181640625,-0.22052235901355743,-0.07024950534105301,-0.19104810059070587
1702064091202239500,0.639239501953125,-0.35185837745666504,0.04642575979232788,-0.375529408454895
1702064091219206000,0.656205810546875,-0.3903428912162781,0.055894169956445694,-0.6644686460494995
1702064091236192500,0.673192626953125,-0.43707409501075745,0.03833179548382759,-0.7389942407608032
1702064091253192200,0.690192138671875,-0.5739079117774963,-0.12064588814973831,-0.6099489331245422
1702064091270176000,0.707176025390625,-0.6122397184371948,-0.29397889971733093,-0.3572034537792206
1702064091287169500,0.72416943359375,-0.5413793325424194,-0.37522396445274353,-0.28756481409072876
1702064091304157700,0.74115771484375,-0.4343251883983612,-0.27229318022727966,-0.39813143014907837
1702064091321160200,0.75816015625,-0.37629300355911255,-0.22861631214618683,-0.6214026808738708
1702064091338152000,0.77515185546875,-0.4434881806373596,-0.26022860407829285,-0.7348709106445312
1702064091355147800,0.792147705078125,-0.49205195903778076,-0.2428189367055893,-0.6004805564880371
1702064091372141300,0.809141357421875,-0.4210388660430908,-0.19593502581119537,-0.3430008292198181
1702064091389136100,0.82613623046875,-0.2915354371070862,-0.15775595605373383,-0.12049316614866257
1702064091406129200,0.843129150390625,-0.18616119027137756,-0.06490442901849747,0.005497787147760391
1702064091423123500,0.86012353515625,-0.19043724238872528,0.09544769674539566,0.01542434748262167
1702064091440113000,0.87711279296875,-0.23060162365436554,0.08048149943351746,-0.039706241339445114
1702064091457109000,0.89410888671875,-0.1134682223200798,0.018325956538319588,-0.01878410577774048
1702064091474104300,0.911104248046875,0.07971791177988052,-0.05726861581206322,0.05314527451992035
1702064091491093800,0.92809375,0.2681698501110077,-0.12308934330940247,0.0988074541091919
1702064091508089600,0.945089599609375,0.3891211748123169,-0.1716531366109848,0.1547016203403473
1702064091525085700,0.962085693359375,0.3222314119338989,-0.07971791177988052,0.3344487249851227
1702064091542068200,0.979068115234375,0.2197587788105011,0.1915062516927719,0.6068946123123169
1702064091559069200,0.996069091796875,0.22250767052173615,0.4150829315185547,0.7765624523162842
1702064091576066600,1.013066650390625,0.2591595947742462,0.5720753073692322,0.8145887851715088
1702064091593060900,1.030060791015625,0.3312416672706604,0.7525860071182251,0.7005097270011902
1702064091610049500,1.047049560546875,0.4766276180744171,0.7761042714118958,0.6044511795043945
1702064091627046000,1.0640458984375,0.6038402915000916,0.5187773108482361,0.6730207800865173
1702064091644041200,1.081041259765625,0.6612616181373596,0.31520646810531616,0.8671231865882874
1702064091661030700,1.09803076171875,0.7470881938934326,0.2727513313293457,0.8631525635719299
1702064091678027500,1.115027587890625,0.6362161636352539,0.20265454053878784,0.6296493411064148
1702064091695004400,1.13200439453125,0.2993239760398865,0.2590068578720093,0.5685628056526184
1702064091712012500,1.149012451171875,0.027030786499381065,0.4265366494655609,0.6459900140762329
1702064091729008600,1.166008544921875,-0.1316414624452591,0.4986187517642975,0.6893614530563354
1702064091746001400,1.18300146484375,-0.09086620807647705,0.4404338300228119,0.5835290551185608
1702064091762996700,1.199996826171875,0.07773260027170181,0.4349360466003418,0.3251330256462097
1702064091779986400,1.216986328125,0.1869247704744339,0.29077184200286865,0.026572637259960175
1702064091796980000,1.23397998046875,0.24846944212913513,-0.10048733651638031,-0.04489859566092491
1702064091813980200,1.250980224609375,0.2515237629413605,-0.2871066629886627,0.16798794269561768
1702064091830969000,1.267968994140625,0.27061331272125244,-0.32391130924224854,0.3533855378627777
1702064091847968300,1.28496826171875,0.2695443034172058,-0.26343563199043274,0.4040873646736145
1702064091864952300,1.301952392578125,0.34116822481155396,-0.06475171446800232,0.4674646258354187
1702064091881948200,1.3189482421875,0.34865134954452515,0.08414668589830399,0.45814892649650574
1702064091898945500,1.335945556640625,0.1492038369178772,0.11636982858181,0.3321579694747925
1702064091915938300,1.352938232421875,0.04856378585100174,0.11820242553949356,0.28680121898651123
1702064091932932900,1.369932861328125,0.11102475970983505,0.14049901068210602,0.379652738571167
1702064091949922800,1.3869228515625,0.24434609711170197,0.15592335164546967,0.4712825417518616
1702064091966918400,1.40391845703125,0.39736783504486084,0.14095716178417206,0.5757405161857605
1702064091983915300,1.420915283203125,0.46410486102104187,0.11178833991289139,0.7043276429176331
1702064092000904200,1.437904296875,0.3721696436405182,0.07101308554410934,0.7802276611328125
1702064092017901300,1.4549013671875,0.2269364446401596,0.1898263692855835,0.7330383062362671
1702064092034896000,1.471895751953125,0.13530665636062622,0.3497203588485718,0.5433646440505981
1702064092051884800,1.488884765625,0.08017606288194656,0.34636059403419495,0.26969701051712036
1702064092068881700,1.505881591796875,0.05100724846124649,0.27611109614372253,0.10293079167604446
1702064092085874400,1.52287451171875,0.028557950630784035,0.038179077208042145,-0.024434609338641167
1702064092102870300,1.539870361328125,-0.01160643994808197,-0.21670444309711456,-0.1843285858631134
1702064092119860700,1.55686083984375,-0.038179077208042145,-0.14004085958003998,-0.3171917796134949
1702064092136855800,1.573855712890625,-0.00733038317412138,0.048105638474226,-0.44684791564941406
1702064092153851100,1.59085107421875,0.04932736977934837,0.1082758679986,-0.5447390675544739
1702064092170840600,1.607840576171875,0.08597928285598755,0.01618792861700058,-0.6006332635879517
1702064092187837000,1.6248369140625,0.11255192011594772,-0.11301007121801376,-0.5899431109428406
1702064092204832500,1.64183251953125,0.1281289905309677,-0.1463022232055664,-0.6165157556533813
1702064092221821700,1.65882177734375,0.0959058403968811,-0.04688390716910362,-0.7144069075584412
1702064092238818800,1.67581884765625,0.08704829961061478,0.005345070734620094,-0.7996225953102112
1702064092255811600,1.6928115234375,0.18310685455799103,-0.11621711403131485,-0.7573201656341553
1702064092272807000,1.709806884765625,0.34147366881370544,-0.25961771607398987,-0.6870706677436829
1702064092289796400,1.72679638671875,0.2971859276294708,-0.3361285924911499,-0.6583600044250488
1702064092306792700,1.743792724609375,0.0685696229338646,-0.09865473955869675,-0.5586362481117249
1702064092323785500,1.760785400390625,-0.09758572280406952,0.14935655891895294,-0.3839288055896759
1702064092340776700,1.777776611328125,-0.35521814227104187,0.02122756652534008,-0.4804455041885376
1702064092357771800,1.794771728515625,-0.9286679029464722,-0.1007927656173706,-0.9714284539222717
1702064092374769700,1.811769775390625,-1.4624114036560059,-0.04245513305068016,-1.3578007221221924
1702064092391758800,1.8287587890625,-1.0238101482391357,0.11835514008998871,-1.149953842163086
1702064092408755200,1.845755126953125,-0.12721268832683563,-0.17348572611808777,-0.7980954647064209
1702064092425748500,1.86274853515625,0.1033889427781105,-0.7715228199958801,-0.8662069439888
1702064092442733300,1.8797333984375,-0.2577851414680481,-0.7371616363525391,-1.0699304342269897
1702064092459733200,1.896733154296875,-0.4787656366825104,0.21212296187877655,-0.9404270648956299
1702064092476729000,1.91372900390625,-0.2929098904132843,0.7513642311096191,-0.5998696684837341
1702064092493724400,1.930724365234375,-0.204487144947052,-0.1696678251028061,-0.6933320760726929
1702064092510713000,1.947713134765625,-0.44715335965156555,-0.9645562171936035,-0.9488264322280884
1702064092527711500,1.96471142578125,-0.3998112976551056,-0.4992296099662781,-0.6443101167678833
1702064092544705800,1.981705810546875,-0.02321287989616394,0.11407908797264099,-0.055741455405950546
1702064092561695500,1.998695556640625,0.10903944820165634,-0.26145032048225403,-0.08017606288194656
1702064092578692000,2.015692138671875,-0.41722095012664795,-0.7661777138710022,-0.5578727126121521
1702064092595684900,2.032684814453125,-0.9008735418319702,-0.38896843791007996,-0.6661485433578491
1702064092612680400,2.049680419921875,-0.8454375267028809,0.14248432219028473,-0.48517972230911255
1702064092629670000,2.066669921875,-0.47342056035995483,0.20570887625217438,-0.27641651034355164
1702064092646655500,2.083655517578125,-0.022907447069883347,0.10735956579446793,-0.00427605677396059
1702064092663659000,2.100658935546875,0.22372940182685852,-0.23060162365436554,0.18005253374576569
1702064092680653000,2.117653076171875,0.32009339332580566,-0.6430884003639221,0.0806342139840126
1702064092697646800,2.134646728515625,0.2076941877603531,-0.7371616363525391,-0.1560760736465454
1702064092714642200,2.15164208984375,-0.06017022579908371,-0.5896376967430115,-0.42088615894317627
1702064092731631900,2.1686318359375,-0.2402227520942688,-0.29565876722335815,-0.5603161454200745
1702064092748628000,2.1856279296875,-0.2971859276294708,-0.2116648107767105,-0.5589417219161987
1702064092765629200,2.202629150390625,-0.3165809214115143,-0.30222558975219727,-0.4584543704986572
1702064092782608600,2.219608642578125,-0.3614795207977295,-0.44547349214553833,-0.31123584508895874
1702064092799606500,2.2366064453125,-0.4479169547557831,-0.6288857460021973,-0.2629774808883667
1702064092816603000,2.253602783203125,-0.4893030524253845,-0.6701191663742065,-0.2750420868396759
1702064092833585700,2.270585693359375,-0.4138612151145935,-0.47739118337631226,-0.2669481039047241
1702064092850583300,2.287583251953125,-0.22586742043495178,-0.2428189367055893,-0.20952677726745605
1702064092867583700,2.304583740234375,-0.00366519158706069,-0.17806722223758698,-0.18341228365898132
1702064092884578800,2.321578857421875,0.05467243865132332,-0.1973094791173935,-0.182648703455925
1702064092901568800,2.33856884765625,0.03145955875515938,-0.26862800121307373,-0.18814650177955627
1702064092918565400,2.3555654296875,0.03145955875515938,-0.26832255721092224,-0.10476338863372803
1702064092935558400,2.372558349609375,0.14355333149433136,-0.04764748737215996,0.1992947906255722
1702064092952553700,2.3895537109375,0.4046982228755951,0.16432274878025055,0.6947064995765686
1702064092969543400,2.40654345703125,0.6568328738212585,0.0887281745672226,1.0054842233657837
1702064092986539500,2.42353955078125,0.7785477638244629,0.051312681287527084,0.9618073105812073
1702064093003534800,2.440534912109375,0.8431467413902283,0.10903944820165634,0.6647741198539734
1702064093020524300,2.457524169921875,0.769079327583313,-0.12629638612270355,0.33017265796661377
1702064093037520400,2.474520263671875,0.6530149579048157,-0.035582900047302246,0.4340197443962097
1702064093054515500,2.491515380859375,0.7234171628952026,0.408363401889801,0.8251262307167053
1702064093071505400,2.50850537109375,0.7799221873283386,0.7738135457038879,1.0960450172424316
1702064093088492000,2.525491943359375,0.732122004032135,1.0273226499557495,1.115287184715271
1702064093105483000,2.54248291015625,0.5852088928222656,0.8869763612747192,0.9729556441307068
1702064093122493700,2.55949365234375,0.5508477091789246,0.8397870063781738,1.0154107809066772
1702064093139474400,2.576474365234375,0.6976081132888794,0.6827946305274963,1.1175779104232788
1702064093156485600,2.593485595703125,0.7560984492301941,0.5001459121704102,1.1172724962234497
1702064093173461200,2.610461181640625,0.5677992701530457,0.4323398768901825,0.9392052888870239
1702064093190463000,2.627462890625,0.3101668357849121,0.4957171380519867,0.799011766910553
1702064093207457000,2.64445703125,0.2837468981742859,0.703411340713501,0.8953757286071777
1702064093224451000,2.661451171875,0.2817615866661072,0.6843217611312866,0.997237503528595
1702064093241446100,2.678446044921875,0.1518000066280365,0.761443555355072,0.99876469373703
1702064093258443000,2.695443115234375,-0.09544769674539566,0.6815729141235352,0.8432994484901428
1702064093275435000,2.71243505859375,-0.20815233886241913,0.5085453391075134,0.7965682744979858
1702064093292427500,2.729427490234375,0.0003054326225537807,0.2672535479068756,0.7435756921768188
1702064093309416200,2.746416259765625,0.2828305959701538,0.4331034719944,0.68951416015625
1702064093326413000,2.7634130859375,0.42241331934928894,0.7305948138237,0.6000223755836487
1702064093343408400,2.780408447265625,0.3972151279449463,0.816726803779602,0.4888449013233185
1702064093360397800,2.797397705078125,0.2177734673023224,0.6811147332191467,0.4651738703250885
1702064093377394000,2.814393798828125,0.002138028386980295,0.3784310221672058,0.4660901725292206
1702064093394389000,2.831388916015625,-0.1290452778339386,0.12308934330940247,0.43905940651893616
1702064093411382500,2.848382568359375,-0.07299839705228806,0.2837468981742859,0.3156646192073822
1702064093428372500,2.86537255859375,-0.06505715101957321,0.6133087277412415,0.09453139454126358
1702064093445372200,2.8823720703125,-0.19517144560813904,0.8941540122032166,0.05421429127454758
1702064093462364200,2.8993642578125,-0.29168814420700073,0.7884743213653564,0.24327708780765533
1702064093479352600,2.9163525390625,-0.35842517018318176,0.49495357275009155,0.4977024495601654
1702064093496352000,2.93335205078125,-0.36529740691185,0.2197587788105011,0.6165157556533813
1702064093513344800,2.9503447265625,-0.36010506749153137,0.2269364446401596,0.6391177773475647
1702064093530334500,2.96733447265625,-0.30833423137664795,0.4056145250797272,0.5809328556060791
1702064093547330800,2.984330810546875,-0.26862800121307373,0.48838675022125244,0.39797869324684143
1702064093564326000,3.001325927734375,-0.26404649019241333,0.5366451144218445,0.24113905429840088
1702064093581315600,3.018315673828125,-0.2356412708759308,0.4021020531654358,0.06536258012056351
1702064093598312400,3.0353125,-0.23060162365436554,0.13377949595451355,-0.14049901068210602
1702064093615297300,3.05229736328125,-0.19685132801532745,-0.08445212244987488,-0.313373863697052
1702064093632298500,3.069298583984375,-0.13607023656368256,-0.32421672344207764,-0.5088507533073425
1702064093649292500,3.08629248046875,-0.1258382350206375,-0.41111230850219727,-0.6786713004112244
1702064093666286000,3.1032861328125,-0.14019356667995453,-0.27091872692108154,-0.8530732989311218
1702064093683279400,3.120279296875,-0.1371392458677292,-0.11224649101495743,-0.9844093322753906
1702064093700270800,3.137270751953125,-0.048258353024721146,-0.23289237916469574,-1.0821478366851807
1702064093717260500,3.154260498046875,-0.06444628536701202,-0.6015495657920837,-1.2202032804489136
1702064093734262000,3.171261962890625,-0.11636982858181,-0.8051204085350037,-1.1953105926513672
1702064093751255600,3.188255615234375,0.020616702735424042,-0.8510879874229431,-0.960280179977417
1702064093768249300,3.205249267578125,0.3594942092895508,-0.7779368758201599,-0.6091853380203247
1702064093785243400,3.222243408203125,0.518471896648407,-0.7518224120140076,-0.513126790523529
1702064093802236400,3.239236328125,0.3043636083602905,-0.3888157308101654,-0.6162103414535522
1702064093819230200,3.256230224609375,0.001832595793530345,0.144622340798378,-0.746630072593689
1702064093836221400,3.273221435546875,-0.2165517359972,0.08750644326210022,-0.8639161586761475
1702064093853220000,3.29022021484375,-0.15913039445877075,-0.3787364661693573,-0.8210029006004333
1702064093870222300,3.307222412109375,-0.021838432177901268,-0.7874053120613098,-0.7451028823852539
1702064093887205000,3.324205078125,-0.02932153269648552,-0.7258606553077698,-0.7318165898323059
1702064093904198700,3.34119873046875,-0.04306599870324135,-0.40194934606552124,-0.8378016948699951
1702064093921182200,3.35818212890625,-0.13729196786880493,-0.45662176609039307,-1.0896308422088623
1702064093938183000,3.375182861328125,-0.2779437005519867,-0.7490735054016113,-1.1455250978469849
1702064093955182800,3.392182861328125,-0.2076941877603531,-0.4027129113674164,-0.7032586336135864
1702064093972173600,3.409173583984375,-0.09285151958465576,-0.16539175808429718,-0.4415028691291809
1702064093989171700,3.426171630859375,-0.07223481684923172,-0.2646573781967163,-0.37339138984680176
1702064094006162000,3.443161865234375,-0.044745877385139465,-0.3651446998119354,-0.19578230381011963
1702064094023154400,3.460154541015625,-0.04856378585100174,-0.9772316813468933,-0.14569136500358582
1702064094040148000,3.47714794921875,-0.06704246252775192,-1.1612548828125,-0.14095716178417206
1702064094057141800,3.494141845703125,-0.012064588256180286,-0.7973318696022034,-0.16279558837413788
1702064094074135300,3.51113525390625,0.023060163483023643,-0.41920626163482666,-0.11499538272619247
1702064094091129000,3.528129150390625,-0.045204028487205505,-0.27030786871910095,-0.04214970022439957
1702064094108123000,3.545122802734375,-0.19349156320095062,-0.3660610020160675,-0.062460970133543015
1702064094125116400,3.562116455078125,-0.2808452844619751,-0.2845104932785034,-0.08338310569524765
1702064094142110200,3.579110107421875,-0.19608774781227112,-0.2142609804868698,-0.15393804013729095
1702064094159103700,3.596103759765625,0.005497787147760391,-0.16142113506793976,-0.23487769067287445
1702064094176097500,3.61309765625,0.18280142545700073,-0.29504790902137756,-0.27641651034355164
1702064094193091000,3.630091064453125,0.12293662875890732,-0.3778201639652252,-0.22708915174007416
1702064094210084900,3.6470849609375,-0.1414152979850769,-0.4662429094314575,-0.230448916554451
1702064094227078400,3.664078369140625,-0.39996400475502014,-0.5222898125648499,-0.3208569586277008
1702064094244072200,3.681072265625,-0.42638394236564636,-0.5633704662322998,-0.40301835536956787
1702064094261063700,3.698063720703125,-0.34605515003204346,-0.5199990272521973,-0.4124867618083954
1702064094278061800,3.715061767578125,-0.3579670190811157,-0.3787364661693573,-0.38408151268959045
1702064094295040000,3.7320400390625,-0.44745880365371704,-0.05421429127454758,-0.2538145184516907
1702064094312046800,3.749046875,-0.4297437071800232,0.26053401827812195,-0.029168816283345222
1702064094329040600,3.76604052734375,-0.2793181240558624,0.37720927596092224,0.2275473028421402
1702064094346034200,3.7830341796875,-0.1186605766415596,0.323147714138031,0.3868304193019867
1702064094363025200,3.800025146484375,0.009621127508580685,0.182648703455925,0.385303258895874
1702064094380013600,3.817013671875,0.11102475970983505,0.06536258012056351,0.2652682363986969
1702064094397015300,3.834015380859375,0.1748601794242859,0.07452555745840073,0.1791362315416336
1702064094414008800,3.8510087890625,0.16294831037521362,0.02367102913558483,0.16890424489974976
1702064094431002600,3.868002685546875,0.060322944074869156,0.06918048858642578,0.23411411046981812
1702064094447996400,3.884996337890625,-0.04841107130050659,0.12858712673187256,0.2941316068172455
1702064094464990000,3.901989990234375,-0.07452555745840073,0.20555615425109863,0.34284812211990356
1702064094481983500,3.9189833984375,0.060322944074869156,0.37110063433647156,0.46013423800468445
1702064094498977300,3.935977294921875,0.36483925580978394,0.28420504927635193,0.5615378618240356
1702064094515971000,3.95297119140625,0.5624541640281677,0.07620543986558914,0.6728680729866028
1702064094532964600,3.969964599609375,0.4925101101398468,-0.2249511331319809,0.7406741380691528
1702064094549948000,3.986947998046875,0.0403171069920063,-0.4205807149410248,0.7461718916893005
1702064094566949400,4.003949462890625,-0.16691893339157104,0.03436116874217987,0.9578366875648499
1702064094583948300,4.0209482421875,0.2921462953090668,0.7283040881156921,1.2359330654144287
1702064094600939500,4.037939453125,0.6052147150039673,0.9624181985855103,1.3156510591506958
1702064094617930500,4.054930419921875,0.5572618246078491,0.9669997096061707,1.163851022720337
1702064094634929200,4.07192919921875,0.13820825517177582,0.5755877494812012,0.7026477456092834
1702064094651920600,4.088920654296875,-0.4179845452308655,0.006719517521560192,0.5740606188774109
1702064094668914000,4.105913818359375,-0.48655417561531067,0.03695734590291977,0.9592111706733704
1702064094685907700,4.12290771484375,0.1264491081237793,0.4908302128314972,1.3584115505218506
1702064094702901200,4.1399013671875,0.8417723178863525,0.6407976150512695,1.4563027620315552
1702064094719895000,4.15689501953125,1.0906999111175537,0.3066543638706207,1.3397802114486694
1702064094736888600,4.173888671875,0.8895725011825562,0.08491026610136032,1.136362075805664
1702064094753882600,4.190882568359375,0.2840523421764374,-0.005650503560900688,0.8417723178863525
1702064094770876200,4.207876220703125,-0.3075706362724304,0.3364340364933014,0.7225008606910706
1702064094787867100,4.2248671875,-0.3052799105644226,0.669355571269989,0.7664831876754761
1702064094804866000,4.241865966796875,0.012217304669320583,0.7528914213180542,0.9812023043632507
1702064094821857000,4.25885693359375,0.2730567753314972,0.5259549617767334,1.224173903465271
1702064094838848000,4.275847900390625,0.37980547547340393,0.16371189057826996,1.280220866203308
1702064094855847200,4.29284716796875,0.3672827184200287,0.06673702597618103,1.1201741695404053
1702064094872838100,4.309838134765625,0.3113885521888733,0.24678955972194672,0.8017606139183044
1702064094889829000,4.3268291015625,0.23777928948402405,0.48685958981513977,0.5406157374382019
1702064094906828300,4.343828369140625,0.17409659922122955,0.5215262174606323,0.4271475374698639
1702064094923819000,4.360819091796875,0.1362229436635971,0.3572034537792206,0.4337143301963806
1702064094940812800,4.377812744140625,0.07880161702632904,0.2541199326515198,0.49785518646240234
1702064094957806300,4.394806396484375,0.06750060617923737,0.3289509415626526,0.5865833759307861
1702064094974800100,4.411800048828125,0.08200865983963013,0.34956762194633484,0.5943718552589417
1702064094991794000,4.4287939453125,0.10308351367712021,0.32910364866256714,0.49617528915405273
1702064095008787700,4.44578759765625,0.06459899991750717,0.3562871515750885,0.28725937008857727
1702064095025781200,4.46278125,-0.07666359096765518,0.33276882767677307,0.08460483700037003
1702064095042774800,4.47977490234375,-0.13454307615756989,0.23365595936775208,0.0039706239476799965
1702064095059768600,4.4967685546875,-0.07925976812839508,0.09178250283002853,-0.02871066704392433
1702064095076762000,4.51376220703125,0.04138612002134323,0,-0.2076941877603531
1702064095093752000,4.530751953125,0.1440114825963974,0.0013744467869400978,-0.5783366560935974
1702064095110733300,4.5477333984375,0.19318613409996033,-0.09712757170200348,-0.9010262489318848
1702064095127743200,4.5647431640625,0.2324342280626297,-0.2889392673969269,-0.9619600176811218
1702064095144731400,4.5817314453125,0.23350323736667633,-0.5149593949317932,-0.856433093547821
1702064095161727000,4.59872705078125,0.23716843128204346,-0.5960517525672913,-0.7567093372344971
1702064095178724400,4.615724365234375,0.2646573781967163,-0.42668938636779785,-0.6948592066764832
1702064095195718000,4.6327177734375,0.35964691638946533,-0.18707747757434845,-0.5845980644226074
1702064095212708900,4.649708984375,0.5325217843055725,-0.24419337511062622,-0.38835757970809937
1702064095229708000,4.6667080078125,0.5754350423812866,-0.4366159439086914,-0.15164729952812195
1702064095246699000,4.683698974609375,0.32131510972976685,-0.5936083197593689,-0.21013765037059784
1702064095263695400,4.7006953125,-0.04902193695306778,-0.6808093190193176,-0.49357911944389343
1702064095280683800,4.717683837890625,-0.13744467496871948,-0.7457137703895569,-0.7092145681381226
1702064095297680000,4.734679931640625,0.033597588539123535,-1.2738068103790283,-0.7841982841491699
1702064095314673700,4.751673583984375,0.21914790570735931,-1.2918273210525513,-0.5096143484115601
1702064095331667200,4.768667236328125,0.39797869324684143,-0.8588765263557434,-0.5363397002220154
1702064095348661000,4.785660888671875,0.4818199574947357,-0.6281222105026245,-1.1023063659667969
1702064095365654500,4.802654541015625,0.3949243724346161,-0.26893341541290283,-1.391398310661316
1702064095382648300,4.8196484375,0.32421672344207764,-0.17852537333965302,-1.1814134120941162
1702064095399631600,4.836631591796875,0.23854288458824158,-0.32650747895240784,-0.6433938145637512
1702064095416635600,4.8536357421875,0.152105450630188,-0.4625777006149292,-0.4329507350921631
1702064095433629400,4.87062939453125,0.013591751456260681,-0.37751471996307373,-0.6708827614784241
1702064095450623000,4.887623046875,-0.11530081182718277,-0.2574796974658966,-0.8155050873756409
1702064095467616800,4.90461669921875,0.005039638374000788,-0.19685132801532745,-0.5791002511978149
1702064095484613400,4.92161328125,0.3220787048339844,-0.5575672388076782,-0.28817567229270935
1702064095501601000,4.93860107421875,0.23945917189121246,-1.0140362977981567,-0.5096143484115601
1702064095518598000,4.955597900390625,-0.2217440903186798,-0.963792622089386,-0.8313875794410706
1702064095535591400,4.97259130859375,-0.5871942043304443,-0.4106541574001312,-0.7712173461914062
1702064095552582700,4.989582763671875,-0.39767327904701233,0.29474249482154846,-0.34406983852386475
1702064095569578800,5.006578857421875,0.197004035115242,0.03084869496524334,-0.04337143152952194
1702064095586570000,5.023570068359375,0.7092145681381226,-1.2678507566452026,-0.2203696370124817
1702064095603568600,5.040568603515625,0.5502368807792664,-1.5549575090408325,-0.6224716901779175
1702064095620560000,5.057559814453125,-0.09911288321018219,-0.7086036801338196,-1.0175487995147705
1702064095637550800,5.07455078125,-0.4948008358478546,0.2871066629886627,-1.1064296960830688
1702064095654549800,5.0915498046875,-0.4317290186882019,0.5789475440979004,-0.8257371187210083
1702064095671540700,5.108540771484375,-0.2154827117919922,0.19333885610103607,-0.43050727248191833
1702064095688532000,5.125531982421875,-0.1722639948129654,-0.04245513305068016,-0.11820242553949356
1702064095705517800,5.142517822265625,-0.2987131178379059,0.0659734457731247,-0.14538592100143433
1702064095722524400,5.1595244140625,-0.37537670135498047,0.15073099732398987,-0.40683624148368835
1702064095739515400,5.176515380859375,-0.3159700334072113,0.15683965384960175,-0.5755877494812012
1702064095756509200,5.19350927734375,-0.17699819803237915,0.047800205647945404,-0.53328537940979
1702064095773503000,5.2105029296875,-0.0328340083360672,-0.1469130963087082,-0.3550654351711273
1702064095790496500,5.22749658203125,0.08888089656829834,-0.24007004499435425,-0.21838432550430298
1702064095807479600,5.2444794921875,0.10155634582042694,-0.2719877362251282,-0.2638937830924988
1702064095824474000,5.26147412109375,0.03130684420466423,-0.2718350291252136,-0.4210388660430908
1702064095841477400,5.278477294921875,-0.14309518039226532,-0.33169981837272644,-0.5375614166259766
1702064095858471200,5.29547119140625,-0.3908010423183441,-0.3459024429321289,-0.46700647473335266
1702064095875462400,5.31246240234375,-0.485027015209198,-0.1941024363040924,-0.24938572943210602
1702064095892461300,5.32946142578125,-0.3804163336753845,0.06582073122262955,-0.02168571576476097
1702064095909452300,5.346452392578125,-0.21059578657150269,0.30573806166648865,0.12767083942890167
1702064095926443300,5.363443359375,-0.041691552847623825,0.20036379992961884,0.17592918872833252
1702064095943442200,5.380442138671875,0.01160643994808197,-0.06291911751031876,0.1742493063211441
1702064095960433200,5.39743310546875,-0.09040805697441101,-0.031001411378383636,0.1690569519996643
1702064095977427000,5.414427001953125,-0.1736384481191635,0.2480112910270691,0.17837265133857727
1702064095994434600,5.4314345703125,-0.10552696883678436,0.4786129295825958,0.2791654169559479
1702064096011414500,5.44841455078125,0.05925392732024193,0.5215262174606323,0.43768495321273804
1702064096028407300,5.4654072265625,0.2255619913339615,0.3880521357059479,0.4905247986316681
1702064096045402400,5.48240234375,0.32681289315223694,0.206777885556221,0.3937026560306549
1702064096062395100,5.49939501953125,0.29016098380088806,0.252287358045578,0.3349068760871887
1702064096079389000,5.516388916015625,0.19578230381011963,0.4925101101398468,0.4657847583293915
1702064096096382700,5.5333828125,0.1774563491344452,0.7397578358650208,0.7267768979072571
1702064096113376300,5.550376220703125,0.3286454975605011,1.0106765031814575,0.9517280459403992
1702064096130370000,5.5673701171875,0.560468852519989,1.0708467960357666,0.9083566069602966
1702064096147363600,5.584363525390625,0.5685628056526184,0.907898485660553,0.7043276429176331
1702064096164357400,5.601357421875,0.28909197449684143,0.9269880056381226,0.7851145267486572
1702064096181351000,5.618350830078125,0.03176499158143997,1.1259773969650269,1.0729848146438599
1702064096198342100,5.635342041015625,-0.05421429127454758,1.345278024673462,1.2377656698226929
1702064096215340800,5.6523408203125,-0.02015855349600315,1.5282320976257324,1.1730140447616577
1702064096232332000,5.66933203125,0.1062905490398407,1.3571898937225342,0.9468411207199097
1702064096249325600,5.68632568359375,0.21502456068992615,0.803135097026825,0.7582364678382874
1702064096266316800,5.70331689453125,0.20463985204696655,0.3819434940814972,0.7441865801811218
1702064096283315700,5.720315673828125,0.05360342562198639,0.010231993161141872,0.717613935470581
1702064096300306700,5.737306640625,-0.28619036078453064,-0.48426342010498047,0.5229006409645081
1702064096317300500,5.754300537109375,-0.7443392872810364,-0.6861543655395508,0.16081027686595917
1702064096334294000,5.7712939453125,-0.8932377099990845,-0.6145304441452026,-0.2217440903186798
1702064096351287800,5.788287841796875,-0.5094616413116455,-0.41401392221450806,-0.2646573781967163
1702064096368281300,5.80528125,0.016340645030140877,-0.07666359096765518,-0.01771509274840355
1702064096385275100,5.822275146484375,0.33276882767677307,0.2750420868396759,0.23915374279022217
1702064096402269000,5.83926904296875,0.2880229651927948,0.3199406862258911,0.27748554944992065
1702064096419262700,5.8562626953125,0.08338310569524765,0.2275473028421402,0.28588494658470154
1702064096436255700,5.873255859375,0.11835514008998871,0.14309518039226532,0.3856086730957031
1702064096453252600,5.890252685546875,0.25992316007614136,0.19104810059070587,0.4450153410434723
1702064096470243600,5.90724365234375,0.3491095006465912,0.17516560852527618,0.3556762933731079
1702064096487237000,5.924237060546875,0.39125919342041016,0.323147714138031,0.3300199508666992
1702064096504230700,5.941230712890625,0.37827831506729126,0.4934264123439789,0.43417248129844666
1702064096521224400,5.958224365234375,0.34758231043815613,0.6340781450271606,0.644768238067627
1702064096538218200,5.97521826171875,0.3066543638706207,0.6550002694129944,0.7922922372817993
1702064096555212000,5.9922119140625,0.21365012228488922,0.6520986557006836,0.7619016766548157
1702064096572205300,6.009205322265625,0.10613783448934555,0.7203628420829773,0.633009135723114
1702064096589199000,6.02619921875,-0.031154127791523933,0.7748825550079346,0.43967026472091675
1702064096606182700,6.0431826171875,-0.14309518039226532,0.82207190990448,0.31184670329093933
1702064096623186700,6.060186767578125,-0.13820825517177582,0.7197519540786743,0.17058411240577698
1702064096640176400,6.07717626953125,-0.09346238523721695,0.527634859085083,0.0024434609804302454
1702064096657176000,6.094176025390625,-0.06963863968849182,0.3165809214115143,-0.13576480746269226
1702064096674169300,6.11116943359375,-0.0022907445672899485,0.197004035115242,-0.19257527589797974
1702064096691161000,6.1281611328125,0.031612277030944824,0.08109235763549805,-0.2825251817703247
1702064096708155000,6.14515478515625,0.0003054326225537807,0.03741549700498581,-0.3930917978286743
1702064096725148700,6.162148681640625,-0.05146539583802223,-0.08048149943351746,-0.6009386777877808
1702064096742142200,6.17914208984375,-0.11545353382825851,-0.1817324161529541,-0.7903069257736206
1702064096759136000,6.196135986328125,-0.10705413669347763,-0.3020728528499603,-0.9169087409973145
1702064096776129800,6.2131298828125,-0.0780380368232727,-0.5606215596199036,-0.9837985038757324
1702064096793112800,6.23011279296875,-0.07696902006864548,-0.7124215960502625,-0.917061448097229
1702064096810117000,6.2471171875,-0.05207626149058342,-0.8185594081878662,-0.845132052898407
1702064096827110700,6.264110595703125,-0.17470745742321014,-0.8949176073074341,-0.8168795704841614
1702064096844104200,6.281104248046875,-0.3543018400669098,-0.6101016402244568,-0.623235285282135
1702064096861098000,6.298097900390625,-0.2993239760398865,-0.3326161205768585,-0.4277583956718445
1702064096878091500,6.315091552734375,-0.18997909128665924,-0.41722095012664795,-0.49693888425827026
1702064096895083500,6.33208349609375,-0.17333301901817322,-0.3995058834552765,-0.6357579827308655
1702064096912078800,6.349078857421875,-0.1235474944114685,-0.08155050873756409,-0.57436603307724
1702064096929072600,6.36607275390625,-0.026114489883184433,-0.04948008432984352,-0.38866302371025085
1702064096946066400,6.38306640625,0.03222314268350601,-0.33292156457901,-0.28466320037841797
1702064096963060000,6.40006005859375,-0.09773843735456467,-0.7754934430122375,-0.47219884395599365
1702064096980053500,6.417053466796875,-0.44165557622909546,-0.6939429044723511,-0.694248378276825
1702064096997047300,6.43404736328125,-0.5900958180427551,0.0981965884566307,-0.6513350605964661
1702064097014040800,6.451040771484375,-0.36132678389549255,0.4934264123439789,-0.408974289894104
1702064097031034600,6.46803466796875,-0.012675453908741474,-0.0809396430850029,-0.23945917189121246
1702064097048030700,6.48503076171875,-0.09315694868564606,-0.7979426980018616,-0.28619036078453064
1702064097065019600,6.50201953125,-0.38728857040405273,-0.517250120639801,-0.3764457106590271
1702064097082015700,6.519015625,-0.5189300179481506,0.16493362188339233,-0.5068654417991638
1702064097099009300,6.53600927734375,-0.25274550914764404,0.38209620118141174,-0.5435173511505127
1702064097116003000,6.553003173828125,0.14569136500358582,-0.0981965884566307,-0.5685628056526184
1702064097132996600,6.56999658203125,0.20830504596233368,-0.6701191663742065,-0.7191411256790161
1702064097149990400,6.586990478515625,-0.10262536257505417,-0.7991644740104675,-0.9624181985855103
1702064097166984200,6.603984130859375,-0.5671883821487427,-0.4784601926803589,-0.9007207751274109
1702064097183977700,6.620977783203125,-0.68325275182724,-0.007177666760981083,-0.4642575979232788
1702064097200971500,6.637971435546875,-0.44364088773727417,0.05497787147760391,-0.1459967941045761
1702064097217965000,6.654965087890625,-0.21013765037059784,0.11026117950677872,-0.02886338345706463
1702064097234959000,6.671958984375,-0.16539175808429718,0.05115996301174164,-0.11026117950677872
1702064097251952400,6.688952392578125,-0.26404649019241333,0.047800205647945404,-0.17073683440685272
1702064097268943600,6.705943603515625,-0.4314235746860504,-0.008246680721640587,-0.27550023794174194
1702064097285931800,6.722931884765625,-0.4784601926803589,-0.04749477282166481,-0.4285219609737396
1702064097302933500,6.73993359375,-0.375071257352829,-0.015882495790719986,-0.5432119369506836
1702064097319927000,6.756927001953125,-0.29168814420700073,0.012980886735022068,-0.5248859524726868
1702064097336920800,6.7739208984375,-0.266642689704895,0.023060163483023643,-0.375071257352829
1702064097353914400,6.790914306640625,-0.2620611786842346,-0.24342979490756989,-0.26862800121307373
1702064097370908200,6.807908203125,-0.2551889419555664,-0.5540547966957092,-0.2767219543457031
1702064097387902000,6.82490185546875,-0.24908030033111572,-0.6861543655395508,-0.39874228835105896
1702064097404895500,6.8418955078125,-0.2405281960964203,-0.5459607839584351,-0.43707409501075745
1702064097421889300,6.85888916015625,-0.14233160018920898,-0.3839288055896759,-0.3017674386501312
1702064097438881800,6.8758818359375,-0.025656340643763542,-0.1661553531885147,-0.03130684420466423
1702064097455877400,6.89287744140625,0.03573561832308769,-0.004428773187100887,0.1797471046447754
1702064097472870100,6.9098701171875,-0.00015271631127689034,-0.0012217304902151227,0.27000242471694946
1702064097489864000,6.926864013671875,-0.06536258012056351,-0.1437060534954071,0.20494529604911804
1702064097506855200,6.943855224609375,-0.01160643994808197,-0.2506074607372284,0.06169738993048668
1702064097523853800,6.960853759765625,0.2197587788105011,-0.21823160350322723,-0.01817324012517929
1702064097540834300,6.977834228515625,0.3459024429321289,-0.1281289905309677,0.07254024595022202
1702064097557838600,6.994838623046875,0.34284812211990356,-0.01924225501716137,0.2828305959701538
1702064097574832600,7.01183251953125,0.30695977807044983,0.08307767659425735,0.432034432888031
1702064097591826000,7.028825927734375,0.289702832698822,0.2028072625398636,0.4303545653820038
1702064097608819500,7.0458193359375,0.22815817594528198,0.1941024363040924,0.3228422701358795
1702064097625813200,7.062813232421875,0.1992947906255722,0.29046642780303955,0.34834590554237366
1702064097642807000,7.07980712890625,0.24434609711170197,0.3211624026298523,0.43050727248191833
1702064097659800600,7.096800537109375,0.3003929853439331,0.30344730615615845,0.4453207552433014
1702064097676794000,7.113794189453125,0.2603813111782074,0.43676865100860596,0.417679101228714
1702064097693788000,7.130787841796875,0.1742493063211441,0.6479753255844116,0.4683809280395508
1702064097710781700,7.14778173828125,0.27320948243141174,0.8634580373764038,0.6730207800865173
1702064097727776800,7.16477685546875,0.5120577812194824,0.9980010986328125,0.9066767692565918
1702064097744766200,7.18176611328125,0.6663012504577637,1.007927656173706,1.03984534740448
1702064097761765000,7.19876513671875,0.684779942035675,0.9969320893287659,1.1203268766403198
1702064097778756400,7.21575634765625,0.6195700764656067,1.0847439765930176,1.1905763149261475
1702064097795750000,7.23275,0.46822822093963623,1.3135130405426025,1.1797335147857666
1702064097812743400,7.249743408203125,0.29336804151535034,1.5037975311279297,1.060920238494873
1702064097829737200,7.2667373046875,0.16462817788124084,1.4526375532150269,0.8778133392333984
1702064097846733300,7.2837333984375,0.1365283876657486,1.1936306953430176,0.7961101531982422
1702064097863724500,7.300724609375,0.09544769674539566,0.8407033085823059,0.8327620625495911
1702064097880718300,7.31771826171875,0.033597588539123535,0.5082398653030396,0.9213374853134155
1702064097897723600,7.3347236328125,-0.041691552847623825,0.30482175946235657,1.00502610206604
1702064097914705700,7.35170556640625,-0.13790282607078552,0.20876319706439972,1.0028879642486572
1702064097931697000,7.36869677734375,-0.12629638612270355,0.3744603991508484,0.8402451276779175
1702064097948695300,7.3856953125,-0.026114489883184433,0.551305890083313,0.47739118337631226
1702064097965686500,7.4026865234375,-0.2002110779285431,0.7195992469787598,0.3068070709705353
1702064097982680300,7.419680419921875,-0.4124867618083954,0.7938193678855896,0.3701843321323395
1702064097999673900,7.436673828125,-0.43707409501075745,0.65958172082901,0.5085453391075134
1702064098016667600,7.453667724609375,-0.2626720666885376,0.4170682430267334,0.6194173693656921
1702064098033661400,7.470661376953125,0.017562376335263252,0.26633724570274353,0.6039929986000061
1702064098050652400,7.48765234375,0.05054909735918045,0.23518311977386475,0.48579058051109314
1702064098067651000,7.504651123046875,0.032681290060281754,0.4714352488517761,0.5313000679016113
1702064098084642300,7.521642333984375,-0.08704829961061478,0.6814202070236206,0.6349944472312927
1702064098101633500,7.538633544921875,-0.22846360504627228,0.7644978761672974,0.7212791442871094
1702064098118632200,7.555632080078125,-0.10186178237199783,0.6392704844474792,0.6743952035903931
1702064098135623400,7.57262353515625,0.03985895588994026,0.5636758804321289,0.5867360830307007
1702064098152617000,7.589616943359375,0.10567969083786011,0.6418666839599609,0.6185010671615601
1702064098169610800,7.60661083984375,0.0659734457731247,0.8341364860534668,0.7373143434524536
1702064098186604300,7.623604248046875,-0.0455094613134861,1.0134254693984985,0.9143125414848328
1702064098203598300,7.640598388671875,-0.03329215571284294,0.9639453291893005,0.9862419366836548
1702064098220591600,7.657591552734375,0.02321287989616394,0.7339546084403992,0.8407033085823059
1702064098237585400,7.67458544921875,-0.02275473065674305,0.5361869931221008,0.4992296099662781
1702064098254579200,7.6915791015625,-0.09697485715150833,0.39324450492858887,0.04566217586398125
1702064098271572700,7.70857275390625,-0.19547687470912933,0.27382034063339233,-0.36483925580978394
1702064098288556000,7.72555615234375,-0.23289237916469574,0.15027284622192383,-0.5598580241203308
1702064098305549600,7.742549560546875,-0.15790866315364838,-0.16798794269561768,-0.6206390857696533
1702064098322553900,7.759553955078125,-0.11102475970983505,-0.5212207436561584,-0.6708827614784241
1702064098339537400,7.776537353515625,-0.2093740701675415,-0.6230825781822205,-0.7476990818977356
1702064098356541000,7.793541015625,-0.3139847218990326,-0.470671683549881,-0.8341364860534668
1702064098373534700,7.81053466796875,-0.41004329919815063,-0.4625777006149292,-1.06657075881958
1702064098390528500,7.827528564453125,-0.4369213581085205,-0.3836233615875244,-1.2223412990570068
1702064098407522300,7.844522216796875,-0.32879820466041565,-0.3908010423183441,-1.2075278759002686
1702064098424515800,7.861515869140625,-0.28955012559890747,-0.5998696684837341,-1.1256719827651978
1702064098441509400,7.87850927734375,-0.375529408454895,-0.675006091594696,-0.9760099649429321
1702064098458503200,7.895503173828125,-0.42500948905944824,-0.7006624341011047,-0.9590584635734558
1702064098475496700,7.91249658203125,-0.502436637878418,-0.7000515460968018,-1.049924612045288
1702064098492490500,7.929490478515625,-0.4970915913581848,-0.5966626405715942,-1.028544306755066
1702064098509484000,7.946484130859375,-0.38667771220207214,-0.7800748944282532,-1.0154107809066772
1702064098526477800,7.963477783203125,-0.36911532282829285,-1.0123564004898071,-1.0435105562210083
1702064098543471400,7.980471435546875,-0.589790403842926,-1.0190759897232056,-1.1624765396118164
1702064098560465200,7.997465087890625,-0.684779942035675,-0.656680166721344,-1.1301007270812988
1702064098577457000,8.014456787109374,-0.41920626163482666,-0.4411974251270294,-0.9251554012298584
1702064098594454300,8.031454345703125,-0.04382958263158798,-0.9027060866355896,-0.7663304209709167
1702064098611446000,8.048446044921874,-0.10308351367712021,-1.62047278881073,-0.6896668672561646
1702064098628439800,8.065439697265624,-0.2226603776216507,-1.5294538736343384,-0.385303258895874
1702064098645433300,8.082433349609374,0.010842857882380486,-0.6058256030082703,0.04596760869026184
1702064098662427100,8.09942724609375,0.5157229900360107,0.14324790239334106,0.3263547718524933
1702064098679410200,8.11641015625,0.632398247718811,0.023976460099220276,0.12003502249717712
1702064098696414500,8.13341455078125,0.09376781433820724,-0.14508049190044403,-0.23289237916469574
1702064098713397800,8.150397705078126,-0.2840523421764374,0.05803219974040985,-0.22571471333503723
1702064098730399200,8.167399169921875,0.006872233934700489,0.05604688450694084,-0.004428773187100887
1702064098747398100,8.184398193359375,0.6171266436576843,-0.688903272151947,-0.013897184282541275
1702064098764389000,8.20138916015625,0.7014260292053223,-1.172708511352539,-0.23258693516254425
1702064098781383000,8.2183828125,0.2096794992685318,-0.9282097220420837,-0.37858372926712036
1702064098798376400,8.23537646484375,-0.1365283876657486,-0.5609270334243774,-0.33368512988090515
1702064098815370000,8.252369873046876,-0.06368270516395569,-0.5254968404769897,-0.18081611394882202
1702064098832363800,8.26936376953125,0.2399173229932785,-1.1229230165481567,-0.2096794992685318
1702064098849357300,8.286357421875,0.24205535650253296,-1.6140587329864502,-0.41431936621665955
1702064098866351000,8.30335107421875,-0.059864792972803116,-1.5129605531692505,-0.5829181671142578
1702064098883344600,8.3203447265625,-0.18509216606616974,-1.2128729820251465,-0.6304129362106323
1702064098900338400,8.33733837890625,0.01863138936460018,-1.0073168277740479,-0.46181413531303406
1702064098917332000,8.35433203125,0.24144448339939117,-0.9943358898162842,-0.22602014243602753
1702064098934325800,8.37132568359375,0.11545353382825851,-1.1533136367797852,-0.08338310569524765
1702064098951319600,8.388319580078125,-0.1963931769132614,-1.1913399696350098,0.022143865004181862
1702064098968313000,8.40531298828125,-0.3787364661693573,-1.2793045043945312,0.05115996301174164
1702064098985307000,8.422306884765625,-0.3234531581401825,-1.2770137786865234,0.03695734590291977
1702064099002300700,8.43930078125,-0.1420261710882187,-1.129489779472351,-0.055894169956445694
1702064099019294000,8.4562939453125,0.08384125679731369,-0.8429940342903137,-0.17470745742321014
1702064099036287700,8.473287841796875,0.23976461589336395,-0.5154175758361816,-0.2612976133823395
1702064099053281500,8.490281494140625,0.1690569519996643,-0.3672827184200287,-0.2922990322113037
1702064099070268700,8.5072685546875,0.0024434609804302454,-0.40744712948799133,-0.2773328125476837
1702064099087268900,8.524268798828125,-0.14019356667995453,-0.5780312418937683,-0.2606867551803589
1702064099104260400,8.54126025390625,-0.11789698898792267,-0.532369077205658,-0.2652682363986969
1702064099121256200,8.558256103515625,0.052839845418930054,-0.3234531581401825,-0.24587325751781464
1702064099138250000,8.57525,0.2041817009449005,-0.1895209401845932,-0.1036943718791008
1702064099155243500,8.592243408203124,0.27947086095809937,-0.18616119027137756,0.12782354652881622
1702064099172237000,8.609237060546874,0.304669052362442,-0.20051652193069458,0.26710084080696106
1702064099189230300,8.626230224609374,0.30482175946235657,-0.19349156320095062,0.2574796974658966
1702064099206216400,8.643216552734375,0.24404066801071167,-0.16951510310173035,0.244804248213768
1702064099223218200,8.66021826171875,0.23426681756973267,-0.003817907767370343,0.36911532282829285
1702064099240212000,8.6772119140625,0.34804046154022217,0.2922990322113037,0.6194173693656921
1702064099257205500,8.69420556640625,0.5401576161384583,0.3862195611000061,0.7958046793937683
1702064099274199300,8.71119921875,0.7136433124542236,0.28038713335990906,0.8046622276306152
1702064099291192800,8.72819287109375,0.802524209022522,0.10094548016786575,0.7325801253318787
1702064099308187000,8.745186767578126,0.7648032903671265,-0.004886921960860491,0.660192608833313
1702064099325191700,8.762191650390625,0.5910121202468872,0.12400564551353455,0.6351471543312073
1702064099342173700,8.779173583984376,0.3891211748123169,0.43188172578811646,0.7141014933586121
1702064099359167500,8.79616748046875,0.2646573781967163,0.8181012868881226,0.884227454662323
1702064099376161000,8.8131611328125,0.22846360504627228,1.2457069158554077,1.0276280641555786
1702064099393154800,8.83015478515625,0.38988474011421204,1.458593487739563,1.0922271013259888
1702064099410148400,8.8471484375,0.7168503403663635,1.2232576608657837,1.0403034687042236
1702064099427139300,8.864139404296875,1.0111347436904907,0.8084801435470581,1.0430524349212646
1702064099444136000,8.881135986328125,1.1330022811889648,0.4674646258354187,1.0435105562210083
1702064099461138700,8.898138671875,0.9918924570083618,0.27809640765190125,1.0374019145965576
1702064099478123300,8.915123291015625,0.7528914213180542,0.34758231043815613,1.0416779518127441
1702064099495116800,8.93211669921875,0.5532912015914917,0.4570799171924591,1.013578176498413
1702064099512110600,8.949110595703125,0.4554000496864319,0.5653557777404785,1.0441213846206665
1702064099529104100,8.966104248046875,0.4769330322742462,0.5592471361160278,1.0877982378005981
1702064099546098000,8.983097900390625,0.4918992519378662,0.43218716979026794,1.1023063659667969
1702064099563091500,9.000091552734375,0.4836525619029999,0.36224308609962463,1.0015136003494263
1702064099580085800,9.017085693359375,0.437226802110672,0.24648413062095642,0.7312057018280029
1702064099597078300,9.034078369140625,0.3839288055896759,0.28909197449684143,0.717613935470581
1702064099614072600,9.051072509765625,0.37797287106513977,0.4648684561252594,0.8895725011825562
1702064099631066400,9.06806640625,0.37690386176109314,0.8671231865882874,1.0705413818359375
1702064099648060000,9.085059814453125,0.45036038756370544,1.1820242404937744,1.0836749076843262
1702064099665053400,9.102053466796875,0.4433354437351227,1.1273517608642578,0.9724974632263184
1702064099682047500,9.119047607421875,0.3862195611000061,1.0651962757110596,0.9955576062202454
1702064099699040800,9.136040771484375,0.3926336467266083,1.076344609260559,1.0183123350143433
1702064099716034600,9.15303466796875,0.38835757970809937,1.1705704927444458,0.9810495972633362
1702064099733028400,9.1700283203125,0.37262779474258423,1.4535537958145142,0.9486737251281738
1702064099750022000,9.18702197265625,0.34345898032188416,1.7997617721557617,0.9411906003952026
1702064099767015700,9.204015625,0.37339138984680176,1.8150333166122437,0.8996517658233643
1702064099784009200,9.22100927734375,0.46441030502319336,1.305266261100769,0.755793035030365
1702064099800998400,9.237998291015625,0.4928155243396759,0.7443392872810364,0.5277875661849976
1702064099818001000,9.2550009765625,0.3634648323059082,0.3591887652873993,0.3176499307155609
1702064099834990000,9.271989990234376,0.10751228034496307,0.4337143301963806,0.29626965522766113
1702064099851980300,9.288980224609375,-0.11820242553949356,0.6305656433105469,0.3643811047077179
1702064099868977700,9.305977783203126,-0.22770002484321594,0.699288010597229,0.4027129113674164
1702064099885971200,9.32297119140625,-0.18310685455799103,0.6777549982070923,0.39538252353668213
1702064099902965000,9.339965087890626,-0.06276640295982361,0.57436603307724,0.30512720346450806
1702064099919958800,9.356958740234376,0.022143865004181862,0.399200439453125,0.12324206531047821
1702064099936952300,9.373952392578126,0.002138028386980295,0.22281309962272644,-0.08811730891466141
1702064099953935400,9.390935302734375,-0.07391469180583954,0.08460483700037003,-0.32498031854629517
1702064099970939400,9.407939453125,-0.19104810059070587,-0.11392636597156525,-0.5493205785751343
1702064099987933200,9.42493310546875,-0.23151792585849762,-0.2997821271419525,-0.7012733221054077
1702064100004927000,9.441927001953125,-0.2525927722454071,-0.5203045010566711,-0.8529205918312073
1702064100021919000,9.4589189453125,-0.34116822481155396,-0.5600107312202454,-0.9137017130851746
1702064100038914600,9.47591455078125,-0.3985895812511444,-0.5917757153511047,-0.9254608750343323
1702064100055907800,9.492907958984375,-0.42760565876960754,-0.6475171446800232,-0.9017898440361023
1702064100072901600,9.509901611328125,-0.4053090810775757,-0.6710354685783386,-0.8746063113212585
1702064100089895200,9.526895263671875,-0.3124575614929199,-0.6725626587867737,-0.9124799370765686
1702064100106889200,9.54388916015625,-0.40683624148368835,-0.6695083379745483,-1.0273226499557495
1702064100123870200,9.5608701171875,-0.6327036619186401,-0.3045163154602051,-1.0053315162658691
1702064100140872200,9.5778720703125,-0.8058840036392212,-0.05406157299876213,-0.977689802646637
1702064100157870000,9.5948701171875,-0.7921395301818848,-0.098502017557621,-0.9579893946647644
1702064100174861000,9.611861083984374,-0.683863639831543,-0.3191770911216736,-1.105207920074463
1702064100191859700,9.628859619140625,-0.7597636580467224,-0.37980547547340393,-1.3724614381790161
1702064100208842800,9.6458427734375,-0.6914994716644287,-0.3715587854385376,-1.441641926765442
1702064100225844500,9.662844482421875,-0.48655417561531067,-0.5522221922874451,-1.2235630750656128
1702064100242835700,9.679835693359376,-0.5586362481117249,-1.1175779104232788,-1.0809260606765747
1702064100259834400,9.69683447265625,-0.8695666790008545,-1.3190107345581055,-1.1016954183578491
1702064100276821800,9.71382177734375,-1.0494664907455444,-0.8985827565193176,-1.112385630607605
1702064100293819400,9.7308193359375,-0.8440630435943604,-0.09483683109283447,-0.8417723178863525
1702064100310813000,9.74781298828125,-0.3862195611000061,0.11010845750570297,-0.5193881988525391
1702064100327806700,9.764806640625,-0.27320948243141174,-0.34086281061172485,-0.3831652104854584
1702064100344800300,9.78180029296875,-0.5815436840057373,-0.4934264123439789,-0.3006984293460846
1702064100361793800,9.798793701171874,-0.727082371711731,-0.15424346923828125,-0.19379699230194092
1702064100378787600,9.81578759765625,-0.48777589201927185,0.04046982154250145,-0.06673702597618103
1702064100395781000,9.832781005859376,-0.050854530185461044,-0.16661348938941956,0.016798794269561768
1702064100412775200,9.849775146484374,-0.09651670604944229,-0.7221954464912415,-0.17928895354270935
1702064100429771500,9.866771484375,-0.6079636216163635,-0.907898485660553,-0.3669773042201996
1702064100446759400,9.883759521484375,-0.783892810344696,-0.4631885588169098,-0.31459560990333557
1702064100463755800,9.900755859375,-0.39584067463874817,-0.27809640765190125,-0.2102903574705124
1702064100480749600,9.91774951171875,0.16584990918636322,-0.37568211555480957,-0.10522153973579407
1702064100497743400,9.934743408203126,0.12568552792072296,-0.52702397108078,-0.2958115041255951
1702064100514737000,9.95173681640625,-0.726471483707428,-0.3822489380836487,-0.7014260292053223
1702064100531730700,9.968730712890626,-1.4419474601745605,-0.07116580009460449,-0.9940304756164551
1702064100548724200,9.98572412109375,-1.4411838054656982,0.02580905705690384,-0.9535606503486633
1702064100565718300,10.00271826171875,-0.9723447561264038,-0.09728029370307922,-0.6727153658866882
1702064100582711600,10.019711669921875,-0.5109887719154358,-0.3003929853439331,-0.566730260848999
1702064100599705000,10.036705078125,-0.4392121136188507,-0.6618725061416626,-0.7247915863990784
1702064100616699000,10.053698974609375,-0.5737552046775818,-0.7805330753326416,-0.6931793093681335
1702064100633692700,10.070692626953125,-0.4407392740249634,-0.8475755453109741,-0.4980078935623169
1702064100650683600,10.08768359375,-0.11591167747974396,-0.8213083148002625,-0.3445279896259308
1702064100667682300,10.104682373046876,0.08506298810243607,-0.5994115471839905,-0.2620611786842346
1702064100684673500,10.121673583984375,0.06551529467105865,-0.29474249482154846,-0.17302757501602173
1702064100701667300,10.138667236328125,-0.10155634582042694,-0.06505715101957321,-0.023518312722444534
1702064100718650400,10.155650390625,-0.21074850857257843,0.03894266113638878,0.12079860270023346
1702064100735654400,10.172654296875,-0.15271630883216858,-0.0656680166721344,0.19837848842144012
1702064100752648200,10.189648193359375,-0.03634648025035858,-0.2577851414680481,0.2021963894367218
1702064100769641700,10.206641845703125,-0.012522737495601177,-0.2744311988353729,0.09178250283002853
1702064100786635500,10.223635498046875,-0.06368270516395569,-0.12064588814973831,-0.058184914290905
1702064100803629300,10.24062939453125,-0.11972958594560623,-0.02367102913558483,-0.12736541032791138
1702064100820622800,10.257622802734375,-0.08827003091573715,0.05406157299876213,-0.02275473065674305
1702064100837617200,10.2746171875,0.031612277030944824,0.09407325088977814,0.18295414745807648
1702064100854610200,10.291610107421874,0.14782938361167908,0.11102475970983505,0.38148534297943115
1702064100871598300,10.308598388671875,0.19746218621730804,0.14309518039226532,0.5751296281814575
1702064100888597500,10.325597412109374,0.22250767052173615,0.23151792585849762,0.7455610036849976
1702064100905580800,10.342580810546876,0.3436116874217987,0.3897320330142975,0.835969090461731
1702064100922584800,10.359584716796874,0.5294674634933472,0.5441282391548157,0.816421389579773
1702064100939578600,10.37657861328125,0.6760751008987427,0.6685920357704163,0.7849618196487427
1702064100956572200,10.393572265625,0.6834055185317993,0.7188356518745422,0.8130616545677185
1702064100973566200,10.410566162109374,0.5253441333770752,0.7047857642173767,0.870330274105072
1702064100990559500,10.4275595703125,0.32131510972976685,0.5442809462547302,0.826195240020752
1702064101007553300,10.44455322265625,0.14019356667995453,0.2658790946006775,0.646906316280365
1702064101024546800,10.461546875,0.19425514340400696,0.01664607785642147,0.451123982667923
1702064101041540600,10.47854052734375,0.058337632566690445,-0.275958389043808,0.35246923565864563
1702064101058534100,10.4955341796875,-0.365755558013916,0.16004669666290283,0.7742717266082764
1702064101075527700,10.512527587890625,-0.6145304441452026,0.6911939978599548,1.2122620344161987
1702064101092521700,10.529521728515626,-0.4599815309047699,0.8387179970741272,1.3032809495925903
1702064101109515300,10.546515380859375,-0.018478672951459885,0.6082690954208374,1.060920238494873
1702064101126508800,10.5635087890625,0.3400992155075073,0.37140607833862305,0.6776022911071777
1702064101143502600,10.580502685546875,0.4323398768901825,0.1661553531885147,0.38698312640190125
1702064101160496000,10.59749609375,0.42500948905944824,0.2422080636024475,0.43707409501075745
1702064101177490000,10.614489990234375,0.517861008644104,0.46181413531303406,0.7339546084403992
1702064101194483500,10.6314833984375,0.6050620079040527,0.6572909951210022,1.0210613012313843
1702064101211477500,10.6484775390625,0.6293439269065857,0.7754934430122375,1.0586295127868652
1702064101228461600,10.665461669921875,0.5839871764183044,0.835969090461731,0.8307767510414124
1702064101245464600,10.682464599609375,0.49037206172943115,0.8228355050086975,0.5291619896888733
1702064101262458000,10.6994580078125,0.5004513263702393,0.7811439037322998,0.43905940651893616
1702064101279451600,10.71645166015625,0.6957755088806152,0.7247915863990784,0.5392413139343262
1702064101296445400,10.733445556640625,0.7290676832199097,0.6088799238204956,0.7194465398788452
1702064101313439200,10.750439208984375,0.637132465839386,0.8269588351249695,0.9295842051506042
1702064101330432800,10.767432861328125,0.3729332387447357,0.9370672702789307,0.9308059215545654
1702064101347426600,10.784426513671875,0.06627888232469559,1.0590876340866089,0.8576548099517822
1702064101364420400,10.80142041015625,-0.044745877385139465,0.9207266569137573,0.6840163469314575
1702064101381414100,10.8184140625,-0.03451388701796532,0.6782131195068359,0.42470407485961914
1702064101398407400,10.835407470703124,-0.09544769674539566,0.6991352438926697,0.31459560990333557
1702064101415398400,10.8523984375,-0.2096794992685318,0.8028296232223511,0.3805690407752991
1702064101432397300,10.869397216796875,-0.35659259557724,1.0346530675888062,0.5410739183425903
1702064101449388300,10.88638818359375,-0.45494189858436584,1.1201741695404053,0.5056437253952026
1702064101466382000,10.903382080078124,-0.4178318381309509,1.0253373384475708,0.3539963960647583
1702064101483375900,10.9203759765625,-0.3171917796134949,0.8352054953575134,0.24526239931583405
1702064101500369700,10.93736962890625,-0.2321287989616394,0.5887213945388794,0.15775595605373383
1702064101517359400,10.954359375,-0.21349740028381348,0.31749722361564636,-0.020616702735424042
1702064101534360600,10.971360595703125,-0.3309362530708313,0.13897185027599335,-0.24633140861988068
1702064101551350500,10.9883505859375,-0.43279802799224854,0.04092797264456749,-0.45875978469848633
1702064101568344000,11.005343994140626,-0.3599523603916168,-0.058337632566690445,-0.6276640295982361
1702064101585330700,11.02233056640625,-0.1661553531885147,-0.2724458873271942,-0.7376197576522827
1702064101602329000,11.0393291015625,-0.08689557760953903,-0.46929723024368286,-0.7299839854240417
1702064101619327200,11.0563271484375,-0.19394971430301666,-0.5018258094787598,-0.671493649482727
1702064101636318700,11.073318603515625,-0.37171149253845215,-0.2767219543457031,-0.6801984310150146
1702064101653312500,11.0903125,-0.42668938636779785,0.038026362657547,-0.8077165484428406
1702064101670306000,11.10730615234375,-0.40256020426750183,-0.0007635815418325365,-1.0545061826705933
1702064101687298600,11.124298583984375,-0.3504839241504669,-0.11423180252313614,-1.126282811164856
1702064101704277500,11.141277587890626,-0.1895209401845932,-0.16523905098438263,-0.9346238374710083
1702064101721287000,11.158286865234375,0.1111774742603302,-0.2958115041255951,-0.6024658679962158
1702064101738280700,11.17528076171875,0.20830504596233368,-0.8651378750801086,-0.5293147563934326
1702064101755274500,11.1922744140625,-0.14752395451068878,-1.1876747608184814,-0.6575964093208313
1702064101772268000,11.20926806640625,-0.6085745096206665,-0.8191702961921692,-0.7011205554008484
1702064101789261800,11.22626171875,-0.5804746747016907,-0.037110064178705215,-0.5499314665794373
1702064101806255600,11.243255615234375,-0.2987131178379059,0.09865473955869675,-0.5314527750015259
1702064101823249000,11.260248779296875,-0.11255192011594772,-0.26450464129447937,-0.5874996781349182
1702064101840243000,11.277242919921875,-0.20005837082862854,-0.6029239892959595,-0.5404630303382874
1702064101857236500,11.294236572265625,-0.46441030502319336,-0.5665774941444397,-0.3767511546611786
1702064101874230300,11.311230224609375,-0.5972734689712524,-0.42210787534713745,-0.3952298164367676
1702064101891223800,11.328223876953125,-0.536797821521759,-0.48426342010498047,-0.6488916277885437
1702064101908217300,11.34521728515625,-0.23090706765651703,-0.661719799041748,-0.8567385077476501
1702064101925211000,11.3622109375,-0.1134682223200798,-0.9799805879592896,-0.8921687006950378
1702064101942205000,11.379204833984375,-0.03420845419168472,-0.7709119319915771,-0.6218608021736145
1702064101959198200,11.3961982421875,0.12553280591964722,-0.3975205719470978,-0.33429601788520813
1702064101976192000,11.41319189453125,-0.03298672288656235,-0.8210029006004333,-0.4639521539211273
1702064101993183200,11.430183349609376,-0.5772676467895508,-1.273043155670166,-0.8370380997657776
1702064102010182100,11.44718212890625,-1.0225883722305298,-0.9758572578430176,-1.0219775438308716
1702064102027172900,11.4641728515625,-1.096961259841919,-0.33719760179519653,-0.8743008971214294
1702064102044166700,11.481166748046874,-0.7951938509941101,0.06841690838336945,-0.531758189201355
1702064102061160200,11.49816015625,-0.35033121705055237,0.003817907767370343,-0.24434609711170197
1702064102078154000,11.515154052734376,-0.07330382615327835,-0.4222606122493744,-0.12797626852989197
1702064102095147500,11.5321474609375,-0.11071932315826416,-1.1355985403060913,-0.28420504927635193
1702064102112142000,11.54914208984375,-0.4381431043148041,-1.1617130041122437,-0.3631593883037567
1702064102129135400,11.56613525390625,-0.5337435007095337,-0.6803511381149292,-0.4349360466003418
1702064102146128600,11.583128662109376,-0.38667771220207214,-0.4824308156967163,-0.5734497308731079
1702064102163122200,11.6001220703125,-0.18249599635601044,-0.5346598029136658,-0.5688682794570923
1702064102180112100,11.617112060546875,-0.22892175614833832,-0.7385360598564148,-0.4453207552433014
1702064102197113300,11.63411328125,-0.4558582007884979,-0.6374378800392151,-0.22800545394420624
1702064102214103300,11.651103271484375,-0.5251913666725159,-0.4758640229701996,-0.13515393435955048
1702064102231096800,11.668096923828125,-0.3828597962856293,-0.4440990388393402,-0.18066339194774628
1702064102248090600,11.685090576171875,-0.20586158335208893,-0.4407392740249634,-0.2321287989616394
1702064102265084400,11.70208447265625,-0.14813482761383057,-0.43997567892074585,-0.2376265823841095
1702064102282078000,11.719077880859375,-0.23609942197799683,-0.44394633173942566,-0.19074267148971558
1702064102299071500,11.736071533203125,-0.3549126982688904,-0.3292563557624817,-0.11743884533643723
1702064102316065300,11.753065185546875,-0.4024074673652649,-0.20693060755729675,-0.08689557760953903
1702064102333058800,11.770058837890625,-0.35735616087913513,-0.11957687139511108,-0.08261952549219131
1702064102350052600,11.787052490234375,-0.2802344262599945,0.10048733651638031,-0.017562376335263252
1702064102367046100,11.804046142578125,-0.22937989234924316,0.3741549551486969,0.05543602257966995
1702064102384040000,11.8210400390625,-0.16004669666290283,0.4334088861942291,0.06261368840932846
1702064102401033700,11.83803369140625,-0.12263119965791702,0.38576140999794006,0.02779436856508255
1702064102418019800,11.855019775390625,-0.12476922571659088,0.28466320037841797,-0.004734205547720194
1702064102435020800,11.872020751953125,-0.11972958594560623,0.3219259977340698,0.044135015457868576
1702064102452014600,11.8890146484375,-0.06887505948543549,0.3764457106590271,0.11102475970983505
1702064102468997600,11.90599755859375,-0.01160643994808197,0.413097620010376,0.182648703455925
1702064102485992000,11.922991943359374,0.0685696229338646,0.35750889778137207,0.2554943859577179
1702064102502991400,11.939991455078125,0.13347405195236206,0.36193767189979553,0.3491095006465912
1702064102519978500,11.956978515625,0.12476922571659088,0.49617528915405273,0.4248567819595337
1702064102536985000,11.973985107421875,0.194713294506073,0.5380195379257202,0.4602869749069214
1702064102553974300,11.990974365234376,0.3703370690345764,0.48258355259895325,0.5403103232383728
1702064102570970000,12.00797021484375,0.6188064813613892,0.41493022441864014,0.7104362845420837
1702064102587955200,12.024955078125,0.7819074988365173,0.2817615866661072,0.8749117255210876
1702064102604957700,12.041957763671874,0.7183775305747986,0.40744712948799133,1.0088438987731934
1702064102621951000,12.058950927734376,0.5480988621711731,0.5914703011512756,1.003804326057434
1702064102638944800,12.07594482421875,0.3825543522834778,0.8141306638717651,0.8852964639663696
1702064102655938600,12.0929384765625,0.3107776939868927,0.8379544019699097,0.7492262125015259
1702064102672932400,12.109932373046876,0.28756481409072876,0.7476990818977356,0.7076873779296875
1702064102689926000,12.12692578125,0.30604347586631775,0.6795876026153564,0.7405213713645935
1702064102706919400,12.14391943359375,0.2542726695537567,0.6388123035430908,0.7716755270957947
1702064102723913200,12.160913330078126,0.11026117950677872,0.532369077205658,0.7797694802284241
1702064102740906800,12.17790673828125,-0.09376781433820724,0.5868887901306152,0.760832667350769
1702064102757900500,12.194900634765625,-0.050243668258190155,0.7386888265609741,0.5105306506156921
1702064102774891300,12.211891357421875,0.18157969415187836,0.679740309715271,0.1774563491344452
1702064102791890700,12.228890625,0.39248090982437134,0.5057964324951172,0.13057245314121246
1702064102808881700,12.245881591796875,0.5274821519851685,0.16890424489974976,0.318566232919693
1702064102825875000,12.262875,0.40301835536956787,-0.3501785099506378,0.4758640229701996
1702064102842868700,12.27986865234375,0.22189679741859436,-0.260992169380188,0.7562511563301086
1702064102859862500,12.296862548828125,0.32360586524009705,0.49006664752960205,0.9660834074020386
1702064102876856000,12.31385595703125,0.554818332195282,0.967915952205658,0.8736900091171265
1702064102893849600,12.330849609375,0.5940664410591125,0.8698720932006836,0.6461427211761475
1702064102910843400,12.347843505859375,0.6811147332191467,0.7015787363052368,0.6533203721046448
1702064102927837200,12.364837158203125,0.7744244337081909,0.22418753802776337,0.6698137521743774
1702064102944829400,12.381829345703125,0.6203336715698242,-0.0529925599694252,0.6659958362579346
1702064102961832000,12.39883203125,0.35262197256088257,0.05543602257966995,0.6053674817085266
1702064102978818000,12.415818115234375,0.16890424489974976,0.5710062980651855,0.5233588218688965
1702064102995811600,12.4328115234375,0.09560041129589081,0.8691084980964661,0.3400992155075073
1702064103012805400,12.449805419921875,0.05268712714314461,0.7619016766548157,0.17837265133857727
1702064103029799000,12.466798828125,0.16325373947620392,0.6614143252372742,0.25244006514549255
1702064103046792700,12.483792724609375,0.2968805134296417,0.4095851480960846,0.3116939961910248
1702064103063786500,12.500786376953124,0.23258693516254425,0.06612616032361984,0.17409659922122955
1702064103080780000,12.517780029296874,0.08307767659425735,0.09544769674539566,0.018325956538319588
1702064103097773600,12.534773681640624,0.012828170321881771,0.28008171916007996,-0.05268712714314461
1702064103114749400,12.55174951171875,0.04260785132646561,0.3149010241031647,-0.052228979766368866
1702064103131761000,12.568760986328124,0.05619960278272629,0.08811730891466141,-0.11759155988693237
1702064103148766200,12.58576611328125,0.025045474991202354,-0.01970040425658226,-0.1745547503232956
1702064103165748200,12.602748291015626,-0.06459899991750717,0.0022907445672899485,-0.22800545394420624
1702064103182739200,12.6197392578125,-0.2275473028421402,-0.07070764899253845,-0.28848111629486084
1702064103199738000,12.636738037109374,-0.4466952085494995,-0.25244006514549255,-0.41263946890830994
1702064103216729300,12.653729248046876,-0.5908594131469727,-0.37659841775894165,-0.5633704662322998
1702064103233723000,12.670722900390626,-0.6366742849349976,-0.5917757153511047,-0.7000515460968018
1702064103250716700,12.687716552734376,-0.6633996367454529,-0.6927211880683899,-0.7631233930587769
1702064103267710200,12.704710205078126,-0.6591235995292664,-0.5769622325897217,-0.789237916469574
1702064103284699400,12.721699462890625,-0.6615670323371887,-0.4792237877845764,-0.8436049222946167
1702064103301702100,12.7387021484375,-0.5677992701530457,-0.2883284091949463,-0.7713701128959656
1702064103318691300,12.75569140625,-0.2817615866661072,-0.35842517018318176,-0.5978843569755554
1702064103335684900,12.772684814453125,0.021991148591041565,-0.6154467463493347,-0.4056145250797272
1702064103352678400,12.789678466796875,0.15454891324043274,-0.698066234588623,-0.3404046595096588
1702064103369672200,12.806672119140625,0.1963931769132614,-0.5676465034484863,-0.44226643443107605
1702064103386665700,12.823665771484375,0.299018532037735,-0.455705463886261,-0.5601634383201599
1702064103403659500,12.840659423828125,0.504574716091156,-0.5309945940971375,-0.45036038756370544
1702064103420653300,12.8576533203125,0.5514585971832275,-0.7764097452163696,-0.2886338233947754
1702064103437647000,12.874647216796875,0.3142901659011841,-0.693637490272522,-0.3378084897994995
1702064103454640400,12.891640380859375,0.07131851464509964,-0.4786129295825958,-0.5703954100608826
1702064103471634200,12.90863427734375,-0.02871066704392433,-0.32910364866256714,-0.5334380865097046
1702064103488627700,12.925627685546875,-0.1440114825963974,-0.5503895878791809,-0.3952298164367676
1702064103505627400,12.94262744140625,-0.508087158203125,-0.7221954464912415,-0.4836525619029999
1702064103522615000,12.959614990234375,-0.9095783233642578,-0.46593746542930603,-0.7096726894378662
1702064103539608800,12.97660888671875,-0.9587529897689819,-0.48655417561531067,-1.0051788091659546
1702064103556602400,12.993602294921875,-0.8460483551025391,-1.147357702255249,-1.3587169647216797
1702064103573596000,13.010595947265625,-0.8943067193031311,-1.8700112104415894,-1.5804611444473267
1702064103590591500,13.027591552734375,-0.8976664543151855,-1.645671010017395,-1.4482088088989258
1702064103607581700,13.044581787109376,-0.556345522403717,-0.7722864151000977,-0.9346238374710083
1702064103624573000,13.061572998046875,-0.013439035043120384,-0.20372356474399567,-0.23075434565544128
1702064103641570600,13.078570556640624,0.38011088967323303,-0.14874568581581116,0.394008070230484
1702064103658564400,13.095564453125,0.36422839760780334,-0.47250425815582275,0.5729916095733643
1702064103675558100,13.11255810546875,0.058337632566690445,-0.6177374720573425,0.2541199326515198
1702064103692552000,13.129552001953124,-0.16264286637306213,-0.5041165351867676,-0.23945917189121246
1702064103709545500,13.14654541015625,-0.08200865983963013,-0.17898350954055786,-0.42180246114730835
1702064103726539000,13.1635390625,0.14248432219028473,-0.10186178237199783,-0.3446807265281677
1702064103743532500,13.180532470703126,0.031001411378383636,-0.30604347586631775,-0.2718350291252136
1702064103760526300,13.1975263671875,-0.35811975598335266,-0.5125159621238708,-0.3113885521888733
1702064103777519900,13.214519775390626,-0.6082690954208374,-0.46532660722732544,-0.3223841190338135
1702064103794503000,13.2315029296875,-0.5186246037483215,-0.37369680404663086,-0.2996293902397156
1702064103811507200,13.248507080078125,-0.25014930963516235,-0.294895201921463,-0.24358251690864563
1702064103828501000,13.2655009765625,-0.11407908797264099,-0.23869559168815613,-0.2600758671760559
1702064103845494500,13.28249462890625,-0.30863967537879944,-0.30741792917251587,-0.4141666293144226
1702064103862488000,13.299488037109375,-0.6148358583450317,-0.35674530267715454,-0.6400340795516968
1702064103879481900,13.31648193359375,-0.6881396770477295,-0.33826664090156555,-0.8272642493247986
1702064103896460000,13.3334599609375,-0.57436603307724,-0.485027015209198,-0.8633053302764893
1702064103913469200,13.35046923828125,-0.4127921760082245,-0.5511531829833984,-0.6722571849822998
1702064103930463000,13.367462890625,-0.2955060601234436,-0.413097620010376,-0.33918291330337524
1702064103947456500,13.38445654296875,-0.21334469318389893,-0.21930062770843506,-0.06444628536701202
1702064103964439600,13.401439453125,-0.14294247329235077,-0.09804387390613556,0.052839845418930054
1702064103981433600,13.41843359375,-0.0503963828086853,-0.01572977937757969,0.06001751124858856
1702064103998437400,13.435437255859375,0.06536258012056351,-0.03237585723400116,0.03848451003432274
1702064104015420700,13.452420654296875,0.1846340149641037,-0.00045814894838258624,0.11652254313230515
1702064104032427300,13.46942724609375,0.3159700334072113,0.1635591685771942,0.2825251817703247
1702064104049418500,13.48641845703125,0.34636059403419495,0.33719760179519653,0.4069889783859253
1702064104066412000,13.503412109375,0.29107728600502014,0.38896843791007996,0.4311181604862213
1702064104083403300,13.5204033203125,0.20845776796340942,0.30802878737449646,0.35674530267715454
1702064104100402000,13.53740185546875,0.16233743727207184,0.19608774781227112,0.2785545587539673
1702064104117393400,13.554393310546875,0.17073683440685272,0.04657847434282303,0.2272418737411499
1702064104134386700,13.57138671875,0.21120665967464447,0.001679879380390048,0.20112738013267517
1702064104151380500,13.58838037109375,0.2825251817703247,0.18325957655906677,0.18875735998153687
1702064104168374300,13.605374267578124,0.3423899710178375,0.3361285924911499,0.18524488806724548
1702064104185365000,13.622364990234376,0.35842517018318176,0.64217209815979,0.403323769569397
1702064104202360800,13.63936083984375,0.3588833212852478,0.7964155673980713,0.6579018831253052
1702064104219358200,13.656358154296875,0.24159720540046692,0.8706356883049011,0.7745771408081055
1702064104236349400,13.673349365234374,-0.06536258012056351,1.0726794004440308,0.7115052938461304
1702064104253342500,13.690342529296874,-0.3623957931995392,1.368949055671692,0.6357579827308655
1702064104270336000,13.7073359375,-0.21303924918174744,1.5525140762329102,0.7293730974197388
1702064104287329500,13.72432958984375,0.23686300218105316,1.42637038230896,0.9579893946647644
1702064104304330800,13.741330810546875,0.5300782918930054,1.0361801385879517,1.1078041791915894
1702064104321317000,13.758317138671876,0.5393940210342407,0.6012440919876099,1.0586295127868652
1702064104338310700,13.775310546875,0.2727513313293457,0.4524984359741211,0.9863946437835693
1702064104355304400,13.792304443359376,0.0806342139840126,0.8527678847312927,1.065043568611145
1702064104372298000,13.809298095703125,0.21013765037059784,1.2861768007278442,1.0071641206741333
1702064104389291800,13.826291748046875,0.5345070958137512,1.7061465978622437,0.9392052888870239
1702064104406278700,13.843278564453126,0.8400924205780029,1.761888027191162,0.7938193678855896
1702064104423279000,13.860279052734375,0.8854491710662842,1.4442381858825684,0.6585127115249634
1702064104440272600,13.877272705078125,0.7388415336608887,1.0949759483337402,0.6722571849822998
1702064104457266200,13.89426611328125,0.3116939961910248,0.9132435321807861,0.5626068711280823
1702064104474260000,13.911260009765625,-0.22357667982578278,1.1271990537643433,0.2971859276294708
1702064104491253800,13.928253662109375,-0.37659841775894165,0.9906707406044006,0.033597588539123535
1702064104508247300,13.945247314453125,-0.16691893339157104,0.7249443531036377,0.09605856239795685
1702064104525240800,13.96224072265625,-0.09025534242391586,0.5338962078094482,0.4199698567390442
1702064104542235000,13.97923486328125,-0.128434419631958,0.447000652551651,0.6734789609909058
1702064104559228200,13.996228271484375,-0.16081027686595917,0.4977024495601654,0.6113234162330627
1702064104576222000,14.013221923828125,-0.04077525436878204,0.6313292384147644,0.347276896238327
1702064104593213000,14.030212890625,0.08643743395805359,0.6626361012458801,0.13729196786880493
1702064104610211800,14.0472119140625,0.06123924255371094,0.5360342264175415,0.08139779418706894
1702064104627202800,14.064202880859375,0.031001411378383636,0.4398229718208313,0.1408044397830963
1702064104644196600,14.081196533203125,0.06475171446800232,0.5742133259773254,0.2539672255516052
1702064104661190100,14.098190185546875,0.09651670604944229,0.5549710988998413,0.2808452844619751
1702064104678181600,14.115181640625,0.0555887371301651,0.37110063433647156,0.164170041680336
1702064104695179500,14.132179443359375,-0.06750060617923737,0.4761694669723511,0.024129176512360573
1702064104712171000,14.1491708984375,-0.16294831037521362,0.7334964275360107,0.11575896292924881
1702064104729165000,14.1661650390625,-0.1589776873588562,0.6285803318023682,0.39584067463874817
1702064104746158000,14.183157958984374,-0.09636399149894714,0.21823160350322723,0.4999932050704956
1702064104763152000,14.20015185546875,-0.07360926270484924,0.009010262787342072,0.21594086289405823
1702064104780145700,14.217145751953124,-0.02626720629632473,0.13316862285137177,-0.11026117950677872
1702064104797134300,14.23413427734375,-0.05772676691412926,0.08979719132184982,-0.35552358627319336
1702064104814133000,14.251133056640626,-0.23151792585849762,-0.12950342893600464,-0.5925393104553223
1702064104831126500,14.26812646484375,-0.3591887652873993,-0.23869559168815613,-0.7130324840545654
1702064104848120300,14.285120361328126,-0.36010506749153137,-0.3904955983161926,-0.7684684991836548
1702064104865114000,14.302114013671876,-0.22327125072479248,-0.5413793325424194,-0.7793113589286804
1702064104882107600,14.319107666015626,-0.07864890247583389,-0.5830708742141724,-0.7953465580940247
1702064104899101400,14.336101318359376,0.010690141469240189,-0.35674530267715454,-0.7528914213180542
1702064104916095000,14.353094970703125,-0.010690141469240189,-0.1368338167667389,-0.7148650288581848
1702064104933088500,14.370088623046875,-0.05711590126156807,0.012828170321881771,-0.5885686874389648
1702064104950082300,14.387082275390625,-0.0555887371301651,-0.06414084881544113,-0.5050328373908997
1702064104967076000,14.404076171875,0.04596760869026184,-0.3620903789997101,-0.43539419770240784
1702064104984070000,14.42106982421875,0.09743300825357437,-0.622624397277832,-0.39248090982437134
1702064105001062100,14.438062255859375,-0.07467827945947647,-0.669966459274292,-0.5306891798973083
1702064105018058000,14.45505810546875,-0.4106541574001312,-0.4369213581085205,-0.7519751191139221
1702064105035040000,14.4720400390625,-0.6449210047721863,-0.2513710558414459,-0.8648324608802795
1702064105052045800,14.4890458984375,-0.6860016584396362,-0.451123982667923,-0.7480044960975647
1702064105069037800,14.506037841796875,-0.5468770861625671,-0.8417723178863525,-0.4346306324005127
1702064105086031600,14.523031494140625,-0.37201693654060364,-1.0109820365905762,-0.22449298202991486
1702064105103025200,14.540025146484375,-0.24633140861988068,-0.9005680680274963,-0.24648413062095642
1702064105120021500,14.557021484375,-0.20005837082862854,-0.7531968355178833,-0.33200526237487793
1702064105137009700,14.574009765625,-0.28649580478668213,-0.7710646390914917,-0.36300668120384216
1702064105154006300,14.59100634765625,-0.28069257736206055,-0.7632761001586914,-0.3326161205768585
1702064105170999800,14.607999755859375,-0.2528982162475586,-0.6783658266067505,-0.47968193888664246
1702064105187982000,14.624982177734376,-0.21273382008075714,-0.46273043751716614,-0.7089090943336487
1702064105204988200,14.64198828125,-0.05192354694008827,-0.4579962193965912,-0.6383541822433472
1702064105221980700,14.658980712890624,0.14813482761383057,-0.664315938949585,-0.3208569586277008
1702064105238961200,14.675961181640625,0.11835514008998871,-0.7921395301818848,-0.2681698501110077
1702064105255970800,14.692970703125,-0.2675589919090271,-0.6962336897850037,-0.6525567770004272
1702064105272961800,14.7099619140625,-0.778853178024292,-0.6461427211761475,-1.11391282081604
1702064105289955300,14.726955322265624,-0.5919284224510193,-0.9906707406044006,-1.0351111888885498
1702064105306939000,14.74393896484375,0.2122756689786911,-1.3145819902420044,-0.2871066629886627
1702064105323942700,14.760942626953126,0.707534670829773,-1.6446019411087036,0.21502456068992615
1702064105340936400,14.7779365234375,0.22159136831760406,-1.3351987600326538,0.01237002108246088
1702064105357930000,14.794929931640626,-0.4024074673652649,-0.3196352422237396,-0.3165809214115143
1702064105374923500,14.811923583984376,-0.6340781450271606,0.23167064785957336,-0.37659841775894165
1702064105391917300,14.828917236328126,-0.38438695669174194,0.016340645030140877,-0.07590000331401825
1702064105408911400,14.845911376953126,0.02626720629632473,-0.5149593949317932,0.1293507218360901
1702064105425904600,14.862904541015626,0.0012217304902151227,-0.797789990901947,-0.059864792972803116
1702064105442898200,14.879898193359375,-0.23457226157188416,-0.5988006591796875,-0.266184538602829
1702064105459892000,14.89689208984375,-0.3150537610054016,-0.4882340431213379,-0.3510948121547699
1702064105476885500,14.913885498046875,-0.2562579810619354,-0.7244861721992493,-0.34437528252601624
1702064105493877000,14.930876953125,-0.1264491081237793,-1.2528846263885498,-0.42119157314300537
1702064105510872600,14.94787255859375,-0.1647808998823166,-1.7114917039871216,-0.6165157556533813
1702064105527869200,14.964869140625,-0.342237263917923,-1.8031214475631714,-0.7718282341957092
1702064105544860200,14.981860107421875,-0.34697145223617554,-1.3477214574813843,-0.6820310354232788
1702064105561853700,14.998853759765625,-0.09911288321018219,-0.7144069075584412,-0.35353827476501465
1702064105578847500,15.015847412109375,0.197004035115242,-0.33948835730552673,0.033139441162347794
1702064105595841300,15.03284130859375,0.21013765037059784,-0.18936823308467865,0.2635883390903473
1702064105612834800,15.049834716796875,0.02367102913558483,-0.03833179548382759,0.26419922709465027
1702064105629828400,15.066828369140625,-0.08368854224681854,-0.004581489134579897,0.11331550031900406
1702064105646822100,15.083822265625,-0.02367102913558483,-0.05772676691412926,-0.003817907767370343
1702064105663816000,15.10081591796875,0.16462817788124084,-0.026572637259960175,0.05497787147760391
1702064105680809500,15.1178095703125,0.3410155177116394,0.07147123664617538,0.22220222651958466
1702064105697803000,15.134802978515625,0.418748140335083,0.09407325088977814,0.3484986126422882
1702064105714796800,15.151796875,0.37369680404663086,0.08521570265293121,0.3908010423183441
1702064105731790300,15.168790283203125,0.2444988191127777,0.07742717117071152,0.37339138984680176
1702064105748785700,15.18578564453125,0.10354165732860565,0.13866640627384186,0.3173444867134094
1702064105765777700,15.202777587890624,0.10766500234603882,0.3724750876426697,0.3292563557624817
1702064105782759400,15.219759521484375,0.37950003147125244,0.6498079299926758,0.4830417037010193
1702064105799765200,15.23676513671875,0.6363688707351685,0.8752171993255615,0.669966459274292
1702064105816760000,15.253760009765625,0.7287622094154358,0.9624181985855103,0.7722864151000977
1702064105833752300,15.27075244140625,0.6215553879737854,0.8223773241043091,0.7044803500175476
1702064105850745900,15.287745849609376,0.545655369758606,0.42210787534713745,0.636521577835083
1702064105867739600,15.30473974609375,0.5865833759307861,0.05207626149058342,0.6808093190193176
1702064105884733200,15.321733154296876,0.5338962078094482,0.013439035043120384,0.6843217611312866
1702064105901724200,15.33872412109375,0.45265114307403564,0.48059824109077454,0.6050620079040527
1702064105918723300,15.355723388671874,0.36682456731796265,0.7930558323860168,0.5268712639808655
1702064105935704000,15.3727041015625,0.33108896017074585,0.7189884185791016,0.585667073726654
1702064105952707800,15.389707763671876,0.22892175614833832,0.4358523488044739,0.6805039048194885
1702064105969701600,15.40670166015625,-0.0988074541091919,0.08811730891466141,0.5969680547714233
1702064105986695200,15.423695068359375,-0.23594669997692108,-0.02733621932566166,0.3579670190811157
1702064106003689000,15.44068896484375,0.16768251359462738,0.33719760179519653,0.27000242471694946
1702064106020682500,15.4576826171875,0.7628179788589478,0.7499898076057434,0.43737950921058655
1702064106037676000,15.474676025390625,0.9905179738998413,0.8029823899269104,0.7023423314094543
1702064106054669800,15.491669921875,0.8991936445236206,0.6243042945861816,0.9237809777259827
1702064106071663400,15.508663330078125,0.6893614530563354,0.4358523488044739,0.9424123764038086
1702064106088657200,15.5256572265625,0.6850853562355042,0.29504790902137756,0.7812966704368591
1702064106105640700,15.542640625,0.9382890462875366,0.1498146951198578,0.5914703011512756
1702064106122644500,15.55964453125,1.1771373748779297,0.07177666574716568,0.4996877610683441
1702064106139638000,15.576637939453125,1.2116512060165405,0.18448130786418915,0.4153883755207062
1702064106156631800,15.5936318359375,0.9876163601875305,0.4732678532600403,0.4050036668777466
1702064106173622800,15.610622802734374,0.5453499555587769,0.7258606553077698,0.4118759036064148
1702064106190621700,15.62762158203125,0.164170041680336,0.7302893996238708,0.4196644127368927
1702064106207613000,15.644613037109375,0.06215553730726242,0.565203070640564,0.4060726761817932
1702064106224606200,15.661606201171875,0.17867808043956757,0.3367394804954529,0.2590068578720093
1702064106241600000,15.67860009765625,0.32391130924224854,0.1440114825963974,-0.035124752670526505
1702064106258593500,15.695593505859375,0.33948835730552673,0.08429940044879913,-0.27458393573760986
1702064106275587300,15.71258740234375,0.1385136991739273,0.04688390716910362,-0.34208452701568604
1702064106292579300,15.729579345703126,-0.13805554807186127,0.011301007121801376,-0.1992947906255722
1702064106309576200,15.746576171875,-0.22342395782470703,0.004886921960860491,0.09651670604944229
1702064106326568200,15.763568115234374,-0.18631389737129211,-0.08979719132184982,0.37537670135498047
1702064106343562000,15.78056201171875,-0.06108652427792549,-0.0933096632361412,0.5383250117301941
1702064106360555500,15.797555419921874,0.08368854224681854,0.17516560852527618,0.5230533480644226
1702064106377547500,15.814547607421876,0.15103642642498016,0.5818491578102112,0.40164390206336975
1702064106394540500,15.83154052734375,0.13973543047904968,0.7504479289054871,0.2551889419555664
1702064106411536600,15.84853662109375,0.1333213448524475,0.6313292384147644,0.19120082259178162
1702064106428530200,15.8655302734375,0.09697485715150833,0.3985895812511444,0.12522737681865692
1702064106445523700,15.882523681640626,0.03344487398862839,0.17547103762626648,-0.06887505948543549
1702064106462517500,15.899517578125,-0.03726277872920036,0.014202617108821869,-0.4132503271102905
1702064106479511000,15.916510986328126,-0.09926560521125793,0.024587325751781464,-0.7334964275360107
1702064106496500500,15.93350048828125,-0.16982053220272064,0.0027488935738801956,-0.8930850028991699
1702064106513500000,15.9505,-0.23671028017997742,-0.15775595605373383,-0.831845760345459
1702064106530494500,15.967494384765626,-0.23854288458824158,-0.25702154636383057,-0.5916230082511902
1702064106547485700,15.984485595703125,-0.19532416760921478,-0.21319197118282318,-0.4050036668777466
1702064106564479200,16.001479248046873,-0.17592918872833252,-0.10583240538835526,-0.44486260414123535
1702064106581473000,16.01847314453125,-0.06230825558304787,-0.060933809727430344,-0.4772384762763977
1702064106598466600,16.035466552734373,0.05192354694008827,-0.14355333149433136,-0.4050036668777466
1702064106615460600,16.052460693359375,-0.01710422709584236,-0.28038713335990906,-0.4612032473087311
1702064106632454000,16.069453857421873,-0.17760907113552094,-0.15042556822299957,-0.5978843569755554
1702064106649447400,16.086447509765627,-0.2588541507720947,0.16539175808429718,-0.6721044778823853
1702064106666441500,16.10344140625,-0.2142609804868698,0.09407325088977814,-0.6178901791572571
1702064106683430100,16.12043017578125,-0.3016147017478943,-0.16325373947620392,-0.6104071140289307
1702064106700433200,16.13743310546875,-0.45524731278419495,-0.11133018881082535,-0.665232241153717
1702064106717420300,16.154420166015626,-0.4337143301963806,0.19822576642036438,-0.7235698699951172
1702064106734418700,16.171418701171874,-0.26542094349861145,0.14049901068210602,-0.627358615398407
1702064106751408600,16.18840869140625,-0.04398229718208313,-0.20906862616539001,-0.3842342495918274
1702064106768403500,16.205403564453125,-0.16798794269561768,-0.617584764957428,-0.379652738571167
1702064106785396700,16.222396728515626,-0.4127921760082245,-0.7628179788589478,-0.38957929611206055
1702064106802390500,16.239390625,-0.3917173445224762,-0.6520986557006836,-0.28817567229270935
1702064106819384300,16.25638427734375,-0.45402559638023376,-0.6918048858642578,-0.42149701714515686
1702064106836377900,16.2733779296875,-0.4792237877845764,-0.45142942667007446,-0.5041165351867676
1702064106853371400,16.290371337890626,-0.34895676374435425,-0.27748554944992065,-0.4329507350921631
1702064106870365000,16.307364990234376,-0.12232576310634613,-0.2791654169559479,-0.2177734673023224
1702064106887358700,16.324358642578126,0.043218716979026794,-0.4355469346046448,-0.08536841720342636
1702064106904364000,16.341364013671875,0.05314527451992035,-0.5163338780403137,-0.15286903083324432
1702064106921346000,16.358345947265626,-0.21212296187877655,-0.45555275678634644,-0.4069889783859253
1702064106938339600,16.375339599609376,-0.43967026472091675,-0.12171489745378494,-0.43615779280662537
1702064106955333400,16.39233349609375,-0.1722639948129654,-0.04505131021142006,-0.09468411654233932
1702064106972327000,16.409326904296876,0.38087448477745056,-0.27229318022727966,0.35262197256088257
1702064106989320700,16.42632080078125,0.6142250299453735,-0.5658139586448669,0.48915034532546997
1702064107006314200,16.443314208984376,0.2938261926174164,-0.660192608833313,0.16081027686595917
1702064107023308000,16.46030810546875,-0.19486601650714874,-0.4691445231437683,-0.3407101035118103
1702064107040299000,16.477299072265627,-0.45005497336387634,-0.3445279896259308,-0.660803496837616
1702064107057291000,16.494291015625,-0.36102136969566345,-0.5916230082511902,-0.6522513628005981
1702064107074291000,16.511291015625,-0.09269879758358002,-1.0213667154312134,-0.49205195903778076
1702064107091283200,16.528283203125,-0.0027488935738801956,-1.3562735319137573,-0.4772384762763977
1702064107108276200,16.545276123046875,-0.2399173229932785,-1.2846496105194092,-0.5542075037956238
1702064107125276400,16.5622763671875,-0.4712825417518616,-0.9456194043159485,-0.5684100985527039
1702064107142260500,16.579260498046875,-0.5048801302909851,-0.7371616363525391,-0.5129740834236145
1702064107159257000,16.596257080078125,-0.36850446462631226,-0.584750771522522,-0.3862195611000061
1702064107176250600,16.613250732421875,-0.2243402600288391,-0.49357911944389343,-0.2405281960964203
1702064107193234200,16.630234130859375,-0.16371189057826996,-0.38988474011421204,-0.09193521738052368
1702064107210238200,16.64723828125,-0.08643743395805359,-0.27840182185173035,0.03588833287358284
1702064107227231700,16.664231689453125,0.04505131021142006,-0.3556762933731079,0.10690141469240189
1702064107244225300,16.681225341796875,0.168751522898674,-0.5233588218688965,0.15485434234142303
1702064107261219000,16.698218994140625,0.3019201457500458,-0.603076696395874,0.16722436249256134
1702064107278212600,16.715212646484375,0.41630467772483826,-0.4147774875164032,0.16768251359462738
1702064107295206400,16.732206298828125,0.45494189858436584,-0.19944749772548676,0.19807305932044983
1702064107312189400,16.749189453125,0.3933972120285034,-0.06902777403593063,0.3019201457500458
1702064107329193500,16.766193359375,0.30802878737449646,-0.0064140851609408855,0.3741549551486969
1702064107346187300,16.783187255859374,0.2583959996700287,0.03497203439474106,0.40454551577568054
1702064107363180800,16.800180908203124,0.25182920694351196,0.16539175808429718,0.5248859524726868
1702064107380174600,16.817174560546874,0.34513887763023376,0.49327367544174194,0.7895433306694031
1702064107397165600,16.83416552734375,0.5532912015914917,0.8326093554496765,1.062447428703308
1702064107414164500,16.85116455078125,0.8121453523635864,0.8736900091171265,1.2249375581741333
1702064107431155700,16.86815576171875,0.925308108329773,0.518471896648407,1.2819007635116577
1702064107448149200,16.885149169921874,0.7900014519691467,0.056352317333221436,1.163851022720337
1702064107465142800,16.902142822265624,0.4395175576210022,0.55069500207901,0.9335548281669617
1702064107482136300,16.91913623046875,0.4075998365879059,1.6336064338684082,0.8458956480026245
1702064107499130000,16.936130126953124,0.8045095205307007,1.9277379512786865,0.9717338681221008
1702064107516123600,16.95312353515625,1.0288498401641846,1.3466523885726929,1.250593900680542
1702064107533128200,16.970128173828126,1.0433578491210938,0.9185886383056641,1.2893837690353394
1702064107550113800,16.98711376953125,1.0071641206741333,0.7052439451217651,0.9831876158714294
1702064107567104800,17.004104736328124,0.8830057382583618,0.5444336533546448,0.6104071140289307
1702064107584098300,17.021098388671874,0.7334964275360107,0.6374378800392151,0.5958990454673767
1702064107601092000,17.038092041015624,0.6440047025680542,0.7241807579994202,0.802524209022522
1702064107618085600,17.055085693359374,0.603687584400177,0.645684540271759,0.9434813857078552
1702064107635079200,17.0720791015625,0.528245747089386,0.6805039048194885,1.0436632633209229
1702064107652073000,17.089072998046873,0.5244278311729431,0.7247915863990784,1.0111347436904907
1702064107669070300,17.1060703125,0.4329507350921631,0.8910996913909912,0.967915952205658
1702064107686060300,17.123060302734373,0.36560285091400146,1.254717230796814,0.9958630800247192
1702064107703053800,17.1400537109375,0.5035057067871094,1.5248724222183228,1.1349875926971436
1702064107720047400,17.15704736328125,0.8303185701370239,1.2116512060165405,1.2324206829071045
1702064107737041400,17.17404150390625,0.8342891931533813,0.5256495475769043,1.3862059116363525
1702064107754034700,17.19103466796875,0.7654141783714294,0.3631593883037567,1.5505287647247314
1702064107771028500,17.208028564453127,0.5879577994346619,0.6866125464439392,1.2965614795684814
1702064107788022000,17.22502197265625,0.3677408695220947,0.9138544201850891,0.8292495608329773
1702064107805016000,17.24201611328125,0.23839016258716583,0.7580837607383728,0.4902193546295166
1702064107822006500,17.259006591796876,0.15241087973117828,0.5306891798973083,0.5048801302909851
1702064107839003100,17.276003173828126,0.12140946835279465,0.4167627990245819,0.6294966340065002
1702064107855980800,17.292980712890625,0.04612032696604729,0.43279802799224854,0.613461434841156
1702064107872990500,17.309990478515626,-0.055894169956445694,0.6299547553062439,0.4694499373435974
1702064107889984000,17.32698388671875,-0.12202033400535583,0.8617781400680542,0.29626965522766113
1702064107906977500,17.3439775390625,-0.09926560521125793,0.8941540122032166,0.19104810059070587
1702064107923961000,17.360961181640626,-0.05146539583802223,0.48655417561531067,0.06719517707824707
1702064107940954400,17.377954345703124,-0.1368338167667389,0.08307767659425735,-0.008399397134780884
1702064107957958400,17.39495849609375,-0.21762074530124664,0.04001167416572571,-0.08216137439012527
1702064107974949600,17.41194970703125,-0.37919458746910095,0.20311269164085388,-0.2588541507720947
1702064107991948500,17.428948486328125,-0.5051855444908142,0.38835757970809937,-0.4918992519378662
1702064108008920800,17.4459208984375,-0.484416127204895,0.40103304386138916,-0.6850853562355042
1702064108025933000,17.46293310546875,-0.46273043751716614,0.14385876059532166,-0.8373435139656067
1702064108042926800,17.4799267578125,-0.46853363513946533,-0.10002918541431427,-0.8497135639190674
1702064108059920400,17.49692041015625,-0.41691553592681885,-0.1843285858631134,-0.6940956115722656
1702064108076914200,17.5139140625,-0.38011088967323303,-0.3901901841163635,-0.598647952079773
1702064108093907700,17.53090771484375,-0.456163614988327,-0.5079344511032104,-0.5685628056526184
1702064108110901500,17.547901611328125,-0.5290092825889587,-0.34574973583221436,-0.5983424782752991
1702064108127895000,17.56489501953125,-0.6194173693656921,-0.16539175808429718,-0.7165449261665344
1702064108144888600,17.581888671875,-0.5277875661849976,-0.005650503560900688,-0.7370089292526245
1702064108161882400,17.59888232421875,-0.32162055373191833,-0.1463022232055664,-0.5772676467895508
1702064108178869500,17.615869384765624,-0.2834414839744568,-0.540921151638031,-0.4369213581085205
1702064108195869700,17.63286962890625,-0.4729624092578888,-0.6090326309204102,-0.4590652287006378
1702064108212863200,17.64986328125,-0.7819074988365173,-0.32498031854629517,-0.6698137521743774
1702064108229856800,17.666856689453127,-0.7919867634773254,-0.010995574295520782,-0.8379544019699097
1702064108246850600,17.6838505859375,-0.607200026512146,-0.26419922709465027,-0.9897544384002686
1702064108263844000,17.700843994140627,-0.5813909769058228,-0.594524621963501,-0.9892962574958801
1702064108280838000,17.717837890625,-0.5542075037956238,-0.7107416987419128,-0.8434522151947021
1702064108297831400,17.73483154296875,-0.5067127346992493,-0.9188940525054932,-0.669355571269989
1702064108314814700,17.751814697265626,-0.2739730477333069,-1.011745572090149,-0.44394633173942566
1702064108331818800,17.76881884765625,-0.1823432743549347,-1.2571606636047363,-0.5641340613365173
1702064108348812500,17.7858125,-0.5514585971832275,-1.2721269130706787,-0.9208793640136719
1702064108365806000,17.80280615234375,-0.8614727258682251,-0.8426886200904846,-1.0065531730651855
1702064108382799600,17.819799560546876,-0.7095199823379517,-0.2834414839744568,-0.7382306456565857
1702064108399783000,17.836782958984376,-0.29626965522766113,-0.2974913716316223,-0.42470407485961914
1702064108416787000,17.853786865234376,-0.14798210561275482,-0.6753115057945251,-0.32330042123794556
1702064108433780700,17.87078076171875,-0.4141666293144226,-0.7825183868408203,-0.39904773235321045
1702064108450774500,17.8877744140625,-0.6235406994819641,-0.7067710757255554,-0.4334088861942291
1702064108467768000,17.90476806640625,-0.5757405161857605,-0.5543602108955383,-0.3599523603916168
1702064108484761600,17.92176171875,-0.4346306324005127,-0.5395467281341553,-0.4170682430267334
1702064108501755400,17.93875537109375,-0.6227771043777466,-0.3078760802745819,-0.5685628056526184
1702064108518748700,17.955748779296876,-0.973566472530365,-0.062460970133543015,-0.6540839672088623
1702064108535742500,17.972742431640626,-1.3523029088974,0.026572637259960175,-0.5600107312202454
1702064108552736300,17.989736328125,-1.380555510520935,0.13866640627384186,-0.29306259751319885
1702064108569729800,18.006729736328126,-1.1020009517669678,0.12400564551353455,-0.10186178237199783
1702064108586723300,18.023723388671876,-0.8258898258209229,-0.14233160018920898,-0.13179416954517365
1702064108603705900,18.040705810546875,-0.760832667350769,-0.42562034726142883,-0.3692680299282074
1702064108620713200,18.057713134765624,-0.8570439219474792,-0.6501133441925049,-0.6461427211761475
1702064108637704400,18.074704345703125,-0.8429940342903137,-0.8098546266555786,-0.6824892163276672
1702064108654698200,18.0916982421875,-0.6067419052124023,-0.8930850028991699,-0.5406157374382019
1702064108671681300,18.108681396484375,-0.38209620118141174,-0.8856018781661987,-0.44776421785354614
1702064108688685300,18.125685302734375,-0.3358231782913208,-0.7539604306221008,-0.4156937897205353
1702064108705675500,18.142675537109376,-0.40653082728385925,-0.4911356568336487,-0.4170682430267334
1702064108722672600,18.159672607421875,-0.5574145317077637,-0.3179553747177124,-0.4813618063926697
1702064108739666200,18.176666259765625,-0.7081455588340759,-0.31261029839515686,-0.4966334402561188
1702064108756660000,18.193659912109375,-0.7086036801338196,-0.35445454716682434,-0.4804455041885376
1702064108773653500,18.210653564453125,-0.5998696684837341,-0.2742784917354584,-0.4141666293144226
1702064108790644700,18.227644775390626,-0.4508185386657715,-0.10919216275215149,-0.2871066629886627
1702064108807643400,18.244643310546873,-0.2997821271419525,0.053297992795705795,-0.11438451707363129
1702064108824634400,18.26163427734375,-0.17638733983039856,0.027030786499381065,0.036651913076639175
1702064108841628200,18.278628173828125,-0.08659014850854874,-0.10873401165008545,0.13057245314121246
1702064108858619400,18.295619384765626,-0.020463986322283745,-0.07559457421302795,0.11071932315826416
1702064108875618000,18.3126181640625,0.01114829070866108,0.128434419631958,0.04764748737215996
1702064108892609000,18.329609130859374,0.054825156927108765,0.3173444867134094,0.13026700913906097
1702064108909602800,18.346602783203124,0.0910189226269722,0.42791110277175903,0.3419318199157715
1702064108926596400,18.363596435546874,0.1635591685771942,0.42119157314300537,0.43478333950042725
1702064108943590100,18.380590087890624,0.18280142545700073,0.2968805134296417,0.3072652220726013
1702064108960583700,18.397583740234374,0.17043140530586243,0.1394299864768982,0.08918632566928864
1702064108977577200,18.4145771484375,0.12263119965791702,-0.022143865004181862,-0.05910121276974678
1702064108994571000,18.431571044921874,0.15195272862911224,-0.09987647086381912,-0.08139779418706894
1702064109011564500,18.448564453125,0.23258693516254425,0.07177666574716568,0.08032877743244171
1702064109028558300,18.465558349609374,0.2837468981742859,0.2767219543457031,0.3478877544403076
1702064109045551900,18.4825517578125,0.346818745136261,0.27641651034355164,0.5259549617767334
1702064109062545700,18.499545654296874,0.31230485439300537,0.02977968007326126,0.5167919993400574
1702064109079539200,18.516539306640624,0.1088867336511612,-0.3543018400669098,0.42210787534713745
1702064109096517400,18.533517333984374,-0.05192354694008827,-0.6085745096206665,0.33337971568107605
1702064109113526500,18.550526611328124,-0.02015855349600315,0.10644327104091644,0.5273294448852539
1702064109130520000,18.56752001953125,0.2977968156337738,1.10139000415802,0.8776606321334839
1702064109147503400,18.58450341796875,0.6394231915473938,1.465771198272705,1.2304353713989258
1702064109164507400,18.60150732421875,0.7750352621078491,1.1829406023025513,1.4347697496414185
1702064109181501200,18.618501220703124,0.7675521969795227,0.6904304623603821,1.3629931211471558
1702064109198495000,18.635494873046873,0.7026477456092834,0.2964223623275757,0.9036223888397217
1702064109215488300,18.65248828125,0.6209444999694824,0.2816088795661926,0.3880521357059479
1702064109232482000,18.66948193359375,0.5682573914527893,0.5212207436561584,0.21563543379306793
1702064109249475600,18.6864755859375,0.44837507605552673,0.741284966468811,0.5112941861152649
1702064109266469400,18.703469482421873,0.3364340364933014,0.6873761415481567,0.9260717034339905
1702064109283463000,18.720462890625,0.3116939961910248,0.6192646622657776,1.0403034687042236
1702064109300456400,18.73745654296875,0.30085113644599915,0.6963863968849182,0.685390830039978
1702064109317450200,18.7544501953125,0.14645494520664215,0.9375254511833191,0.3110831379890442
1702064109334441500,18.77144140625,0.04917465150356293,1.0126618146896362,0.2866485118865967
1702064109351440400,18.7884404296875,0.06123924255371094,0.9523389339447021,0.5516113042831421
1702064109368431000,18.80543115234375,0.07513642311096191,1.0542006492614746,0.7400632500648499
1702064109385425000,18.8224248046875,0.09773843735456467,1.041067123413086,0.7092145681381226
1702064109402418400,18.83941845703125,0.09926560521125793,1.3536773920059204,0.8109236359596252
1702064109419412000,18.856411865234374,-0.023365596309304237,1.3293955326080322,0.9610437750816345
1702064109436405800,18.87340576171875,-0.30573806166648865,1.2316570281982422,0.9998337030410767
1702064109453399300,18.8903994140625,-0.45631635189056396,1.3463469743728638,0.8851437568664551
1702064109470393000,18.90739306640625,-0.3052799105644226,1.3817771673202515,0.6664539575576782
1702064109487386600,18.92438671875,-0.15302173793315887,1.0600038766860962,0.5913175344467163
1702064109504361500,18.941361572265624,-0.033597588539123535,0.6640105247497559,0.6809620261192322
1702064109521376300,18.958376220703126,-0.047800205647945404,0.45494189858436584,0.7261660695075989
1702064109538367700,18.97536767578125,-0.0429132841527462,0.4813618063926697,0.7757988572120667
1702064109555361300,18.992361328125,-0.060475658625364304,0.37827831506729126,0.7189884185791016
1702064109572355000,19.00935498046875,-0.14538592100143433,0.22540926933288574,0.5305364727973938
1702064109589348600,19.0263486328125,-0.23686300218105316,0.12507465481758118,0.18768835067749023
1702064109606342400,19.04334228515625,-0.2793181240558624,0.22342395782470703,-0.048716504126787186
1702064109623336000,19.0603359375,-0.2379320114850998,0.2165517359972,-0.1420261710882187
1702064109640327400,19.077327392578123,-0.11453723162412643,-0.03039054572582245,-0.31780263781547546
1702064109657325000,19.094324951171874,-0.11224649101495743,-0.37262779474258423,-0.618195652961731
1702064109674316800,19.11131689453125,-0.22876903414726257,-0.35216382145881653,-0.7606799602508545
1702064109691310300,19.128310302734373,-0.49235737323760986,-0.20097467303276062,-0.7444919943809509
1702064109708304100,19.14530419921875,-0.6823364496231079,0.0006108652451075613,-0.6948592066764832
1702064109725297700,19.162297607421873,-0.6679811477661133,0.031154127791523933,-0.8862127661705017
1702064109742291200,19.179291259765623,-0.5490151643753052,-0.20631973445415497,-1.0813841819763184
1702064109759285000,19.196284912109373,-0.43508878350257874,-0.5004513263702393,-0.945772111415863
1702064109776278500,19.213278564453127,-0.337044894695282,-0.5253441333770752,-0.6052147150039673
1702064109793272300,19.230272216796877,-0.36819902062416077,-0.4352414906024933,-0.5581781268119812
1702064109810265900,19.247265869140627,-0.5497786998748779,-0.230448916554451,-0.8026769161224365
1702064109827259600,19.264259765625,-0.5290092825889587,0.05207626149058342,-0.9074403047561646
1702064109844253200,19.281253173828127,-0.4440990388393402,-0.17211128771305084,-1.0141890048980713
1702064109861246700,19.298246826171876,-0.6021603941917419,-0.6062837839126587,-1.1772900819778442
1702064109878240500,19.315240478515626,-0.9257662892341614,-0.9460775256156921,-1.2948815822601318
1702064109895234000,19.332234130859376,-0.7713701128959656,-0.8174903988838196,-1.119410514831543
1702064109912226600,19.3492265625,-0.33597588539123535,-0.5464189648628235,-0.6931793093681335
1702064109929222400,19.366222412109376,-0.14278975129127502,-0.5297728776931763,-0.4764748811721802
1702064109946215200,19.383215087890626,-0.4323398768901825,-0.9269880056381226,-0.6003278493881226
1702064109963208700,19.400208740234376,-0.8553640842437744,-1.5636622905731201,-0.741284966468811
1702064109980192300,19.417192138671876,-0.7435756921768188,-1.1355985403060913,-0.5233588218688965
1702064109997195800,19.43419580078125,-0.28787025809288025,-0.531758189201355,-0.31642818450927734
1702064110014189600,19.451189453125,-0.010842857882380486,-0.4001167416572571,-0.522595226764679
1702064110031183000,19.46818310546875,-0.07009678333997726,-0.5586362481117249,-0.6272059082984924
1702064110048177000,19.485177001953126,-0.21960605680942535,-0.5994115471839905,-0.3306308090686798
1702064110065170400,19.50217041015625,-0.043676864355802536,-0.5079344511032104,0.12538009881973267
1702064110082164200,19.519164306640626,0.5175555944442749,-0.6881396770477295,0.30894508957862854
1702064110099157800,19.53615771484375,0.7290676832199097,-0.9779952764511108,0.001832595793530345
1702064110116147200,19.553147216796877,0.1693623960018158,-0.9659306406974792,-0.6606507897377014
1702064110133149400,19.5701494140625,-0.5012149214744568,-0.7009678483009338,-1.0250319242477417
1702064110150139000,19.587138916015626,-0.4784601926803589,-0.6710354685783386,-0.8092437386512756
1702064110167132400,19.60413232421875,0.02626720629632473,-0.922711968421936,-0.35934147238731384
1702064110184126000,19.6211259765625,0.3686571717262268,-0.8524624705314636,0.020922135561704636
1702064110201117200,19.6381171875,0.1638645976781845,-0.5141957998275757,0.07238753139972687
1702064110218115800,19.65511572265625,-0.3972151279449463,-0.2768746614456177,-0.09697485715150833
1702064110235095600,19.672095458984376,-0.8327620625495911,-0.4118759036064148,-0.3039054572582245
1702064110252093700,19.68909375,-0.9257662892341614,-0.7345654368400574,-0.48579058051109314
1702064110269094100,19.70609423828125,-0.7906123399734497,-0.8668177723884583,-0.6322455406188965
1702064110286088000,19.723087890625,-0.5609270334243774,-0.7339546084403992,-0.6588181853294373
1702064110303081500,19.74008154296875,-0.4063780903816223,-0.47998735308647156,-0.4335615932941437
1702064110320075000,19.757074951171877,-0.29626965522766113,-0.3194825351238251,-0.06475171446800232
1702064110337068800,19.77406884765625,-0.25931230187416077,-0.2165517359972,0.1459967941045761
1702064110354062600,19.7910625,-0.2790127098560333,-0.11438451707363129,0.10659598559141159
1702064110371056000,19.80805615234375,-0.29184088110923767,-0.07910704612731934,-0.05390885844826698
1702064110388049700,19.825049560546876,-0.20906862616539001,-0.09544769674539566,-0.07330382615327835
1702064110405043500,19.84204345703125,-0.005345070734620094,-0.0679587572813034,0.0377209298312664
1702064110422037000,19.859037109375,0.18249599635601044,0.07208210229873657,0.17272214591503143
1702064110439030500,19.876030517578126,0.2793181240558624,0.18555031716823578,0.2834414839744568
1702064110456024300,19.8930244140625,0.29336804151535034,0.10170906037092209,0.28817567229270935
1702064110473017900,19.910017822265626,0.26603180170059204,-0.06536258012056351,0.17592918872833252
1702064110490011600,19.92701171875,0.2538145184516907,-0.13377949595451355,0.11331550031900406
1702064110507005200,19.944005126953126,0.2926044464111328,0.1134682223200798,0.15057829022407532
1702064110523988500,19.960988525390626,0.3917173445224762,0.46731191873550415,0.31093040108680725
1702064110540978700,19.977978759765627,0.502436637878418,0.5722280144691467,0.48456886410713196
1702064110557986300,19.994986328125,0.6776022911071777,0.5302310585975647,0.6501133441925049
1702064110574977000,20.01197705078125,0.8970556259155273,0.33948835730552673,0.6409503817558289
1702064110591976000,20.028975830078124,1.0151053667068481,0.07788532227277756,0.4876231849193573
1702064110608967200,20.04596728515625,0.9425650835037231,-0.22800545394420624,0.3585779070854187
1702064110625961000,20.0629609375,0.8364272117614746,-0.06154467165470123,0.43707409501075745
1702064110642954800,20.079954833984374,0.8184067010879517,0.43997567892074585,0.570242702960968
1702064110659948000,20.096947998046875,0.8736900091171265,0.5435173511505127,0.6007859706878662
1702064110676941600,20.113941650390625,0.7806857824325562,0.206777885556221,0.5633704662322998
1702064110693935400,20.130935302734375,0.5120577812194824,0.06918048858642578,0.5155702829360962
1702064110710930400,20.147930419921874,0.2272418737411499,0.11530081182718277,0.5258022546768188
1702064110727922400,20.16492236328125,0.30543261766433716,0.5364924073219299,0.712574303150177
1702064110744916200,20.181916259765625,0.5600107312202454,0.935998260974884,0.8205447196960449
1702064110761909800,20.19890966796875,0.7226535677909851,0.9198103547096252,0.8547531962394714
1702064110778902300,20.21590234375,0.7011205554008484,0.6252205967903137,0.8837692737579346
1702064110795898400,20.2328984375,0.5592471361160278,0.37568211555480957,0.8420777320861816
1702064110812890600,20.249890625,0.6374378800392151,0.3549126982688904,0.7261660695075989
1702064110829884400,20.266884521484375,0.8539896011352539,0.39217549562454224,0.5943718552589417
1702064110846880000,20.2838798828125,0.8532260060310364,0.25106561183929443,0.4957171380519867
1702064110863870000,20.300869873046874,0.7806857824325562,0.2742784917354584,0.6476698517799377
1702064110880865300,20.317865234375,0.7631233930587769,0.04535674303770065,0.6922630667686462
1702064110897859300,20.334859375,0.6227771043777466,0.010231993161141872,0.7391469478607178
1702064110914850600,20.3518505859375,0.4709770977497101,0.22021691501140594,0.8607091307640076
1702064110931848400,20.368848388671875,0.3445279896259308,0.5461135506629944,0.8400924205780029
1702064110948840000,20.38583984375,0.2854267954826355,0.598953366279602,0.6748533844947815
1702064110965833500,20.40283349609375,0.28496864438056946,0.4179845452308655,0.6262896060943604
1702064110982827000,20.419826904296876,0.2664899528026581,0.12232576310634613,0.6656904220581055
1702064110999810300,20.436810302734376,0.11484266817569733,0.08338310569524765,0.7730499505996704
1702064111016814300,20.453814453125,0.005803219974040985,0.09117163717746735,0.8602510094642639
1702064111033808100,20.47080810546875,-0.025656340643763542,-0.060933809727430344,0.803440511226654
1702064111050801700,20.4878017578125,0.058337632566690445,-0.11667526513338089,0.6516404747962952
1702064111067795200,20.504795166015626,0.19624045491218567,-0.005039638374000788,0.33887749910354614
1702064111084789000,20.5217890625,0.1915062516927719,0.1823432743549347,-0.1059851199388504
1702064111101782800,20.53878271484375,0.04535674303770065,0.22617286443710327,-0.43799036741256714
1702064111118776000,20.555776123046876,-0.02122756652534008,0.037110064178705215,-0.44806966185569763
1702064111135769900,20.572769775390626,0.07620543986558914,-0.3588833212852478,-0.3000875413417816
1702064111152763600,20.589763671875,0.14752395451068878,-0.6823364496231079,-0.23884831368923187
1702064111169747500,20.60674755859375,0.3176499307155609,-0.5992587804794312,-0.24984388053417206
1702064111186751000,20.6237509765625,0.408363401889801,-0.4311181604862213,-0.44089198112487793
1702064111203741400,20.640741455078125,0.20983220636844635,-0.23808473348617554,-0.6354525685310364
1702064111220741000,20.6577412109375,-0.007788531947880983,-0.31184670329093933,-0.6339253783226013
1702064111237719300,20.67471923828125,0.07925976812839508,-0.656680166721344,-0.4440990388393402
1702064111254727700,20.691727783203124,0.375071257352829,-1.1301007270812988,-0.38377609848976135
1702064111271719000,20.708718994140625,0.3920227587223053,-0.9859365224838257,-0.5787948369979858
1702064111288712700,20.725712646484375,0.10919216275215149,-0.24404066801071167,-0.9608910083770752
1702064111305688000,20.74268798828125,-0.37659841775894165,0.14813482761383057,-1.1720976829528809
1702064111322700000,20.759699951171875,-0.5117523670196533,-0.07452555745840073,-0.9654725193977356
1702064111339684900,20.776684814453127,-0.22892175614833832,-1.0506882667541504,-0.6995934247970581
1702064111356685300,20.793685302734374,-0.3836233615875244,-1.679421305656433,-0.8822421431541443
1702064111373681000,20.810680908203125,-0.7831292152404785,-1.0366383790969849,-1.207069754600525
1702064111390674400,20.82767431640625,-0.8092437386512756,-0.07895433157682419,-1.2043207883834839
1702064111407668200,20.844668212890625,-0.2941316068172455,0.49327367544174194,-0.6461427211761475
1702064111424661800,20.861661865234375,0.2718350291252136,0.15882496535778046,-0.1007927656173706
1702064111441662000,20.878661865234374,0.3367394804954529,-0.5401576161384583,-0.1414152979850769
1702064111458647600,20.8956474609375,-0.5134322643280029,-1.0396926403045654,-0.7049384713172913
1702064111475644200,20.91264404296875,-1.2331842184066772,-0.6556110978126526,-0.9783006906509399
1702064111492636400,20.929636474609374,-0.7286095023155212,-0.31780263781547546,-0.836885392665863
1702064111509630000,20.9466298828125,0.17211128771305084,-0.6081163287162781,-0.5212207436561584
1702064111526623700,20.963623779296874,0.5671883821487427,-1.2134838104248047,-0.3819434940814972
1702064111543614700,20.98061474609375,0.2860376536846161,-1.410946011543274,-0.4766276180744171
1702064111560612900,20.99761279296875,-0.3065016269683838,-1.1427761316299438,-0.7417431473731995
1702064111577604600,21.0146044921875,-0.6814202070236206,-0.8048149347305298,-0.9431759119033813
1702064111594598100,21.03159814453125,-0.6270532011985779,-0.5801692605018616,-0.8683449625968933
