time,seconds_elapsed,z,y,x
1702061922042960600,0.055960693359375,0.6062837839126587,0.06062837690114975,-0.10216721147298813
1702061922059926800,0.0729267578125,0.6508769392967224,0.20784689486026764,-0.37308594584465027
1702061922076950300,0.0899501953125,0.6803511381149292,0.4812090992927551,-0.7750352621078491
1702061922093950000,0.106949951171875,0.6928738951683044,0.707840085029602,-1.0348057746887207
1702061922110943000,0.12394287109375,0.6965391039848328,0.5464189648628235,-1.0523680448532104
1702061922127935700,0.140935791015625,0.5954409241676331,0.17531833052635193,-1.080162525177002
1702061922144929800,0.1579296875,0.3842342495918274,-0.06582073122262955,-1.3295482397079468
1702061922161923600,0.174923583984375,0.2119702398777008,-0.08460483700037003,-1.6830865144729614
1702061922178915800,0.191915771484375,0.20204368233680725,0.07009678333997726,-1.8542814254760742
1702061922195913000,0.208912841796875,0.30283644795417786,0.02015855349600315,-1.8145751953125
1702061922212905200,0.2259052734375,0.2561052441596985,-0.18829920887947083,-1.8666514158248901
1702061922229903000,0.242903076171875,0.09987647086381912,-0.24724771082401276,-1.9514089822769165
1702061922246898700,0.259898681640625,0.08246681094169617,-0.35521814227104187,-1.8777997493743896
1702061922263885600,0.276885498046875,0.31841349601745605,-0.38728857040405273,-1.5890132188796997
1702061922280882200,0.293882080078125,0.5258022546768188,-0.6262896060943604,-1.4176654815673828
1702061922297877200,0.310877197265625,0.35873061418533325,-0.7064656615257263,-1.2779301404953003
1702061922314863900,0.32786376953125,0.20815233886241913,-0.4202753007411957,-1.2018773555755615
1702061922331866600,0.34486669921875,0.5065600275993347,-0.07192938029766083,-1.173930287361145
1702061922348857000,0.361857177734375,0.8849910497665405,-0.27580565214157104,-1.2622003555297852
1702061922365848800,0.378848876953125,0.6003278493881226,-0.7893906235694885,-1.3321443796157837
1702061922382845000,0.395844970703125,0.08704829961061478,-0.8802568316459656,-1.2292135953903198
1702061922399838500,0.41283837890625,0.06291911751031876,-0.2935207486152649,-1.09024178981781
1702061922416833300,0.429833251953125,0.5334380865097046,0.19089539349079132,-1.1432342529296875
1702061922433823700,0.44682373046875,0.7738135457038879,0.0555887371301651,-1.3213015794754028
1702061922450819600,0.463819580078125,0.26939156651496887,-0.30833423137664795,-1.281595230102539
1702061922467815400,0.4808154296875,-0.19547687470912933,-0.21288654208183289,-1.1606439352035522
1702061922484805000,0.49780517578125,-0.078343465924263,0.375071257352829,-1.1435397863388062
1702061922501802200,0.51480224609375,0.3966042697429657,1.086118459701538,-1.1273517608642578
1702061922518794800,0.531794677734375,0.7148650288581848,1.34115469455719,-0.9663888216018677
1702061922535785000,0.548784912109375,0.7047857642173767,0.8452847599983215,-0.6800457239151001
1702061922552774400,0.5657744140625,0.365755558013916,-0.02626720629632473,-0.36529740691185
1702061922569777000,0.58277685546875,-0.07238753139972687,-0.6898195743560791,-0.39156460762023926
1702061922586771200,0.599771240234375,-0.21792617440223694,-0.6960809230804443,-0.6473644375801086
1702061922603762700,0.6167626953125,-0.12003502249717712,-0.37201693654060364,-0.8130616545677185
1702061922620757800,0.6337578125,0.011301007121801376,-0.08827003091573715,-0.721737265586853
1702061922637755600,0.650755615234375,0.026419922709465027,-0.10018189996480942,-0.5268712639808655
1702061922654741000,0.667740966796875,-0.13668109476566315,-0.47800204157829285,-0.346818745136261
1702061922671741000,0.684740966796875,-0.3546072840690613,-0.8686503767967224,-0.25503623485565186
1702061922688734000,0.70173388671875,-0.4479169547557831,-0.9108000993728638,-0.30344730615615845
1702061922705716500,0.718716552734375,-0.375071257352829,-0.5858197808265686,-0.35445454716682434
1702061922722721500,0.735721435546875,-0.27229318022727966,-0.08292495459318161,-0.2718350291252136
1702061922739714800,0.75271484375,-0.23518311977386475,0.21624629199504852,-0.12324206531047821
1702061922756714200,0.76971435546875,-0.15164729952812195,0.18616119027137756,-0.027030786499381065
1702061922773700400,0.786700439453125,-0.16737708449363708,-0.08384125679731369,0.09407325088977814
1702061922790696000,0.803696044921875,-0.1966986060142517,-0.21365012228488922,0.14294247329235077
1702061922807692800,0.82069287109375,-0.07330382615327835,-0.031612277030944824,0.09193521738052368
1702061922824679700,0.8376796875,0.06811147183179855,0.1511891484260559,0.10873401165008545
1702061922841679000,0.85467919921875,0.1768454909324646,0.08384125679731369,0.1667662113904953
1702061922858674700,0.8716748046875,0.1950187236070633,-0.08491026610136032,0.30085113644599915
1702061922875663000,0.8886630859375,0.12599095702171326,-0.05971207842230797,0.46303585171699524
1702061922892660000,0.905659912109375,0.08918632566928864,0.182648703455925,0.5619960427284241
1702061922909654000,0.922654052734375,0.07192938029766083,0.32757648825645447,0.6397286057472229
1702061922926648300,0.9396484375,0.04596760869026184,0.35873061418533325,0.6727153658866882
1702061922943639600,0.9566396484375,-0.0507018156349659,0.39614611864089966,0.6537785530090332
1702061922960633600,0.973633544921875,-0.11178833991289139,0.39125919342041016,0.6575964093208313
1702061922977630000,0.9906298828125,-0.01572977937757969,0.4331034719944,0.7499898076057434
1702061922994619400,1.007619384765625,0.4369213581085205,0.4231768846511841,0.7386888265609741
1702061923011616300,1.0246162109375,1.103833556175232,-0.07147123664617538,0.3582724630832672
1702061923028598300,1.041598388671875,1.0942124128341675,-0.6966918110847473,0.42439863085746765
1702061923045607000,1.05860693359375,0.5169447064399719,-0.5926920175552368,0.9763153791427612
1702061923062594800,1.0755947265625,0.12400564551353455,-0.01160643994808197,1.1998920440673828
1702061923079591200,1.092591064453125,0.10018189996480942,0.7422012686729431,1.1749993562698364
1702061923096586500,1.10958642578125,0.5505422949790955,0.826195240020752,0.5670356750488281
1702061923113576700,1.12657666015625,0.8200865983963013,0.3692680299282074,-0.12767083942890167
1702061923130572300,1.143572265625,0.5769622325897217,-0.7733554244041443,-0.5677992701530457
1702061923147568400,1.160568359375,0.23090706765651703,-1.4950926303863525,-0.3257438838481903
1702061923164557600,1.1775576171875,0.02672535367310047,-1.0948232412338257,0.2002110779285431
1702061923181539300,1.194539306640625,-0.09712757170200348,0.13820825517177582,0.5632177591323853
1702061923198549000,1.211549072265625,0.013897184282541275,1.011745572090149,0.47968193888664246
1702061923215539500,1.22853955078125,0.004428773187100887,0.7197519540786743,0.10491610318422318
1702061923232536000,1.2455361328125,-0.01237002108246088,0.10002918541431427,0.06963863968849182
1702061923249529600,1.262529541015625,0.03191770985722542,-0.14996741712093353,0.23090706765651703
1702061923266524400,1.2795244140625,-0.026572637259960175,0.10781771689653397,0.2889392673969269
1702061923283515000,1.296514892578125,-0.16982053220272064,0.7907650470733643,0.2817615866661072
1702061923300510500,1.313510498046875,-0.1661553531885147,0.979827880859375,0.37308594584465027
1702061923317506600,1.330506591796875,0.026572637259960175,0.707840085029602,0.6678284406661987
1702061923334495500,1.34749560546875,0.21899518370628357,0.2243402600288391,0.850782573223114
1702061923351492400,1.364492431640625,0.3199406862258911,0.0933096632361412,0.7739662528038025
1702061923368487400,1.3814873046875,0.2848159074783325,0.20051652193069458,0.4834998548030853
1702061923385477600,1.3984775390625,0.24633140861988068,0.4265366494655609,0.2909245789051056
1702061923402471700,1.4154716796875,0.30115658044815063,0.39843684434890747,0.2583959996700287
1702061923419468800,1.43246875,0.3982841372489929,0.2099849283695221,0.3833179473876953
1702061923436454000,1.449453857421875,0.42271876335144043,-0.08032877743244171,0.38469240069389343
1702061923453452800,1.466452880859375,0.29504790902137756,-0.14905111491680145,0.3378084897994995
1702061923470448600,1.48344873046875,0.09834930300712585,-0.07116580009460449,0.3139847218990326
1702061923487449600,1.50044970703125,-0.02428189292550087,-0.04489859566092491,0.2808452844619751
1702061923504432000,1.51743212890625,-0.12736541032791138,-0.06933320313692093,0.15882496535778046
1702061923521422000,1.534422119140625,-0.15974126756191254,0.04749477282166481,0.11163562536239624
1702061923538425600,1.551425537109375,-0.08903361111879349,0.06933320313692093,0.2301434874534607
1702061923555415800,1.568415771484375,-0.0064140851609408855,0.03039054572582245,0.4079052805900574
1702061923572412400,1.585412353515625,-0.00366519158706069,0.028099801391363144,0.40103304386138916
1702061923589406000,1.602406005859375,-0.05772676691412926,0.14034628868103027,0.15775595605373383
1702061923606406000,1.619406005859375,-0.09697485715150833,0.22876903414726257,-0.16310101747512817
1702061923623391200,1.63639111328125,-0.06475171446800232,0.058948494493961334,-0.422871470451355
1702061923640386800,1.65338671875,0.016951510682702065,-0.2515237629413605,-0.3845396637916565
1702061923657375700,1.670375732421875,0.11239920556545258,-0.42241331934928894,-0.1463022232055664
1702061923674372000,1.6873720703125,0.051770828664302826,-0.36713001132011414,-0.12003502249717712
1702061923691368700,1.70436865234375,-0.07681630551815033,0.054367005825042725,-0.2344195395708084
1702061923708345300,1.721345458984375,-0.1394299864768982,0.3663664162158966,-0.289244681596756
1702061923725351400,1.738351318359375,-0.0377209298312664,0.0032070425804704428,-0.2678644061088562
1702061923742353200,1.755353271484375,0.031154127791523933,-0.5761986374855042,-0.18295414745807648
1702061923759344000,1.77234423828125,-0.13698652386665344,-0.9150761365890503,-0.22479841113090515
1702061923776339200,1.789339111328125,-0.43508878350257874,-0.8681922554969788,-0.31123584508895874
1702061923793329200,1.8063291015625,-0.6302602291107178,-0.7330383062362671,-0.3510948121547699
1702061923810323500,1.823323486328125,-0.8126034736633301,-0.6426302194595337,-0.3084869384765625
1702061923827323000,1.840322998046875,-0.9208793640136719,-0.6918048858642578,-0.33918291330337524
1702061923844310300,1.857310302734375,-1.0648908615112305,-0.4671591818332672,-0.455705463886261
1702061923861315000,1.874315185546875,-1.1704177856445312,-0.16279558837413788,-0.9048441648483276
1702061923878302000,1.891302001953125,-1.0337367057800293,0.08032877743244171,-1.2731958627700806
1702061923895292200,1.908292236328125,-0.8594874143600464,-0.17333301901817322,-1.1494957208633423
1702061923912288000,1.9252880859375,-0.7470881938934326,-0.9934195876121521,-0.6108652353286743
1702061923929280800,1.94228076171875,-0.7093672752380371,-1.391703724861145,-0.22510384023189545
1702061923946278700,1.959278564453125,-0.6123924255371094,-0.888350784778595,-0.2658790946006775
1702061923963267600,1.976267578125,-0.3930917978286743,-0.44089198112487793,-0.7698429226875305
1702061923980263200,1.99326318359375,-0.23457226157188416,-0.17104226350784302,-1.00197172164917
1702061923997259500,2.010259521484375,-0.14538592100143433,-0.2987131178379059,-0.7596109509468079
1702061924014244400,2.027244384765625,0.07299839705228806,-0.5693264007568359,-0.3608686327934265
1702061924031248600,2.04424853515625,0.313373863697052,-0.7677049040794373,-0.18768835067749023
1702061924048249600,2.06124951171875,0.3194825351238251,-0.6378960609436035,-0.3790418803691864
1702061924065224700,2.078224609375,0.036193765699863434,-0.024129176512360573,-0.6579018831253052
1702061924082222600,2.09522265625,0.050243668258190155,0.1595885455608368,-0.769690215587616
1702061924099219500,2.112219482421875,0.3523165285587311,-0.06841690838336945,-0.617584764957428
1702061924116207900,2.129207763671875,0.4440990388393402,-0.275958389043808,-0.47219884395599365
1702061924133207800,2.146207763671875,0.23548854887485504,-0.2021963894367218,-0.45875978469848633
1702061924150206200,2.163206298828125,-0.017562376335263252,-0.04642575979232788,-0.5638286471366882
1702061924167198000,2.180197998046875,-0.1033889427781105,-0.046731192618608475,-0.6681338548660278
1702061924184187000,2.197186767578125,-0.07376197725534439,-0.044745877385139465,-0.6803511381149292
1702061924201181700,2.214181640625,-0.07635815441608429,-0.11774427443742752,-0.7026477456092834
1702061924218180000,2.23118017578125,-0.1670716404914856,-0.21639901399612427,-0.7124215960502625
1702061924235168800,2.248168701171875,-0.27718010544776917,-0.2716823220252991,-0.7319692969322205
1702061924252165000,2.2651650390625,-0.28955012559890747,-0.2987131178379059,-0.8866708874702454
1702061924269159000,2.282158935546875,-0.2741257846355438,-0.20387627184391022,-0.9130908250808716
1702061924286164200,2.299164306640625,-0.2597704529762268,-0.005955935921519995,-0.6776022911071777
1702061924303134000,2.316134033203125,-0.21380282938480377,0.16111570596694946,-0.32757648825645447
1702061924320141800,2.333141845703125,-0.14385876059532166,0.2590068578720093,0.0003054326225537807
1702061924337137200,2.35013720703125,-0.10216721147298813,0.3413209617137909,0.20402899384498596
1702061924354125000,2.367125,-0.06673702597618103,0.31123584508895874,0.3240640163421631
1702061924371121400,2.384121337890625,0.039095375686883926,0.2278527319431305,0.451582133769989
1702061924388116700,2.40111669921875,0.13927727937698364,0.15500704944133759,0.6320928335189819
1702061924405121800,2.418121826171875,0.15012013912200928,0.22647829353809357,0.8213083148002625
1702061924422103300,2.435103271484375,0.09697485715150833,0.27458393573760986,0.9054549932479858
1702061924439096800,2.452096923828125,-0.028405234217643738,0.29275718331336975,0.8205447196960449
1702061924456092000,2.469091796875,-0.17699819803237915,0.29886582493782043,0.5412266254425049
1702061924473082600,2.48608251953125,-0.14737124741077423,0.16691893339157104,0.27229318022727966
1702061924490076000,2.503075927734375,-0.01237002108246088,0.001527163083665073,0.21899518370628357
1702061924507075800,2.520075927734375,0.0328340083360672,-0.022602014243602753,0.235030397772789
1702061924524063500,2.5370634765625,-0.01114829070866108,0.009010262787342072,0.3039054572582245
1702061924541059800,2.554059814453125,-0.06704246252775192,0.17058411240577698,0.43539419770240784
1702061924558054700,2.5710546875,-0.08445212244987488,0.07528914511203766,0.24388794600963593
1702061924575045000,2.588045166015625,0.007788531947880983,-0.49724429845809937,-0.23365595936775208
1702061924592040700,2.605040771484375,0.15913039445877075,-0.9599747061729431,-0.39935314655303955
1702061924609036000,2.6220361328125,0.16844609379768372,-0.755182147026062,-0.18341228365898132
1702061924626030300,2.6390302734375,0.07620543986558914,-0.17852537333965302,0.11178833991289139
1702061924643020300,2.656020263671875,0.042760565876960754,0.2669481039047241,0.38576140999794006
1702061924660016000,2.67301611328125,0.01924225501716137,0.29917123913764954,0.47082439064979553
1702061924677012200,2.69001220703125,0.1420261710882187,0.07040221989154816,0.4786129295825958
1702061924694001700,2.707001708984375,0.19944749772548676,-0.1621847152709961,0.3465133011341095
1702061924710997000,2.7239970703125,0.25793784856796265,0.009468411095440388,0.3013092875480652
1702061924727995600,2.74099560546875,0.33292156457901,0.44745880365371704,0.3643811047077179
1702061924744983800,2.75798388671875,0.22418753802776337,0.804051399230957,0.48380526900291443
1702061924761965600,2.774965576171875,0.09987647086381912,0.954018771648407,0.493731826543808
1702061924778975200,2.791975341796875,-0.025656340643763542,0.4755585789680481,0.2454151064157486
1702061924795987000,2.808987060546875,-0.1059851199388504,0.048105638474226,0.12049316614866257
1702061924812962000,2.825962158203125,-0.12629638612270355,0.07284568250179291,0.07223481684923172
1702061924829954300,2.842954345703125,-0.17409659922122955,0.42439863085746765,0.10155634582042694
1702061924846950400,2.859950439453125,-0.17592918872833252,0.6647741198539734,0.09911288321018219
1702061924863939300,2.876939208984375,-0.16737708449363708,0.5551238059997559,-0.09911288321018219
1702061924880933400,2.893933349609375,-0.23380866646766663,0.4173736870288849,-0.2793181240558624
1702061924897929200,2.91092919921875,-0.34697145223617554,0.15271630883216858,-0.38576140999794006
1702061924914922000,2.927921875,-0.32039880752563477,-0.029016099870204926,-0.2741257846355438
1702061924931915300,2.944915283203125,-0.10659598559141159,0.11133018881082535,0.01924225501716137
1702061924948909000,2.961908935546875,0.06230825558304787,0.43020185828208923,0.26282477378845215
1702061924965903000,2.978903076171875,0.032070424407720566,0.598647952079773,0.37858372926712036
1702061924982903800,2.99590380859375,-0.05375614017248154,0.6296493411064148,0.4677700698375702
1702061924999894300,3.012894287109375,-0.10461067408323288,0.5196936130523682,0.4596760869026184
1702061925016888800,3.029888916015625,-0.11285735666751862,0.337503045797348,0.27488934993743896
1702061925033878300,3.046878173828125,0.016798794269561768,0.30970868468284607,0.011301007121801376
1702061925050874400,3.063874267578125,0.11071932315826416,0.2541199326515198,-0.19868391752243042
1702061925067869700,3.08086962890625,0.03985895588994026,0.09437867999076843,-0.30772337317466736
1702061925084863000,3.097863037109375,-0.11102475970983505,-0.04993823543190956,-0.4086688458919525
1702061925101856300,3.114856201171875,-0.23319780826568604,-0.12064588814973831,-0.6438519954681396
1702061925118850800,3.131850830078125,-0.2822197377681732,-0.2811507284641266,-0.875064492225647
1702061925135844000,3.148843994140625,-0.15073099732398987,-0.4179845452308655,-0.8866708874702454
1702061925152838100,3.165838134765625,-0.045204028487205505,-0.5719226002693176,-0.8546004891395569
1702061925169832000,3.18283203125,-0.013591751456260681,-0.49754974246025085,-0.7072292566299438
1702061925186826200,3.199826171875,0.07131851464509964,-0.3646865487098694,-0.5082398653030396
1702061925203819500,3.216819580078125,0.07452555745840073,-0.2321287989616394,-0.4231768846511841
1702061925220813600,3.2338134765625,-0.025045474991202354,0.06658431142568588,-0.34162637591362
1702061925237804300,3.25080419921875,-0.0936150997877121,0.12324206531047821,-0.2721404731273651
1702061925254794800,3.267794677734375,-0.10873401165008545,-0.16798794269561768,-0.25824329257011414
1702061925271785500,3.284785400390625,-0.21471913158893585,-0.22999076545238495,-0.24816401302814484
1702061925288788700,3.301788818359375,-0.24404066801071167,0.005039638374000788,-0.27122417092323303
1702061925305782300,3.3187822265625,-0.1918116807937622,0.07467827945947647,-0.3214678466320038
1702061925322787800,3.335787841796875,-0.16539175808429718,-0.12064588814973831,-0.24159720540046692
1702061925339769900,3.352769775390625,-0.15057829022407532,-0.3049744665622711,-0.20693060755729675
1702061925356764400,3.369764404296875,-0.15622878074645996,-0.4944954216480255,-0.49556443095207214
1702061925373757400,3.38675732421875,-0.22067506611347198,-0.18448130786418915,-0.6493497490882874
1702061925390751700,3.403751708984375,-0.1872301995754242,0.2548835277557373,-0.5213735103607178
1702061925407745300,3.420745361328125,0.014813481830060482,-0.0006108652451075613,-0.25503623485565186
1702061925424739300,3.4377392578125,0.1385136991739273,-0.40301835536956787,-0.04841107130050659
1702061925441735700,3.454735595703125,0.11453723162412643,-0.6444628238677979,-0.08292495459318161
1702061925458727200,3.47172705078125,-0.06215553730726242,-0.5167919993400574,-0.17699819803237915
1702061925475720200,3.48872021484375,0.05146539583802223,0.28527405858039856,0.078343465924263
1702061925492714500,3.505714599609375,0.6446155309677124,0.9647089242935181,0.47708576917648315
1702061925509708300,3.522708251953125,0.9772316813468933,0.6933320760726929,0.4934264123439789
1702061925526702300,3.539702392578125,0.5447390675544739,-0.0007635815418325365,0.45631635189056396
1702061925543695600,3.556695556640625,0.098502017557621,-0.2499966025352478,0.4524984359741211
1702061925560690000,3.57368994140625,0.21059578657150269,-0.01878410577774048,0.2883284091949463
1702061925577683200,3.59068310546875,0.5326744914054871,0.09040805697441101,-0.009468411095440388
1702061925594667000,3.6076669921875,0.4053090810775757,-0.49556443095207214,-0.42042800784111023
1702061925611670800,3.6246708984375,-0.24236078560352325,-1.0231993198394775,-0.6473644375801086
1702061925628664600,3.64166455078125,-0.5752823352813721,-0.7811439037322998,-0.5531384944915771
1702061925645659400,3.658659423828125,-0.3246748745441437,-0.3017674386501312,-0.32391130924224854
1702061925662652700,3.675652587890625,0.15836681425571442,-0.11392636597156525,-0.12996158003807068
1702061925679636200,3.69263623046875,0.2997821271419525,-0.36850446462631226,-0.168751522898674
1702061925696640500,3.709640625,-0.039248090237379074,-0.5780312418937683,-0.49037206172943115
1702061925713634000,3.726634033203125,-0.4660901725292206,-0.39416080713272095,-0.8994990587234497
1702061925730628400,3.74362841796875,-0.532369077205658,-0.06017022579908371,-0.9640980958938599
1702061925747621600,3.76062158203125,-0.22021691501140594,-0.08552113175392151,-0.684474527835846
1702061925764616000,3.777615966796875,0.2028072625398636,-0.2480112910270691,-0.24602597951889038
1702061925781609200,3.794609130859375,0.4053090810775757,-0.3631593883037567,-0.01817324012517929
1702061925798603500,3.811603515625,0.29565876722335815,-0.46303585171699524,-0.01572977937757969
1702061925815596800,3.8285966796875,0.013286318629980087,-0.40454551577568054,-0.07452555745840073
1702061925832580600,3.84558056640625,-0.17348572611808777,-0.12751811742782593,-0.10873401165008545
1702061925849584400,3.86258447265625,-0.1547016203403473,0.08124507963657379,-0.03436116874217987
1702061925866578700,3.87957861328125,0.009926560334861279,0.058337632566690445,0.09773843735456467
1702061925883572200,3.896572265625,0.13500121235847473,-0.029474247246980667,0.16814066469669342
1702061925900566500,3.91356640625,0.2025018334388733,-0.014202617108821869,0.30024027824401855
1702061925917557800,3.930557861328125,0.2272418737411499,0.026114489883184433,0.45036038756370544
1702061925934556400,3.947556396484375,0.22067506611347198,0.06872233748435974,0.5062545537948608
1702061925951547400,3.96454736328125,0.15225815773010254,0.17547103762626648,0.5378668308258057
1702061925968541700,3.981541748046875,0.10445795953273773,0.16890424489974976,0.5558874011039734
1702061925985535200,3.99853515625,0.12339477986097336,0.11331550031900406,0.5597052574157715
1702061926002529500,4.015529541015625,0.09957103431224823,0.001527163083665073,0.4683809280395508
1702061926019522600,4.0325224609375,0.04108068719506264,0.024892758578062057,0.461355984210968
1702061926036517000,4.04951708984375,0.04352414980530739,0.31062498688697815,0.7209737300872803
1702061926053510400,4.066510498046875,0.06536258012056351,0.7049384713172913,1.0267117023468018
1702061926070504400,4.08350439453125,0.22250767052173615,0.7113525867462158,1.0746647119522095
1702061926087498000,4.100498046875,0.5016731023788452,0.4069889783859253,0.9279043078422546
1702061926104492300,4.1174921875,0.48747047781944275,0.20799961686134338,0.9053022861480713
1702061926121485600,4.134485595703125,0.19654589891433716,0.14263702929019928,1.0068585872650146
1702061926138479900,4.15147998046875,-0.013744467869400978,0.4079052805900574,1.1595749855041504
1702061926155473200,4.16847314453125,0.0013744467869400978,0.983951210975647,1.1120802164077759
1702061926172467700,4.1854677734375,0.24098633229732513,0.8546004891395569,0.7107416987419128
1702061926189461200,4.202461181640625,0.4265366494655609,0.31230485439300537,0.5407684445381165
1702061926206443000,4.219443115234375,0.4763221740722656,-0.16264286637306213,0.6227771043777466
1702061926223437800,4.236437744140625,0.38011088967323303,-0.33368512988090515,0.5922338366508484
1702061926240442600,4.253442626953125,0.3243694305419922,-0.06643159687519073,0.33475416898727417
1702061926257436200,4.270436279296875,0.3127630054950714,0.13148874044418335,0.1414152979850769
1702061926274430500,4.287430419921875,0.35674530267715454,0.1817324161529541,0.36560285091400146
1702061926291421400,4.30442138671875,0.4271475374698639,0.1598939746618271,0.6236934065818787
1702061926308420600,4.321420654296875,0.3988949954509735,-0.13607023656368256,0.6776022911071777
1702061926325411300,4.338411376953125,0.32162055373191833,-0.7026477456092834,0.543059229850769
1702061926342406000,4.355406005859375,0.18387043476104736,-0.7302893996238708,0.36392298340797424
1702061926359388400,4.372388427734375,0.02825251780450344,0.035582900047302246,0.0685696229338646
1702061926376393500,4.3893935546875,-0.03527746722102165,0.6786713004112244,-0.30802878737449646
1702061926393386800,4.40638671875,-0.011453723534941673,0.6223189830780029,-0.24862214922904968
1702061926410381300,4.42338134765625,0.1241583600640297,0.40072759985923767,0.2958115041255951
1702061926427374000,4.4403740234375,0.23350323736667633,0.13790282607078552,0.6863071322441101
1702061926444358100,4.457358154296875,0.1996002197265625,0.17928895354270935,0.6111706495285034
1702061926461360000,4.474360107421875,0.045204028487205505,0.3920227587223053,0.12324206531047821
1702061926478356000,4.49135595703125,-0.20845776796340942,0.47968193888664246,-0.47448956966400146
1702061926495352000,4.50835205078125,-0.4602869749069214,0.36453384160995483,-0.5893322229385376
1702061926512344000,4.525343994140625,-0.4434881806373596,0.26511552929878235,-0.18707747757434845
1702061926529338000,4.542338134765625,-0.22602014243602753,0.21502456068992615,0.22250767052173615
1702061926546331000,4.559330810546875,-0.05421429127454758,0.16920967400074005,0.23640485107898712
1702061926563325000,4.576324951171875,0.003054326167330146,0.26404649019241333,-0.01970040425658226
1702061926580319200,4.5933193359375,-0.0012217304902151227,0.34086281061172485,-0.26771169900894165
1702061926597312500,4.6103125,-0.02015855349600315,0.22327125072479248,-0.38957929611206055
1702061926614296300,4.62729638671875,0.08139779418706894,-0.014202617108821869,-0.4786129295825958
1702061926631300400,4.64430029296875,0.20295998454093933,-0.2996293902397156,-0.6604980230331421
1702061926648294400,4.66129443359375,0.1560760736465454,-0.4740314185619354,-0.7796167731285095
1702061926665288000,4.678287841796875,0.06230825558304787,-0.3517056703567505,-0.7254024744033813
1702061926682282200,4.6952822265625,0.12232576310634613,-0.20586158335208893,-0.6583600044250488
1702061926699275500,4.712275634765625,0.15134187042713165,-0.12217304855585098,-0.7049384713172913
1702061926716269600,4.72926953125,0.03176499158143997,-0.11056660860776901,-0.7571674585342407
1702061926733262800,4.746262939453125,-0.08994990587234497,-0.14844025671482086,-0.5623014569282532
1702061926750257400,4.76325732421875,0.0006108652451075613,-0.36560285091400146,-0.3484986126422882
1702061926767250700,4.780250732421875,0.22372940182685852,-0.6707300543785095,-0.38667771220207214
1702061926784245000,4.797244873046875,0.14309518039226532,-0.5406157374382019,-0.5849034786224365
1702061926801236500,4.814236572265625,-0.22815817594528198,-0.09453139454126358,-0.7359399199485779
1702061926818235000,4.83123486328125,-0.39614611864089966,0.2649627923965454,-0.6426302194595337
1702061926835225900,4.848225830078125,-0.27351492643356323,-0.004123340360820293,-0.5922338366508484
1702061926852220200,4.86522021484375,-0.02015855349600315,-0.5390886068344116,-0.42668938636779785
1702061926869211000,4.8822109375,0.0809396430850029,-0.9680687189102173,-0.5056437253952026
1702061926886210800,4.8992109375,-0.22876903414726257,-0.4922046661376953,-0.7128797173500061
1702061926903201300,4.916201171875,-0.5406157374382019,0.451123982667923,-0.4834998548030853
1702061926920195300,4.9331953125,-0.26771169900894165,0.47280970215797424,-0.009162978269159794
1702061926937177600,4.950177490234375,0.07712173461914062,-0.4053090810775757,0.10186178237199783
1702061926954184400,4.967184326171875,-0.23457226157188416,-1.1658363342285156,-0.20555615425109863
1702061926971176400,4.984176513671875,-0.7415903806686401,-0.43997567892074585,-0.2499966025352478
1702061926988170800,5.001170654296875,-0.5940664410591125,0.7055493593215942,0.04932736977934837
1702061927005153500,5.018153564453125,-0.13545936346054077,0.8715519905090332,0.34926220774650574
1702061927022158600,5.03515869140625,0.15485434234142303,0.20463985204696655,0.40973785519599915
1702061927039149300,5.0521494140625,-0.029932396486401558,-0.5768095254898071,0.17959438264369965
1702061927056148700,5.069148681640625,-0.18524488806724548,-0.6044511795043945,-0.12293662875890732
1702061927073139500,5.086139404296875,0.06108652427792549,-0.32330042123794556,-0.4179845452308655
1702061927090134000,5.103134033203125,0.518471896648407,-0.40133845806121826,-0.5009095072746277
1702061927107134200,5.12013427734375,0.42562034726142883,-0.8362745046615601,-0.43967026472091675
1702061927124121600,5.13712158203125,-0.06291911751031876,-0.8681922554969788,-0.40256020426750183
1702061927141116000,5.154115966796875,-0.3459024429321289,-0.38469240069389343,-0.4683809280395508
1702061927158108200,5.171108154296875,-0.22159136831760406,0.16890424489974976,-0.5636758804321289
1702061927175102500,5.1881025390625,0.01710422709584236,0.3168863356113434,-0.5393940210342407
1702061927192096500,5.205096435546875,0.1485929638147354,-0.04688390716910362,-0.43875396251678467
1702061927209090000,5.222090087890625,0.28130343556404114,-0.34773504734039307,-0.408974289894104
1702061927226084400,5.23908447265625,0.22540926933288574,-0.3926336467266083,-0.4815145432949066
1702061927243077600,5.25607763671875,-0.0025961773935705423,-0.1996002197265625,-0.5937610268592834
1702061927260072000,5.273072021484375,-0.13301590085029602,-0.3029891550540924,-0.7053966522216797
1702061927277065500,5.2900654296875,-0.20861047506332397,-0.3929390609264374,-0.6388123035430908
1702061927294059800,5.307059814453125,-0.2675589919090271,-0.42149701714515686,-0.4505131244659424
1702061927311050200,5.32405029296875,-0.3949243724346161,-0.41004329919815063,-0.34055736660957336
1702061927328051700,5.3410517578125,-0.3504839241504669,-0.1137736514210701,-0.17272214591503143
1702061927345038600,5.35803857421875,-0.2330450862646103,0.10155634582042694,0.05650503560900688
1702061927362034700,5.37503466796875,-0.13820825517177582,0.05803219974040985,0.13148874044418335
1702061927379028200,5.3920283203125,-0.19089539349079132,-0.16814066469669342,0.054367005825042725
1702061927396007700,5.409007568359375,-0.2588541507720947,-0.26939156651496887,0.05513058975338936
1702061927413018000,5.42601806640625,-0.2698497176170349,-0.14248432219028473,0.16294831037521362
1702061927430018300,5.443018310546875,-0.15103642642498016,0.09865473955869675,0.380721777677536
1702061927447003600,5.460003662109375,-0.04734205827116966,0.21212296187877655,0.6481280326843262
1702061927463998000,5.476998046875,-0.04749477282166481,0.3966042697429657,0.8634580373764038
1702061927480991200,5.4939912109375,0.06352998316287994,0.4283692538738251,0.8715519905090332
1702061927497985500,5.510985595703125,0.19746218621730804,0.3683517575263977,0.8032878041267395
1702061927514978800,5.527978759765625,0.21731531620025635,0.1892155110836029,0.812908947467804
1702061927531976000,5.544975830078125,0.2015855312347412,0.38927388191223145,0.9961684942245483
1702061927548966400,5.56196630859375,0.19746218621730804,0.9100365042686462,1.1496484279632568
1702061927565961000,5.5789609375,0.2718350291252136,1.0222829580307007,1.0074695348739624
1702061927582954200,5.595954345703125,0.3897320330142975,0.5265658497810364,0.6076582074165344
1702061927599946200,5.6129462890625,0.28435778617858887,-0.43997567892074585,0.11789698898792267
1702061927616943600,5.629943603515625,-0.09346238523721695,-0.6433938145637512,0.02367102913558483
1702061927633936000,5.646935791015625,-0.1569923609495163,-0.19074267148971558,0.25931230187416077
1702061927650931000,5.663930908203125,0.06536258012056351,0.43997567892074585,0.5662720799446106
1702061927667922000,5.680921875,0.30222558975219727,0.551916778087616,0.4456261992454529
1702061927684917000,5.6979169921875,0.27229318022727966,-0.2779437005519867,-0.2499966025352478
1702061927701911300,5.714911376953125,-0.24007004499435425,-1.2481504678726196,-0.7115052938461304
1702061927718886400,5.731886474609375,-0.6172793507575989,-0.7438811659812927,-0.43799036741256714
1702061927735901400,5.7489013671875,-0.39614611864089966,0.16004669666290283,-0.14416420459747314
1702061927752892200,5.76589208984375,0.03329215571284294,0.7805330753326416,-0.09254608303308487
1702061927769886500,5.782886474609375,0.19104810059070587,0.7203628420829773,-0.2073887437582016
1702061927786879700,5.799879638671875,0.1765400618314743,0.11331550031900406,-0.3448334336280823
1702061927803874300,5.816874267578125,0.18310685455799103,-0.03741549700498581,-0.24602597951889038
1702061927820867600,5.83386767578125,0.22586742043495178,0.3859141170978546,-0.156686931848526
1702061927837864000,5.850864013671875,0.31291571259498596,0.9198103547096252,-0.13698652386665344
1702061927854853000,5.86785302734375,0.3527746796607971,0.870330274105072,-0.2021963894367218
1702061927871849700,5.884849609375,0.15546520054340363,0.5679519772529602,-0.07712173461914062
1702061927888842800,5.9018427734375,-0.15393804013729095,0.46303585171699524,0.24846944212913513
1702061927905837000,5.918837158203125,-0.26633724570274353,0.7344127297401428,0.4918992519378662
1702061927922830300,5.935830322265625,-0.2952006161212921,1.0433578491210938,0.4889976382255554
1702061927939825000,5.952824951171875,-0.34636059403419495,1.050840973854065,0.46670106053352356
1702061927956818200,5.969818115234375,-0.41401392221450806,0.8100073337554932,0.4560109078884125
1702061927973812500,5.9868125,-0.44089198112487793,0.7102835774421692,0.3868304193019867
1702061927990805800,6.0038056640625,-0.39935314655303955,0.6919575929641724,0.2741257846355438
1702061928007800000,6.020800048828125,-0.3156646192073822,0.7382306456565857,0.19043724238872528
1702061928024793300,6.03779345703125,-0.2119702398777008,0.6763805150985718,0.1996002197265625
1702061928041787400,6.054787353515625,-0.07635815441608429,0.5227479338645935,0.36010506749153137
1702061928058781000,6.071781005859375,0.12186761945486069,0.35811975598335266,0.5838344693183899
1702061928075775000,6.08877490234375,0.3127630054950714,0.32299500703811646,0.6742424964904785
1702061928092768500,6.1057685546875,0.4407392740249634,0.39614611864089966,0.5732970237731934
1702061928109760300,6.12276025390625,0.3660610020160675,0.5426010489463806,0.285121351480484
1702061928126759000,6.139759033203125,0.22739458084106445,0.5688682794570923,-0.04444044828414917
1702061928143750400,6.15675048828125,0.10430523753166199,0.21120665967464447,-0.4219551682472229
1702061928160744000,6.173743896484375,0.03940080851316452,-0.20922134816646576,-0.7322747111320496
1702061928177738000,6.190738037109375,-0.09086620807647705,-0.3698789179325104,-0.9669997096061707
1702061928194717200,6.20771728515625,-0.3094032406806946,-0.28466320037841797,-1.140485405921936
1702061928211716400,6.22471630859375,-0.44837507605552673,-0.18280142545700073,-1.185231328010559
1702061928228719000,6.241718994140625,-0.4508185386657715,-0.24159720540046692,-1.0966558456420898
1702061928245698000,6.258697998046875,-0.32757648825645447,-0.29657506942749023,-0.8811731338500977
1702061928262706700,6.275706787109375,-0.19318613409996033,-0.5267185568809509,-0.7415903806686401
1702061928279701000,6.292700927734375,-0.14340060949325562,-0.4778493344783783,-0.5656611919403076
1702061928296694300,6.3096943359375,-0.1414152979850769,-0.14492778480052948,-0.4106541574001312
1702061928313688800,6.326688720703125,-0.11636982858181,0.1212567538022995,-0.44776421785354614
1702061928330682400,6.343682373046875,-0.08139779418706894,0.2541199326515198,-0.4424191415309906
1702061928347676400,6.360676513671875,-0.0010690141934901476,0.05100724846124649,-0.29856038093566895
1702061928364669700,6.377669677734375,0.010690141469240189,-0.1918116807937622,-0.17577648162841797
1702061928381664000,6.3946640625,-0.2382374405860901,-0.36392298340797424,-0.38637226819992065
1702061928398657500,6.411657470703125,-0.3741549551486969,-0.12828169763088226,-0.3805690407752991
1702061928415648800,6.428648681640625,0.05543602257966995,0.23900102078914642,0.022143865004181862
1702061928432647700,6.445647705078125,0.29336804151535034,0.04795292019844055,0.05467243865132332
1702061928449626000,6.462626220703125,0.025503624230623245,-0.2519819140434265,-0.1638645976781845
1702061928466635000,6.479635009765625,-0.5583308339118958,-0.5557346343994141,-0.4479169547557831
1702061928483626800,6.496626708984375,-0.5146539807319641,-0.5322163701057434,-0.23273965716362
1702061928500617700,6.51361767578125,0.1892155110836029,-0.34086281061172485,0.11331550031900406
1702061928517617400,6.530617431640625,0.5958990454673767,-0.19685132801532745,0.006108652334660292
1702061928534608000,6.54760791015625,-0.040622539818286896,-0.26145032048225403,-0.4282165467739105
1702061928551602000,6.564601806640625,-0.6493497490882874,-0.10399980843067169,-0.41920626163482666
1702061928568583000,6.5815830078125,-0.12461651116609573,-0.03420845419168472,-0.05604688450694084
1702061928585592300,6.59859228515625,0.9676105380058289,-0.31902438402175903,0.3101668357849121
1702061928602575600,6.61557568359375,1.518610954284668,-0.9330966472625732,0.3637702465057373
1702061928619577600,6.63257763671875,1.2809844017028809,-1.223868489265442,0.5028948187828064
1702061928636571000,6.64957080078125,1.183704137802124,-0.48838675022125244,0.8063421249389648
1702061928653568000,6.666568115234375,1.2192870378494263,0.432645320892334,0.7735081315040588
1702061928670555600,6.6835556640625,0.9841039180755615,0.5934556126594543,0.5002986192703247
1702061928687542000,6.7005419921875,0.5174028873443604,0.10583240538835526,0.2643519341945648
1702061928704546000,6.717546142578125,0.013744467869400978,-0.5015203952789307,-0.03191770985722542
1702061928721541400,6.734541259765625,-0.556345522403717,-0.42409318685531616,-0.29474249482154846
1702061928738532600,6.75153271484375,-0.770301103591919,0.02076941914856434,-0.5681046843528748
1702061928755528200,6.768528076171875,-0.5540547966957092,0.09712757170200348,-0.7032586336135864
1702061928772519000,6.785518798828125,-0.38728857040405273,-0.21044307947158813,-0.6991352438926697
1702061928789518300,6.802518310546875,-0.32650747895240784,-0.5535966157913208,-0.6582072973251343
1702061928806500900,6.8195009765625,-0.2269364446401596,-0.9051495790481567,-0.6238461136817932
1702061928823503000,6.836503173828125,-0.03573561832308769,-1.1174252033233643,-0.5474879741668701
1702061928840497000,6.853496826171875,0.10384709388017654,-1.1044443845748901,-0.4277583956718445
1702061928857491000,6.870490966796875,0.1918116807937622,-0.7536550164222717,-0.2623666226863861
1702061928874484200,6.887484130859375,0.1976149082183838,-0.3969096839427948,-0.18616119027137756
1702061928891476500,6.9044765625,0.058337632566690445,-0.3828597962856293,-0.03344487398862839
1702061928908473900,6.921473876953125,-0.03176499158143997,-0.21120665967464447,0.2971859276294708
1702061928925466000,6.938466064453125,0.08765916526317596,-0.010842857882380486,0.41493022441864014
1702061928942456800,6.955456787109375,0.2825251817703247,0.08109235763549805,0.4271475374698639
1702061928959456300,6.972456298828125,0.5082398653030396,-0.08048149943351746,0.5140430927276611
1702061928976447200,6.989447265625,0.6713408827781677,-0.2583959996700287,0.6278167366981506
1702061928993441500,7.006441650390625,0.6487388610839844,-0.2768746614456177,0.6420193910598755
1702061929010434600,7.0234345703125,0.3623957931995392,-0.2295326143503189,0.5146539807319641
1702061929027429000,7.04042919921875,0.013286318629980087,-0.23151792585849762,0.3582724630832672
1702061929044422700,7.057422607421875,-0.17043140530586243,-0.09865473955869675,0.2767219543457031
1702061929061416400,7.07441650390625,-0.17577648162841797,0.10842858254909515,0.31444287300109863
1702061929078409700,7.09140966796875,0.06398813426494598,0.033597588539123535,0.47479501366615295
1702061929095404500,7.108404541015625,0.460897833108902,-0.13118331134319305,0.6789767146110535
1702061929112395800,7.125395751953125,0.7535023093223572,-0.25442537665367126,0.6322455406188965
1702061929129394200,7.142394287109375,0.6725626587867737,-0.48166725039482117,0.33826664090156555
1702061929146391800,7.159391845703125,0.4766276180744171,-0.3058907687664032,0.5244278311729431
1702061929163378700,7.176378662109375,0.5393940210342407,-0.11804971098899841,1.0074695348739624
1702061929180373800,7.193373779296875,0.6363688707351685,0.19868391752243042,1.3859004974365234
1702061929197367000,7.210366943359375,0.6265950202941895,0.4740314185619354,1.0583239793777466
1702061929214360600,7.227360595703125,0.31291571259498596,0.166460782289505,0.15485434234142303
1702061929231354600,7.244354736328125,-0.1537853181362152,-0.44425174593925476,-0.0754418596625328
1702061929248348400,7.261348388671875,-0.3219259977340698,-0.36331209540367126,0.49754974246025085
1702061929265342500,7.278342529296875,0.01664607785642147,0.2353358417749405,1.020603060722351
1702061929282337000,7.2953369140625,0.4456261992454529,0.9033169746398926,0.9947940707206726
1702061929299333400,7.31233349609375,0.39584067463874817,0.8857545852661133,0.5297728776931763
1702061929316323300,7.3293232421875,-0.06963863968849182,0.012217304669320583,0.003359758760780096
1702061929333315300,7.3463154296875,-0.30314189195632935,-0.3660610020160675,0.058948494493961334
1702061929350313700,7.363313720703125,-0.12919799983501434,0.005345070734620094,0.23945917189121246
1702061929367305500,7.380305419921875,0.2684752643108368,0.864679753780365,0.2506074607372284
1702061929384298800,7.397298828125,0.4815145432949066,1.138958215713501,0.19715675711631775
1702061929401282800,7.41428271484375,0.4787656366825104,0.7628179788589478,0.21762074530124664
1702061929418285800,7.431285888671875,0.3721696436405182,0.2197587788105011,0.21578814089298248
1702061929435280600,7.44828076171875,0.3452915847301483,-0.0019853119738399982,0.16859880089759827
1702061929452274000,7.46527392578125,0.32498031854629517,0.07483099400997162,0.09697485715150833
1702061929469268000,7.48226806640625,0.2177734673023224,0.4918992519378662,0.19333885610103607
1702061929486261500,7.499261474609375,0.16691893339157104,0.6536257863044739,0.4356996417045593
1702061929503253500,7.51625341796875,0.19624045491218567,0.4323398768901825,0.5694791078567505
1702061929520252000,7.533251953125,0.21334469318389893,0.2347249686717987,0.5387831330299377
1702061929537229800,7.550229736328125,0.10812314599752426,0.15286903083324432,0.24556782841682434
1702061929554237000,7.56723681640625,-0.04948008432984352,0.13576480746269226,-0.1814269721508026
1702061929571231000,7.58423095703125,-0.1518000066280365,0.12186761945486069,-0.4082106947898865
1702061929588224300,7.601224365234375,-0.11591167747974396,0.06933320313692093,-0.32421672344207764
1702061929605218600,7.618218505859375,-0.004123340360820293,0.07467827945947647,-0.0887281745672226
1702061929622212000,7.635212158203125,0.07513642311096191,0.2165517359972,0.16340644657611847
1702061929639206400,7.652206298828125,0.05696318298578262,0.3959933817386627,0.3188716471195221
1702061929656201000,7.669200927734375,-0.039248090237379074,0.4977024495601654,0.34406983852386475
1702061929673189600,7.686189697265625,-0.10064005106687546,0.5010622143745422,0.2695443034172058
1702061929690190600,7.703190673828125,-0.07925976812839508,0.3966042697429657,0.13087788224220276
1702061929707171300,7.72017138671875,-0.05100724846124649,0.22479841113090515,-0.0403171069920063
1702061929724174800,7.7371748046875,-0.11682797968387604,0.14782938361167908,-0.1290452778339386
1702061929741170200,7.754170166015625,-0.22540926933288574,0.10231992602348328,-0.2612976133823395
1702061929758162700,7.77116259765625,-0.29046642780303955,0.057879481464624405,-0.4775438904762268
1702061929775154400,7.788154541015625,-0.21151208877563477,-0.08796459436416626,-0.5690209865570068
1702061929792152800,7.80515283203125,-0.06673702597618103,-0.24342979490756989,-0.6033821702003479
1702061929809144600,7.82214453125,-0.04581489413976669,-0.299476683139801,-0.7057020664215088
1702061929826137900,7.839137939453125,-0.13271047174930573,-0.2272418737411499,-0.7721336483955383
1702061929843132200,7.856132080078125,-0.21533000469207764,-0.14996741712093353,-0.7299839854240417
1702061929860125400,7.87312548828125,-0.18875735998153687,-0.182648703455925,-0.6400340795516968
1702061929877121500,7.89012158203125,-0.11362093687057495,-0.28130343556404114,-0.5711590051651001
1702061929894111000,7.907111083984375,-0.16172657907009125,-0.38667771220207214,-0.5951354503631592
1702061929911107600,7.924107666015625,-0.33399057388305664,-0.20525072515010834,-0.499382346868515
1702061929928099800,7.941099853515625,-0.3819434940814972,0.045204028487205505,-0.3130684494972229
1702061929945096000,7.958095947265625,-0.14828753471374512,0.07528914511203766,-0.20586158335208893
1702061929962088200,7.975088134765625,0.012675453908741474,-0.22571471333503723,-0.2768746614456177
1702061929979082500,7.99208251953125,-0.17272214591503143,-0.537408709526062,-0.5267185568809509
1702061929996074800,8.00907470703125,-0.3908010423183441,-0.3410155177116394,-0.5233588218688965
1702061930013071400,8.0260712890625,-0.13209961354732513,0.12339477986097336,-0.2880229651927948
1702061930030063600,8.043063720703126,0.35735616087913513,0.17776179313659668,-0.15057829022407532
1702061930047058000,8.060057861328126,0.2893974184989929,-0.1586722433567047,-0.24342979490756989
1702061930064051000,8.077051025390626,-0.41263946890830994,-0.3822489380836487,-0.44226643443107605
1702061930081045500,8.09404541015625,-0.6876815557479858,-0.14034628868103027,-0.2921462953090668
1702061930098038800,8.111038818359376,0.012828170321881771,0.21930062770843506,0.1108720451593399
1702061930115033000,8.128033203125,0.7286095023155212,0.24388794600963593,0.34956762194633484
1702061930132027100,8.145027099609376,0.48915034532546997,-0.1791362315416336,0.15347988903522491
1702061930149021000,8.16202099609375,-0.30695977807044983,-0.19837848842144012,-0.0029016099870204926
1702061930166021400,8.179021484375,-0.5803219676017761,0.12324206531047821,-0.026572637259960175
1702061930183008500,8.196008544921876,-0.03634648025035858,0.3110831379890442,0.08888089656829834
1702061930200001500,8.21300146484375,0.5632177591323853,0.09560041129589081,0.17577648162841797
1702061930216995800,8.229995849609375,0.37461310625076294,-0.6615670323371887,-0.018478672951459885
1702061930233979100,8.246979248046875,-0.3625485301017761,-0.8820894360542297,-0.09651670604944229
1702061930250980900,8.26398095703125,-0.7806857824325562,-0.5006040930747986,-0.1463022232055664
1702061930267979500,8.2809794921875,-0.4508185386657715,-0.04993823543190956,0.1267545372247696
1702061930284971300,8.29797119140625,0.3243694305419922,0.07406741380691528,0.3933972120285034
1702061930301964500,8.314964599609375,0.48838675022125244,-0.40454551577568054,0.19379699230194092
1702061930318958800,8.331958740234375,-0.04612032696604729,-0.8837692737579346,-0.27091872692108154
1702061930335952400,8.348952392578125,-0.6246097087860107,-1.1207849979400635,-0.6056728959083557
1702061930352946700,8.36594677734375,-0.9347765445709229,-1.1320860385894775,-0.49266281723976135
1702061930369939700,8.382939697265625,-0.8483390808105469,-0.5761986374855042,-0.2301434874534607
1702061930386915600,8.39991552734375,-0.545655369758606,0.2935207486152649,-0.09483683109283447
1702061930403927600,8.416927490234375,-0.3651446998119354,0.36102136969566345,-0.11591167747974396
1702061930420921900,8.433921875,-0.3481931984424591,-0.07101308554410934,-0.1508837193250656
1702061930437912600,8.45091259765625,-0.3836233615875244,-0.3026837408542633,-0.3149010241031647
1702061930454911700,8.467911865234376,-0.40026944875717163,-0.40714168548583984,-0.5836817622184753
1702061930471903000,8.484903076171875,-0.3504839241504669,-0.4066835343837738,-0.5751296281814575
1702061930488897000,8.50189697265625,-0.27122417092323303,-0.3949243724346161,-0.4082106947898865
1702061930505890000,8.51889013671875,-0.24205535650253296,-0.2701551616191864,-0.2373211532831192
1702061930522898000,8.53589794921875,-0.19135354459285736,-0.1339322030544281,-0.08124507963657379
1702061930539878000,8.5528779296875,-0.13225232064723969,0.02580905705690384,0.07696902006864548
1702061930556872400,8.56987255859375,-0.031001411378383636,0.19456058740615845,0.22021691501140594
1702061930573865700,8.58686572265625,0.07208210229873657,0.18341228365898132,0.251676470041275
1702061930590859500,8.603859619140625,0.12507465481758118,0.04184427112340927,0.22281309962272644
1702061930607853800,8.620853759765625,0.13377949595451355,0.0009162978967651725,0.2626720666885376
1702061930624847400,8.637847412109375,0.07941248267889023,0.12446379661560059,0.4108068645000458
1702061930641840600,8.654840576171875,0.07162395119667053,0.28435778617858887,0.5593998432159424
1702061930658824700,8.67182470703125,0.14355333149433136,0.3712533414363861,0.6320928335189819
1702061930675828200,8.688828125,0.24953845143318176,0.471129834651947,0.6713408827781677
1702061930692822800,8.70582275390625,0.40591996908187866,0.508087158203125,0.6606507897377014
1702061930709816000,8.722816162109375,0.5271766781806946,0.3663664162158966,0.5537493228912354
1702061930726810400,8.739810302734375,0.49357911944389343,-0.11652254313230515,0.4121813178062439
1702061930743804000,8.756803955078125,0.5232060551643372,-0.6488916277885437,0.24862214922904968
1702061930760798000,8.7737978515625,0.5242751240730286,-0.5913175344467163,0.1189660057425499
1702061930777791200,8.790791259765625,0.4688390791416168,0.04963280260562897,0.2643519341945648
1702061930794785800,8.807785888671875,0.38667771220207214,0.47907108068466187,0.5789475440979004
1702061930811776300,8.8247763671875,0.2405281960964203,0.59803706407547,0.8909469842910767
1702061930828776000,8.84177587890625,0.09987647086381912,0.33567044138908386,0.7817547917366028
1702061930845766400,8.858766357421874,0.04398229718208313,-0.11438451707363129,0.4105014503002167
1702061930862761000,8.875760986328125,0.31062498688697815,-0.2538145184516907,0.2767219543457031
1702061930879754000,8.89275390625,0.49953505396842957,-0.2064724564552307,0.3197879493236542
1702061930896748300,8.909748291015624,0.4075998365879059,0.20693060755729675,0.26282477378845215
1702061930913731300,8.9267314453125,0.09407325088977814,0.3349068760871887,0.10613783448934555
1702061930930736000,8.943736083984374,-0.0659734457731247,0.2047925740480423,0.1215621829032898
1702061930947729400,8.9607294921875,0.06963863968849182,0.313373863697052,0.2811507284641266
1702061930964723700,8.9777236328125,0.26862800121307373,0.5161811113357544,0.24755313992500305
1702061930981717200,8.99471728515625,0.3000875413417816,0.7556403279304504,0.09957103431224823
1702061930998711300,9.011711181640624,0.285121351480484,0.5473352670669556,-0.04856378585100174
1702061931015704600,9.02870458984375,0.3315471112728119,0.027947084978222847,-0.04734205827116966
1702061931032699000,9.045698974609374,0.36224308609962463,-0.29107728600502014,-0.004428773187100887
1702061931049692200,9.062692138671874,0.26190847158432007,-0.004428773187100887,-0.07956519722938538
1702061931066686700,9.079686767578124,-0.016493361443281174,0.21212296187877655,-0.22342395782470703
1702061931083679700,9.0966796875,-0.21135938167572021,0.5684100985527039,0.04382958263158798
1702061931100684500,9.1136845703125,-0.22250767052173615,0.6911939978599548,0.37659841775894165
1702061931117667600,9.13066748046875,-0.04993823543190956,0.6569855809211731,0.5528330206871033
1702061931134662000,9.147661865234374,0.16859880089759827,0.5845980644226074,0.4967861473560333
1702061931151662600,9.16466259765625,0.31001409888267517,0.4222606122493744,0.2675589919090271
1702061931168649500,9.1816494140625,0.3142901659011841,0.2790127098560333,-0.0039706239476799965
1702061931185643000,9.19864306640625,0.18509216606616974,0.22770002484321594,-0.09957103431224823
1702061931202637300,9.21563720703125,0.17150041460990906,0.15103642642498016,0.02535090781748295
1702061931219628800,9.23262890625,0.2557998299598694,0.005039638374000788,0.08811730891466141
1702061931236626000,9.2496259765625,0.28420504927635193,0.07849618047475815,0.06627888232469559
1702061931253618000,9.266617919921876,0.21884247660636902,0.32986724376678467,0.08689557760953903
1702061931270613500,9.283613525390624,0.1560760736465454,0.39767327904701233,0.06811147183179855
1702061931287605200,9.300605224609376,0.08659014850854874,0.22617286443710327,-0.1472185254096985
1702061931304589600,9.317589599609375,0.02733621932566166,0.009773843921720982,-0.39385536313056946
1702061931321593000,9.334593017578126,-0.076052725315094,-0.18631389737129211,-0.5360342264175415
1702061931338587400,9.35158740234375,-0.19562959671020508,-0.18555031716823578,-0.5410739183425903
1702061931355577300,9.368577392578125,-0.19792033731937408,-0.08750644326210022,-0.5647448897361755
1702061931372575200,9.3855751953125,-0.16539175808429718,0.0988074541091919,-0.6041457056999207
1702061931389568500,9.402568603515626,-0.19425514340400696,0.12110403180122375,-0.6382014751434326
1702061931406554600,9.4195546875,-0.18631389737129211,-0.0936150997877121,-0.5757405161857605
1702061931423555800,9.436555908203125,-0.13347405195236206,-0.2496911734342575,-0.4547891616821289
1702061931440550400,9.45355029296875,-0.2298380434513092,-0.17318029701709747,-0.4001167416572571
1702061931457543700,9.470543701171875,-0.4360050559043884,0.07162395119667053,-0.5352706909179688
1702061931474538000,9.4875380859375,-0.5264131426811218,0.10659598559141159,-0.7209737300872803
1702061931491531500,9.504531494140625,-0.38988474011421204,-0.038026362657547,-0.6090326309204102
1702061931508525600,9.521525634765625,-0.12797626852989197,-0.3119994103908539,-0.23350323736667633
1702061931525518800,9.538518798828125,-0.1495092660188675,-0.2819143235683441,-0.1927279829978943
1702061931542514200,9.55551416015625,-0.4340197443962097,0.016798794269561768,-0.5041165351867676
1702061931559506400,9.57250634765625,-0.5575672388076782,-0.07925976812839508,-0.6249151229858398
1702061931576501000,9.5895009765625,-0.33337971568107605,-0.4862487316131592,-0.280539870262146
1702061931593494300,9.606494384765625,0.009010262787342072,-0.45234572887420654,-0.06185010448098183
1702061931610488600,9.623488525390625,-0.0010690141934901476,0.024434609338641167,-0.3553708493709564
1702061931627470800,9.640470947265625,-0.15806138515472412,0.15714508295059204,-0.42012256383895874
1702061931644468500,9.657468505859375,-0.08994990587234497,-0.13973543047904968,-0.032528575509786606
1702061931661469200,9.67446923828125,0.16081027686595917,-0.3553708493709564,0.23258693516254425
1702061931678463500,9.69146337890625,0.1371392458677292,0.06154467165470123,0.07422012835741043
1702061931695447600,9.708447509765625,-0.23350323736667633,0.4720461070537567,-0.1368338167667389
1702061931712450300,9.7254501953125,-0.40194934606552124,0.5893322229385376,0.04092797264456749
1702061931729444600,9.742444580078125,-0.14905111491680145,0.6091853380203247,0.4053090810775757
1702061931746439000,9.75943896484375,0.43127086758613586,0.42210787534713745,0.5780312418937683
1702061931763432200,9.77643212890625,0.6861543655395508,0.004734205547720194,0.42531493306159973
1702061931780426800,9.7934267578125,0.299018532037735,-0.4938845634460449,0.04581489413976669
1702061931797409800,9.810409912109375,-0.3399465084075928,-0.7881689071655273,-0.2499966025352478
1702061931814414000,9.8274140625,-0.5254968404769897,-0.45402559638023376,-0.20723603665828705
1702061931831407600,9.84440771484375,-0.1774563491344452,-0.020311269909143448,0.06887505948543549
1702061931848402000,9.86140185546875,0.13515393435955048,0.24724771082401276,0.18707747757434845
1702061931865395200,9.878395263671875,-0.1615738570690155,0.08536841720342636,0.015118914656341076
1702061931882389200,9.89538916015625,-0.6722571849822998,-0.09987647086381912,-0.10690141469240189
1702061931899382500,9.912382568359375,-0.9491318464279175,-0.1846340149641037,-0.22388210892677307
1702061931916377000,9.929377197265625,-0.7113525867462158,-0.1589776873588562,-0.31093040108680725
1702061931933370000,9.9463701171875,-0.2145664244890213,0.22052235901355743,-0.35292738676071167
1702061931950364400,9.963364501953125,0.22357667982578278,0.31642818450927734,-0.23915374279022217
1702061931967358000,9.98035791015625,0.4216497242450714,-0.0633772686123848,-0.025503624230623245
1702061931984352300,9.997352294921875,0.355981707572937,-0.46410486102104187,0.010537425056099892
1702061932001348400,10.014348388671875,0.11713340878486633,-0.5962044596672058,-0.06719517707824707
1702061932018337000,10.0313369140625,-0.13500121235847473,-0.48655417561531067,-0.11636982858181
1702061932035331800,10.048331787109374,-0.3205515444278717,-0.33460143208503723,-0.12553280591964722
1702061932052327700,10.06532763671875,-0.44623705744743347,-0.2347249686717987,-0.10903944820165634
1702061932069320700,10.08232080078125,-0.49525898694992065,-0.3263547718524933,-0.11820242553949356
1702061932086313000,10.09931298828125,-0.3839288055896759,-0.37690386176109314,-0.14874568581581116
1702061932103308500,10.11630859375,-0.26939156651496887,-0.38087448477745056,-0.1771509200334549
1702061932120302600,10.133302490234374,-0.1794416606426239,-0.3995058834552765,-0.21914790570735931
1702061932137309200,10.15030908203125,-0.10293079167604446,-0.4251621961593628,-0.2376265823841095
1702061932154287900,10.167287841796876,-0.06322455406188965,-0.451123982667923,-0.1817324161529541
1702061932171284000,10.184283935546874,0.0022907445672899485,-0.4337143301963806,-0.09987647086381912
1702061932188280600,10.201280517578125,0.04046982154250145,-0.31581732630729675,-0.02932153269648552
1702061932205269200,10.218269287109376,0.03985895588994026,-0.15073099732398987,0.09056077152490616
1702061932222265600,10.235265625,0.05115996301174164,0.043676864355802536,0.2977968156337738
1702061932239259000,10.2522587890625,0.08032877743244171,0.25793784856796265,0.5258022546768188
1702061932256253200,10.269253173828124,0.19043724238872528,0.35353827476501465,0.6331618428230286
1702061932273246700,10.286246826171874,0.3882048726081848,0.342695415019989,0.5283984541893005
1702061932290240500,10.303240478515624,0.6455318331718445,0.13790282607078552,0.25595253705978394
1702061932307234000,10.320234130859374,0.5673410892486572,0.2269364446401596,0.3617849349975586
1702061932324228400,10.337228271484374,0.35842517018318176,0.4986187517642975,0.6514877676963806
1702061932341221400,10.354221435546876,0.2246456891298294,0.7220427393913269,0.8017606139183044
1702061932358213400,10.37121337890625,0.2629774808883667,0.7092145681381226,0.6604980230331421
1702061932375211800,10.388211669921875,0.5575672388076782,0.19394971430301666,0.11759155988693237
1702061932392200200,10.4052001953125,0.526107668876648,-0.14034628868103027,-0.007635815534740686
1702061932409200000,10.4222001953125,0.4303545653820038,0.04581489413976669,0.3399465084075928
1702061932426191400,10.43919140625,0.3718642294406891,0.17150041460990906,0.7658722996711731
1702061932443184400,10.456184326171876,0.3182607889175415,0.3219259977340698,0.8764389157295227
1702061932460179000,10.473178955078126,0.35659259557724,0.21899518370628357,0.35934147238731384
1702061932477154000,10.490154052734376,0.24572055041790009,0.10155634582042694,-0.06688974797725677
1702061932494156000,10.507156005859375,0.04444044828414917,0.027641652151942253,-0.10231992602348328
1702061932511159800,10.524159912109376,-0.01725694350898266,0.11316278576850891,0.19226983189582825
1702061932528154000,10.541154052734376,0.0757472887635231,0.19120082259178162,0.40912699699401855
1702061932545147400,10.5581474609375,0.1996002197265625,0.19257527589797974,0.26083946228027344
1702061932562142000,10.575141845703126,0.2577851414680481,0.02779436856508255,-0.0679587572813034
1702061932579134700,10.592134765625,0.2802344262599945,0.04856378585100174,-0.27000242471694946
1702061932596129000,10.60912890625,0.21792617440223694,0.09544769674539566,-0.4384485185146332
1702061932613122800,10.626122802734375,0.14217889308929443,-0.13072516024112701,-0.3952298164367676
1702061932630114000,10.643114013671875,0.2246456891298294,-0.17073683440685272,-0.051312681287527084
1702061932647113000,10.660113037109374,0.39125919342041016,0.2376265823841095,0.2551889419555664
1702061932664104200,10.677104248046875,0.48777589201927185,0.6246097087860107,0.3168863356113434
1702061932681097500,10.694097412109375,0.4115704596042633,0.6097962260246277,0.22281309962272644
1702061932698092000,10.711092041015625,0.21609358489513397,0.22342395782470703,0.00045814894838258624
1702061932715085600,10.72808544921875,0.025961773470044136,-0.01924225501716137,-0.18310685455799103
1702061932732079400,10.745079345703125,0.011453723534941673,0.1472185254096985,-0.21334469318389893
1702061932749073200,10.7620732421875,0.08888089656829834,0.34055736660957336,-0.12308934330940247
1702061932766067500,10.7790673828125,0.08918632566928864,0.35353827476501465,-0.033597588539123535
1702061932783060500,10.796060546875,0.04764748737215996,0.27580565214157104,-0.0007635815418325365
1702061932800054800,10.8130546875,-0.06719517707824707,0.12996158003807068,-0.03848451003432274
1702061932817048000,10.830048095703125,-0.09117163717746735,0.33337971568107605,0.041691552847623825
1702061932834042400,10.84704248046875,0.05009094998240471,0.46899178624153137,0.1137736514210701
1702061932851035600,10.86403564453125,0.19104810059070587,0.4584543704986572,0.19685132801532745
1702061932868024800,10.88102490234375,0.15745051205158234,0.26771169900894165,0.11438451707363129
1702061932885023500,10.8980234375,0.015118914656341076,0.18616119027137756,-0.009773843921720982
1702061932902017800,10.915017822265625,-0.10293079167604446,0.2664899528026581,-0.020616702735424042
1702061932919011000,10.932010986328125,-0.022449297830462456,0.38438695669174194,0.10613783448934555
1702061932936005400,10.94900537109375,0.19624045491218567,0.2480112910270691,0.11224649101495743
1702061932952998700,10.96599853515625,0.20555615425109863,-0.05146539583802223,-0.11468994617462158
1702061932969992700,10.98299267578125,0.04138612002134323,-0.16768251359462738,-0.2733621895313263
1702061932986986000,10.999986083984375,-0.25931230187416077,-0.1823432743549347,-0.3500257730484009
1702061933003980500,11.01698046875,-0.41722095012664795,-0.11575896292924881,-0.44837507605552673
1702061933020973800,11.033973876953125,-0.33826664090156555,-0.08689557760953903,-0.5128213763237
1702061933037968100,11.050968017578125,-0.23380866646766663,-0.12049316614866257,-0.5422956347465515
1702061933054961200,11.067961181640625,-0.1518000066280365,-0.19715675711631775,-0.5285511612892151
1702061933071945200,11.0849453125,-0.13530665636062622,-0.23900102078914642,-0.5134322643280029
1702061933088949000,11.101948974609375,-0.2796235680580139,-0.2454151064157486,-0.6000223755836487
1702061933105943300,11.118943359375,-0.5280929803848267,-0.43829581141471863,-0.7502952218055725
1702061933122936300,11.135936279296875,-0.661719799041748,-0.5112941861152649,-0.6592763066291809
1702061933139931100,11.15293115234375,-0.5673410892486572,-0.49754974246025085,-0.4599815309047699
1702061933156924400,11.16992431640625,-0.3387247920036316,-0.2730567753314972,-0.4404338300228119
1702061933173918700,11.186918701171875,-0.17592918872833252,-0.07330382615327835,-0.4404338300228119
1702061933190912000,11.203912109375,-0.10064005106687546,-0.13484850525856018,-0.32620203495025635
1702061933207906300,11.22090625,-0.05268712714314461,-0.4080579876899719,-0.337044894695282
1702061933224899300,11.2378994140625,-0.15683965384960175,-0.4584543704986572,-0.48456886410713196
1702061933241893400,11.254893310546874,-0.327729195356369,-0.3680463135242462,-0.6571382880210876
1702061933258887200,11.27188720703125,-0.3787364661693573,-0.4112650156021118,-0.5787948369979858
1702061933275881500,11.288881591796875,-0.17119498550891876,-0.6493497490882874,-0.22479841113090515
1702061933292872000,11.305871826171876,0.06062837690114975,-0.5480988621711731,0.02535090781748295
1702061933309871400,11.322871337890625,-0.07192938029766083,-0.037110064178705215,-0.0913243517279625
1702061933326853400,11.339853271484374,-0.45204028487205505,0.19104810059070587,-0.36331209540367126
1702061933343856600,11.356856689453124,-0.6812674403190613,-0.1469130963087082,-0.3349068760871887
1702061933360849700,11.373849609375,-0.4586070775985718,-0.4437935948371887,-0.17348572611808777
1702061933377844200,11.39084423828125,-0.04612032696604729,-0.5236642360687256,-0.1927279829978943
1702061933394837500,11.40783740234375,0.30482175946235657,-0.2799290120601654,0.01038470957428217
1702061933411831600,11.42483154296875,0.3397938013076782,-0.06719517707824707,0.2379320114850998
1702061933428825300,11.441825439453124,0.13316862285137177,0.008399397134780884,0.36132678389549255
1702061933445821700,11.45882177734375,0.07360926270484924,0.01878410577774048,0.44058656692504883
1702061933462810600,11.475810546875,0.19104810059070587,-0.05467243865132332,0.43020185828208923
1702061933479807200,11.49280712890625,0.3315471112728119,0.025656340643763542,0.36483925580978394
1702061933496800000,11.509800048828126,0.2768746614456177,0.08445212244987488,0.21471913158893585
1702061933513794600,11.526794677734374,0.07528914511203766,-0.09147707372903824,0.1466076523065567
1702061933530785000,11.543784912109375,0.0529925599694252,-0.2594650089740753,0.2616030275821686
1702061933547785500,11.560785400390625,0.1849394589662552,-0.1722639948129654,0.375071257352829
1702061933564775700,11.577775634765626,0.275347501039505,-0.030695978552103043,0.3911064863204956
1702061933581770000,11.59477001953125,0.1258382350206375,0.04077525436878204,0.31459560990333557
1702061933598763000,11.611762939453126,-0.16630806028842926,-0.016951510682702065,0.17516560852527618
1702061933615757300,11.62875732421875,-0.4066835343837738,-0.11255192011594772,0.12079860270023346
1702061933632750600,11.64575048828125,-0.47219884395599365,-0.22968533635139465,0.11957687139511108
1702061933649745200,11.6627451171875,-0.36422839760780334,-0.1771509200334549,0.07620543986558914
1702061933666738200,11.67973828125,-0.18448130786418915,-0.08384125679731369,0.03039054572582245
1702061933683732700,11.696732666015626,-0.04993823543190956,-0.2587014436721802,-0.014355333521962166
1702061933700726000,11.71372607421875,-0.03573561832308769,-0.4915938079357147,-0.022143865004181862
1702061933717720300,11.73072021484375,-0.01863138936460018,-0.5216789245605469,0.032681290060281754
1702061933734713600,11.747713623046875,0.126143679022789,-0.24083362519741058,0.10674870014190674
1702061933751707600,11.764707763671876,0.2255619913339615,-0.0858265683054924,0.17623461782932281
1702061933768701000,11.781700927734375,0.19517144560813904,-0.11850785464048386,0.2203696370124817
1702061933785695500,11.798695556640626,0.1238529309630394,-0.12247848510742188,0.1736384481191635
1702061933802686200,11.815686279296875,0.02626720629632473,-0.10399980843067169,0.11407908797264099
1702061933819685600,11.832685546875,-0.06383541971445084,-0.10506882518529892,0.11820242553949356
1702061933836676400,11.84967626953125,-0.09651670604944229,-0.0910189226269722,0.18295414745807648
1702061933853670400,11.86667041015625,-0.08231408894062042,-0.08674286305904388,0.2252565622329712
1702061933870664000,11.883663818359375,-0.05161811411380768,-0.1007927656173706,0.24648413062095642
1702061933887651000,11.900651123046876,-0.04306599870324135,-0.0009162978967651725,0.2790127098560333
1702061933904651500,11.917651611328125,-0.0007635815418325365,0.1385136991739273,0.3455969989299774
1702061933921645800,11.934645751953125,0.058184914290905,0.23075434565544128,0.44944411516189575
1702061933938638800,11.951638916015625,0.18677204847335815,0.30695977807044983,0.551305890083313
1702061933955631600,11.968631591796875,0.3196352422237396,0.42500948905944824,0.6647741198539734
1702061933972626700,11.985626708984375,0.4558582007884979,0.5404630303382874,0.7568620443344116
1702061933989621200,12.002621337890625,0.47678032517433167,0.5073235630989075,0.6873761415481567
1702061934006627300,12.01962744140625,0.31642818450927734,0.33628132939338684,0.5348125100135803
1702061934023598000,12.03659814453125,0.17256943881511688,0.1992947906255722,0.513126790523529
1702061934040602000,12.05360205078125,0.21273382008075714,0.451123982667923,0.5694791078567505
1702061934057596000,12.070595947265625,0.2226603776216507,0.8315402865409851,0.5342016816139221
1702061934074589700,12.087589599609375,0.09605856239795685,0.7536550164222717,0.4447098970413208
1702061934091584000,12.104583984375,-0.0907134860754013,0.3442225754261017,0.5012149214744568
1702061934108577000,12.121576904296875,-0.27382034063339233,-0.08399397134780884,0.5638286471366882
1702061934125560600,12.138560546875,-0.40225476026535034,-0.03375030308961868,0.4109596014022827
1702061934142564600,12.155564697265625,-0.313373863697052,0.3006984293460846,0.08659014850854874
1702061934159559000,12.172558837890625,-0.1391245573759079,0.44684791564941406,0.20005837082862854
1702061934176552400,12.189552490234375,0.038637228310108185,0.46303585171699524,0.5320636034011841
1702061934193550300,12.20655029296875,0.0679587572813034,0.38957929611206055,0.6287330389022827
1702061934210540000,12.2235400390625,-0.009010262787342072,0.2096794992685318,0.4977024495601654
1702061934227534300,12.240534423828125,-0.06398813426494598,0.06169738993048668,0.16569720208644867
1702061934244527600,12.257527587890625,-0.16493362188339233,0.19715675711631775,-0.1368338167667389
1702061934261521700,12.274521728515625,-0.3312416672706604,0.30863967537879944,-0.19975294172763824
1702061934278515000,12.291514892578125,-0.5288565754890442,0.34697145223617554,-0.0022907445672899485
1702061934295509500,12.308509521484375,-0.5453499555587769,0.5404630303382874,0.2968805134296417
1702061934312502800,12.325502685546875,-0.2964223623275757,0.6748533844947815,0.43157628178596497
1702061934329497000,12.3424970703125,0.05864306539297104,0.7032586336135864,0.3827070891857147
1702061934346493700,12.35949365234375,0.2073887437582016,0.49953505396842957,0.19898934662342072
1702061934363481300,12.3764814453125,0.11255192011594772,0.27519479393959045,-0.005955935921519995
1702061934380468000,12.393468017578124,-0.07299839705228806,0.4056145250797272,-0.059864792972803116
1702061934397472000,12.410471923828124,-0.18646661937236786,0.5647448897361755,-0.06001751124858856
1702061934414465500,12.427465576171874,-0.10781771689653397,0.8303185701370239,0.05406157299876213
1702061934431459800,12.4444599609375,0.17577648162841797,0.9207266569137573,0.11407908797264099
1702061934448453400,12.461453369140624,0.37659841775894165,0.7174612283706665,0.23747386038303375
1702061934465447200,12.478447265625,0.347276896238327,0.5345070958137512,0.3758348524570465
1702061934482440700,12.495440673828124,0.206777885556221,0.4106541574001312,0.29917123913764954
1702061934499435000,12.51243505859375,0.05757404863834381,0.36713001132011414,0.06352998316287994
1702061934516413000,12.529412841796875,-0.078343465924263,0.38637226819992065,-0.18188512325286865
1702061934533422600,12.546422607421874,-0.19868391752243042,0.3150537610054016,-0.38759398460388184
1702061934550416000,12.563415771484374,-0.25014930963516235,0.16859880089759827,-0.46761733293533325
1702061934567410400,12.580410400390624,-0.2076941877603531,0.11743884533643723,-0.351400226354599
1702061934584403700,12.59740380859375,-0.21838432550430298,0.0988074541091919,-0.2768746614456177
1702061934601398000,12.61439794921875,-0.2970332205295563,0.1443169116973877,-0.2877175211906433
1702061934618391300,12.631391357421874,-0.38011088967323303,0.14874568581581116,-0.3349068760871887
1702061934635385000,12.648385009765626,-0.34315356612205505,0.027030786499381065,-0.31642818450927734
1702061934652379000,12.66537890625,-0.2838996350765228,-0.1336267739534378,-0.30314189195632935
1702061934669373000,12.682373046875,-0.26190847158432007,-0.17180584371089935,-0.32589662075042725
1702061934686366200,12.6993662109375,-0.32421672344207764,-0.27320948243141174,-0.3943135142326355
1702061934703360500,12.716360595703126,-0.46410486102104187,-0.289244681596756,-0.4427245855331421
1702061934720353800,12.733353759765626,-0.4584543704986572,-0.35063666105270386,-0.43676865100860596
1702061934737348000,12.75034814453125,-0.26832255721092224,-0.5041165351867676,-0.39156460762023926
1702061934754345000,12.767344970703125,-0.19517144560813904,-0.6010913848876953,-0.4245513379573822
1702061934771335700,12.784335693359376,-0.3101668357849121,-0.6189591884613037,-0.5215262174606323
1702061934788329000,12.801328857421876,-0.5114469528198242,-0.6490443348884583,-0.6076582074165344
1702061934805320400,12.818320556640625,-0.5294674634933472,-0.6064364910125732,-0.5671883821487427
1702061934822311400,12.8353115234375,-0.3065016269683838,-0.6214026808738708,-0.4703662395477295
1702061934839312600,12.852312744140624,-0.04841107130050659,-0.5426010489463806,-0.3723223805427551
1702061934856303000,12.86930322265625,-0.06154467165470123,-0.447000652551651,-0.34834590554237366
1702061934873298000,12.8862978515625,-0.19975294172763824,-0.5102251768112183,-0.35674530267715454
1702061934890293800,12.903293701171876,-0.3243694305419922,-0.7115052938461304,-0.3588833212852478
1702061934907286300,12.920286376953126,-0.3000875413417816,-0.731511116027832,-0.403323769569397
1702061934924279300,12.937279296875,-0.18219055235385895,-0.6165157556533813,-0.5123631954193115
1702061934941273600,12.954273681640625,-0.0933096632361412,-0.41462478041648865,-0.4876231849193573
1702061934958267100,12.97126708984375,-0.06230825558304787,-0.4381431043148041,-0.3484986126422882
1702061934975261400,12.988261474609375,0.06765332818031311,-0.6484334468841553,-0.2741257846355438
1702061934992254500,13.00525439453125,0.09300423413515091,-0.6637051105499268,-0.29993483424186707
1702061935009252400,13.02225244140625,-0.1385136991739273,-0.5763513445854187,-0.5381723046302795
1702061935026236400,13.039236328125,-0.437226802110672,-0.6743952035903931,-0.740368664264679
1702061935043239200,13.0562392578125,-0.2580905556678772,-0.7869471311569214,-0.5545129179954529
1702061935060229600,13.073229736328125,0.22968533635139465,-0.7009678483009338,-0.192422553896904
1702061935077224000,13.090223876953125,0.34666603803634644,-0.12461651116609573,-0.08506298810243607
1702061935094217500,13.107217529296875,-0.04703662544488907,0.25014930963516235,-0.18356500566005707
1702061935111211800,13.124211669921875,-0.3510948121547699,0.16233743727207184,-0.26969701051712036
1702061935128205000,13.141205078125,-0.3029891550540924,-0.14004085958003998,-0.23396138846874237
1702061935145199400,13.158199462890625,0.058337632566690445,-0.31902438402175903,-0.09208793938159943
1702061935162192600,13.175192626953125,0.27748554944992065,-0.18707747757434845,0.010842857882380486
1702061935179187000,13.19218701171875,0.09697485715150833,0.17562375962734222,-0.04917465150356293
1702061935196180000,13.209179931640625,-0.21090123057365417,0.3770565688610077,-0.0032070425804704428
1702061935213174500,13.226174560546875,-0.3413209617137909,0.39614611864089966,0.08689557760953903
1702061935230167800,13.243167724609375,-0.16310101747512817,0.10170906037092209,0.053297992795705795
1702061935247159600,13.26015966796875,0.10308351367712021,-0.28725937008857727,-0.05665775015950203
1702061935264158000,13.277157958984375,0.1134682223200798,-0.365755558013916,-0.26801711320877075
1702061935281152500,13.294152587890625,-0.06230825558304787,-0.3098613917827606,-0.3649919927120209
1702061935298140400,13.311140380859374,-0.1437060534954071,-0.31810808181762695,-0.2393064647912979
1702061935315137000,13.328136962890625,-0.003512475173920393,-0.3271183371543884,-0.033597588539123535
1702061935332130600,13.345130615234375,0.11972958594560623,-0.18906278908252716,0.01970040425658226
1702061935349124900,13.362124755859375,0.04444044828414917,-0.04153883829712868,-0.07864890247583389
1702061935366118400,13.379118408203125,-0.1866193264722824,-0.05864306539297104,-0.18936823308467865
1702061935383112400,13.396112548828125,-0.39446622133255005,-0.1739438772201538,-0.20754146575927734
1702061935400103200,13.413103271484376,-0.45204028487205505,-0.27458393573760986,-0.18799377977848053
1702061935417102800,13.430102783203125,-0.29733866453170776,-0.08506298810243607,-0.19792033731937408
1702061935434093300,13.44709326171875,-0.044745877385139465,0.10506882518529892,-0.19807305932044983
1702061935451087400,13.46408740234375,0.03695734590291977,0.156686931848526,-0.20265454053878784
1702061935468081000,13.481080810546874,-0.07070764899253845,-0.030695978552103043,-0.40133845806121826
1702061935485075200,13.4980751953125,-0.19746218621730804,-0.2848159074783325,-0.4554000496864319
1702061935502066200,13.515066162109376,-0.13347405195236206,-0.22846360504627228,-0.1797471046447754
1702061935519065300,13.5320654296875,0.03940080851316452,0.06750060617923737,0.09789115190505981
1702061935536056300,13.549056396484374,0.10735956579446793,0.33200526237487793,0.23869559168815613
1702061935553050600,13.566050537109374,0.04535674303770065,0.16432274878025055,0.17470745742321014
1702061935570043600,13.583043701171874,-0.004886921960860491,0.034666601568460464,0.08231408894062042
1702061935587038000,13.600037841796874,-0.022602014243602753,0.0988074541091919,0.10537425428628922
1702061935604031500,13.617031494140624,0.036651913076639175,0.2200642079114914,0.25106561183929443
1702061935621025800,13.63402587890625,0.19379699230194092,0.40454551577568054,0.4758640229701996
1702061935638019000,13.65101904296875,0.432034432888031,0.47311514616012573,0.6472117304801941
1702061935655013000,13.66801318359375,0.6759223937988281,0.27259862422943115,0.6498079299926758
1702061935672006400,13.68500634765625,0.7296785116195679,0.24358251690864563,0.669355571269989
1702061935689000700,13.702000732421874,0.5821545720100403,0.4069889783859253,0.6624833345413208
1702061935705984300,13.718984375,0.3933972120285034,0.33536502718925476,0.5090034604072571
1702061935722988300,13.73598828125,0.3520110845565796,-0.03436116874217987,0.2542726695537567
1702061935739981800,13.75298193359375,0.5242751240730286,-0.17669276893138885,0.07406741380691528
1702061935756975900,13.769975830078126,0.6485861539840698,-0.07742717117071152,0.05726861581206322
1702061935773969200,13.78696923828125,0.5051855444908142,0.05726861581206322,0.1111774742603302
1702061935790961200,13.803961181640625,0.2220495194196701,-0.005497787147760391,0.12889257073402405
1702061935807959600,13.82095947265625,0.10751228034496307,-0.12446379661560059,0.1713477075099945
1702061935824951000,13.837950927734376,0.11804971098899841,-0.11178833991289139,0.08200865983963013
1702061935841944300,13.8549443359375,0.10812314599752426,-0.07880161702632904,-0.055741455405950546
1702061935858938600,13.871938720703126,0.1716531366109848,-0.08078692853450775,0.14905111491680145
1702061935875932200,13.88893212890625,0.28420504927635193,0.11285735666751862,0.5584835410118103
1702061935892926200,13.90592626953125,0.3098613917827606,0.08155050873756409,0.788627028465271
1702061935909919700,13.922919677734376,0.28985556960105896,-0.004886921960860491,0.7870998978614807
1702061935926914000,13.9399140625,0.12522737681865692,-0.05726861581206322,0.4098905920982361
1702061935943907300,13.9569072265625,0.04459316283464432,0.02733621932566166,0.06765332818031311
1702061935960901400,13.9739013671875,0.2054034322500229,0.1927279829978943,0.07376197725534439
1702061935977894700,13.990894775390625,0.48747047781944275,0.24846944212913513,0.4254676401615143
1702061935994892000,14.00789208984375,0.7107416987419128,0.20922134816646576,0.7322747111320496
1702061936011880200,14.024880126953125,0.6736316680908203,0.14324790239334106,0.6322455406188965
1702061936028878600,14.041878662109376,0.346818745136261,0.03084869496524334,0.27947086095809937
1702061936045870000,14.0588701171875,-0.044135015457868576,-0.042760565876960754,0.03497203439474106
1702061936062858800,14.075858642578124,-0.13897185027599335,0.15622878074645996,0.09437867999076843
1702061936079857700,14.092857666015625,0.1134682223200798,0.2428189367055893,0.3523165285587311
1702061936096851700,14.109851806640625,0.47219884395599365,0.06872233748435974,0.6979135274887085
1702061936113845000,14.126844970703125,0.5820018649101257,0.027488935738801956,0.8811731338500977
1702061936130834200,14.143834228515624,0.3825543522834778,0.24495697021484375,0.8370380997657776
1702061936147830500,14.16083056640625,0.09346238523721695,0.4112650156021118,0.5636758804321289
1702061936164829200,14.1778291015625,-0.14706580340862274,0.2912299931049347,0.1788308024406433
1702061936181819600,14.194819580078125,-0.17104226350784302,0.16630806028842926,-0.018478672951459885
1702061936198804700,14.2118046875,-0.024892758578062057,0.09651670604944229,-0.020463986322283745
1702061936215808000,14.22880810546875,0.08155050873756409,0.03497203439474106,-0.03726277872920036
1702061936232802300,14.24580224609375,0.0832303911447525,0.08827003091573715,-0.0024434609804302454
1702061936249795300,14.26279541015625,0.05054909735918045,0.03940080851316452,0.13576480746269226
1702061936266790000,14.279789794921875,-0.02687807008624077,-0.060475658625364304,0.1391245573759079
1702061936283783000,14.296782958984375,-0.10018189996480942,-0.050243668258190155,-0.040622539818286896
1702061936300766500,14.313766357421875,-0.19532416760921478,-0.013133603148162365,-0.2834414839744568
1702061936317770800,14.330770751953125,-0.23976461589336395,-0.12034045159816742,-0.4202753007411957
1702061936334765000,14.34776513671875,-0.2629774808883667,-0.21502456068992615,-0.46471574902534485
1702061936351758000,14.364758056640625,-0.192422553896904,-0.19578230381011963,-0.5088507533073425
1702061936368751600,14.381751708984375,-0.07925976812839508,-0.20234911143779755,-0.5917757153511047
1702061936385746400,14.398746337890625,-0.014355333521962166,-0.2028072625398636,-0.5807801485061646
1702061936402740000,14.415739990234375,-0.060322944074869156,-0.1420261710882187,-0.517250120639801
1702061936419733500,14.4327333984375,-0.13988813757896423,-0.10995574295520782,-0.47311514616012573
1702061936436727800,14.449727783203125,-0.2064724564552307,-0.10690141469240189,-0.485027015209198
1702061936453721000,14.46672119140625,-0.17256943881511688,-0.1791362315416336,-0.4792237877845764
1702061936470715400,14.48371533203125,-0.08796459436416626,-0.395077109336853,-0.4213443100452423
1702061936487708400,14.50070849609375,-0.04230241850018501,-0.4717406928539276,-0.34315356612205505
1702061936504700400,14.517700439453124,-0.08338310569524765,-0.24205535650253296,-0.38759398460388184
1702061936521696000,14.534696044921875,-0.17348572611808777,0.24113905429840088,-0.5268712639808655
1702061936538690600,14.551690673828125,-0.3442225754261017,0.2370157092809677,-0.6249151229858398
1702061936555683800,14.568683837890624,-0.35750889778137207,-0.1635591685771942,-0.46211954951286316
1702061936572675300,14.58567529296875,-0.1612684279680252,-0.32986724376678467,-0.370947927236557
1702061936589672000,14.602671875,0.03573561832308769,-0.18631389737129211,-0.5803219676017761
1702061936606668000,14.61966796875,-0.05421429127454758,-0.2838996350765228,-0.8058840036392212
1702061936623659000,14.636658935546874,-0.22250767052173615,-0.46410486102104187,-0.6580545902252197
1702061936640650500,14.653650390625,-0.07849618047475815,-0.3355177342891693,-0.31230485439300537
1702061936657649200,14.670649169921875,0.28008171916007996,0.007941247895359993,-0.20128010213375092
1702061936674641000,14.687640869140624,0.36560285091400146,-0.004428773187100887,-0.21410827338695526
1702061936691634200,14.70463427734375,0.08124507963657379,-0.394008070230484,-0.20555615425109863
1702061936708628500,14.72162841796875,-0.10354165732860565,-0.4300491213798523,-0.02367102913558483
1702061936725621800,14.738621826171874,0.20601430535316467,-0.07513642311096191,0.31322115659713745
1702061936742613200,14.75561328125,0.6194173693656921,0.37522396445274353,0.5836817622184753
1702061936759612000,14.77261181640625,0.5988006591796875,0.41691553592681885,0.6311765313148499
1702061936776603600,14.789603759765624,0.1644754707813263,-0.12538009881973267,0.5949827432632446
1702061936793597000,14.806596923828126,-0.055283304303884506,-0.4381431043148041,0.5665774941444397
1702061936810591200,14.82359130859375,0.2617557644844055,-0.26801711320877075,0.39385536313056946
1702061936827584500,14.84058447265625,0.7209737300872803,-0.10934487730264664,0.11270463466644287
1702061936844578800,14.857578857421874,0.6418666839599609,-0.3295617997646332,-0.06963863968849182
1702061936861572000,14.874572021484376,0.16432274878025055,-0.5002986192703247,-0.009926560334861279
1702061936878566100,14.891566162109376,-0.15286903083324432,-0.5424483418464661,-0.046731192618608475
1702061936895559400,14.908559326171876,-0.2148718535900116,-0.6520986557006836,-0.1618792861700058
1702061936912551200,14.92555126953125,-0.1540907621383667,-0.709061861038208,-0.3683517575263977
1702061936929549800,14.9425498046875,-0.24098633229732513,-0.782976508140564,-0.48059824109077454
1702061936946541600,14.95954150390625,-0.43279802799224854,-0.6568328738212585,-0.25641068816185
1702061936963524000,14.976524169921875,-0.34513887763023376,-0.5319108963012695,0.019547687843441963
1702061936980529200,14.993529052734376,-0.017867809161543846,-0.5258022546768188,0.17562375962734222
1702061936997522200,15.010522216796875,0.21914790570735931,-0.3787364661693573,0.19868391752243042
1702061937014516500,15.0275166015625,0.17928895354270935,0.11972958594560623,0.2632829248905182
1702061937031509800,15.044509765625,0.060475658625364304,0.39767327904701233,0.4938845634460449
1702061937048504000,15.061504150390626,0.08368854224681854,0.16310101747512817,0.6250678896903992
1702061937065497300,15.078497314453125,0.17577648162841797,-0.26221391558647156,0.4625777006149292
1702061937082492000,15.095491943359375,0.17043140530586243,-0.6664539575576782,0.08445212244987488
1702061937099485200,15.112485107421875,0.4057672321796417,-0.6513350605964661,-0.10674870014190674
1702061937116479500,15.1294794921875,0.5094616413116455,-0.31810808181762695,-0.007788531947880983
1702061937133472500,15.146472412109375,0.39797869324684143,-0.1823432743549347,0.17348572611808777
1702061937150466800,15.163466796875,0.24266621470451355,-0.2197587788105011,0.1699732542037964
1702061937167457800,15.180457763671875,0.07864890247583389,-0.43615779280662537,0.0354301854968071
1702061937184457000,15.19745703125,-0.015577063895761967,-0.5140430927276611,0.032528575509786606
1702061937201448000,15.214447998046875,0.08506298810243607,-0.3214678466320038,0.2142609804868698
1702061937218442200,15.231442138671875,0.18997909128665924,-0.06383541971445084,0.43447789549827576
1702061937235433700,15.248433837890625,0.19685132801532745,0.0074830991216003895,0.5858197808265686
1702061937252431400,15.265431396484376,0.20234911143779755,0.09040805697441101,0.6586654782295227
1702061937269422800,15.2824228515625,0.19196440279483795,0.206777885556221,0.7590000629425049
1702061937286417200,15.299417236328125,0.2675589919090271,0.3862195611000061,0.8921687006950378
1702061937303410700,15.31641064453125,0.5500841736793518,0.49754974246025085,0.9124799370765686
1702061937320405000,15.333405029296875,0.8972083330154419,0.2577851414680481,0.801913321018219
1702061937337398300,15.350398193359375,1.0693196058273315,0.06673702597618103,1.0983357429504395
1702061937354389500,15.367389404296874,1.00197172164917,0.15027284622192383,1.531133770942688
1702061937371389000,15.384388916015626,0.799011766910553,0.5209153294563293,1.5937473773956299
1702061937388380000,15.4013798828125,0.6664539575576782,0.5630650520324707,1.0899362564086914
1702061937405363700,15.41836376953125,0.5453499555587769,0.029932396486401558,0.40026944875717163
1702061937422365000,15.435364990234374,0.5151121020317078,-0.24938572943210602,0.09514226019382477
1702061937439361000,15.452361083984375,0.5624541640281677,-0.29367345571517944,0.19135354459285736
1702061937456355300,15.469355224609375,0.6368269920349121,-0.3159700334072113,0.49754974246025085
1702061937473348600,15.4863486328125,0.5157229900360107,-0.40256020426750183,0.7414376735687256
1702061937490343000,15.503343017578125,0.4086688458919525,-0.304210901260376,0.8953757286071777
1702061937507336200,15.520336181640625,0.38117989897727966,0.04184427112340927,0.79840087890625
1702061937524330200,15.537330322265625,0.20845776796340942,0.37369680404663086,0.33887749910354614
1702061937541323500,15.554323486328125,0.03848451003432274,0.4285219609737396,-0.18096883594989777
1702061937558318000,15.571318115234375,0.018478672951459885,0.024434609338641167,-0.33246341347694397
1702061937575311400,15.588311279296875,0.18936823308467865,-0.17806722223758698,-0.050243668258190155
1702061937592305400,15.605305419921875,0.33307427167892456,-0.05757404863834381,0.10231992602348328
1702061937609299000,15.622298828125,0.2649627923965454,0.2451096773147583,0.03405573591589928
1702061937626293200,15.639293212890625,0.1238529309630394,0.38026362657546997,0.12370020896196365
1702061937643286500,15.65628662109375,0.08307767659425735,0.3761402666568756,0.4411974251270294
1702061937660280600,15.673280517578124,0.2620611786842346,0.5832235813140869,0.7082982659339905
1702061937677273900,15.69027392578125,0.5224425196647644,0.5668829679489136,0.755793035030365
1702061937694268400,15.707268310546874,0.6543893814086914,0.1592831164598465,0.566730260848999
1702061937711261700,15.72426171875,0.4285219609737396,-0.038637228310108185,0.3260493278503418
1702061937728256000,15.741256103515624,-0.04688390716910362,0.07742717117071152,0.12202033400535583
1702061937745235700,15.758235595703125,-0.36453384160995483,0.3923282027244568,0.01160643994808197
1702061937762243600,15.77524365234375,-0.36224308609962463,0.5157229900360107,-0.1765400618314743
1702061937779239200,15.7922392578125,-0.32986724376678467,0.4358523488044739,-0.3020728528499603
1702061937796231000,15.80923095703125,-0.3816380500793457,0.09254608303308487,-0.2243402600288391
1702061937813234200,15.826234130859374,-0.3546072840690613,-0.09911288321018219,-0.025656340643763542
1702061937830218500,15.843218505859374,-0.21319197118282318,-0.020311269909143448,0.11148291081190109
1702061937847208000,15.8602080078125,-0.04749477282166481,0.14508049190044403,0.1866193264722824
1702061937864206300,15.877206298828124,0.06719517707824707,0.23273965716362,0.13759739696979523
1702061937881199400,15.894199462890626,0.05207626149058342,0.15714508295059204,0.08216137439012527
1702061937898193700,15.911193603515626,-0.010231993161141872,0.05650503560900688,0.08200865983963013
1702061937915187000,15.92818701171875,-0.09544769674539566,0.05711590126156807,-0.0429132841527462
1702061937932181200,15.94518115234375,-0.16798794269561768,0.13057245314121246,-0.2785545587539673
1702061937949172500,15.96217236328125,-0.22663100063800812,0.10567969083786011,-0.4473060667514801
1702061937966171400,15.97917138671875,-0.24556782841682434,0.02779436856508255,-0.4576907753944397
1702061937983162000,15.996162109375,-0.18646661937236786,-0.029474247246980667,-0.3627012372016907
1702061938000143400,16.013143310546877,-0.08964447677135468,0.024892758578062057,-0.28328874707221985
1702061938017142000,16.03014208984375,-0.015118914656341076,0.12293662875890732,-0.26404649019241333
1702061938034144000,16.04714404296875,-0.03176499158143997,0.10506882518529892,-0.3471241891384125
1702061938051137300,16.06413720703125,-0.10216721147298813,-0.14966198801994324,-0.508698046207428
1702061938068129000,16.08112890625,-0.12217304855585098,-0.17256943881511688,-0.5306891798973083
1702061938085127200,16.098127197265626,-0.02672535367310047,0.041691552847623825,-0.566730260848999
1702061938102116900,16.115116943359375,-0.003359758760780096,0.15745051205158234,-0.7141014933586121
1702061938119115000,16.132114990234374,-0.19120082259178162,0.10522153973579407,-0.6432411074638367
1702061938136104700,16.149104736328123,-0.43768495321273804,-0.2018909603357315,-0.3926336467266083
1702061938153102300,16.166102294921874,-0.45204028487205505,-0.42348232865333557,-0.26313021779060364
1702061938170094300,16.18309423828125,-0.39935314655303955,-0.22739458084106445,-0.5940664410591125
1702061938187088000,16.200087890625,-0.3930917978286743,0.15729780495166779,-1.0505355596542358
1702061938204072200,16.217072265625,-0.5123631954193115,-0.18356500566005707,-1.1395691633224487
1702061938221075500,16.234075439453125,-0.5413793325424194,-0.8469646573066711,-0.5920811295509338
1702061938238069500,16.251069580078124,-0.46364670991897583,-1.020603060722351,-0.2814561724662781
1702061938255060200,16.268060302734376,-0.46822822093963623,-0.31871894001960754,-0.5070181488990784
1702061938272060000,16.285059814453124,-0.5042692422866821,0.4245513379573822,-0.7686212062835693
1702061938289050400,16.30205029296875,-0.35216382145881653,-0.037110064178705215,-0.612850546836853
1702061938306034200,16.3190341796875,-0.10644327104091644,-0.7565566301345825,-0.24602597951889038
1702061938323037700,16.33603759765625,-0.051312681287527084,-0.892779529094696,-0.37659841775894165
1702061938340032500,16.353032470703123,-0.4144720733165741,-0.422871470451355,-0.6829473376274109
1702061938357025500,16.370025634765625,-0.7472409009933472,0.13255776464939117,-0.4986187517642975
1702061938374019800,16.387019775390623,-0.6114761233329773,0.3478877544403076,-0.009621127508580685
1702061938391001300,16.40400146484375,-0.2658790946006775,0.24236078560352325,0.19074267148971558
1702061938408007400,16.42100732421875,-0.29016098380088806,-0.05665775015950203,-0.05742133408784866
1702061938425000700,16.438000732421877,-0.47510045766830444,-0.3882048726081848,-0.34895676374435425
1702061938441994800,16.454994873046875,-0.44715335965156555,-0.34116822481155396,-0.3649919927120209
1702061938458988000,16.471988037109377,-0.14492778480052948,-0.05925392732024193,-0.20784689486026764
1702061938475982300,16.488982421875,0.1111774742603302,0.19853121042251587,-0.14340060949325562
1702061938492965000,16.505965087890626,0.014813481830060482,0.050854530185461044,-0.22052235901355743
1702061938509970200,16.52297021484375,-0.22098049521446228,-0.24846944212913513,-0.24266621470451355
1702061938526963700,16.539963623046877,-0.20631973445415497,-0.2935207486152649,-0.3245221674442291
1702061938543957800,16.556957763671875,-0.0022907445672899485,-0.11255192011594772,-0.5389358401298523
1702061938560951000,16.573950927734376,0.021991148591041565,0.16814066469669342,-0.6765332818031311
1702061938577945000,16.590945068359375,-0.054367005825042725,0.13439035415649414,-0.5300782918930054
1702061938594925300,16.60792529296875,-0.10033461451530457,-0.06185010448098183,-0.29504790902137756
1702061938611935500,16.624935546875,-0.12263119965791702,-0.0377209298312664,-0.15454891324043274
1702061938628926200,16.64192626953125,-0.08200865983963013,0.08689557760953903,-0.1973094791173935
1702061938645920500,16.65892041015625,-0.11560624837875366,0.17898350954055786,-0.24342979490756989
1702061938662913500,16.67591357421875,-0.1794416606426239,0.12232576310634613,-0.25732699036598206
1702061938679907800,16.692907958984375,-0.23869559168815613,0.044135015457868576,-0.2776382565498352
1702061938696892200,16.70989208984375,-0.22999076545238495,-0.0009162978967651725,-0.3387247920036316
1702061938713895400,16.7268955078125,-0.15851953625679016,-0.0780380368232727,-0.327271044254303
1702061938730889000,16.743888916015624,-0.060322944074869156,-0.08597928285598755,-0.2255619913339615
1702061938747883300,16.76088330078125,0.024434609338641167,-0.043676864355802536,-0.11209376901388168
1702061938764876500,16.77787646484375,0.04199698567390442,0.04214970022439957,0.011759156361222267
1702061938781870800,16.794870849609374,0.009010262787342072,0.09483683109283447,0.11071932315826416
1702061938798859500,16.811859619140623,-0.023060163483023643,0.06811147183179855,0.1716531366109848
1702061938815862800,16.82886279296875,0.0064140851609408855,0.020463986322283745,0.18035796284675598
1702061938832851700,16.845851806640624,0.08979719132184982,0.049785517156124115,0.1927279829978943
1702061938849845800,16.862845703125,0.15164729952812195,0.08048149943351746,0.23167064785957336
1702061938866839300,16.87983935546875,0.13637566566467285,0.05619960278272629,0.2840523421764374
1702061938883832800,16.896832763671874,0.06734789162874222,0.1463022232055664,0.4057672321796417
1702061938900816000,16.91381591796875,0.04260785132646561,0.40943244099617004,0.6327036619186401
1702061938917821200,16.9308212890625,0.1241583600640297,0.5778785347938538,0.7854200005531311
1702061938934814200,16.947814208984376,0.2646573781967163,0.6360634565353394,0.7527387142181396
1702061938951808500,16.96480859375,0.3090978264808655,0.5810855627059937,0.5480988621711731
1702061938968801800,16.9818017578125,0.166460782289505,0.42439863085746765,0.3168863356113434
1702061938985789700,16.998789794921876,-0.08292495459318161,0.46334129571914673,0.3465133011341095
1702061939002789600,17.01578955078125,-0.12247848510742188,0.7029531598091125,0.5797111392021179
1702061939019783700,17.03278369140625,0.1472185254096985,0.8042041063308716,0.7195992469787598
1702061939036777200,17.049777099609376,0.45173484086990356,0.8300131559371948,0.6404922008514404
1702061939053771300,17.066771240234374,0.46990808844566345,0.6478226184844971,0.4340197443962097
1702061939070764800,17.083764892578124,0.166460782289505,0.4027129113674164,0.1589776873588562
1702061939087758600,17.100758544921874,-0.3332269787788391,0.3332269787788391,0.0024434609804302454
1702061939104752000,17.117752197265624,-0.342237263917923,0.3839288055896759,0.08689557760953903
1702061939121746200,17.13474609375,-0.007941247895359993,0.423329621553421,0.18616119027137756
1702061939138739700,17.15173974609375,0.42439863085746765,0.3828597962856293,0.08491026610136032
1702061939155733800,17.168733642578125,0.5685628056526184,0.05467243865132332,-0.275347501039505
1702061939172725000,17.18572509765625,0.19486601650714874,0.7457137703895569,-0.0936150997877121
1702061939189724000,17.202723876953126,0.012217304669320583,1.0545061826705933,0.28466320037841797
1702061939206704400,17.219704345703125,0.20066922903060913,0.9143125414848328,0.5073235630989075
1702061939223709000,17.236708984375,0.37690386176109314,0.45463645458221436,0.4147774875164032
1702061939240702200,17.2537021484375,0.1339322030544281,0.07299839705228806,0.05360342562198639
1702061939257696800,17.27069677734375,-0.3413209617137909,0.6534730792045593,0.017409659922122955
1702061939274690000,17.28768994140625,-0.3507893681526184,0.8686503767967224,0.2021963894367218
1702061939291684400,17.304684326171873,0.015118914656341076,0.7023423314094543,0.5586362481117249
1702061939308677600,17.321677734375,0.437226802110672,0.43478333950042725,0.7209737300872803
1702061939325673500,17.338673583984374,0.5937610268592834,0.26374107599258423,0.5108360648155212
1702061939342663400,17.355663330078126,0.42638394236564636,0.4054618179798126,0.24526239931583405
1702061939359658000,17.372657958984377,0.15974126756191254,0.3787364661693573,-0.005192354787141085
1702061939376643300,17.389643310546877,0.1264491081237793,0.24862214922904968,-0.056352317333221436
1702061939393647000,17.406647216796873,0.23594669997692108,0.13347405195236206,0.02122756652534008
1702061939410640400,17.423640380859375,0.42088615894317627,0.21853704750537872,0.2148718535900116
1702061939427631900,17.4406318359375,0.5002986192703247,0.2539672255516052,0.3119994103908539
1702061939444630300,17.45763037109375,0.2993239760398865,0.41813725233078003,0.40164390206336975
1702061939461614000,17.474614013671875,0.018936822190880775,0.5203045010566711,0.4558582007884979
1702061939478615300,17.491615234375,-0.08979719132184982,0.41202861070632935,0.37537670135498047
1702061939495609600,17.508609619140625,-0.060475658625364304,0.16065755486488342,0.14355333149433136
1702061939512600600,17.5256005859375,-0.09239336848258972,0.0403171069920063,-0.1342376321554184
1702061939529600500,17.5426005859375,-0.26679539680480957,0.15653422474861145,-0.33918291330337524
1702061939546579200,17.5595791015625,-0.39354994893074036,0.18188512325286865,-0.4876231849193573
1702061939563584800,17.576584716796877,-0.38347065448760986,-0.08704829961061478,-0.5893322229385376
1702061939580578000,17.593578125,-0.3623957931995392,-0.38606682419776917,-0.6840163469314575
1702061939597572400,17.610572265625,-0.3700316250324249,-0.5215262174606323,-0.7787004709243774
1702061939614566000,17.62756591796875,-0.41599923372268677,-0.3854559659957886,-0.7570147514343262
1702061939631554600,17.644554443359375,-0.3721696436405182,-0.3784310221672058,-0.6391177773475647
1702061939648553200,17.66155322265625,-0.2838996350765228,-0.47510045766830444,-0.504574716091156
1702061939665537500,17.67853759765625,-0.30512720346450806,-0.36590829491615295,-0.48487427830696106
1702061939682540800,17.695540771484374,-0.35033121705055237,-0.06612616032361984,-0.4795292317867279
1702061939699533300,17.712533203125,-0.38438695669174194,-0.08827003091573715,-0.4502076804637909
1702061939716530400,17.729530517578127,-0.3877467215061188,-0.31383201479911804,-0.3533855378627777
1702061939733522700,17.746522705078124,-0.40591996908187866,-0.5578727126121521,-0.32070425152778625
1702061939750516000,17.763515869140626,-0.5351179838180542,-0.5177083015441895,-0.4231768846511841
1702061939767510300,17.78051025390625,-0.565203070640564,-0.20662516355514526,-0.41813725233078003
1702061939784503600,17.797503662109374,-0.2742784917354584,-0.1774563491344452,-0.24923302233219147
1702061939801497900,17.814497802734376,0.03344487398862839,-0.4265366494655609,-0.09285151958465576
1702061939818491100,17.8314912109375,-0.12064588814973831,-0.6959282159805298,-0.15775595605373383
1702061939835485400,17.8484853515625,-0.5128213763237,-0.6814202070236206,-0.3784310221672058
1702061939852478700,17.865478759765626,-0.674089789390564,-0.4389066696166992,-0.5296201705932617
1702061939869472800,17.88247265625,-0.3949243724346161,-0.2987131178379059,-0.4352414906024933
1702061939886465500,17.899465576171874,0.10064005106687546,-0.3423899710178375,-0.18707747757434845
1702061939903461000,17.916461181640624,0.2695443034172058,-0.3448334336280823,-0.044287730008363724
1702061939920454000,17.933453857421874,-0.11621711403131485,-0.35414913296699524,-0.2695443034172058
1702061939937448200,17.9504482421875,-0.4738787114620209,-0.4437935948371887,-0.48655417561531067
1702061939954441200,17.967441162109374,-0.38988474011421204,-0.39553526043891907,-0.536797821521759
1702061939971435500,17.984435546875,-0.023976460099220276,-0.16920967400074005,-0.5723807215690613
1702061939988429000,18.001428955078126,0.26893341541290283,-0.015271631069481373,-0.4547891616821289
1702061940005412600,18.01841259765625,0.21288654208183289,-0.32360586524009705,-0.3446807265281677
1702061940022416400,18.03541650390625,-0.17531833052635193,-0.9830349087715149,-0.3758348524570465
1702061940039411000,18.052410888671876,-0.45234572887420654,-1.465771198272705,-0.395077109336853
1702061940056404200,18.069404296875,-0.21960605680942535,-1.140485405921936,-0.3358231782913208
1702061940073387800,18.0863876953125,-0.0832303911447525,-0.44318273663520813,-0.47082439064979553
1702061940090389200,18.10338916015625,-0.3568980097770691,0.1082758679986,-0.4662429094314575
1702061940107388700,18.120388671875,-0.5338962078094482,0.12751811742782593,0.011301007121801376
1702061940124379100,18.137379150390625,-0.3608686327934265,-0.13729196786880493,0.37491855025291443
1702061940141373400,18.15437353515625,-0.008246680721640587,-0.10552696883678436,0.27091872692108154
1702061940158366700,18.17136669921875,0.23228150606155396,0.05650503560900688,0.0354301854968071
1702061940175361000,18.188361083984375,0.18738290667533875,0.018936822190880775,-0.1440114825963974
1702061940192350200,18.20535009765625,0.03191770985722542,-0.09376781433820724,-0.1661553531885147
1702061940209353000,18.22235302734375,-0.09178250283002853,-0.20463985204696655,-0.16249015927314758
1702061940226342000,18.239341796875,-0.10064005106687546,-0.35674530267715454,-0.2535090744495392
1702061940243347500,18.256347412109374,-0.028557950630784035,-0.5349652171134949,-0.3831652104854584
1702061940260326700,18.27332666015625,0.003512475173920393,-0.47250425815582275,-0.46043968200683594
1702061940277326000,18.290326171875,0.06963863968849182,-0.24419337511062622,-0.36911532282829285
1702061940294317000,18.307317138671873,0.14340060949325562,-0.26862800121307373,-0.1774563491344452
1702061940311311400,18.324311279296875,0.1313360333442688,-0.41202861070632935,-0.10308351367712021
1702061940328304600,18.3413046875,-0.0003054326225537807,-0.4156937897205353,-0.23579397797584534
1702061940345299000,18.358298828125,-0.1635591685771942,-0.432645320892334,-0.37400224804878235
1702061940362292200,18.375292236328125,-0.2047925740480423,-0.22021691501140594,-0.1999056488275528
1702061940379286500,18.39228662109375,-0.01114829070866108,0.10277807712554932,0.1696678251028061
1702061940396279600,18.409279541015625,0.23365595936775208,0.20311269164085388,0.43646320700645447
1702061940413274000,18.426274169921875,0.35353827476501465,0.1495092660188675,0.42928555607795715
1702061940430267100,18.44326708984375,0.36392298340797424,0.010690141469240189,0.27748554944992065
1702061940447261200,18.46026123046875,0.3019201457500458,0,0.3859141170978546
1702061940464254700,18.477254638671877,0.38011088967323303,0.2483167201280594,0.6588181853294373
1702061940481246500,18.49424658203125,0.49495357275009155,0.4761694669723511,0.85994553565979
1702061940498245000,18.5112451171875,0.5812382698059082,0.5424483418464661,0.8885034918785095
1702061940515236400,18.528236328125,0.5937610268592834,0.27580565214157104,0.694248378276825
1702061940532230000,18.54522998046875,0.49296826124191284,0.1391245573759079,0.7076873779296875
1702061940549224200,18.56222412109375,0.5224425196647644,0.27290403842926025,0.8900306820869446
1702061940566217500,18.579217529296876,0.6873761415481567,0.5054910182952881,1.0097602605819702
1702061940583211800,18.596211669921875,0.8730791807174683,0.4964807331562042,0.841619610786438
1702061940600205000,18.613205078125,0.8211556077003479,-0.06643159687519073,0.3202461004257202
1702061940617199400,18.630199462890626,0.39538252353668213,-0.06490442901849747,0.3442225754261017
1702061940634188800,18.647188720703124,0.22067506611347198,0.4966334402561188,0.7628179788589478
1702061940651190500,18.6641904296875,0.3623957931995392,0.8874344825744629,1.0932960510253906
1702061940668177700,18.681177734375,0.5612324476242065,0.7336491346359253,1.0548115968704224
1702061940685176800,18.6981767578125,0.5783366560935974,-0.11362093687057495,0.49586987495422363
1702061940702163500,18.71516357421875,0.437226802110672,-0.6259841322898865,0.047800205647945404
1702061940719166500,18.73216650390625,0.3929390609264374,-0.22617286443710327,-0.019853120669722557
1702061940736155400,18.7491552734375,0.5366451144218445,0.28878653049468994,0.2742784917354584
1702061940753149400,18.7661494140625,0.7826710939407349,0.446389764547348,0.697149932384491
1702061940770143000,18.78314306640625,0.8112290501594543,0.09712757170200348,0.727998673915863
1702061940787137000,18.800136962890626,0.6007859706878662,-0.30482175946235657,0.3197879493236542
1702061940804130300,18.81713037109375,0.24816401302814484,-0.41630467772483826,-0.12889257073402405
1702061940821124600,18.83412451171875,0.011453723534941673,-0.03405573591589928,-0.3065016269683838
1702061940838118100,18.8511181640625,0.04153883829712868,0.423329621553421,-0.0507018156349659
1702061940855112400,18.868112548828126,0.1189660057425499,0.470060795545578,0.34208452701568604
1702061940872117000,18.885116943359375,0.0555887371301651,0.24129177629947662,0.5514585971832275
1702061940889101600,18.9021015625,-0.040622539818286896,-0.018020525574684143,0.3199406862258911
1702061940906093000,18.919093017578124,-0.1010981947183609,-0.21731531620025635,-0.3646865487098694
1702061940923087400,18.93608740234375,-0.14798210561275482,-0.2116648107767105,-0.7507534027099609
1702061940940080600,18.95308056640625,-0.1241583600640297,-0.03955352306365967,-0.3865249752998352
1702061940957075200,18.9700751953125,-0.07483099400997162,0.2269364446401596,0.28649580478668213
1702061940974068200,18.987068115234376,-0.026572637259960175,0.4836525619029999,0.7588473558425903
1702061940991062500,19.0040625,0.015577063895761967,0.6174320578575134,0.8365799784660339
1702061941008054300,19.02105419921875,-0.06185010448098183,0.5703954100608826,0.593302845954895
1702061941025050000,19.038050048828126,-0.14263702929019928,0.39385536313056946,0.29367345571517944
1702061941042043100,19.055043212890624,-0.11972958594560623,0.09972374886274338,0.044287730008363724
1702061941059027000,19.07202685546875,-0.045204028487205505,-0.182648703455925,-0.11759155988693237
1702061941076030000,19.089030029296875,-0.02275473065674305,-0.06276640295982361,-0.11759155988693237
1702061941093026000,19.106026123046874,-0.055894169956445694,0.2519819140434265,-0.003054326167330146
1702061941110012700,19.1230126953125,-0.0403171069920063,0.41401392221450806,0.12782354652881622
1702061941127012900,19.140012939453126,-0.0024434609804302454,0.22647829353809357,0.07513642311096191
1702061941144006100,19.157006103515624,-0.03497203439474106,0.006261368747800589,-0.1560760736465454
1702061941161000400,19.17400048828125,-0.2542726695537567,0.02321287989616394,-0.3124575614929199
1702061941177993500,19.190993408203123,-0.3289509415626526,0.14217889308929443,-0.23396138846874237
1702061941194975000,19.20797509765625,-0.20494529604911804,0.03176499158143997,-0.10873401165008545
1702061941211983400,19.2249833984375,-0.09712757170200348,-0.04902193695306778,0.06902777403593063
1702061941228975600,19.2419755859375,-0.13454307615756989,-0.04108068719506264,0.0913243517279625
1702061941245969000,19.258968994140623,-0.3049744665622711,0.04077525436878204,-0.2154827117919922
1702061941262965000,19.275965087890626,-0.4331034719944,0.01664607785642147,-0.49984049797058105
1702061941279952100,19.2929521484375,-0.3274237811565399,-0.14996741712093353,-0.5245805382728577
1702061941296952600,19.30995263671875,-0.11026117950677872,-0.26221391558647156,-0.3877467215061188
1702061941313928400,19.326928466796875,-0.05665775015950203,-0.37491855025291443,-0.4599815309047699
1702061941330938000,19.343938232421873,-0.25045475363731384,-0.3897320330142975,-0.7446447610855103
1702061941347931100,19.36093115234375,-0.5227479338645935,-0.25305092334747314,-0.8391761183738708
1702061941364925700,19.37792578125,-0.5816964507102966,-0.21594086289405823,-0.6079636216163635
1702061941381919000,19.3949189453125,-0.5054910182952881,-0.2002110779285431,-0.5991060733795166
1702061941398905300,19.4119052734375,-0.555429220199585,-0.13209961354732513,-0.8645270466804504
1702061941415906600,19.428906494140627,-0.6916521787643433,-0.5763513445854187,-1.0085384845733643
1702061941432900900,19.44590087890625,-0.699288010597229,-0.7180721163749695,-0.5949827432632446
1702061941449894000,19.462893798828127,-0.5432119369506836,-0.6017022728919983,-0.31093040108680725
1702061941466888200,19.47988818359375,-0.3168863356113434,0.06688974797725677,-0.20112738013267517
1702061941483881700,19.4968818359375,-0.20357084274291992,0.5209153294563293,-0.23105977475643158
1702061941500875500,19.51387548828125,-0.2866485118865967,-0.08567385375499725,-0.2142609804868698
1702061941517869600,19.53086962890625,-0.37201693654060364,-0.6195700764656067,-0.006261368747800589
1702061941534861000,19.547861083984376,-0.2376265823841095,-0.40362921357154846,0.03451388701796532
1702061941551859200,19.564859130859375,0.03039054572582245,0.20082195103168488,-0.053297992795705795
1702061941568856000,19.58185595703125,0.21838432550430298,0.2382374405860901,-0.1385136991739273
1702061941585844200,19.59884423828125,0.1612684279680252,-0.30925053358078003,-0.22327125072479248
1702061941602838800,19.6158388671875,0.03222314268350601,-0.8909469842910767,-0.3228422701358795
1702061941619831600,19.63283154296875,0.016798794269561768,-0.93095862865448,-0.5268712639808655
1702061941636826400,19.649826416015625,0.08338310569524765,-0.4219551682472229,-0.5673410892486572
1702061941653817000,19.666817138671874,0.035582900047302246,-0.02733621932566166,-0.4917465150356293
1702061941670816000,19.68381591796875,-0.18524488806724548,-0.19746218621730804,-0.43050727248191833
1702061941687796500,19.70079638671875,-0.4703662395477295,-0.6073527932167053,-0.5117523670196533
1702061941704801000,19.717801025390624,-0.7396050691604614,-0.9347765445709229,-0.7560984492301941
1702061941721794300,19.734794189453126,-0.6739370822906494,-0.7400632500648499,-0.8674286603927612
1702061941738788900,19.751788818359376,-0.34804046154022217,-0.3295617997646332,-0.6939429044723511
1702061941755782100,19.7687822265625,-0.06062837690114975,-0.11301007121801376,-0.24174992740154266
1702061941772776400,19.7857763671875,0.04841107130050659,-0.034666601568460464,0.14004085958003998
1702061941789770500,19.8027705078125,0.05543602257966995,-0.14263702929019928,0.1621847152709961
1702061941806763300,19.81976318359375,-0.0024434609804302454,-0.26771169900894165,-0.04398229718208313
1702061941823757000,19.836757080078126,-0.08445212244987488,-0.3214678466320038,-0.17821992933750153
1702061941840751600,19.853751708984376,0.04153883829712868,-0.21639901399612427,-0.08964447677135468
1702061941857745000,19.870744873046874,0.22739458084106445,0.0007635815418325365,0.15806138515472412
1702061941874739000,19.887739013671876,0.33536502718925476,0.05253441259264946,0.3101668357849121
1702061941891732500,19.904732421875,0.3501785099506378,-0.0959058403968811,0.28099802136421204
1702061941908726500,19.9217265625,0.23029619455337524,-0.12293662875890732,0.24785856902599335
1702061941925719800,19.9387197265625,0.13973543047904968,-0.019547687843441963,0.2961169183254242
1702061941942714000,19.955714111328124,0.15424346923828125,0.030237829312682152,0.3520110845565796
1702061941959707100,19.97270703125,0.23884831368923187,0.08139779418706894,0.4521929919719696
1702061941976689400,19.989689453125,0.28435778617858887,0.20815233886241913,0.6165157556533813
1702061941993692400,20.0066923828125,0.28985556960105896,0.327271044254303,0.764345109462738
1702061942010691800,20.02369189453125,0.39706242084503174,0.375071257352829,0.8153523802757263
1702061942027682600,20.0406826171875,0.6000223755836487,0.23411411046981812,0.7816020846366882
1702061942044676900,20.0576767578125,0.6951646208763123,0.19715675711631775,0.735634446144104
1702061942061670100,20.074670166015625,0.6110179424285889,0.2719877362251282,0.5893322229385376
1702061942078664200,20.091664306640624,0.3851505517959595,0.2808452844619751,0.4934264123439789
1702061942095657700,20.10865771484375,0.3602577745914459,0.26542094349861145,0.508698046207428
1702061942112657000,20.125656982421877,0.5751296281814575,0.15913039445877075,0.5167919993400574
1702061942129645300,20.142645263671874,0.717308521270752,0.1820378452539444,0.5615378618240356
1702061942146639400,20.159639404296875,0.5838344693183899,0.36071592569351196,0.6609562039375305
1702061942163632600,20.176632568359373,0.40164390206336975,0.543059229850769,0.7718282341957092
1702061942180627200,20.193627197265624,0.33887749910354614,0.456163614988327,0.6360634565353394
1702061942197609700,20.210609619140627,0.4251621961593628,0.02275473065674305,0.28985556960105896
1702061942214614300,20.2276142578125,0.536797821521759,-0.29504790902137756,-0.03420845419168472
1702061942231607600,20.244607666015625,0.4908302128314972,-0.09896016865968704,0.08231408894062042
1702061942248602400,20.261602294921875,0.4619668424129486,0.1586722433567047,0.45326200127601624
1702061942265595100,20.27859521484375,0.5111414790153503,0.2877175211906433,0.7110471725463867
1702061942282589700,20.295589599609375,0.5865833759307861,0.20891591906547546,0.6281222105026245
1702061942299583000,20.3125830078125,0.5280929803848267,0.044745877385139465,0.33246341347694397
1702061942316577300,20.329577392578123,0.3055853247642517,0.0981965884566307,0.06123924255371094
1702061942333570300,20.3465703125,0.1736384481191635,0.37950003147125244,-0.09743300825357437
1702061942350564900,20.36356494140625,0.2249511331319809,0.4622722864151001,-0.03222314268350601
1702061942367558000,20.380557861328125,0.3407101035118103,0.24098633229732513,0.18784105777740479
1702061942384552200,20.39755224609375,0.3378084897994995,-0.1316414624452591,0.32528573274612427
1702061942401547800,20.4145478515625,0.025656340643763542,-0.06322455406188965,0.26908615231513977
1702061942418537700,20.431537841796874,-0.25305092334747314,0.2590068578720093,0.23594669997692108
1702061942435523300,20.4485234375,-0.3017674386501312,0.27779096364974976,0.2756529450416565
1702061942452527600,20.465527587890627,-0.1875356286764145,0.060475658625364304,0.4596760869026184
1702061942469509000,20.482509033203126,-0.0003054326225537807,-0.06719517707824707,0.6287330389022827
1702061942486515000,20.499514892578127,0.09773843735456467,0.10216721147298813,0.43539419770240784
1702061942503499300,20.516499267578126,-0.029168816283345222,0.5662720799446106,0.18157969415187836
1702061942520502500,20.53350244140625,-0.12751811742782593,0.4712825417518616,0.24633140861988068
1702061942537495800,20.550495849609376,-0.11255192011594772,0.11881329119205475,0.5916230082511902
1702061942554490000,20.567489990234375,-0.03695734590291977,0.03741549700498581,0.8101600408554077
1702061942571481000,20.584481201171876,-0.016493361443281174,0.24434609711170197,0.6496551632881165
1702061942588480000,20.60147998046875,-0.18448130786418915,0.5774203538894653,0.35414913296699524
1702061942605460500,20.61846044921875,-0.4011857509613037,0.5395467281341553,0.03985895588994026
1702061942622465000,20.635465087890626,-0.536797821521759,0.11423180252313614,-0.15729780495166779
1702061942639458600,20.65245849609375,-0.589790403842926,-0.3127630054950714,-0.23319780826568604
1702061942656452900,20.669452880859374,-0.6635523438453674,-0.39324450492858887,-0.4294382631778717
1702061942673446000,20.68644580078125,-0.6180428862571716,-0.12232576310634613,-0.6362161636352539
1702061942690440200,20.703440185546874,-0.34697145223617554,0.30741792917251587,-0.5351179838180542
1702061942707433700,20.720433837890624,0.007024950347840786,0.3404046595096588,-0.3211624026298523
1702061942724427800,20.737427734375,0.011301007121801376,0.06200282275676727,-0.21823160350322723
1702061942741421000,20.754421142578124,-0.3219259977340698,-0.06536258012056351,-0.1359175145626068
1702061942758415400,20.771415283203126,-0.4928155243396759,-0.0012217304902151227,-0.09392052888870239
1702061942775409000,20.788408935546876,-0.21013765037059784,0.08078692853450775,-0.0685696229338646
1702061942792402700,20.805402587890626,0.18096883594989777,-0.16203200817108154,-0.13958270847797394
1702061942809396000,20.82239599609375,0.01618792861700058,-0.3075706362724304,-0.25793784856796265
1702061942826393000,20.83939306640625,-0.5158756971359253,-0.00427605677396059,-0.33429601788520813
1702061942843381200,20.85638134765625,-0.835358202457428,0.26572638750076294,-0.28359419107437134
1702061942860367400,20.873367431640624,-0.6467535495758057,0.08888089656829834,-0.31673362851142883
