time,seconds_elapsed,z,y,x
1702057848283572500,0.067572509765625,0.11652254313230515,-0.11682797968387604,-0.5175555944442749
1702057848300319500,0.084319580078125,0.15851953625679016,0.24327708780765533,-0.2961169183254242
1702057848317164500,0.10116455078125,0.21365012228488922,0.5792529582977295,0.06536258012056351
1702057848334157000,0.118156982421875,0.16371189057826996,0.6827946305274963,0.3663664162158966
1702057848351147000,0.13514697265625,-0.03222314268350601,0.6392704844474792,0.4917465150356293
1702057848368142800,0.152142822265625,-0.26145032048225403,0.4634940028190613,0.41722095012664795
1702057848385138200,0.16913818359375,-0.36590829491615295,0.3084869384765625,0.17088955640792847
1702057848402126600,0.186126708984375,-0.38637226819992065,0.1111774742603302,-0.06062837690114975
1702057848419126000,0.2031259765625,-0.5158756971359253,0.13118331134319305,-0.10903944820165634
1702057848436117500,0.220117431640625,-0.7422012686729431,0.656680166721344,0.1667662113904953
1702057848453112800,0.23711279296875,-0.9017898440361023,1.2290608882904053,0.613461434841156
1702057848470095600,0.254095703125,-1.0123564004898071,1.3179417848587036,0.6487388610839844
1702057848487095800,0.271095703125,-1.069472312927246,1.2160799503326416,0.299476683139801
1702057848504080600,0.28808056640625,-1.1267409324645996,0.7153232097625732,-0.051312681287527084
1702057848521083400,0.30508349609375,-1.2023354768753052,0.14813482761383057,-0.23900102078914642
1702057848538079700,0.322079833984375,-1.2722796201705933,0.12461651116609573,-0.28099802136421204
1702057848555075000,0.339074951171875,-1.2527319192886353,0.3194825351238251,-0.2977968156337738
1702057848572064500,0.356064453125,-1.2622003555297852,0.447000652551651,-0.4505131244659424
1702057848589061400,0.373061279296875,-1.3687963485717773,0.4392121136188507,-0.7692320346832275
1702057848606059000,0.39005908203125,-1.4422528743743896,0.394008070230484,-1.0739010572433472
1702057848623048000,0.4070478515625,-1.3915510177612305,0.24266621470451355,-1.4078916311264038
1702057848640040700,0.424040771484375,-1.2918273210525513,-0.03527746722102165,-1.7162258625030518
1702057848657019100,0.44101904296875,-1.0210613012313843,0.021838432177901268,-1.7629570960998535
1702057848674028000,0.458028076171875,-0.6769914031028748,0.31031954288482666,-1.563051462173462
1702057848691022600,0.475022705078125,-0.27870726585388184,0.5306891798973083,-1.2342532873153687
1702057848708016400,0.492016357421875,0.014966198243200779,0.6762278079986572,-1.034500241279602
1702057848725011700,0.50901171875,0.19104810059070587,0.5907067060470581,-0.9240863919258118
1702057848741998800,0.525998779296875,0.3271183371543884,0.42898011207580566,-0.799011766910553
1702057848759000300,0.543000244140625,0.4772384762763977,0.18387043476104736,-0.5546656250953674
1702057848775991300,0.5599912109375,0.5804746747016907,-0.09773843735456467,-0.1359175145626068
1702057848792986400,0.576986328125,0.5619960427284241,-0.3778201639652252,0.30573806166648865
1702057848809976000,0.59397607421875,0.45875978469848633,-0.6126978397369385,0.6243042945861816
1702057848826972000,0.610971923828125,0.36590829491615295,-0.7573201656341553,0.7686212062835693
1702057848843968500,0.627968505859375,0.3376557528972626,-0.8872817754745483,0.8562803864479065
1702057848860959500,0.64495947265625,0.30054569244384766,-0.930347740650177,0.901637077331543
1702057848877953000,0.661953125,0.2977968156337738,-0.9584475755691528,0.9314168095588684
1702057848894948400,0.6789482421875,0.2996293902397156,-1.0370965003967285,0.9216429591178894
1702057848911937800,0.695937744140625,0.28267788887023926,-1.0751228332519531,0.9178250432014465
1702057848928935200,0.71293505859375,0.15317445993423462,-1.142012596130371,0.9060658812522888
1702057848945927700,0.729927734375,-0.03130684420466423,-1.1804970502853394,0.9454666972160339
1702057848962923000,0.746923095703125,-0.1212567538022995,-0.99250328540802,1.0122036933898926
1702057848979912700,0.76391259765625,-0.15913039445877075,-0.536797821521759,1.0462594032287598
1702057848996908800,0.78090869140625,-0.1774563491344452,-0.12476922571659088,1.0848966836929321
1702057849013904100,0.797904052734375,-0.22479841113090515,-0.018478672951459885,1.1169670820236206
1702057849030894800,0.814894775390625,-0.22586742043495178,-0.15241087973117828,1.0648908615112305
1702057849047890400,0.831890380859375,-0.09605856239795685,-0.2678644061088562,0.9118691086769104
1702057849064896000,0.84889599609375,0.12324206531047821,-0.3819434940814972,0.6688974499702454
1702057849081867800,0.86586767578125,0.3623957931995392,-0.47311514616012573,0.4867068827152252
1702057849098865200,0.882865234375,0.432645320892334,-0.40103304386138916,0.4749477207660675
1702057849115865000,0.899864990234375,0.27977627515792847,-0.1598939746618271,0.5378668308258057
1702057849132849200,0.91684912109375,0.15317445993423462,0.11652254313230515,0.6145304441452026
1702057849149854000,0.93385400390625,0.1440114825963974,0.370947927236557,0.5337435007095337
1702057849166849800,0.950849853515625,0.206777885556221,0.16508632898330688,0.31520646810531616
1702057849183841500,0.967841552734375,0.2938261926174164,-0.3825543522834778,0.313373863697052
1702057849200830700,0.984830810546875,0.2623666226863861,-0.6372851729393005,0.5635231733322144
1702057849217826600,1.00182666015625,0.21960605680942535,-0.6721044778823853,0.8671231865882874
1702057849234822000,1.01882177734375,0.2376265823841095,-0.5210680365562439,0.8350527882575989
1702057849251811600,1.0358115234375,0.32757648825645447,0.027030786499381065,0.33948835730552673
1702057849268808700,1.05280859375,0.4554000496864319,0.6151412725448608,-0.25244006514549255
1702057849285801200,1.06980126953125,0.38927388191223145,0.4607451260089874,-0.7214318513870239
1702057849302796500,1.086796630859375,0.3032945990562439,0.03878994286060333,-0.7736608386039734
1702057849319787300,1.103787353515625,0.2643519341945648,-0.4063780903816223,-0.4466952085494995
1702057849336782300,1.1207822265625,0.3318525552749634,-0.6046038866043091,-0.11026117950677872
1702057849353777700,1.137777587890625,0.25961771607398987,-0.45142942667007446,0.20326541364192963
1702057849370767400,1.154767333984375,0.0835358202457428,-0.18616119027137756,0.35934147238731384
1702057849387763500,1.171763427734375,0.03741549700498581,0.0024434609804302454,0.24908030033111572
1702057849404758800,1.1887587890625,0.048258353024721146,-0.08720101416110992,0.10445795953273773
1702057849421744400,1.205744384765625,0.2151772826910019,-0.242513507604599,-0.059406645596027374
1702057849438745000,1.2227451171875,0.3594942092895508,-0.33108896017074585,-0.1085812970995903
1702057849455738000,1.239738037109375,0.3065016269683838,-0.31261029839515686,-0.007024950347840786
1702057849472733700,1.256733642578125,0.16982053220272064,-0.058337632566690445,0.16142113506793976
1702057849489723400,1.273723388671875,0.1137736514210701,0.17730364203453064,0.3039054572582245
1702057849506719500,1.290719482421875,0.20952677726745605,0.11774427443742752,0.294895201921463
1702057849523711700,1.307711669921875,0.3539963960647583,-0.10766500234603882,0.18066339194774628
1702057849540702000,1.324701904296875,0.3969096839427948,-0.3055853247642517,0.11041389405727386
1702057849557702100,1.3417021484375,0.3448334336280823,-0.4043927788734436,0.11545353382825851
1702057849574695200,1.358695068359375,0.27977627515792847,-0.3790418803691864,0.16768251359462738
1702057849591685000,1.37568505859375,0.2603813111782074,-0.35735616087913513,0.22876903414726257
1702057849608682000,1.392681884765625,0.23609942197799683,-0.23518311977386475,0.22846360504627228
1702057849625674800,1.4096748046875,0.2900082767009735,-0.11423180252313614,0.13026700913906097
1702057849642670000,1.426670166015625,0.4046982228755951,-0.0354301854968071,-0.04459316283464432
1702057849659659800,1.44365966796875,0.4720461070537567,0.08185594528913498,-0.25732699036598206
1702057849676655900,1.46065576171875,0.513126790523529,0.12721268832683563,-0.37827831506729126
1702057849693651200,1.477651123046875,0.5630650520324707,0.17852537333965302,-0.4714352488517761
1702057849710633500,1.494633544921875,0.6420193910598755,0.24724771082401276,-0.49724429845809937
1702057849727637800,1.5116376953125,0.6852380633354187,0.3448334336280823,-0.42531493306159973
1702057849744634600,1.528634521484375,0.7915286421775818,0.41828998923301697,-0.24694228172302246
1702057849761616400,1.545616455078125,0.8979719281196594,0.5267185568809509,-0.10583240538835526
1702057849778620200,1.5626201171875,0.8518515825271606,0.6725626587867737,-0.15546520054340363
1702057849795624000,1.5796240234375,0.888350784778595,0.5187773108482361,-0.39217549562454224
1702057849812633300,1.59663330078125,0.8483390808105469,0.44654250144958496,-0.5820018649101257
1702057849829606700,1.613606689453125,0.8378016948699951,0.00733038317412138,-0.3530801236629486
1702057849846581000,1.6305810546875,0.5447390675544739,0.03039054572582245,-0.1007927656173706
1702057849863589600,1.647589599609375,0.2900082767009735,0.9193521738052368,-0.15851953625679016
1702057849880579300,1.664579345703125,0.327271044254303,1.2791517972946167,-0.4888449013233185
1702057849897571300,1.6815712890625,0.5259549617767334,0.7672467231750488,-0.9825767278671265
1702057849914565400,1.6985654296875,0.483957976102829,-0.30115658044815063,-1.1888965368270874
1702057849931560200,1.715560302734375,-0.02474004216492176,-0.4547891616821289,-1.0766500234603882
1702057849948553200,1.73255322265625,0.0022907445672899485,0.8584184050559998,-1.1290316581726074
1702057849965532700,1.74953271484375,0.44287729263305664,1.441794753074646,-0.9902125597000122
1702057849982531600,1.766531494140625,0.43875396251678467,0.5942191481590271,-0.6458373069763184
1702057849999538200,1.7835380859375,-0.22067506611347198,-0.4179845452308655,-0.3211624026298523
1702057850016530200,1.8005302734375,-1.002277135848999,-0.20815233886241913,-0.24174992740154266
1702057850033524700,1.817524658203125,-0.5919284224510193,0.6236934065818787,-0.7287622094154358
1702057850050514200,1.83451416015625,0.2344195395708084,0.792750358581543,-0.9370672702789307
1702057850067510500,1.851510498046875,0.7423539757728577,0.12446379661560059,-0.8839219808578491
1702057850084505600,1.868505615234375,0.4567744731903076,-0.7458664774894714,-0.4893030524253845
1702057850101492700,1.88549267578125,-0.4876231849193573,-0.792750358581543,0.1595885455608368
1702057850118494700,1.90249462890625,-1.4036155939102173,-0.10537425428628922,0.7254024744033813
1702057850135485200,1.919485107421875,-1.462716817855835,0.8077165484428406,0.71318519115448
1702057850152476700,1.9364765625,-0.669966459274292,0.8210029006004333,0.31352660059928894
1702057850169462800,1.953462890625,-0.014966198243200779,0.11575896292924881,-0.3016147017478943
1702057850186466600,1.970466552734375,0.16493362188339233,-0.43646320700645447,-0.5152648091316223
1702057850203461400,1.98746142578125,-0.10231992602348328,-0.4086688458919525,-0.21212296187877655
1702057850220450800,2.004450927734375,-0.5306891798973083,0.1088867336511612,0.1563815027475357
1702057850237447200,2.021447265625,-0.508087158203125,0.554818332195282,0.13561208546161652
1702057850254444000,2.038444091796875,-0.1408044397830963,0.5439754724502563,-0.07131851464509964
1702057850271429000,2.05542919921875,0.0682641938328743,0.4625777006149292,-0.22357667982578278
1702057850288431900,2.072431884765625,0.0019853119738399982,0.2431243658065796,-0.2324342280626297
1702057850305408500,2.089408447265625,-0.16569720208644867,0.19074267148971558,-0.1388191282749176
1702057850322413800,2.106413818359375,-0.17501288652420044,0.18295414745807648,-0.009468411095440388
1702057850339410200,2.12341015625,-0.08078692853450775,0.3205515444278717,0.03955352306365967
1702057850356402700,2.140402587890625,0.07895433157682419,0.47342056035995483,0.011759156361222267
1702057850373388500,2.157388427734375,0.16371189057826996,0.5331326723098755,-0.05543602257966995
1702057850390388000,2.174387939453125,0.1944078654050827,0.34116822481155396,-0.09040805697441101
1702057850407385900,2.1913857421875,0.17012597620487213,0.09178250283002853,-0.06505715101957321
1702057850424377600,2.208377685546875,0.2028072625398636,0.018478672951459885,0.02321287989616394
1702057850441361700,2.225361572265625,0.28619036078453064,0.11927144229412079,0.07773260027170181
1702057850458370300,2.242370361328125,0.2909245789051056,0.2877175211906433,0.028099801391363144
1702057850475352300,2.259352294921875,0.17027868330478668,0.252287358045578,0.13607023656368256
1702057850492352300,2.276352294921875,0.056810468435287476,0.003817907767370343,0.3309362530708313
1702057850509347000,2.29334716796875,0.03741549700498581,-0.33597588539123535,0.37430769205093384
1702057850526339600,2.310339599609375,0.17730364203453064,-0.5499314665794373,0.31612277030944824
1702057850543336400,2.32733642578125,0.4164573848247528,-0.5407684445381165,0.2912299931049347
1702057850560320800,2.34432080078125,0.4288274049758911,-0.4781547784805298,0.31780263781547546
1702057850577323300,2.3613232421875,0.2480112910270691,-0.4132503271102905,0.45723262429237366
1702057850594315300,2.378315185546875,0.03833179548382759,-0.39354994893074036,0.451582133769989
1702057850611305700,2.3953056640625,0.04795292019844055,-0.35705074667930603,0.24159720540046692
1702057850628302800,2.412302734375,0.39354994893074036,-0.42699480056762695,0.058337632566690445
1702057850645293800,2.4292939453125,0.5816964507102966,-0.5326744914054871,-0.07696902006864548
1702057850662290000,2.4462900390625,0.5174028873443604,-0.7111998796463013,0.0607810914516449
1702057850679283200,2.463283203125,0.20082195103168488,-0.6482807397842407,0.1560760736465454
1702057850696276200,2.480276123046875,0.02932153269648552,-0.22770002484321594,0.06902777403593063
1702057850713260800,2.4972607421875,0.2974913716316223,0.299018532037735,-0.08933904021978378
1702057850730265900,2.514265869140625,0.7754934430122375,0.35292738676071167,-0.41752639412879944
1702057850747257600,2.531257568359375,1.0257954597473145,-0.3280346393585205,-0.48655417561531067
1702057850764260600,2.548260498046875,0.7713701128959656,-0.9926560521125793,-0.2154827117919922
1702057850781242400,2.565242431640625,0.22082778811454773,-1.1432342529296875,0.2483167201280594
1702057850798238500,2.582238525390625,0.04260785132646561,-0.6860016584396362,0.5488623976707458
1702057850815233800,2.59923388671875,0.16691893339157104,-0.42439863085746765,0.6748533844947815
1702057850832223200,2.61622314453125,0.43157628178596497,-0.3871358633041382,0.34804046154022217
1702057850849220400,2.633220458984375,0.5412266254425049,-0.5688682794570923,-0.13927727937698364
1702057850866213400,2.65021337890625,0.3471241891384125,-0.6284276247024536,-0.37720927596092224
1702057850883208400,2.66720849609375,-0.057879481464624405,-0.41752639412879944,-0.2915354371070862
1702057850900195600,2.684195556640625,-0.24617868661880493,-0.1290452778339386,-0.023365596309304237
1702057850917196500,2.701196533203125,-0.18356500566005707,-0.031001411378383636,0.27091872692108154
1702057850934189600,2.718189453125,-0.030237829312682152,-0.11743884533643723,0.42867469787597656
1702057850951179300,2.73517919921875,0.03436116874217987,-0.3306308090686798,0.4141666293144226
1702057850968175400,2.75217529296875,-0.051770828664302826,-0.4535674452781677,0.3695734739303589
1702057850985170400,2.76917041015625,-0.1414152979850769,-0.2799290120601654,0.39248090982437134
1702057851002160400,2.786160400390625,-0.08200865983963013,0.03726277872920036,0.4486805200576782
1702057851019157200,2.8031572265625,0.07116580009460449,0.1336267739534378,0.4337143301963806
1702057851036150000,2.82014990234375,0.21700987219810486,0.09117163717746735,0.21792617440223694
1702057851053145300,2.837145263671875,0.30024027824401855,-0.06017022579908371,-0.05268712714314461
1702057851070135000,2.854135009765625,0.327271044254303,-0.14752395451068878,-0.2538145184516907
1702057851087113500,2.871113525390625,0.3698789179325104,-0.10674870014190674,-0.3352122902870178
1702057851104116000,2.888115966796875,0.39935314655303955,0.07147123664617538,-0.40164390206336975
1702057851121116000,2.905115966796875,0.4584543704986572,0.3072652220726013,-0.5371032953262329
1702057851138112000,2.922112060546875,0.5354233980178833,0.37339138984680176,-0.6632469296455383
1702057851155097000,2.93909716796875,0.5398521423339844,0.47021353244781494,-0.7487680912017822
1702057851172097000,2.956096923828125,0.5059491395950317,0.6145304441452026,-0.7812966704368591
1702057851189094000,2.973093994140625,0.48609602451324463,0.6302602291107178,-0.732122004032135
1702057851206087000,2.9900869140625,0.4262312352657318,0.6143777370452881,-0.6994407176971436
1702057851223082200,3.007082275390625,0.27870726585388184,0.622624397277832,-0.6461427211761475
1702057851240072000,3.024072021484375,0.1495092660188675,0.5141957998275757,-0.5224425196647644
1702057851257068000,3.041068115234375,0.04199698567390442,0.4743368625640869,-0.49357911944389343
1702057851274063400,3.0580634765625,-0.12782354652881622,0.5926920175552368,-0.3793473243713379
1702057851291052800,3.075052734375,-0.14309518039226532,0.7858781218528748,-0.11789698898792267
1702057851308049200,3.092049072265625,-0.13301590085029602,0.7374670505523682,0.07269296050071716
1702057851325044200,3.109044189453125,-0.11667526513338089,0.3300199508666992,0.03878994286060333
1702057851342037200,3.126037353515625,-0.34987306594848633,0.22815817594528198,0.009162978269159794
1702057851359030800,3.14303076171875,-0.5682573914527893,0.9657779335975647,-0.010231993161141872
1702057851376024800,3.16002490234375,-0.3911064863204956,1.866346001625061,-0.20066922903060913
1702057851393014000,3.177013916015625,0.1918116807937622,1.711033582687378,-0.41141775250434875
1702057851410011600,3.19401171875,0.21609358489513397,0.5671883821487427,-0.06001751124858856
1702057851426995200,3.2109951171875,-0.5044219493865967,0.4732678532600403,0.36560285091400146
1702057851443988500,3.227988525390625,-0.30085113644599915,0.4092797040939331,-0.3543018400669098
1702057851460981200,3.244981201171875,0.1371392458677292,-0.22143864631652832,-0.8391761183738708
1702057851477976000,3.26197607421875,0.010690141469240189,-0.3153591752052307,-0.26908615231513977
1702057851494972400,3.278972412109375,-0.7878634333610535,0.3376557528972626,0.8831584453582764
1702057851511964000,3.2959638671875,-1.5853480100631714,1.1681270599365234,1.3669637441635132
1702057851528951800,3.312951904296875,-1.1215485334396362,1.0711522102355957,0.5042692422866821
1702057851545950500,3.329950439453125,-0.36972618103027344,0.40164390206336975,-0.5021312236785889
1702057851562957600,3.34695751953125,-0.057879481464624405,-0.22082778811454773,-1.0421360731124878
1702057851579948800,3.36394873046875,-0.46410486102104187,-0.27061331272125244,-0.6255260109901428
1702057851596942300,3.3809423828125,-1.080467939376831,0.4688390791416168,0.12980885803699493
1702057851613936000,3.39793603515625,-0.887739896774292,1.1481212377548218,0.16203200817108154
1702057851630928100,3.41492822265625,-0.32757648825645447,0.9482156038284302,-0.06352998316287994
1702057851647925500,3.431925537109375,-0.08643743395805359,0.35445454716682434,-0.18280142545700073
1702057851664917200,3.448917236328125,-0.17638733983039856,-0.013897184282541275,-0.09957103431224823
1702057851681908200,3.465908203125,-0.5642867684364319,-0.15027284622192383,0.11484266817569733
1702057851698907600,3.48290771484375,-0.9947940707206726,0.09422596544027328,0.2393064647912979
1702057851715898400,3.4998984375,-1.1433870792388916,0.5904012322425842,0.26343563199043274
1702057851732892000,3.516891845703125,-0.9369145631790161,0.9187413454055786,0.31520646810531616
1702057851749895400,3.5338955078125,-0.5871942043304443,0.8208501935005188,0.16508632898330688
1702057851766879200,3.550879150390625,-0.35262197256088257,0.3078760802745819,-0.17287486791610718
1702057851783873000,3.567873046875,-0.37461310625076294,-0.07391469180583954,-0.2716823220252991
1702057851800866600,3.584866455078125,-0.5288565754890442,-0.001832595793530345,-0.05742133408784866
1702057851817860600,3.601860595703125,-0.6528622508049011,0.26572638750076294,0.19822576642036438
1702057851834843400,3.618843505859375,-0.5520694851875305,0.35582900047302246,0.20433442294597626
1702057851851847700,3.63584765625,-0.32589662075042725,0.29245173931121826,0.008857546374201775
1702057851868841000,3.652841064453125,-0.17562375962734222,0.2047925740480423,-0.10048733651638031
1702057851885835500,3.66983544921875,-0.2739730477333069,0.12996158003807068,-0.020922135561704636
1702057851902828800,3.686828857421875,-0.42439863085746765,0.15653422474861145,0.25732699036598206
1702057851919822300,3.703822265625,-0.3962988257408142,0.20326541364192963,0.38240164518356323
1702057851936814300,3.720814453125,-0.2099849283695221,0.17302757501602173,0.2102903574705124
1702057851953809400,3.737809326171875,0.00733038317412138,0.2220495194196701,0.019394971430301666
1702057851970795300,3.754795166015625,0.08445212244987488,0.26862800121307373,0.02168571576476097
1702057851987797200,3.77179736328125,0.039095375686883926,0.20357084274291992,0.14156801998615265
1702057852004791000,3.788791015625,-0.01878410577774048,-0.029168816283345222,0.3075706362724304
1702057852021784600,3.80578466796875,-0.0328340083360672,-0.30085113644599915,0.4960225820541382
1702057852038778400,3.8227783203125,-0.04566217586398125,-0.26404649019241333,0.5670356750488281
1702057852055772000,3.83977197265625,-0.10751228034496307,-0.10949759185314178,0.39538252353668213
1702057852072765700,3.856765625,-0.22617286443710327,0.21135938167572021,0.1062905490398407
1702057852089759200,3.87375927734375,-0.1281289905309677,0.024892758578062057,0.13530665636062622
1702057852106753000,3.8907529296875,0.08628471940755844,-0.46410486102104187,0.28619036078453064
1702057852123746800,3.907746826171875,0.24327708780765533,-0.8437576293945312,0.5357288122177124
1702057852140740400,3.924740234375,0.1287398487329483,-0.8142833709716797,0.693637490272522
1702057852157732600,3.941732666015625,-0.2099849283695221,-0.4558582007884979,0.7745771408081055
1702057852174729200,3.958729248046875,-0.4564690589904785,-0.07773260027170181,0.5351179838180542
1702057852191721500,3.975721435546875,-0.5057964324951172,-0.18295414745807648,0.024892758578062057
1702057852208715300,3.99271533203125,-0.3891211748123169,-0.5635231733322144,-0.4193589985370636
1702057852225708800,4.009708740234375,-0.13836097717285156,-0.6359107494354248,-0.5251913666725159
1702057852242702600,4.02670263671875,0.18570303916931152,-0.6762278079986572,-0.24663683772087097
1702057852259699700,4.04369970703125,0.289244681596756,-0.579405665397644,0.07941248267889023
1702057852276686300,4.060686279296875,0.11453723162412643,-0.3413209617137909,0.23747386038303375
1702057852293683500,4.077683349609375,-0.04764748737215996,-0.09269879758358002,0.24678955972194672
1702057852310677200,4.09467724609375,0.06062837690114975,0.06841690838336945,0.12721268832683563
1702057852327670500,4.11167041015625,0.4605923891067505,-0.41401392221450806,-0.029932396486401558
1702057852344664800,4.128664794921875,0.5560401082038879,-0.8487972617149353,-0.04444044828414917
1702057852361658000,4.145658203125,0.39797869324684143,-0.8237518072128296,0.19364428520202637
1702057852378652000,4.16265185546875,0.05375614017248154,-0.35934147238731384,0.4541783034801483
1702057852395645700,4.179645751953125,-0.16111570596694946,0.036193765699863434,0.5720753073692322
1702057852412625200,4.196625244140625,-0.04214970022439957,0.12339477986097336,0.39064833521842957
1702057852429630000,4.2136298828125,0.31230485439300537,-0.2519819140434265,0.15836681425571442
1702057852446630000,4.2306298828125,0.43768495321273804,-0.4622722864151001,0.07620543986558914
1702057852463620400,4.247620361328125,0.1768454909324646,-0.4723515510559082,0.19608774781227112
1702057852480614100,4.2646142578125,-0.20387627184391022,-0.3553708493709564,0.5218316316604614
1702057852497607700,4.281607666015625,-0.3223841190338135,-0.07131851464509964,0.8069530129432678
1702057852514601500,4.2986015625,-0.1918116807937622,-0.1342376321554184,0.967915952205658
1702057852531595000,4.315594970703125,-0.11453723162412643,-0.294437050819397,0.9167560338973999
1702057852548588800,4.3325888671875,-0.18936823308467865,-0.3016147017478943,0.7664831876754761
1702057852565581600,4.34958154296875,-0.3019201457500458,-0.0861319974064827,0.5710062980651855
1702057852582577000,4.366576904296875,-0.3188716471195221,0.11316278576850891,0.39584067463874817
1702057852599570000,4.38356982421875,-0.16783522069454193,0.1598939746618271,0.16493362188339233
1702057852616564500,4.400564453125,0.03329215571284294,0.08399397134780884,-0.0659734457731247
1702057852633556500,4.417556396484375,0.1696678251028061,0.002138028386980295,-0.2719877362251282
1702057852650537200,4.434537109375,0.16554448008537292,0.002138028386980295,-0.3978259861469269
1702057852667547100,4.451547119140625,0.11575896292924881,0.1699732542037964,-0.44745880365371704
1702057852684538400,4.468538330078125,0.15714508295059204,0.3271183371543884,-0.4596760869026184
1702057852701529300,4.485529296875,0.23151792585849762,0.34513887763023376,-0.4456261992454529
1702057852718528300,4.5025283203125,0.27519479393959045,0.18646661937236786,-0.4300491213798523
1702057852735519500,4.51951953125,0.17516560852527618,0.08643743395805359,-0.460897833108902
1702057852752513000,4.536512939453125,0.12324206531047821,0.058337632566690445,-0.35582900047302246
1702057852769504800,4.5535048828125,0.22892175614833832,0.18509216606616974,-0.2148718535900116
1702057852786502400,4.57050244140625,0.36972618103027344,0.1160643994808197,-0.10781771689653397
1702057852803494100,4.587494140625,0.30543261766433716,0.10262536257505417,-0.1560760736465454
1702057852820487700,4.60448779296875,0.10125091671943665,0.3790418803691864,-0.24190263450145721
1702057852837484800,4.62148486328125,0.3781255781650543,0.7399105429649353,-0.28130343556404114
1702057852854472000,4.638471923828125,0.7756461501121521,0.9753990769386292,-0.5487096905708313
1702057852871468800,4.65546875,0.8384125232696533,0.4254676401615143,-0.7780895829200745
1702057852888462600,4.672462646484375,0.41981714963912964,-0.01924225501716137,-0.9879218339920044
1702057852905449000,4.689448974609375,-0.15027284622192383,0.3459024429321289,-0.9039278626441956
1702057852922450000,4.706449951171875,-0.25702154636383057,0.6171266436576843,-0.24434609711170197
1702057852939443700,4.723443603515625,0.15561792254447937,0.6029239892959595,0.2977968156337738
1702057852956437200,4.740437255859375,0.29397889971733093,0.14996741712093353,0.3173444867134094
1702057852973431000,4.75743115234375,0.10323622822761536,-0.3142901659011841,-0.02367102913558483
1702057852990424600,4.774424560546875,-0.3810271918773651,-0.10522153973579407,-0.4424191415309906
1702057853007418600,4.791418701171875,-0.5833762884140015,0.4021020531654358,-0.3280346393585205
1702057853024412000,4.808411865234375,-0.6534730792045593,0.5638286471366882,0.10567969083786011
1702057853041403100,4.825403076171875,-0.46929723024368286,0.4605923891067505,0.20402899384498596
1702057853058402600,4.842402587890625,-0.2967278063297272,0.3113885521888733,-0.26053401827812195
1702057853075392500,4.859392578125,-0.17348572611808777,0.20326541364192963,-0.646906316280365
1702057853092387300,4.87638720703125,-0.21013765037059784,-0.09987647086381912,-0.5574145317077637
1702057853109380600,4.893380615234375,-0.26740625500679016,-0.28298333287239075,-0.22372940182685852
1702057853126374000,4.910373779296875,-0.36621370911598206,0.00366519158706069,0.05772676691412926
1702057853143368000,4.927367919921875,-0.13255776464939117,0.6058256030082703,-0.03573561832308769
1702057853160361500,4.944361572265625,0.2837468981742859,0.7325801253318787,-0.2620611786842346
1702057853177355300,4.961355224609375,0.5285511612892151,0.19226983189582825,-0.4340197443962097
1702057853194349000,4.97834912109375,0.5464189648628235,-0.31444287300109863,-0.3927863538265228
1702057853211342600,4.995342529296875,0.2756529450416565,-0.41370847821235657,-0.06979135423898697
1702057853228336000,5.012336181640625,-0.25106561183929443,-0.0074830991216003895,0.2811507284641266
1702057853245317400,5.0293173828125,-0.43646320700645447,0.3674354553222656,0.24037547409534454
1702057853262314000,5.04631396484375,-0.13530665636062622,0.28649580478668213,0.07712173461914062
1702057853279319000,5.063319091796875,0.17058411240577698,-0.014966198243200779,-0.17821992933750153
1702057853296309200,5.080309326171875,0.22999076545238495,-0.19807305932044983,-0.27320948243141174
1702057853313304600,5.0973046875,-0.022143865004181862,-0.18799377977848053,-0.19944749772548676
1702057853330298600,5.114298583984375,-0.33918291330337524,-0.004428773187100887,-0.04001167416572571
1702057853347292000,5.1312919921875,-0.39354994893074036,0.14385876059532166,0.05711590126156807
1702057853364285700,5.14828564453125,-0.19868391752243042,0.08506298810243607,-0.04917465150356293
1702057853381279500,5.165279541015625,0.07101308554410934,0.09086620807647705,-0.2571742534637451
1702057853398273000,5.18227294921875,0.2513710558414459,0.1774563491344452,-0.33475416898727417
1702057853415266800,5.199266845703125,0.29856038093566895,0.018936822190880775,-0.3199406862258911
1702057853432259000,5.216259033203125,0.28237244486808777,-0.14996741712093353,-0.30024027824401855
1702057853449253000,5.233253173828125,0.28038713335990906,-0.21319197118282318,-0.22739458084106445
1702057853466250500,5.25025048828125,0.251676470041275,-0.10018189996480942,-0.12568552792072296
1702057853483237400,5.2672373046875,0.17989981174468994,0.09208793938159943,-0.029016099870204926
1702057853500232700,5.284232666015625,0.1186605766415596,0.23884831368923187,0.01664607785642147
1702057853517231400,5.3012314453125,0.1976149082183838,0.18967366218566895,0.01038470957428217
1702057853534222600,5.31822265625,0.38011088967323303,-0.06429356336593628,-0.08827003091573715
1702057853551216400,5.33521630859375,0.5163338780403137,-0.24633140861988068,-0.24877487123012543
1702057853568210000,5.3522099609375,0.536797821521759,-0.33047810196876526,-0.24908030033111572
1702057853585203700,5.36920361328125,0.24724771082401276,-0.26313021779060364,-0.07299839705228806
1702057853602197500,5.386197509765625,-0.08781187981367111,-0.0074830991216003895,0.2672535479068756
1702057853619191000,5.40319091796875,-0.15317445993423462,-0.02474004216492176,0.35934147238731384
1702057853636184600,5.4201845703125,0.3507893681526184,-0.455705463886261,0.19456058740615845
1702057853653178400,5.437178466796875,0.9004153609275818,-0.8126034736633301,-0.15485434234142303
1702057853670172200,5.454172119140625,1.0441213846206665,-0.915534257888794,-0.36361753940582275
1702057853687166000,5.471166015625,0.3404046595096588,-1.0370965003967285,-0.23716843128204346
1702057853704170800,5.488170654296875,-0.4827362596988678,-0.9566149711608887,0.1647808998823166
1702057853721153000,5.505153076171875,-0.49586987495422363,-0.8107708692550659,0.6168211698532104
1702057853738146800,5.522146728515625,0.03649919852614403,-0.8118399381637573,0.6527095437049866
1702057853755140600,5.539140625,0.5126686692237854,-0.8414669036865234,0.20586158335208893
1702057853772134100,5.556134033203125,0.6768386960029602,-0.4758640229701996,-0.5297728776931763
1702057853789128000,5.5731279296875,0.7640396952629089,-0.4893030524253845,-1.1244502067565918
1702057853806121700,5.590121826171875,0.7904596328735352,-0.9355401396751404,-1.3710870742797852
1702057853823117800,5.607117919921875,0.8458956480026245,-1.2741122245788574,-1.0862711668014526
1702057853840104200,5.624104248046875,0.7341073155403137,-1.231351613998413,-0.44089198112487793
1702057853857105700,5.641105712890625,0.5134322643280029,-0.9346238374710083,0.15164729952812195
1702057853874095900,5.658095947265625,0.30222558975219727,-0.5714644193649292,0.4424191415309906
1702057853891090200,5.675090087890625,0.17501288652420044,-0.4288274049758911,0.4612032473087311
1702057853908083700,5.692083740234375,0.14935655891895294,-0.6269004344940186,0.22968533635139465
1702057853925060000,5.70906005859375,0.21151208877563477,-0.9272934198379517,-0.025656340643763542
1702057853942071000,5.726071044921875,0.22082778811454773,-0.9718865752220154,-0.1823432743549347
1702057853959064800,5.74306494140625,0.18035796284675598,-0.837496280670166,-0.24007004499435425
1702057853976058400,5.760058349609375,0.07422012835741043,-0.637132465839386,-0.1823432743549347
1702057853993052200,5.77705224609375,0.055894169956445694,-0.36590829491615295,-0.14187344908714294
1702057854010045700,5.794045654296875,0.11682797968387604,-0.1996002197265625,-0.15256360173225403
1702057854027037000,5.811036865234375,0.2993239760398865,-0.24984388053417206,-0.23716843128204346
1702057854044035800,5.828035888671875,0.4132503271102905,-0.5520694851875305,-0.27290403842926025
1702057854061026800,5.84502685546875,0.3197879493236542,-0.6105598211288452,-0.17821992933750153
1702057854078020600,5.8620205078125,0.10445795953273773,-0.4579962193965912,0.05711590126156807
1702057854095011600,5.879011474609375,-0.0012217304902151227,-0.24908030033111572,0.2704605758190155
1702057854112010500,5.896010498046875,0.09025534242391586,-0.21105393767356873,0.40133845806121826
1702057854129001700,5.913001708984375,0.2571742534637451,-0.2713768780231476,0.42378777265548706
1702057854145985000,5.929985107421875,0.3110831379890442,-0.28557950258255005,0.3620903789997101
1702057854162984400,5.946984375,0.22632557153701782,-0.06979135423898697,0.17623461782932281
1702057854179985000,5.96398486328125,0.1817324161529541,0.164170041680336,-0.08017606288194656
1702057854196974300,5.980974365234375,0.2093740701675415,0.20601430535316467,-0.29077184200286865
1702057854213969200,5.99796923828125,0.2785545587539673,0.16172657907009125,-0.40454551577568054
1702057854230964700,6.01496484375,0.39797869324684143,0.22250767052173615,-0.40591996908187866
1702057854247957500,6.03195751953125,0.40133845806121826,0.33689218759536743,-0.22189679741859436
1702057854264951300,6.048951416015625,0.28680121898651123,0.4876231849193573,-0.09437867999076843
1702057854281941000,6.06594091796875,0.1495092660188675,0.4677700698375702,-0.06368270516395569
1702057854298938600,6.082938720703125,0.07849618047475815,0.39843684434890747,-0.04795292019844055
1702057854315932200,6.09993212890625,0.16340644657611847,0.39187005162239075,0.03420845419168472
1702057854332926000,6.116926025390625,0.10277807712554932,0.30833423137664795,0.2226603776216507
1702057854349919500,6.13391943359375,0.009773843921720982,0.5659666657447815,0.1547016203403473
1702057854366913500,6.15091357421875,0.02733621932566166,0.6675229668617249,-0.016035212203860283
1702057854383896600,6.167896484375,0.13439035415649414,0.711963415145874,-0.2246456891298294
1702057854400900600,6.184900634765625,0.3623957931995392,0.9144652485847473,-0.32681289315223694
1702057854417895400,6.2018955078125,0.48685958981513977,0.859029233455658,-0.17852537333965302
1702057854434887000,6.218886962890625,0.29565876722335815,0.49464812874794006,-0.3666718602180481
1702057854451865900,6.235865966796875,-0.251676470041275,0.24297164380550385,-0.7590000629425049
1702057854468875500,6.25287548828125,-0.7130324840545654,0.3631593883037567,-0.4424191415309906
1702057854485869000,6.269869140625,-0.7396050691604614,0.8197811841964722,0.35705074667930603
1702057854502862800,6.28686279296875,-0.49754974246025085,0.7657195925712585,0.783892810344696
1702057854519856400,6.3038564453125,-0.06185010448098183,0.03405573591589928,0.3459024429321289
1702057854536850200,6.32085009765625,0.03405573591589928,-0.3049744665622711,-0.3488040566444397
1702057854553843700,6.33784375,-0.38606682419776917,-0.1667662113904953,-0.4210388660430908
1702057854570827300,6.3548271484375,-0.9312640428543091,0.3959933817386627,-0.017562376335263252
1702057854587831600,6.37183154296875,-0.8856018781661987,0.8684976696968079,0.20387627184391022
1702057854604807700,6.3888076171875,-0.351400226354599,0.6585127115249634,0.2919935882091522
1702057854621818600,6.405818603515625,-0.017867809161543846,0.37140607833862305,0.2730567753314972
1702057854638812200,6.422812255859375,-0.096211276948452,0.3197879493236542,0.3072652220726013
1702057854655806000,6.439805908203125,-0.4245513379573822,0.4447098970413208,0.3625485301017761
1702057854672786700,6.45678662109375,-0.646295428276062,0.8080220222473145,0.14553864300251007
1702057854689796000,6.473796142578125,-0.29245173931121826,1.0326677560806274,-0.1644754707813263
1702057854706787300,6.490787353515625,0.05192354694008827,0.7527387142181396,-0.166460782289505
1702057854723780600,6.507780517578125,0.206777885556221,0.4593706727027893,0.009621127508580685
1702057854740774400,6.5247744140625,0.09575312584638596,0.33169981837272644,0.1797471046447754
1702057854757765600,6.541765625,-0.3588833212852478,0.3956879675388336,0.26801711320877075
1702057854774761700,6.55876171875,-0.6659958362579346,0.7147123217582703,0.1618792861700058
1702057854791758000,6.575758056640625,-0.5791002511978149,0.8491026759147644,-0.03726277872920036
1702057854808749300,6.592749267578125,-0.28680121898651123,0.7525860071182251,-0.21930062770843506
1702057854825740300,6.609740234375,-0.036651913076639175,0.5345070958137512,-0.19288070499897003
1702057854842739200,6.6267392578125,-0.03436116874217987,0.34834590554237366,-0.021532999351620674
1702057854859730200,6.643730224609375,-0.1820378452539444,0.1696678251028061,0.1716531366109848
1702057854876724000,6.660723876953125,-0.3381139039993286,0.08735372871160507,0.30695977807044983
1702057854893717800,6.6777177734375,-0.3827070891857147,0.20570887625217438,0.2739730477333069
1702057854910711300,6.694711181640625,-0.24785856902599335,0.36911532282829285,0.17516560852527618
1702057854927704800,6.711704833984375,-0.004734205547720194,0.38835757970809937,-0.01710422709584236
1702057854944698600,6.72869873046875,0.19226983189582825,0.168751522898674,-0.21319197118282318
1702057854961692400,6.7456923828125,0.28588494658470154,-0.06368270516395569,-0.23655757308006287
1702057854978686000,6.76268603515625,0.1791362315416336,-0.06429356336593628,-0.018325956538319588
1702057854995679700,6.7796796875,-0.04993823543190956,0.14034628868103027,0.3269656300544739
1702057855012673300,6.79667333984375,-0.11591167747974396,0.18417587876319885,0.46899178624153137
1702057855029667000,6.8136669921875,0.05390885844826698,-0.10262536257505417,0.2454151064157486
1702057855046658600,6.830658447265625,0.31093040108680725,-0.38148534297943115,-0.009010262787342072
1702057855063644000,6.847643798828125,0.4057672321796417,-0.399200439453125,-0.05757404863834381
1702057855080648200,6.864648193359375,0.24297164380550385,-0.33337971568107605,-0.047800205647945404
1702057855097642200,6.881642333984375,0.07666359096765518,-0.33887749910354614,-0.032528575509786606
1702057855114635500,6.898635498046875,0.18677204847335815,-0.4763221740722656,0.11530081182718277
1702057855131618800,6.915618896484375,0.45524731278419495,-0.765566885471344,0.29336804151535034
1702057855148622800,6.932622802734375,0.7762570381164551,-1.0386236906051636,0.337503045797348
1702057855165616400,6.949616455078125,0.967915952205658,-1.2664763927459717,0.1621847152709961
1702057855182610200,6.966610107421875,0.7444919943809509,-1.3382530212402344,-0.08429940044879913
1702057855199604200,6.983604248046875,0.10476338863372803,-0.8781188130378723,-0.0708603709936142
1702057855216597200,7.00059716796875,-0.19135354459285736,-0.28496864438056946,0.4334088861942291
1702057855233590300,7.01759033203125,0.16890424489974976,-0.265573650598526,0.8636107444763184
1702057855250585000,7.034585205078125,0.7159340381622314,-1.0294606685638428,0.8141306638717651
1702057855267579000,7.051578857421875,0.9133962392807007,-1.6085609197616577,0.31154128909111023
1702057855284572400,7.068572509765625,0.6068946123123169,-1.4495831727981567,-0.17516560852527618
1702057855301566200,7.085566162109375,0.0507018156349659,-0.5181664228439331,-0.4651738703250885
1702057855318559700,7.102559814453125,0.10613783448934555,-0.1437060534954071,-0.24098633229732513
1702057855335553500,7.119553466796875,0.4688390791416168,-0.6174320578575134,-0.04245513305068016
1702057855352550100,7.136550048828125,0.41462478041648865,-1.3813190460205078,0.1992947906255722
1702057855369537800,7.153537841796875,-0.16004669666290283,-1.4747813940048218,0.6017022728919983
1702057855386534400,7.170534423828125,-0.555429220199585,-0.9747881889343262,1.0277807712554932
1702057855403530500,7.187530517578125,-0.3862195611000061,-0.6366742849349976,1.1664471626281738
1702057855420519700,7.204519775390625,0.1840231567621231,-0.7898487448692322,1.0708467960357666
1702057855437515500,7.221515625,0.508087158203125,-1.1962268352508545,0.7932085394859314
1702057855454498800,7.238498779296875,0.4260784983634949,-1.275639295578003,0.5320636034011841
1702057855471506400,7.25550634765625,0.24908030033111572,-0.9172141551971436,0.3903428912162781
1702057855488493600,7.27249365234375,0.1111774742603302,-0.599564254283905,0.4260784983634949
1702057855505480000,7.28947998046875,0.10842858254909515,-0.432645320892334,0.39813143014907837
1702057855522484000,7.30648388671875,0.16233743727207184,-0.4764748811721802,0.3338378667831421
1702057855539477800,7.323477783203125,0.1134682223200798,-0.5241223573684692,0.2889392673969269
1702057855556471600,7.340471435546875,-0.027641652151942253,-0.39324450492858887,0.2808452844619751
1702057855573465000,7.357465087890625,-0.15256360173225403,-0.2220495194196701,0.22510384023189545
1702057855590449200,7.37444921875,-0.15729780495166779,-0.057879481464624405,0.13118331134319305
1702057855607452700,7.39145263671875,-0.03481931984424591,-0.09483683109283447,0.060475658625364304
1702057855624446200,7.4084462890625,0.020616702735424042,-0.16737708449363708,0.003512475173920393
1702057855641439700,7.425439697265625,0.010231993161141872,-0.0809396430850029,-0.1010981947183609
1702057855658433500,7.44243359375,-0.0013744467869400978,0.06872233748435974,-0.1563815027475357
1702057855675427000,7.459427001953125,0.03420845419168472,0.2880229651927948,-0.2739730477333069
1702057855692418600,7.47641845703125,0.18738290667533875,0.3332269787788391,-0.4005748927593231
1702057855709417000,7.4934169921875,0.3675881624221802,0.24098633229732513,-0.4778493344783783
1702057855726408200,7.510408203125,0.44058656692504883,0.22082778811454773,-0.4934264123439789
1702057855743402000,7.527402099609375,0.3404046595096588,0.4586070775985718,-0.4121813178062439
1702057855760395800,7.544395751953125,0.18035796284675598,0.7791585922241211,-0.2635883390903473
1702057855777389300,7.561389404296875,0.029016099870204926,0.8773552179336548,-0.10842858254909515
1702057855794380500,7.578380615234375,0.05955936014652252,0.8743008971214294,-0.05467243865132332
1702057855811379200,7.595379150390625,0.347276896238327,0.6618725061416626,-0.1137736514210701
1702057855828370400,7.612370361328125,0.5271766781806946,0.5268712639808655,-0.17806722223758698
1702057855845355800,7.629355712890625,0.52702397108078,0.6638578176498413,-0.10751228034496307
1702057855862357800,7.646357666015625,0.4144720733165741,0.9737191796302795,0.011301007121801376
1702057855879351800,7.663351806640625,0.32268956303596497,0.9553932547569275,-0.014813481830060482
1702057855896345000,7.680344970703125,0.24617868661880493,0.984867513179779,-0.28985556960105896
1702057855913347800,7.697347900390625,0.4303545653820038,1.202946424484253,-0.5601634383201599
1702057855930332700,7.714332763671875,0.3715587854385376,1.1178834438323975,-0.6310238242149353
1702057855947326200,7.731326171875,0.050854530185461044,0.698066234588623,-0.5551238059997559
1702057855964321500,7.748321533203125,-0.3355177342891693,0.28466320037841797,-0.46731191873550415
1702057855981313500,7.7653134765625,-0.794277548789978,0.204487144947052,-0.16661348938941956
1702057855998307300,7.782307373046875,-0.6429356932640076,0.802524209022522,0.32757648825645447
1702057856015300900,7.79930078125,-0.29733866453170776,0.9509644508361816,0.6670648455619812
1702057856032294700,7.816294677734375,-0.30146199464797974,0.23273965716362,0.4017966091632843
1702057856049280300,7.8332802734375,-0.665232241153717,-0.33368512988090515,-0.2002110779285431
1702057856066282000,7.850281982421875,-0.7261660695075989,0.061391957104206085,-0.7539604306221008
1702057856083273200,7.867273193359375,-0.31291571259498596,0.6423248052597046,-0.5598580241203308
1702057856100274400,7.8842744140625,-0.21624629199504852,0.6530149579048157,-0.09437867999076843
1702057856117260500,7.901260498046875,-0.48456886410713196,0.48716503381729126,0.15225815773010254
1702057856134256600,7.918256591796875,-0.49327367544174194,0.30222558975219727,-0.025503624230623245
1702057856151250400,7.93525048828125,-0.02519819140434265,0.4732678532600403,-0.18341228365898132
1702057856168244000,7.952243896484375,0.18448130786418915,1.0955867767333984,-0.12171489745378494
1702057856185237800,7.96923779296875,-0.09315694868564606,1.3672691583633423,0.23075434565544128
1702057856202231600,7.9862314453125,-0.6149885654449463,1.3729196786880493,0.6965391039848328
1702057856219225000,8.00322509765625,-0.9207266569137573,1.2157745361328125,1.0630582571029663
1702057856236224500,8.020224609375,-0.49495357275009155,0.9352346658706665,1.0807733535766602
1702057856253214700,8.037214599609374,0.5192354321479797,0.036651913076639175,0.7283040881156921
1702057856270206200,8.054206298828126,0.9957103729248047,-0.5447390675544739,0.024587325751781464
1702057856287190300,8.071190185546875,0.9100365042686462,-0.45036038756370544,-0.5090034604072571
1702057856304192800,8.08819287109375,0.342237263917923,-0.14233160018920898,-0.6688974499702454
1702057856321188400,8.105188232421876,-0.4027129113674164,0.35246923565864563,-0.4375322461128235
1702057856338181000,8.12218115234375,-0.7189884185791016,0.9897544384002686,-0.03420845419168472
1702057856355174700,8.139174560546875,-0.5966626405715942,1.0729848146438599,0.0377209298312664
1702057856372168400,8.15616845703125,-0.25824329257011414,0.7391469478607178,-0.25442537665367126
1702057856389162000,8.173161865234375,0.010537425056099892,0.47678032517433167,-0.4859432876110077
1702057856406156000,8.190156005859375,-0.003817907767370343,0.31902438402175903,-0.513737678527832
1702057856423149300,8.2071494140625,-0.164170041680336,0.20693060755729675,-0.3761402666568756
1702057856440137200,8.22413720703125,-0.16982053220272064,0.08170322328805923,-0.17699819803237915
1702057856457137000,8.241136962890625,0.023518312722444534,-0.1085812970995903,-0.01878410577774048
1702057856474130400,8.25813037109375,0.23273965716362,-0.24785856902599335,0.03940080851316452
1702057856491124200,8.275124267578125,0.33567044138908386,-0.28725937008857727,0.0685696229338646
1702057856508118300,8.2921181640625,0.3793473243713379,-0.3094032406806946,0.02733621932566166
1702057856525111800,8.30911181640625,0.38927388191223145,-0.2968805134296417,-0.10690141469240189
1702057856542105300,8.326105224609375,0.34086281061172485,-0.2616030275821686,-0.16539175808429718
1702057856559099000,8.343098876953125,0.18341228365898132,-0.19517144560813904,-0.05345070734620094
1702057856576092700,8.3600927734375,0.06948592513799667,-0.05650503560900688,0.12079860270023346
1702057856593086200,8.377086181640625,0.23075434565544128,-0.12767083942890167,0.1241583600640297
1702057856610080000,8.394080078125,0.43967026472091675,-0.5105306506156921,-0.0010690141934901476
1702057856627057200,8.41105712890625,0.4031710624694824,-0.6973026990890503,-0.0013744467869400978
1702057856644065000,8.42806494140625,0.24587325751781464,-0.4735732674598694,0.16508632898330688
1702057856661063400,8.4450634765625,0.21578814089298248,-0.24190263450145721,0.251676470041275
1702057856678055000,8.462054931640624,0.2964223623275757,-0.33536502718925476,0.15424346923828125
1702057856695048400,8.47904833984375,0.3793473243713379,-0.5813909769058228,0.14782938361167908
1702057856712036400,8.496036376953125,0.32498031854629517,-0.7031059265136719,0.28619036078453064
1702057856729035800,8.513035888671874,0.1889100819826126,-0.7504479289054871,0.2971859276294708
1702057856746027000,8.530027099609375,0.15271630883216858,-0.8823948502540588,-0.16401731967926025
1702057856763026000,8.54702587890625,0.3378084897994995,-1.5790866613388062,-0.6998988389968872
1702057856780017000,8.564016845703126,0.2499966025352478,-2.172084093093872,-0.8625417351722717
1702057856797010700,8.5810107421875,-0.05161811411380768,-1.7759380340576172,-0.3805690407752991
1702057856814008000,8.598008056640625,-0.12186761945486069,-0.7948883771896362,0.3217732608318329
1702057856830997800,8.614997802734376,-0.08735372871160507,0.16554448008537292,0.5232060551643372
1702057856847991600,8.631991455078126,0.1846340149641037,0.545655369758606,0.08338310569524765
1702057856864985300,8.6489853515625,0.5713117122650146,-0.04382958263158798,-0.5487096905708313
1702057856881979100,8.665979248046876,0.7137960195541382,-0.8468119502067566,-0.9767735004425049
1702057856898972700,8.68297265625,0.6963863968849182,-0.9885326623916626,-0.9477574229240417
1702057856915966500,8.699966552734375,0.5561928153038025,-0.5731443166732788,-0.49877145886421204
1702057856932960000,8.7169599609375,0.35705074667930603,0.026419922709465027,-0.1736384481191635
1702057856949953800,8.733953857421875,0.28588494658470154,0.23457226157188416,-0.07299839705228806
1702057856966947600,8.750947509765625,0.2808452844619751,-0.27580565214157104,-0.23029619455337524
1702057856983937300,8.767937255859374,0.1748601794242859,-0.7373143434524536,-0.4040873646736145
1702057857000938800,8.784938720703124,-0.007024950347840786,-0.7805330753326416,-0.32620203495025635
1702057857017928400,8.801928466796875,-0.17150041460990906,-0.5485569834709167,0.01114829070866108
1702057857034922200,8.818922119140625,-0.21334469318389893,-0.28680121898651123,0.34804046154022217
1702057857051915800,8.835915771484375,-0.16722436249256134,-0.1849394589662552,0.6130032539367676
1702057857068909600,8.85290966796875,-0.07956519722938538,-0.23869559168815613,0.6940956115722656
1702057857085903400,8.8699033203125,-0.058337632566690445,-0.31383201479911804,0.6571382880210876
1702057857102910700,8.88691064453125,-0.10186178237199783,-0.27779096364974976,0.6325509548187256
1702057857119890700,8.903890625,-0.144622340798378,-0.09468411654233932,0.5994115471839905
1702057857136884500,8.920884521484375,-0.11285735666751862,-0.12507465481758118,0.5464189648628235
1702057857153878000,8.9378779296875,-0.05497787147760391,-0.11239920556545258,0.3982841372489929
1702057857170861300,8.954861328125,0.027030786499381065,0.09239336848258972,0.2561052441596985
1702057857187858200,8.971858154296875,0.17333301901817322,0.20387627184391022,0.11301007121801376
1702057857204859400,8.988859375,0.20463985204696655,0.18020524084568024,-0.17027868330478668
1702057857221852700,9.005852783203125,0.17318029701709747,0.12950342893600464,-0.5624541640281677
1702057857238846500,9.022846435546874,0.13790282607078552,0.1417207419872284,-0.7826710939407349
1702057857255840300,9.03984033203125,0.12446379661560059,0.2503020465373993,-0.770301103591919
1702057857272833800,9.056833740234374,0.194713294506073,0.41859540343284607,-0.5690209865570068
1702057857289827600,9.07382763671875,0.2799290120601654,0.5340489149093628,-0.39553526043891907
1702057857306822100,9.090822265625,0.266642689704895,0.44776421785354614,-0.30863967537879944
1702057857323804700,9.1078046875,0.07330382615327835,0.4356996417045593,-0.2938261926174164
1702057857340808700,9.12480859375,-0.15760323405265808,0.3640756905078888,-0.2730567753314972
1702057857357802500,9.141802490234374,-0.4001167416572571,0.42760565876960754,-0.40775254368782043
1702057857374796000,9.158796142578124,-0.4911356568336487,0.4265366494655609,-0.6073527932167053
1702057857391789600,9.17578955078125,-0.29764407873153687,0.4404338300228119,-0.6620252132415771
1702057857408783600,9.19278369140625,-0.05451972410082817,0.26374107599258423,-0.5227479338645935
1702057857425777200,9.209777099609376,-0.07192938029766083,-0.10170906037092209,-0.5022839307785034
1702057857442770700,9.226770751953126,-0.2997821271419525,-0.5199990272521973,-0.5615378618240356
1702057857459764500,9.243764404296876,-0.46822822093963623,-0.3718642294406891,-0.44944411516189575
1702057857476758000,9.260758056640626,-0.40912699699401855,0.04138612002134323,-0.11942415684461594
1702057857493752000,9.277751953125,-0.08246681094169617,0.45753806829452515,-0.16661348938941956
1702057857510745300,9.294745361328125,0.12263119965791702,0.3904955983161926,-0.33689218759536743
1702057857527740000,9.311739990234376,-0.046273041516542435,0.27550023794174194,-0.4671591818332672
1702057857544730000,9.328730224609375,-0.3825543522834778,0.36819902062416077,-0.2713768780231476
1702057857561724000,9.345723876953125,-0.4642575979232788,0.48029279708862305,-0.008857546374201775
1702057857578720300,9.36272021484375,-0.36850446462631226,0.41370847821235657,-0.03451388701796532
1702057857595713800,9.3797138671875,-0.3975205719470978,0.32131510972976685,-0.05054909735918045
1702057857612707600,9.39670751953125,-0.403781920671463,0.7628179788589478,-0.00809396430850029
1702057857629701400,9.413701416015625,-0.5393940210342407,1.2119566202163696,0.24633140861988068
1702057857646695000,9.43069482421875,-0.461355984210968,1.4193453788757324,0.244804248213768
1702057857663689000,9.44768896484375,-0.3793473243713379,1.4410310983657837,0.12751811742782593
1702057857680682200,9.46468212890625,-0.44028112292289734,1.2785409688949585,0.27320948243141174
1702057857697676000,9.481676025390625,-0.5845980644226074,1.023046612739563,0.4628831446170807
1702057857714669800,9.498669921875,-0.43646320700645447,0.7646505832672119,0.35094207525253296
1702057857731663400,9.515663330078125,-0.09315694868564606,0.5581781268119812,-0.08933904021978378
1702057857748657400,9.532657470703125,0.16691893339157104,0.6420193910598755,-0.48487427830696106
1702057857765651000,9.54965087890625,0.2226603776216507,0.9760099649429321,-0.5346598029136658
1702057857782644500,9.56664453125,0.13209961354732513,0.8611672520637512,-0.4056145250797272
1702057857799638300,9.58363818359375,-0.0607810914516449,0.44455718994140625,-0.12278391420841217
1702057857816631800,9.6006318359375,-0.2168571650981903,0.2877175211906433,0.2203696370124817
1702057857833617000,9.617616943359375,-0.2474004179239273,0.3318525552749634,0.33246341347694397
1702057857850606600,9.634606689453125,-0.23671028017997742,0.35705074667930603,0.2796235680580139
1702057857867606500,9.6516064453125,-0.14340060949325562,0.4366159439086914,0.15073099732398987
1702057857884606500,9.6686064453125,-0.038637228310108185,0.2393064647912979,-0.05497787147760391
1702057857901600300,9.685600341796874,-0.010537425056099892,0.07666359096765518,-0.1797471046447754
1702057857918594000,9.702593994140624,-0.11163562536239624,0.14614951610565186,-0.1287398487329483
1702057857935577000,9.7195771484375,-0.19120082259178162,0.2669481039047241,0.04612032696604729
1702057857952581400,9.736581298828124,-0.192422553896904,0.2776382565498352,0.11545353382825851
1702057857969575200,9.7535751953125,-0.07513642311096191,0.2880229651927948,0.027030786499381065
1702057857986568000,9.77056787109375,0.054825156927108765,0.3303253948688507,-0.10247264802455902
1702057858003563300,9.787563232421874,0.016493361443281174,0.23839016258716583,-0.2626720666885376
1702057858020556000,9.80455615234375,-0.12110403180122375,0.20372356474399567,-0.28695395588874817
1702057858037549600,9.821549560546876,-0.12095131725072861,0.18005253374576569,-0.10674870014190674
1702057858054543400,9.83854345703125,0.02535090781748295,0.016951510682702065,0.08338310569524765
1702057858071537200,9.855537109375,0.20036379992961884,-0.1768454909324646,0.19074267148971558
1702057858088530700,9.87253076171875,0.2765692472457886,-0.25182920694351196,0.26710084080696106
1702057858105514500,9.889514404296875,0.11972958594560623,-0.3045163154602051,0.2822197377681732
1702057858122518300,9.906518310546875,-0.013897184282541275,-0.3923282027244568,0.22907446324825287
1702057858139512000,9.923511962890625,0.027641652151942253,-0.46868637204170227,0.18066339194774628
1702057858156509200,9.94050927734375,0.1108720451593399,-0.4801400899887085,0.1411098688840866
1702057858173496000,9.95749609375,0.12400564551353455,-0.4129449129104614,0.25442537665367126
1702057858190493000,9.974492919921875,0.04795292019844055,-0.4082106947898865,0.48915034532546997
1702057858207486700,9.99148681640625,-0.01970040425658226,-0.6383541822433472,0.6774495840072632
1702057858224480300,10.008480224609375,-0.05161811411380768,-0.9867000579833984,0.6262896060943604
1702057858241475000,10.02547509765625,-0.30772337317466736,-1.0122036933898926,0.39095374941825867
1702057858258467800,10.0424677734375,-0.5073235630989075,-0.669966459274292,0.3121521472930908
1702057858275448600,10.059448486328124,-0.3597996234893799,-0.3448334336280823,0.4928155243396759
1702057858292457500,10.07645751953125,0.04138612002134323,-0.43875396251678467,0.5761986374855042
1702057858309449000,10.093448974609375,0.21380282938480377,-0.8828529715538025,0.43799036741256714
1702057858326442500,10.1104423828125,0.12629638612270355,-1.1189523935317993,0.26343563199043274
1702057858343436300,10.127436279296875,-0.0734565481543541,-0.6495024561882019,0.2422080636024475
1702057858360430000,10.14443017578125,-0.07391469180583954,0.0809396430850029,0.27061331272125244
1702057858377426700,10.1614267578125,0.24755313992500305,0.3686571717262268,0.031154127791523933
1702057858394415600,10.17841552734375,0.619111955165863,-0.38728857040405273,-0.24984388053417206
1702057858411398700,10.195398681640626,0.6270532011985779,-1.2857186794281006,-0.23029619455337524
1702057858428405800,10.21240576171875,0.16920967400074005,-1.4564554691314697,0.275958389043808
1702057858445397200,10.229397216796874,-0.3065016269683838,-0.850782573223114,0.9538660645484924
1702057858462392000,10.24639208984375,-0.3222314119338989,-0.182648703455925,1.4103351831436157
1702057858479383000,10.263383056640626,-0.04092797264456749,-0.06444628536701202,1.3715451955795288
1702057858496382000,10.2803818359375,0.2096794992685318,-0.5551238059997559,0.8240572214126587
1702057858513373200,10.297373291015624,0.11163562536239624,-1.1482739448547363,0.2970332205295563
1702057858530366700,10.31436669921875,-0.27870726585388184,-1.3112221956253052,0.24617868661880493
1702057858547360500,10.331360595703124,-0.5598580241203308,-0.9251554012298584,0.4723515510559082
1702057858564354000,10.34835400390625,-0.5899431109428406,-0.4996877610683441,0.7533495426177979
1702057858581347800,10.365347900390624,-0.5497786998748779,-0.4732678532600403,0.8458956480026245
1702057858598341400,10.38234130859375,-0.5170974135398865,-0.5827654600143433,0.7750352621078491
1702057858615335200,10.399335205078126,-0.554818332195282,-0.6269004344940186,0.7519751191139221
1702057858632329000,10.416328857421876,-0.6148358583450317,-0.3698789179325104,0.6733261942863464
1702057858649322500,10.433322509765626,-0.6272059082984924,-0.0780380368232727,0.5482515692710876
1702057858666316000,10.45031591796875,-0.5490151643753052,0.04902193695306778,0.3865249752998352
1702057858683310000,10.46731005859375,-0.3500257730484009,0.01878410577774048,0.21410827338695526
1702057858700303600,10.4843037109375,-0.12919799983501434,-0.1342376321554184,0.03344487398862839
1702057858717297400,10.50129736328125,0.005345070734620094,-0.3142901659011841,-0.05513058975338936
1702057858734291000,10.518291015625,-0.03497203439474106,-0.2301434874534607,-0.011759156361222267
1702057858751284700,10.53528466796875,-0.07895433157682419,-0.014966198243200779,0.05375614017248154
1702057858768276000,10.55227587890625,0.01664607785642147,0.041691552847623825,0.011453723534941673
1702057858785274600,10.569274658203126,0.18631389737129211,0.044287730008363724,-0.13637566566467285
1702057858802262800,10.5862626953125,0.29657506942749023,0.10308351367712021,-0.3130684494972229
1702057858819262200,10.60326220703125,0.328340083360672,0.15027284622192383,-0.42989641427993774
1702057858836254200,10.620254150390625,0.2539672255516052,0.2541199326515198,-0.45142942667007446
1702057858853245700,10.63724560546875,0.23273965716362,0.4349360466003418,-0.4115704596042633
1702057858870229800,10.654229736328125,0.16249015927314758,0.5984952449798584,-0.24694228172302246
1702057858887234000,10.671234130859375,0.11850785464048386,0.6426302194595337,-0.13484850525856018
1702057858904227800,10.688227783203125,0.1137736514210701,0.4928155243396759,-0.16035212576389313
1702057858921221400,10.705221435546875,0.08888089656829834,0.3695734739303589,-0.23335053026676178
1702057858938214700,10.722214599609375,0.14156801998615265,0.479834645986557,-0.29657506942749023
1702057858955208700,10.739208740234375,0.3787364661693573,0.5719226002693176,-0.39797869324684143
1702057858972211000,10.7562109375,0.5786421298980713,0.43127086758613586,-0.8878926634788513
1702057858989196300,10.7731962890625,0.5201517343521118,0.06169738993048668,-1.476613998413086
1702057859006189800,10.79018994140625,0.10934487730264664,0.048258353024721146,-1.415680170059204
1702057859023183600,10.80718359375,-0.40515637397766113,0.8833111524581909,-0.6873761415481567
1702057859040174600,10.824174560546876,-0.8003861904144287,1.358258843421936,0.05390885844826698
1702057859057160400,10.841160400390624,-0.7611380815505981,0.8422304391860962,0.050854530185461044
1702057859074162000,10.858161865234376,-0.38576140999794006,0.29107728600502014,-0.25671613216400146
1702057859091158300,10.875158203125,0.04657847434282303,0.22052235901355743,-0.3799581825733185
1702057859108152300,10.89215234375,0.04703662544488907,0.29077184200286865,-0.6270532011985779
1702057859125145600,10.9091455078125,-0.02977968007326126,0.3000875413417816,-0.9639453291893005
1702057859142139400,10.926139404296874,0.07299839705228806,0.27840182185173035,-0.9608910083770752
1702057859159130600,10.943130615234375,0.18570303916931152,0.08949175477027893,-0.5769622325897217
1702057859176127000,10.960126953125,0.020616702735424042,0.17073683440685272,-0.06383541971445084
1702057859193123000,10.977123046875,-0.3188716471195221,0.5931501388549805,0.17256943881511688
1702057859210114000,10.994114013671876,-0.24083362519741058,1.1412489414215088,-0.04841107130050659
1702057859227107800,11.01110791015625,0.02779436856508255,0.8894197940826416,-0.5429064631462097
1702057859244101600,11.0281015625,0.10094548016786575,0.22418753802776337,-0.8384125232696533
1702057859261095200,11.04509521484375,-0.15882496535778046,0.09117163717746735,-0.5928447246551514
1702057859278089000,11.0620888671875,-0.3591887652873993,0.30482175946235657,0.050854530185461044
1702057859295082800,11.079082763671876,-0.44180828332901,0.47280970215797424,0.43127086758613586
1702057859312076300,11.096076171875,-0.4138612151145935,0.4671591818332672,0.3975205719470978
1702057859329070000,11.113070068359375,-0.40225476026535034,0.41722095012664795,0.204487144947052
1702057859346063600,11.130063720703125,-0.2724458873271942,0.42668938636779785,-0.05314527451992035
1702057859363054800,11.147054931640625,-0.12232576310634613,0.24144448339939117,-0.28909197449684143
1702057859380053800,11.1640537109375,-0.027947084978222847,0.033597588539123535,-0.4063780903816223
1702057859397044700,11.181044677734375,-0.00045814894838258624,0.04108068719506264,-0.29107728600502014
1702057859414038500,11.19803857421875,-0.05619960278272629,0.16019940376281738,-0.0731511116027832
1702057859431032300,11.2150322265625,-0.22617286443710327,0.20570887625217438,0.09697485715150833
1702057859448025900,11.23202587890625,-0.4657847583293915,0.166460782289505,0.1840231567621231
1702057859465019600,11.24901953125,-0.5714644193649292,0.08765916526317596,0.20311269164085388
1702057859482013200,11.26601318359375,-0.5218316316604614,0.010231993161141872,0.1417207419872284
1702057859499007000,11.283007080078125,-0.4027129113674164,0.02474004216492176,0.05009094998240471
1702057859516000500,11.30000048828125,-0.260992169380188,0.15271630883216858,-0.031001411378383636
1702057859533002500,11.31700244140625,-0.16844609379768372,0.26939156651496887,-0.044287730008363724
1702057859549987800,11.33398779296875,-0.12293662875890732,0.16340644657611847,-0.018020525574684143
1702057859566979000,11.35097900390625,-0.08506298810243607,-0.07192938029766083,-0.027183502912521362
1702057859583978000,11.36797802734375,-0.10873401165008545,-0.1846340149641037,0.006872233934700489
1702057859600973600,11.3849736328125,-0.21334469318389893,-0.06765332818031311,0.12278391420841217
1702057859617962800,11.401962646484375,-0.32162055373191833,0.07895433157682419,0.19288070499897003
1702057859634956300,11.418956298828125,-0.260992169380188,0.11560624837875366,0.1638645976781845
1702057859651949800,11.43594970703125,-0.09376781433820724,0.15057829022407532,0.17791450023651123
1702057859668944000,11.45294384765625,0.049785517156124115,0.08506298810243607,0.2587014436721802
1702057859685937400,11.4699375,0.011759156361222267,-0.029016099870204926,0.32391130924224854
1702057859702931500,11.486931396484374,-0.1238529309630394,-0.06582073122262955,0.3465133011341095
1702057859719924700,11.5039248046875,-0.2272418737411499,-0.07406741380691528,0.22250767052173615
1702057859736918500,11.52091845703125,-0.18570303916931152,-0.08307767659425735,0.14217889308929443
1702057859753912000,11.537912109375,-0.023518312722444534,-0.2765692472457886,0.35964691638946533
1702057859770895600,11.5548955078125,-0.07131851464509964,-0.4202753007411957,0.746019184589386
1702057859787899600,11.571899658203124,-0.34208452701568604,-0.3623957931995392,1.0517572164535522
1702057859804893400,11.5888935546875,-0.7898487448692322,0.04077525436878204,0.9639453291893005
1702057859821887000,11.605886962890626,-0.8239045143127441,0.32879820466041565,0.7693848013877869
1702057859838880800,11.622880859375,-0.3880521357059479,0.02779436856508255,0.588874101638794
1702057859855874300,11.639874267578126,-0.01924225501716137,-0.39416080713272095,0.37308594584465027
1702057859872868000,11.6568681640625,-0.018936822190880775,-0.6328563690185547,0.23121249675750732
1702057859889861600,11.673861572265626,-0.2929098904132843,-0.4054618179798126,0.06582073122262955
1702057859906855400,11.69085546875,-0.3891211748123169,-0.06185010448098183,-0.009773843921720982
1702057859923849000,11.707848876953125,-0.17119498550891876,0.05345070734620094,0.024434609338641167
1702057859940842000,11.724842041015625,0.16035212576389313,-0.12797626852989197,0.03497203439474106
1702057859957837000,11.741837158203126,0.3917173445224762,-0.22113321721553802,-0.09117163717746735
1702057859974830300,11.758830322265625,0.5424483418464661,-0.21609358489513397,-0.2324342280626297
1702057859991824000,11.775823974609375,0.49296826124191284,-0.4619668424129486,-0.21365012228488922
1702057860008822800,11.79282275390625,0.40301835536956787,-0.6311765313148499,-0.07559457421302795
1702057860025811200,11.809811279296875,0.43188172578811646,-0.7825183868408203,0.2203696370124817
1702057860042804000,11.826803955078125,0.35521814227104187,-0.6698137521743774,0.4482223689556122
1702057860059799300,11.84379931640625,0.12797626852989197,-0.1846340149641037,0.6667594313621521
1702057860076792300,11.860792236328125,-0.05864306539297104,0.20463985204696655,0.8758280277252197
1702057860093786000,11.8777861328125,-0.052839845418930054,0.328340083360672,0.8365799784660339
1702057860110779400,11.894779296875,0.3248275816440582,-0.00733038317412138,0.5342016816139221
1702057860127773200,11.911773193359375,0.6009386777877808,-0.5067127346992493,0.21013765037059784
1702057860144767000,11.92876708984375,0.6278167366981506,-0.7773260474205017,0.1362229436635971
1702057860161760500,11.945760498046875,0.5169447064399719,-0.42500948905944824,0.26893341541290283
1702057860178754300,11.96275439453125,0.41202861070632935,0.054825156927108765,0.43676865100860596
1702057860195751200,11.979751220703125,0.3620903789997101,0.22189679741859436,0.42730024456977844
1702057860212738800,11.99673876953125,0.31780263781547546,0.020922135561704636,0.2393064647912979
1702057860229735400,12.0137353515625,0.2561052441596985,-0.235030397772789,0.07880161702632904
1702057860246729200,12.030729248046875,0.12996158003807068,-0.347276896238327,0.04566217586398125
1702057860263722800,12.04772265625,-0.004581489134579897,-0.33567044138908386,0.09300423413515091
1702057860280716500,12.064716552734374,-0.062460970133543015,-0.2658790946006775,0.1459967941045761
1702057860297710000,12.0817099609375,-0.022143865004181862,-0.1696678251028061,0.16493362188339233
1702057860314704000,12.098703857421874,0.1287398487329483,-0.14294247329235077,0.10033461451530457
1702057860331697700,12.11569775390625,0.3017674386501312,-0.036193765699863434,0.04703662544488907
1702057860348691200,12.132691162109374,0.45723262429237366,0.13698652386665344,-0.024434609338641167
1702057860365685000,12.14968505859375,0.49693888425827026,0.17669276893138885,-0.1388191282749176
1702057860382678500,12.166678466796874,0.49266281723976135,0.16111570596694946,-0.27488934993743896
1702057860399668200,12.183668212890625,0.5206099152565002,0.13316862285137177,-0.3358231782913208
1702057860416666000,12.200666015625,0.531147301197052,0.21471913158893585,-0.19074267148971558
1702057860433659600,12.21765966796875,0.517250120639801,0.3455969989299774,0.032070424407720566
1702057860450653400,12.2346533203125,0.4996877610683441,0.31871894001960754,0.14477506279945374
1702057860467647000,12.25164697265625,0.5097670555114746,0.14019356667995453,-0.016340645030140877
1702057860484640800,12.268640869140626,0.5609270334243774,0.04749477282166481,-0.2561052441596985
1702057860501634300,12.28563427734375,0.5864306092262268,0.3738495409488678,-0.3058907687664032
1702057860518627800,12.3026279296875,0.6105598211288452,0.6136141419410706,-0.18051068484783173
1702057860535622000,12.319621826171876,0.6265950202941895,0.5007568001747131,-0.22449298202991486
1702057860552615400,12.336615478515625,0.47342056035995483,0.1466076523065567,-0.6345362663269043
1702057860569610800,12.35361083984375,0.22021691501140594,-0.06719517707824707,-1.1287262439727783
1702057860586601200,12.370601318359375,0.09056077152490616,0.4132503271102905,-0.9837985038757324
1702057860603596500,12.387596435546875,0.1290452778339386,0.7020368576049805,-0.3199406862258911
1702057860620590300,12.40459033203125,0.08124507963657379,0.48380526900291443,0.08597928285598755
1702057860637578500,12.42157861328125,-0.22937989234924316,-0.0607810914516449,-0.27977627515792847
1702057860654577700,12.43857763671875,-0.5884159207344055,0.05772676691412926,-0.6829473376274109
1702057860671571200,12.4555712890625,-0.751669704914093,0.8405506014823914,-0.5308418869972229
1702057860688565000,12.47256494140625,-0.5818491578102112,1.0590876340866089,0.07849618047475815
1702057860705548300,12.48954833984375,-0.6491970419883728,0.788016140460968,0.5881105065345764
1702057860722552300,12.50655224609375,-0.6501133441925049,0.5946773290634155,0.36911532282829285
1702057860739546000,12.523546142578125,0.029932396486401558,0.004734205547720194,-0.5894849896430969
1702057860756539600,12.54053955078125,0.578489363193512,-0.5786421298980713,-1.3628404140472412
1702057860773533400,12.557533447265625,0.6684392690658569,-0.5523748993873596,-1.5358679294586182
1702057860790537700,12.574537841796875,0.4046982228755951,0.004123340360820293,-0.827722430229187
1702057860807521000,12.59152099609375,-0.19318613409996033,0.5623014569282532,0.22937989234924316
1702057860824514300,12.608514404296875,-0.6748533844947815,0.9680687189102173,0.6298020482063293
1702057860841508000,12.625508056640625,-0.1488984078168869,0.6484334468841553,0.45036038756370544
1702057860858502000,12.642501953125,0.2819143235683441,-0.03405573591589928,0.05192354694008827
1702057860875495400,12.659495361328124,0.2724458873271942,-0.2681698501110077,-0.244804248213768
1702057860892489200,12.6764892578125,-0.053297992795705795,-0.09941831976175308,-0.10491610318422318
1702057860909483000,12.69348291015625,-0.5032002329826355,0.17073683440685272,0.22052235901355743
1702057860926473200,12.71047314453125,-0.8269588351249695,0.5361869931221008,0.3640756905078888
1702057860943473400,12.727473388671875,-0.7709119319915771,0.6449210047721863,0.21991148591041565
1702057860960460500,12.74446044921875,-0.4813618063926697,0.46761733293533325,-0.11713340878486633
1702057860977457700,12.761457763671874,-0.18555031716823578,0.19883663952350616,-0.39064833521842957
1702057860994451200,12.778451171875,-0.078343465924263,0.17730364203453064,-0.45555275678634644
1702057861011445000,12.795445068359374,-0.14095716178417206,0.29046642780303955,-0.28985556960105896
1702057861028428300,12.81242822265625,-0.26542094349861145,0.5148066878318787,-0.016798794269561768
1702057861045418000,12.82941796875,-0.2541199326515198,0.5010622143745422,0.10506882518529892
1702057861062430000,12.846429931640625,-0.08918632566928864,0.25595253705978394,-0.10018189996480942
1702057861079429000,12.86342919921875,0.12400564551353455,0.012828170321881771,-0.3332269787788391
1702057861096413400,12.880413330078126,0.08567385375499725,-0.04749477282166481,-0.3669773042201996
1702057861113397800,12.897397705078125,-0.1336267739534378,-0.009621127508580685,-0.2926044464111328
1702057861130400800,12.91440087890625,-0.26282477378845215,0.18051068484783173,-0.12782354652881622
1702057861147394300,12.931394287109375,-0.22311852872371674,0.2638937830924988,0.008704829961061478
1702057861164388000,12.94838818359375,-0.1264491081237793,0.23686300218105316,0.06505715101957321
1702057861181371400,12.965371337890625,0.03420845419168472,0.10735956579446793,0.07788532227277756
1702057861198375700,12.982375732421875,0.204487144947052,-0.15332718193531036,0.18539759516716003
1702057861215369200,12.999369140625,0.20891591906547546,-0.39767327904701233,0.40194934606552124
1702057861232372200,13.016372314453125,0.023365596309304237,-0.5436700582504272,0.5572618246078491
1702057861249354800,13.033354736328125,-0.2713768780231476,-0.347276896238327,0.5910121202468872
1702057861266350300,13.050350341796875,-0.5737552046775818,0.05054909735918045,0.5470298528671265
1702057861283344000,13.06734375,-0.5638286471366882,0.10430523753166199,0.6349944472312927
1702057861300337700,13.084337646484375,-0.2874121069908142,-0.11728613078594208,0.9199630618095398
1702057861317331200,13.101331298828125,0.028405234217643738,-0.5222898125648499,1.1913399696350098
1702057861334325000,13.118324951171875,0.039706241339445114,-0.6476698517799377,1.1091785430908203
1702057861351318800,13.13531884765625,-0.24846944212913513,-0.4392121136188507,0.6261368989944458
1702057861368312600,13.1523125,-0.2076941877603531,-0.20036379992961884,0.2871066629886627
1702057861385306000,13.16930615234375,-0.04795292019844055,-0.1238529309630394,0.24236078560352325
1702057861402300000,13.1862998046875,0.14187344908714294,-0.16325373947620392,0.4132503271102905
1702057861419293700,13.203293701171875,0.2958115041255951,-0.5012149214744568,0.5248859524726868
1702057861436287200,13.220287353515625,0.2984076738357544,-0.7200574278831482,0.3419318199157715
1702057861453280800,13.23728076171875,0.2506074607372284,-0.5699372887611389,0.07360926270484924
1702057861470274600,13.254274658203125,0.2002110779285431,-0.3927863538265228,-0.06429356336593628
1702057861487266300,13.271266357421876,0.056810468435287476,-0.2483167201280594,-0.2165517359972
1702057861504264700,13.2882646484375,-0.2096794992685318,-0.242513507604599,-0.18157969415187836
1702057861521255700,13.305255615234374,-0.2070833146572113,-0.15485434234142303,0.06643159687519073
1702057861538249200,13.322249267578124,0.1160643994808197,-0.4735732674598694,0.3462078869342804
1702057861555243000,13.339242919921874,0.2788599729537964,-0.9587529897689819,0.4619668424129486
1702057861572226000,13.35622607421875,0.24816401302814484,-1.1301007270812988,0.4769330322742462
1702057861589230300,13.373230224609374,0.08216137439012527,-1.06351637840271,0.42791110277175903
1702057861606213600,13.390213623046876,-0.12522737681865692,-0.841619610786438,0.25671613216400146
1702057861623218000,13.407218017578124,-0.0835358202457428,-0.532369077205658,0.06490442901849747
1702057861640211500,13.42421142578125,0.1540907621383667,-0.4349360466003418,0.11743884533643723
1702057861657205200,13.441205322265626,0.24236078560352325,-0.6724098920822144,0.30772337317466736
1702057861674198800,13.45819873046875,0.1036943718791008,-0.8746063113212585,0.4205807149410248
1702057861691192300,13.4751923828125,-0.1690569519996643,-0.970054030418396,0.5792529582977295
1702057861708186400,13.492186279296876,-0.4366159439086914,-0.8571966290473938,0.7832819819450378
1702057861725180000,13.509179931640626,-0.4737260043621063,-0.6023131608963013,0.8949176073074341
1702057861742173700,13.526173583984376,-0.24617868661880493,-0.5149593949317932,0.8323038816452026
1702057861759153000,13.54315283203125,-0.04092797264456749,-0.6444628238677979,0.646295428276062
1702057861776160800,13.560160888671875,-0.004428773187100887,-0.651029646396637,0.40362921357154846
1702057861793154600,13.577154541015625,-0.029016099870204926,-0.44135013222694397,0.2548835277557373
1702057861810161200,13.5941611328125,0.013897184282541275,-0.23884831368923187,0.1189660057425499
1702057861827142000,13.611141845703125,0.21578814089298248,-0.197004035115242,-0.07162395119667053
1702057861844135700,13.6281357421875,0.3715587854385376,-0.1895209401845932,-0.20387627184391022
1702057861861128200,13.645128173828125,0.3962988257408142,-0.10934487730264664,-0.33292156457901
1702057861878124000,13.6621240234375,0.3625485301017761,0.08506298810243607,-0.49006664752960205
1702057861895116800,13.67911669921875,0.3196352422237396,0.2785545587539673,-0.6336199641227722
1702057861912110300,13.6961103515625,0.28680121898651123,0.41462478041648865,-0.7357872128486633
1702057861929104000,13.713103759765625,0.27290403842926025,0.4129449129104614,-0.7115052938461304
1702057861946097700,13.73009765625,0.2695443034172058,0.35292738676071167,-0.5590944290161133
1702057861963091500,13.747091552734375,0.21960605680942535,0.2785545587539673,-0.33735033869743347
1702057861980085000,13.7640849609375,0.18096883594989777,0.3338378667831421,-0.1498146951198578
1702057861997077800,13.781077880859375,0.14645494520664215,0.5633704662322998,-0.027030786499381065
1702057862014072600,13.798072509765625,0.07635815441608429,0.5958990454673767,0.00855211354792118
1702057862031066400,13.81506640625,-0.007788531947880983,0.4505131244659424,-0.10720685124397278
1702057862048060000,13.832059814453125,0.01542434748262167,0.33735033869743347,-0.2871066629886627
1702057862065053400,13.849053466796875,0.11835514008998871,0.1215621829032898,-0.35124751925468445
1702057862082047200,13.866047119140624,0.1238529309630394,0.1638645976781845,-0.3026837408542633
1702057862099044000,13.883044189453125,0.03375030308961868,0.35705074667930603,-0.09117163717746735
1702057862116028700,13.900028564453125,0.07941248267889023,0.35705074667930603,-0.20051652193069458
1702057862133031000,13.917031005859375,0.1313360333442688,0.00931569468230009,-0.3019201457500458
1702057862150020900,13.934020751953126,0.019853120669722557,0.004886921960860491,-0.17272214591503143
1702057862167017000,13.951016845703125,-0.21853704750537872,0.5917757153511047,0.1082758679986
1702057862184009500,13.968009521484374,0.02015855349600315,0.717308521270752,-0.09728029370307922
1702057862200985300,13.9849853515625,0.3949243724346161,0.43875396251678467,-0.58062744140625
1702057862217996500,14.00199658203125,0.28206703066825867,0.3315471112728119,-0.39645153284072876
1702057862234990600,14.018990478515626,-0.33337971568107605,0.7420485615730286,0.5662720799446106
1702057862251984100,14.035984130859376,-0.8912523984909058,1.7111862897872925,1.13926362991333
1702057862268977700,14.052977783203126,-0.2716823220252991,1.5619823932647705,0.4801400899887085
1702057862285968600,14.06996875,0.6438519954681396,0.3049744665622711,-1.126588225364685
1702057862302967800,14.0869677734375,1.18492591381073,-0.7305948138237,-2.0981693267822266
1702057862319956200,14.103956298828125,1.0374019145965576,-0.7017314434051514,-1.680795669555664
1702057862336955100,14.120955078125,0.2721404731273651,0.15302173793315887,-0.5853615999221802
1702057862353941500,14.13794140625,-0.4392121136188507,0.9862419366836548,0.11774427443742752
1702057862370940000,14.15493994140625,-0.27382034063339233,1.1374311447143555,0.08109235763549805
1702057862387931000,14.171930908203125,0.2719877362251282,0.8909469842910767,-0.2600758671760559
1702057862404930000,14.188929931640626,0.7009678483009338,0.4743368625640869,-0.6110179424285889
1702057862421921000,14.205921142578125,0.7082982659339905,0.13271047174930573,-0.7689266204833984
1702057862438915800,14.222915771484375,0.3065016269683838,-0.11514809727668762,-0.48915034532546997
1702057862455908400,14.239908447265625,-0.34513887763023376,0.07269296050071716,0.17547103762626648
1702057862472902000,14.25690185546875,-0.9619600176811218,0.4486805200576782,0.8133670687675476
1702057862489895700,14.273895751953125,-1.151481032371521,0.6959282159805298,0.8379544019699097
1702057862506889700,14.2908896484375,-0.6728680729866028,0.8759807348251343,0.26251932978630066
1702057862523883000,14.307883056640625,0.09315694868564606,0.6505714654922485,-0.6126978397369385
1702057862540867000,14.3248671875,0.4564690589904785,0.37079519033432007,-1.1969904899597168
1702057862557870300,14.341870361328125,0.3378084897994995,0.4079052805900574,-1.0374019145965576
1702057862574864100,14.358864013671875,-0.039248090237379074,0.44913867115974426,-0.4271475374698639
1702057862591858000,14.37585791015625,-0.235030397772789,0.41172316670417786,0.16920967400074005
1702057862608851700,14.392851806640625,-0.13515393435955048,0.3228422701358795,0.22892175614833832
1702057862625845200,14.40984521484375,0.046273041516542435,0.17592918872833252,-0.1621847152709961
1702057862642839000,14.426839111328125,0.1915062516927719,0.1391245573759079,-0.5655084848403931
1702057862659832600,14.44383251953125,0.21731531620025635,0.056810468435287476,-0.6811147332191467
1702057862676823600,14.460823486328126,0.13271047174930573,0.023518312722444534,-0.4590652287006378
1702057862693822500,14.477822509765625,0.028557950630784035,-0.009162978269159794,-0.08261952549219131
1702057862710813700,14.494813720703124,-0.09468411654233932,-0.02076941914856434,0.23105977475643158
1702057862727807200,14.51180712890625,-0.1316414624452591,0.04199698567390442,0.34177911281585693
1702057862744801000,14.528801025390624,-0.017562376335263252,0.012522737495601177,0.265573650598526
1702057862761794600,14.545794677734374,0.10567969083786011,-0.21670444309711456,0.13057245314121246
1702057862778788400,14.562788330078124,0.0734565481543541,-0.4178318381309509,0.14523321390151978
1702057862795782000,14.579781982421874,-0.1293507218360901,-0.30695977807044983,0.30543261766433716
1702057862812765200,14.59676513671875,-0.23090706765651703,-0.22937989234924316,0.337503045797348
1702057862829769700,14.613769775390624,0.020463986322283745,-0.25702154636383057,0.3246748745441437
1702057862846763300,14.63076318359375,0.2171625941991806,-0.32268956303596497,0.2588541507720947
1702057862863756800,14.6477568359375,-0.009468411095440388,-0.3248275816440582,0.1768454909324646
1702057862880751000,14.664751220703126,-0.694248378276825,-0.007177666760981083,0.11255192011594772
1702057862897744100,14.681744140625,-1.1114692687988281,0.2347249686717987,0.17776179313659668
1702057862914721800,14.6987216796875,-0.6927211880683899,0.07131851464509964,0.28099802136421204
1702057862931731700,14.715731689453126,0.19013181328773499,-0.35842517018318176,0.23151792585849762
1702057862948725000,14.73272509765625,0.7574729323387146,-0.5157229900360107,0.012828170321881771
1702057862965719000,14.749718994140625,0.5036584138870239,-0.5447390675544739,-0.4031710624694824
1702057862982712600,14.766712646484375,-0.09941831976175308,-0.12568552792072296,-0.5187773108482361
1702057862999706400,14.783706298828125,-0.06688974797725677,0.20555615425109863,-0.2921462953090668
1702057863016700000,14.800699951171875,0.5685628056526184,-0.3068070709705353,0.0065668015740811825
1702057863033692700,14.817692626953125,1.0045678615570068,-0.8949176073074341,0.327729195356369
1702057863050688300,14.834688232421875,0.8724682927131653,-0.9106473922729492,0.5514585971832275
1702057863067678500,14.851678466796875,0.3147483170032501,-0.3949243724346161,0.5975789427757263
1702057863084677400,14.868677490234376,-0.23915374279022217,0.36331209540367126,0.4127921760082245
1702057863101668400,14.88566845703125,-0.3911064863204956,0.6423248052597046,0.006261368747800589
1702057863118662000,14.902661865234375,0.015882495790719986,0.05696318298578262,-0.3825543522834778
1702057863135656000,14.919656005859375,0.5653557777404785,-0.6811147332191467,-0.42898011207580566
1702057863152649500,14.9366494140625,0.7344127297401428,-0.8103127479553223,-0.15424346923828125
1702057863169643000,14.95364306640625,0.39385536313056946,-0.5254968404769897,0.18280142545700073
1702057863186636800,14.97063671875,-0.009162978269159794,-0.1270599663257599,0.30573806166648865
1702057863203630600,14.987630615234375,-0.26083946228027344,0.025503624230623245,0.3101668357849121
1702057863220624100,15.0046240234375,-0.1420261710882187,-0.15393804013729095,0.16172657907009125
1702057863237618200,15.0216181640625,0.19333885610103607,-0.554818332195282,0.007788531947880983
1702057863254611500,15.038611572265625,0.30375275015830994,-0.8856018781661987,0.014966198243200779
1702057863271594800,15.0555947265625,0.13545936346054077,-0.7864890098571777,0.15057829022407532
1702057863288585200,15.072585205078125,-0.08491026610136032,-0.41813725233078003,0.3312416672706604
1702057863305580000,15.089580078125,-0.17623461782932281,-0.1411098688840866,0.4225660264492035
1702057863322586400,15.10658642578125,0.01710422709584236,-0.31810808181762695,0.3326161205768585
1702057863339580000,15.123579833984374,0.2376265823841095,-0.5474879741668701,0.08002334833145142
1702057863356573700,15.14057373046875,0.31673362851142883,-0.6236934065818787,-0.08185594528913498
1702057863373567200,15.157567138671874,0.20784689486026764,-0.41141775250434875,-0.08765916526317596
1702057863390561000,15.17456103515625,0.06062837690114975,-0.14126259088516235,0.036651913076639175
1702057863407554800,15.191554931640624,0.06368270516395569,0.016798794269561768,0.15515977144241333
1702057863424548400,15.20854833984375,0.3228422701358795,-0.03191770985722542,0.1748601794242859
1702057863441542100,15.225542236328126,0.5233588218688965,-0.2580905556678772,0.07513642311096191
1702057863458533400,15.242533447265625,0.5555819272994995,-0.36331209540367126,-0.0835358202457428
1702057863475532000,15.259531982421874,0.45142942667007446,-0.3254384696483612,-0.24755313992500305
1702057863492523000,15.27652294921875,0.3095559775829315,-0.1918116807937622,-0.3654501438140869
1702057863509516800,15.293516845703126,0.30024027824401855,-0.023060163483023643,-0.42791110277175903
1702057863526510600,15.310510498046876,0.38408151268959045,0.07895433157682419,-0.4335615932941437
1702057863543504100,15.327504150390626,0.447000652551651,0.154396191239357,-0.42577308416366577
1702057863560498000,15.344497802734375,0.394008070230484,0.2145664244890213,-0.4847215712070465
1702057863577491500,15.361491455078125,0.31413745880126953,0.266184538602829,-0.60429847240448
1702057863594485200,15.3784853515625,0.3023782968521118,0.3491095006465912,-0.661719799041748
1702057863611479000,15.39547900390625,0.337044894695282,0.37888917326927185,-0.5991060733795166
1702057863628472600,15.41247265625,0.3507893681526184,0.41340306401252747,-0.5233588218688965
1702057863645466400,15.42946630859375,0.3006984293460846,0.30604347586631775,-0.6140722632408142
1702057863662449700,15.44644970703125,0.26404649019241333,0.21884247660636902,-0.8203920125961304
1702057863679453700,15.46345361328125,0.24068090319633484,0.27779096364974976,-0.6918048858642578
1702057863696447500,15.480447509765625,0.043218716979026794,0.5071708559989929,-0.49006664752960205
1702057863713441000,15.49744091796875,0.04337143152952194,0.6302602291107178,-0.5716171264648438
1702057863730434800,15.514434814453125,0.2695443034172058,0.17608191072940826,-0.8936958312988281
1702057863747428400,15.531428466796875,0.35033121705055237,0.3675881624221802,-0.9683741331100464
1702057863764422100,15.548422119140625,0.25244006514549255,0.9004153609275818,-0.2396118938922882
1702057863781415700,15.565415771484375,0.2987131178379059,0.8045095205307007,0.2782491147518158
1702057863798409700,15.58240966796875,0.4155410826206207,0.3147483170032501,0.14676037430763245
1702057863815403300,15.5994033203125,0.47189339995384216,-0.1716531366109848,-0.4444044530391693
1702057863832396800,15.616396728515625,0.34834590554237366,-0.04352414980530739,-0.8578075170516968
1702057863849386200,15.63338623046875,0.06444628536701202,0.23777928948402405,-0.703411340713501
1702057863866388700,15.650388671875,-0.18799377977848053,0.32498031854629517,-0.32879820466041565
1702057863883378000,15.6673779296875,-0.4421137273311615,0.014966198243200779,0.03329215571284294
1702057863900371500,15.684371337890624,-0.33292156457901,-0.09926560521125793,0.128434419631958
1702057863917365200,15.701365234375,-0.1598939746618271,0.06979135423898697,0.15500704944133759
1702057863934359000,15.718359130859374,-0.28496864438056946,0.23884831368923187,0.042760565876960754
1702057863951352000,15.73535205078125,-0.5676465034484863,0.37369680404663086,-0.07681630551815033
1702057863968346400,15.752346435546874,-0.6075055003166199,0.47998735308647156,-0.2148718535900116
1702057863985340000,15.76933984375,-0.40454551577568054,0.437226802110672,-0.15561792254447937
1702057864002334000,15.786333984375,-0.10461067408323288,0.3631593883037567,0.059864792972803116
1702057864019327200,15.8033271484375,0.17592918872833252,0.1235474944114685,0.26771169900894165
1702057864036321000,15.820321044921876,0.14905111491680145,-0.12950342893600464,0.3104722499847412
1702057864053314800,15.837314697265626,-0.20570887625217438,-0.00855211354792118,0.32681289315223694
1702057864070308600,15.85430859375,-0.5742133259773254,0.5143485069274902,0.3851505517959595
1702057864087302100,15.87130224609375,-0.3139847218990326,0.5114469528198242,0.33628132939338684
1702057864104305700,15.8883056640625,0.15546520054340363,-0.016340645030140877,-0.06551529467105865
1702057864121289500,15.90528955078125,0.3604104816913605,-0.3039054572582245,-0.34605515003204346
1702057864138268200,15.92226806640625,0.19853121042251587,-0.21181751787662506,-0.24648413062095642
1702057864155276800,15.93927685546875,-0.20265454053878784,0.18127426505088806,0.041691552847623825
1702057864172260400,15.95626025390625,-0.5334380865097046,0.44852781295776367,0.3628539443016052
1702057864189264100,15.97326416015625,-0.5526803135871887,0.4239404797554016,0.5279402732849121
1702057864206254600,15.990254638671875,-0.34055736660957336,0.18325957655906677,0.4639521539211273
1702057864223241500,16.007241455078123,-0.12400564551353455,-0.024129176512360573,0.2454151064157486
1702057864240237300,16.0242373046875,-0.04566217586398125,-0.00855211354792118,0.04917465150356293
1702057864257239000,16.041239013671873,-0.13775011897087097,0.06429356336593628,-0.02580905705690384
1702057864274235600,16.058235595703124,-0.15760323405265808,0.030085112899541855,-0.015577063895761967
1702057864291226400,16.075226318359373,-0.04444044828414917,-0.0019853119738399982,0.029168816283345222
1702057864308218400,16.09221826171875,0.025503624230623245,0.024129176512360573,0.09376781433820724
1702057864325213700,16.109213623046877,0.007941247895359993,0.03573561832308769,0.16264286637306213
1702057864342207500,16.12620751953125,-0.03237585723400116,0.02580905705690384,0.20845776796340942
1702057864359201000,16.143200927734377,-0.02168571576476097,-0.056810468435287476,0.1941024363040924
1702057864376194800,16.16019482421875,0.06108652427792549,-0.1443169116973877,0.1492038369178772
1702057864393188600,16.177188720703125,0.07147123664617538,-0.17898350954055786,0.13729196786880493
1702057864410182400,16.194182373046875,-0.0835358202457428,-0.07437284290790558,0.16401731967926025
1702057864427176000,16.211176025390625,-0.3142901659011841,0.17012597620487213,0.14553864300251007
1702057864444169500,16.22816943359375,-0.4763221740722656,0.2658790946006775,-0.1033889427781105
1702057864461170200,16.245170166015626,-0.17272214591503143,0.009010262787342072,-0.46242499351501465
1702057864478154200,16.262154296875,0.49754974246025085,-0.7081455588340759,-0.6299547553062439
1702057864495153200,16.279153076171873,0.7360926270484924,-1.395521640777588,-0.23289237916469574
1702057864512144400,16.296144287109374,0.26572638750076294,-1.6186401844024658,0.3208569586277008
1702057864529140700,16.313140625,-0.5899431109428406,-1.3185526132583618,0.664315938949585
1702057864546134500,16.330134521484375,-1.2463178634643555,-0.5659666657447815,0.7875580191612244
1702057864563125200,16.347125244140624,-1.0651962757110596,0.16554448008537292,0.6021603941917419
1702057864580119000,16.364119140625,-0.008246680721640587,0.23900102078914642,-0.11728613078594208
1702057864597112600,16.381112548828124,0.8254316449165344,-0.6249151229858398,-0.9430232048034668
1702057864614106400,16.3981064453125,0.8155050873756409,-1.0771081447601318,-1.1287262439727783
1702057864631100200,16.41510009765625,0.16310101747512817,-0.9251554012298584,-0.6443101167678833
1702057864648093700,16.43209375,-0.5232060551643372,-0.42302417755126953,0.041233405470848083
1702057864665087500,16.44908740234375,-0.4834998548030853,-0.07070764899253845,0.5193881988525391
1702057864682081000,16.4660810546875,-0.038179077208042145,-0.2770273983478546,0.5369505286216736
1702057864699088400,16.48308837890625,0.2562579810619354,-0.4486805200576782,0.1872301995754242
1702057864716068400,16.500068359375,0.19425514340400696,-0.275958389043808,-0.11698069423437119
1702057864733062100,16.517062255859376,-0.06811147183179855,-0.11102475970983505,-0.2252565622329712
1702057864750056000,16.534055908203126,-0.39584067463874817,-0.08307767659425735,-0.19837848842144012
1702057864767049500,16.551049560546875,-0.4616613984107971,-0.12079860270023346,-0.058184914290905
1702057864784040700,16.568040771484377,-0.1716531366109848,-0.18936823308467865,0.13820825517177582
1702057864801039600,16.58503955078125,0.14324790239334106,-0.2739730477333069,0.3628539443016052
1702057864818042600,16.602042724609376,0.1820378452539444,-0.30543261766433716,0.5097670555114746
1702057864835037400,16.619037353515626,-0.031001411378383636,-0.2698497176170349,0.5734497308731079
1702057864852018000,16.636017822265625,-0.25366178154945374,-0.23426681756973267,0.5728389024734497
1702057864869011700,16.65301171875,-0.35674530267715454,-0.19792033731937408,0.5676465034484863
1702057864886005200,16.670005126953125,-0.23289237916469574,-0.23457226157188416,0.6073527932167053
1702057864902996500,16.68699658203125,-0.05100724846124649,-0.34437528252601624,0.6073527932167053
1702057864919995400,16.703995361328126,0.04505131021142006,-0.3856086730957031,0.619111955165863
1702057864936985300,16.7209853515625,-0.046273041516542435,-0.4118759036064148,0.6339253783226013
1702057864953981000,16.73798095703125,-0.26083946228027344,-0.38117989897727966,0.5801692605018616
1702057864970974000,16.754973876953127,-0.4332561790943146,-0.26374107599258423,0.5300782918930054
1702057864987967500,16.771967529296877,-0.417679101228714,-0.13775011897087097,0.49235737323760986
1702057865004961300,16.788961181640627,-0.19226983189582825,-0.11056660860776901,0.41004329919815063
1702057865021954800,16.805954833984377,-0.001679879380390048,-0.12324206531047821,0.26633724570274353
1702057865038948600,16.822948486328126,0.031001411378383636,0.018020525574684143,0.051770828664302826
1702057865055931600,16.839931640625,-0.005039638374000788,0.18112154304981232,-0.19792033731937408
1702057865072936000,16.85693603515625,-0.08139779418706894,0.2405281960964203,-0.37140607833862305
1702057865089919200,16.873919189453126,-0.10216721147298813,0.24724771082401276,-0.4265366494655609
1702057865106923500,16.890923583984375,-0.055283304303884506,0.24908030033111572,-0.32757648825645447
1702057865123917000,16.9079169921875,-0.040164388716220856,0.327271044254303,-0.09697485715150833
1702057865140910600,16.92491064453125,-0.1472185254096985,0.44364088773727417,0.1869247704744339
1702057865157904400,16.941904296875,-0.2750420868396759,0.5047274231910706,0.3504839241504669
1702057865174898200,16.958898193359374,-0.33429601788520813,0.4943426847457886,0.26343563199043274
1702057865191899600,16.975899658203126,-0.2506074607372284,0.31444287300109863,0.030237829312682152
1702057865208885500,16.992885498046874,-0.18799377977848053,0.27320948243141174,-0.22342395782470703
1702057865225879000,17.009879150390624,-0.08460483700037003,0.22372940182685852,-0.3286454975605011
1702057865242873000,17.026873046875,0.04245513305068016,0.547182559967041,-0.5442809462547302
1702057865259866400,17.043866455078124,0.22647829353809357,0.6869179606437683,-0.993725061416626
1702057865276860400,17.0608603515625,0.1719585657119751,0.9109528064727783,-1.5502232313156128
1702057865293853700,17.077853759765624,0.17638733983039856,0.9682214260101318,-1.632842779159546
1702057865310847500,17.094847412109374,0.10354165732860565,0.8242099285125732,-1.267392635345459
1702057865327841000,17.111841064453124,-0.11789698898792267,0.46181413531303406,-0.764955997467041
1702057865344834800,17.128834716796874,-0.3393356502056122,0.08307767659425735,-0.3084869384765625
1702057865361828600,17.14582861328125,-0.4680754840373993,0.20143280923366547,-0.014508049935102463
1702057865378822100,17.162822265625,-0.5177083015441895,0.4528038501739502,0.10201449692249298
1702057865395816000,17.17981591796875,-0.6592763066291809,0.3562871515750885,0.07452555745840073
1702057865412809500,17.1968095703125,-0.7922922372817993,0.13469578325748444,0.04657847434282303
1702057865429800700,17.21380078125,-0.6104071140289307,0.19853121042251587,-0.18707747757434845
1702057865446799600,17.230799560546874,-0.40775254368782043,0.27840182185173035,-0.37522396445274353
1702057865463786000,17.247785888671874,-0.3530801236629486,0.20173825323581696,-0.32910364866256714
1702057865480769500,17.26476953125,-0.4928155243396759,-0.009162978269159794,0.19975294172763824
1702057865497782300,17.2817822265625,-0.6892086863517761,0.003512475173920393,0.7481572031974792
1702057865514771700,17.298771728515625,-0.7449501752853394,0.3300199508666992,0.8428413271903992
1702057865531765500,17.315765625,-0.5407684445381165,0.6537785530090332,0.4922046661376953
1702057865548755500,17.33275537109375,-0.32528573274612427,0.8196284174919128,0.052839845418930054
1702057865565756400,17.34975634765625,-0.27809640765190125,0.5998696684837341,-0.2860376536846161
1702057865582746400,17.366746337890625,-0.4193589985370636,0.3689626157283783,-0.16065755486488342
1702057865599729400,17.3837294921875,-0.5418374538421631,0.5070181488990784,0.13469578325748444
1702057865616733700,17.400733642578125,-0.15195272862911224,0.43279802799224854,0.20112738013267517
1702057865633727500,17.4177275390625,0.1696678251028061,0.22876903414726257,-0.008857546374201775
1702057865650721300,17.43472119140625,0.24236078560352325,0.07987063378095627,-0.36392298340797424
1702057865667714800,17.45171484375,0.08827003091573715,-0.05513058975338936,-0.6389650702476501
1702057865684708600,17.46870849609375,-0.20830504596233368,0.00015271631127689034,-0.5448917746543884
1702057865701702100,17.4857021484375,-0.46822822093963623,0.247094988822937,-0.07131851464509964
1702057865718696000,17.502696044921876,-0.5381723046302795,0.42348232865333557,0.3927863538265228
1702057865735689500,17.519689453125,-0.380721777677536,0.4115704596042633,0.531147301197052
1702057865752683300,17.536683349609376,-0.15683965384960175,0.41340306401252747,0.35124751925468445
1702057865769677000,17.553677001953126,0.044135015457868576,0.33200526237487793,0.005650503560900688
1702057865786670600,17.570670654296876,0.05726861581206322,0.10216721147298813,-0.29016098380088806
1702057865803663000,17.5876630859375,-0.12950342893600464,0.032681290060281754,-0.3010038435459137
1702057865820656600,17.60465673828125,-0.30222558975219727,0.20341812074184418,-0.09498954564332962
1702057865837654300,17.621654296875,-0.29077184200286865,0.29794952273368835,0.09239336848258972
1702057865854645200,17.638645263671876,-0.19028452038764954,0.3127630054950714,0.1722639948129654
1702057865871633200,17.655633056640625,-0.11407908797264099,0.22968533635139465,0.15974126756191254
1702057865888630300,17.67263037109375,-0.09224065393209457,0.10949759185314178,0.12247848510742188
1702057865905629200,17.689629150390626,-0.1690569519996643,0.009773843921720982,0.11957687139511108
1702057865922620200,17.7066201171875,-0.28435778617858887,-0.047800205647945404,0.21334469318389893
1702057865939613700,17.72361376953125,-0.30634891986846924,-0.03084869496524334,0.31352660059928894
1702057865956607500,17.740607421875,-0.2047925740480423,-0.1716531366109848,0.3500257730484009
1702057865973598500,17.757598388671877,-0.00733038317412138,-0.3202461004257202,0.37659841775894165
1702057865990597600,17.77459765625,0.1696678251028061,-0.44318273663520813,0.451123982667923
1702057866007588900,17.7915888671875,0.06490442901849747,-0.40072759985923767,0.5648976564407349
1702057866024582100,17.80858203125,-0.3214678466320038,-0.11728613078594208,0.5983424782752991
1702057866041576000,17.825575927734373,-0.6892086863517761,0.2739730477333069,0.5006040930747986
1702057866058569500,17.842569580078123,-0.5305364727973938,0.32162055373191833,0.4645630121231079
1702057866075553300,17.85955322265625,-0.11698069423437119,0.005497787147760391,0.45524731278419495
1702057866092557000,17.87655712890625,0.039248090237379074,-0.3407101035118103,0.4502076804637909
1702057866109550800,17.89355078125,-0.13668109476566315,-0.5619960427284241,0.42959097027778625
1702057866126544400,17.91054443359375,-0.23854288458824158,-0.5258022546768188,0.3888157308101654
1702057866143538200,17.9275380859375,-0.019853120669722557,-0.5351179838180542,0.3712533414363861
1702057866160531700,17.94453173828125,0.25014930963516235,-0.6772968173027039,0.31841349601745605
1702057866177525200,17.961525146484377,0.2779437005519867,-0.6997461318969727,0.39584067463874817
1702057866194519000,17.97851904296875,-0.06811147183179855,-0.46379944682121277,0.42439863085746765
1702057866211512800,17.995512939453125,-0.6243042945861816,-0.03451388701796532,0.4847215712070465
1702057866228506400,18.01250634765625,-0.7318165898323059,0.32421672344207764,0.622013509273529
1702057866245502200,18.029502197265625,-0.15164729952812195,-0.05207626149058342,0.6359107494354248
1702057866262499300,18.046499267578124,0.44226643443107605,-0.6223189830780029,0.47739118337631226
1702057866279485000,18.06348486328125,0.6259841322898865,-0.8112290501594543,0.3248275816440582
1702057866296483600,18.080483642578123,0.46303585171699524,-0.5042692422866821,0.13805554807186127
1702057866313475000,18.09747509765625,0.1690569519996643,-0.06505715101957321,-0.05803219974040985
1702057866330468600,18.114468505859374,0.01542434748262167,0.12079860270023346,-0.2226603776216507
1702057866347453200,18.131453125,0.12492194026708603,-0.10659598559141159,-0.3127630054950714
1702057866364445400,18.148445556640624,0.36651915311813354,-0.31154128909111023,-0.22052235901355743
1702057866381448200,18.1654482421875,0.5818491578102112,-0.4075998365879059,0.06123924255371094
1702057866398444800,18.18244482421875,0.5403103232383728,-0.3504839241504669,0.3170390725135803
1702057866415436800,18.199436767578124,0.32620203495025635,-0.13408492505550385,0.41951170563697815
1702057866432432000,18.21643212890625,-0.14049901068210602,-0.0007635815418325365,0.45875978469848633
1702057866449424400,18.23342431640625,-0.5503895878791809,-0.010231993161141872,0.517250120639801
1702057866466418200,18.250418212890626,-0.48808133602142334,-0.30375275015830994,0.6125451326370239
1702057866483411700,18.26741162109375,-0.0685696229338646,-0.6800457239151001,0.7304421067237854
1702057866500405500,18.284405517578126,0.2704605758190155,-0.8074111342430115,0.8764389157295227
1702057866517399000,18.30139892578125,0.2710714638233185,-0.8399397134780884,0.9834930300712585
1702057866534392800,18.318392822265626,0.03451388701796532,-0.7347181439399719,0.8920159935951233
1702057866551386400,18.335386474609376,-0.20784689486026764,-0.5064072608947754,0.7195992469787598
1702057866568380200,18.352380126953125,-0.2719877362251282,-0.2554943859577179,0.5566509366035461
1702057866585373700,18.369373779296875,-0.1420261710882187,-0.17440202832221985,0.3459024429321289
1702057866602367500,18.386367431640625,-0.01863138936460018,-0.1518000066280365,0.08674286305904388
1702057866619361000,18.403361083984375,0.03191770985722542,0.05910121276974678,-0.21563543379306793
1702057866636354800,18.420354736328125,0.01191187184303999,0.27947086095809937,-0.4392121136188507
1702057866653345300,18.43734521484375,-0.012828170321881771,0.3065016269683838,-0.566119372844696
1702057866670342100,18.454342041015625,0.009468411095440388,0.3286454975605011,-0.5335907936096191
1702057866687336000,18.4713359375,0.045204028487205505,0.31123584508895874,-0.24526239931583405
1702057866704319200,18.4883193359375,0.13057245314121246,0.2669481039047241,0.0630718395113945
1702057866721326300,18.505326416015624,0.26832255721092224,0.14828753471374512,0.2047925740480423
1702057866738306300,18.522306396484375,0.18845193088054657,0.2344195395708084,0.23075434565544128
1702057866755310800,18.539310791015627,-0.0861319974064827,0.4242459237575531,0.21594086289405823
1702057866772304400,18.556304443359377,-0.39446622133255005,0.6957755088806152,0.07590000331401825
1702057866789298000,18.5732978515625,-0.44715335965156555,0.5050328373908997,0.00366519158706069
1702057866806292000,18.5902919921875,-0.3901901841163635,0.22571471333503723,-0.003817907767370343
1702057866823285200,18.60728515625,-0.26939156651496887,0.025656340643763542,0.11316278576850891
1702057866840279000,18.624279052734376,-0.24404066801071167,0.12247848510742188,0.08720101416110992
1702057866857272800,18.64127294921875,-0.30512720346450806,0.2590068578720093,-0.1310305893421173
1702057866874266400,18.658266357421876,-0.2503020465373993,0.5331326723098755,-0.32100969552993774
1702057866891260200,18.67526025390625,0.11560624837875366,0.6455318331718445,-0.394618958234787
1702057866908254000,18.69225390625,0.36560285091400146,0.5343543887138367,-0.43279802799224854
1702057866925247700,18.709247802734374,0.403781920671463,0.0835358202457428,-0.6837109327316284
1702057866942241300,18.7262412109375,0.1647808998823166,-0.10323622822761536,-0.9434813857078552
1702057866959234800,18.74323486328125,-0.13286319375038147,0.413097620010376,-0.8176431059837341
1702057866976228600,18.760228515625,-0.16982053220272064,0.82207190990448,-0.4265366494655609
1702057866993222400,18.777222412109374,-0.004886921960860491,0.7157813310623169,-0.26939156651496887
1702057867010216000,18.7942158203125,0.27519479393959045,0.22189679741859436,-0.4538728892803192
1702057867027209500,18.81120947265625,0.22999076545238495,0.4404338300228119,-0.5320636034011841
1702057867044203300,18.828203369140624,-0.2356412708759308,1.3764320611953735,-0.3982841372489929
1702057867061197000,18.845197021484374,-0.8787296414375305,1.91231369972229,-0.09529497474431992
1702057867078190600,18.862190673828124,-1.0172433853149414,1.3585642576217651,0.26221391558647156
1702057867095184400,18.879184326171874,-0.7773260474205017,0.39904773235321045,0.4870123267173767
1702057867112160000,18.896159912109376,-0.47937649488449097,0.07483099400997162,0.4262312352657318
1702057867129172500,18.91317236328125,-0.270766019821167,0.3701843321323395,0.009010262787342072
1702057867146165500,18.93016552734375,0.13530665636062622,0.5422956347465515,-0.6569855809211731
1702057867163159000,18.947158935546874,0.2590068578720093,0.0832303911447525,-1.1232284307479858
1702057867180152800,18.96415283203125,-0.015271631069481373,-0.1817324161529541,-0.9723447561264038
1702057867197146400,18.981146484375,-0.45142942667007446,0.1615738570690155,-0.11102475970983505
1702057867214133000,18.998133056640626,-0.7310529947280884,0.6809620261192322,0.6559165716171265
1702057867231133700,19.0151337890625,-0.6433938145637512,0.7246388792991638,0.6957755088806152
1702057867248127500,19.03212744140625,-0.20983220636844635,0.47769662737846375,-0.04581489413976669
1702057867265121300,19.049121337890625,0.2545780837535858,0.11743884533643723,-0.9271407127380371
1702057867282114800,19.06611474609375,0.3533855378627777,-0.04260785132646561,-1.2244794368743896
1702057867299108600,19.083108642578125,0.14065171778202057,0.013439035043120384,-0.8665123581886292
1702057867316101000,19.10010107421875,-0.1437060534954071,0.10995574295520782,-0.21930062770843506
1702057867333100500,19.1171005859375,-0.289702832698822,0.1869247704744339,0.25671613216400146
1702057867350076000,19.134075927734376,-0.342237263917923,0.24953845143318176,0.3859141170978546
1702057867367082000,19.15108203125,-0.3413209617137909,0.30543261766433716,0.15531249344348907
1702057867384077000,19.1680771484375,-0.3228422701358795,0.2515237629413605,-0.11621711403131485
1702057867401070000,19.185070068359376,-0.39843684434890747,0.11881329119205475,-0.11026117950677872
1702057867418053400,19.202053466796876,-0.4836525619029999,0.12110403180122375,0.26450464129447937
1702057867435059000,19.219058837890625,-0.4535674452781677,0.1235474944114685,0.6696610450744629
1702057867452051700,19.2360517578125,-0.2503020465373993,-0.039248090237379074,0.7709119319915771
1702057867469045500,19.25304541015625,0.06979135423898697,-0.21135938167572021,0.6244570016860962
1702057867486034400,19.270034423828125,0.21135938167572021,-0.37888917326927185,0.3410155177116394
1702057867503032800,19.28703271484375,-0.026114489883184433,-0.32039880752563477,0.06979135423898697
1702057867520026400,19.3040263671875,-0.3449861407279968,-0.08536841720342636,-0.02672535367310047
1702057867537017900,19.321017822265624,-0.28955012559890747,-0.24892759323120117,0.28955012559890747
1702057867554013700,19.338013671875,-0.045204028487205505,-0.35552358627319336,0.7341073155403137
1702057867571010000,19.355010009765625,0.11438451707363129,-0.43050727248191833,1.0083857774734497
1702057867588001000,19.3720009765625,-0.13759739696979523,-0.3289509415626526,0.8249735236167908
1702057867604995000,19.3889951171875,-0.7237225770950317,0.014355333521962166,0.3023782968521118
1702057867621988600,19.405988525390626,-1.2179125547409058,0.3016147017478943,-0.24037547409534454
1702057867638982100,19.422982177734376,-1.3232868909835815,0.18157969415187836,-0.38347065448760986
1702057867655976000,19.439975830078126,-0.9130908250808716,-0.03955352306365967,-0.13515393435955048
1702057867672969500,19.456969482421876,-0.1963931769132614,-0.6262896060943604,0.3168863356113434
1702057867689963300,19.47396337890625,0.26145032048225403,-1.11391282081604,0.6452264189720154
1702057867706957000,19.49095703125,0.26969701051712036,-1.1105530261993408,0.7652614116668701
1702057867723950800,19.507950927734374,0.07330382615327835,-0.6126978397369385,0.6498079299926758
1702057867740944400,19.5249443359375,-0.20143280923366547,0.06520986557006836,0.2971859276294708
1702057867757938000,19.54193798828125,-0.2687807083129883,0.3620903789997101,-0.13973543047904968
1702057867774931700,19.558931640625,-0.1371392458677292,0.3712533414363861,-0.294437050819397
1702057867791925500,19.575925537109374,0.07040221989154816,0.0988074541091919,-0.12095131725072861
1702057867808921600,19.592921630859376,0.1316414624452591,-0.18936823308467865,0.30970868468284607
1702057867825910000,19.609909912109377,0.00809396430850029,-0.048716504126787186,0.7334964275360107
1702057867842906600,19.62690673828125,-0.11667526513338089,0.05864306539297104,0.9921978712081909
1702057867859889700,19.6438896484375,-0.2301434874534607,-0.018936822190880775,1.0505355596542358
1702057867876893700,19.660893798828123,-0.25244006514549255,-0.13011430203914642,1.0361801385879517
1702057867893887500,19.677887451171873,-0.1716531366109848,-0.2519819140434265,0.9834930300712585
1702057867910881000,19.694881103515623,-0.054367005825042725,-0.294895201921463,0.8909469842910767
1702057867927863600,19.711863525390626,0.07773260027170181,-0.34987306594848633,0.8434522151947021
1702057867944868400,19.728868408203127,0.16432274878025055,-0.5534439086914062,0.7954992651939392
1702057867961862100,19.745862060546877,0.10262536257505417,-0.7189884185791016,0.7710646390914917
1702057867978855700,19.762855712890627,-0.003817907767370343,-0.8055785298347473,0.8313875794410706
1702057867995849500,19.779849365234377,-0.03756821155548096,-0.6904304623603821,0.8804095387458801
1702057868012840700,19.7968408203125,0.02977968007326126,-0.3778201639652252,0.8278751373291016
1702057868029839600,19.813839599609373,0.18280142545700073,-0.1414152979850769,0.6565274000167847
1702057868046830600,19.83083056640625,0.3162754774093628,-0.22632557153701782,0.413555771112442
1702057868063824100,19.84782421875,0.34147366881370544,-0.26969701051712036,0.09544769674539566
1702057868080818000,19.86481787109375,0.3978259861469269,-0.01160643994808197,-0.2064724564552307
1702057868097811700,19.881811767578125,0.4915938079357147,0.10613783448934555,-0.4231768846511841
1702057868114805200,19.89880517578125,0.4996877610683441,0.20311269164085388,-0.6117815375328064
1702057868131799000,19.915799072265624,0.4147774875164032,0.235030397772789,-0.7805330753326416
1702057868148792800,19.932792724609374,0.33108896017074585,0.19944749772548676,-0.9382890462875366
1702057868165786400,19.949786376953124,0.36789360642433167,0.1466076523065567,-1.0027352571487427
1702057868182780200,19.9667802734375,0.43646320700645447,0.14508049190044403,-0.9576839804649353
1702057868199773700,19.983773681640624,0.46410486102104187,0.03527746722102165,-0.8072584271430969
1702057868216771800,20.000771728515623,0.3582724630832672,0.08246681094169617,-0.6001750826835632
1702057868233761300,20.01776123046875,0.19868391752243042,0.2733621895313263,-0.38896843791007996
1702057868250754800,20.0347548828125,0.1394299864768982,0.28099802136421204,-0.2678644061088562
1702057868267748400,20.051748291015624,0.23060162365436554,0.1371392458677292,-0.29336804151535034
1702057868284742100,20.0687421875,0.32268956303596497,0.04108068719506264,-0.4205807149410248
1702057868301736000,20.08573583984375,0.342695415019989,-0.06841690838336945,-0.5545129179954529
1702057868318729500,20.1027294921875,0.2883284091949463,0.04108068719506264,-0.6113234162330627
1702057868335723500,20.1197236328125,0.2539672255516052,0.22052235901355743,-0.6725626587867737
1702057868352717000,20.136717041015626,0.37888917326927185,0.2834414839744568,-0.7991644740104675
1702057868369710600,20.153710693359375,0.5853615999221802,0.3271183371543884,-0.9056077003479004
1702057868386704400,20.170704345703125,0.6772968173027039,0.16539175808429718,-0.9199630618095398
1702057868403695400,20.1876953125,0.5435173511505127,0.025656340643763542,-1.0039570331573486
1702057868420694300,20.2046943359375,0.33536502718925476,0.0065668015740811825,-1.1607966423034668
1702057868437685200,20.221685302734375,0.38606682419776917,0.0403171069920063,-1.050840973854065
1702057868454666200,20.238666259765626,0.5195409059524536,0.22876903414726257,-0.6239988207817078
1702057868471672800,20.2556728515625,0.41431936621665955,0.4758640229701996,-0.37262779474258423
1702057868488666600,20.27266650390625,0.2837468981742859,0.32559117674827576,-0.5096143484115601
1702057868505649700,20.289649658203125,0.13545936346054077,0.055283304303884506,-0.9094256162643433
1702057868522653700,20.30665380859375,0.1437060534954071,-0.1287398487329483,-0.8988882303237915
1702057868539647700,20.323647705078123,0.13118331134319305,0.242513507604599,-0.4720461070537567
1702057868556641300,20.340641357421877,0.07849618047475815,0.5378668308258057,-0.22968533635139465
1702057868573634800,20.357634765625,0.18005253374576569,0.26419922709465027,-0.36789360642433167
1702057868590628400,20.37462841796875,0.327729195356369,-0.21288654208183289,-0.6433938145637512
1702057868607622100,20.3916220703125,0.41493022441864014,-0.5224425196647644,-0.651029646396637
1702057868624615700,20.40861572265625,0.2623666226863861,-0.2612976133823395,-0.39736783504486084
1702057868641609500,20.425609375,0.25213462114334106,0.08491026610136032,-0.26939156651496887
1702057868658602000,20.44260205078125,0.47769662737846375,0.15073099732398987,-0.15134187042713165
1702057868675596800,20.4595966796875,0.4683809280395508,-0.10201449692249298,0.18219055235385895
1702057868692589000,20.476589111328124,0.28680121898651123,-0.0910189226269722,0.4005748927593231
1702057868709586000,20.4935859375,-0.0013744467869400978,0.06551529467105865,0.3839288055896759
1702057868726571800,20.51057177734375,-0.14782938361167908,0.19074267148971558,0.1088867336511612
1702057868743569700,20.527569580078126,0.03329215571284294,0.19333885610103607,-0.327729195356369
1702057868760565500,20.5445654296875,0.24755313992500305,0.1088867336511612,-0.46211954951286316
1702057868777559000,20.56155908203125,0.1736384481191635,0.15302173793315887,-0.15806138515472412
1702057868794550000,20.578550048828124,-0.14324790239334106,0.26969701051712036,0.17256943881511688
1702057868811549000,20.595548828125,-0.32650747895240784,0.39736783504486084,0.41202861070632935
1702057868828540000,20.612539794921876,-0.30802878737449646,0.5816964507102966,0.5490151643753052
1702057868845533700,20.62953369140625,-0.11133018881082535,0.6798930168151855,0.44425174593925476
1702057868862527500,20.646527587890624,0.21578814089298248,0.6090326309204102,0.02519819140434265
1702057868879521000,20.66352099609375,0.5557346343994141,0.21670444309711456,-0.3732386529445648
1702057868896514800,20.680514892578124,0.5968153476715088,-0.021074850112199783,-0.4824308156967163
1702057868913504800,20.6975048828125,0.3072652220726013,-0.0013744467869400978,-0.2730567753314972
1702057868930502100,20.714502197265624,-0.09544769674539566,0.2454151064157486,0.10720685124397278
1702057868947496000,20.731495849609374,-0.3828597962856293,0.4492913782596588,0.2791654169559479
1702057868964489500,20.748489501953124,-0.308792382478714,0.37201693654060364,0.19486601650714874
1702057868981474600,20.765474609375,-0.07299839705228806,0.2076941877603531,0.01114829070866108
1702057868998476800,20.782476806640624,0.08200865983963013,0.03329215571284294,-0.14049901068210602
1702057869015470600,20.799470703125,0.09315694868564606,-0.09926560521125793,-0.1999056488275528
1702057869032464100,20.816464111328123,0.004123340360820293,-0.18524488806724548,-0.20876319706439972
1702057869049458000,20.8334580078125,-0.06169738993048668,-0.2542726695537567,-0.11988230794668198
1702057869066453800,20.850453857421876,-0.047800205647945404,-0.23884831368923187,0.06811147183179855
1702057869083443000,20.86744287109375,-0.03191770985722542,-0.2736676335334778,0.27290403842926025
1702057869100448000,20.884447998046873,-0.07696902006864548,-0.2996293902397156,0.3718642294406891
1702057869117434600,20.9014345703125,-0.1768454909324646,-0.2600758671760559,0.2825251817703247
1702057869134428000,20.918427978515624,-0.21960605680942535,-0.13561208546161652,0.07254024595022202
1702057869151418400,20.93541845703125,-0.23029619455337524,-0.06673702597618103,-0.11698069423437119
1702057869168413700,20.95241357421875,-0.07208210229873657,-0.15882496535778046,0.0656680166721344
