time,seconds_elapsed,z,y,x
1700939083366669800,0.148669921875,8.45344352722168,4.751470565795898,1.4828767776489258
1700939083383666700,0.165666748046875,8.460594177246094,4.741979122161865,1.4724390506744385
1700939083400656000,0.18265576171875,8.464445114135742,4.738102912902832,1.462755560874939
1700939083417634800,0.199634765625,8.462676048278809,4.743084907531738,1.4568350315093994
1700939083434644500,0.21664453125,8.454233169555664,4.757233619689941,1.4597208499908447
1700939083451639000,0.23363916015625,8.443116188049316,4.7759528160095215,1.4629309177398682
1700939083468633000,0.250633056640625,8.43538761138916,4.789618968963623,1.4628427028656006
1700939083485625600,0.26762548828125,8.434558868408203,4.792326927185059,1.4587451219558716
1700939083502617600,0.28461767578125,8.436762809753418,4.790402412414551,1.4523061513900757
1700939083519613400,0.301613525390625,8.434001922607422,4.796717166900635,1.4474895000457764
1700939083536606000,0.31860595703125,8.417906761169434,4.8247857093811035,1.4478938579559326
1700939083553601000,0.33560107421875,8.390853881835938,4.868752479553223,1.4577131271362305
1700939083570583300,0.352583251953125,8.35701847076416,4.924294948577881,1.4654960632324219
1700939083587586300,0.36958642578125,8.319497108459473,4.985504627227783,1.4720137119293213
1700939083604573400,0.386573486328125,8.279474258422852,5.049920558929443,1.4780802726745605
1700939083621571600,0.403571533203125,8.234383583068848,5.119865417480469,1.4892983436584473
1700939083638567200,0.420567138671875,8.17601490020752,5.205981731414795,1.5121673345565796
1700939083655560700,0.437560791015625,8.090108871459961,5.3266425132751465,1.5534263849258423
1700939083672552000,0.454552001953125,7.97868537902832,5.475025177001953,1.6126980781555176
1700939083689548300,0.47154833984375,7.879644393920898,5.598260879516602,1.6753475666046143
1700939083706540800,0.488540771484375,7.797476768493652,5.702844619750977,1.706761121749878
1700939083723536400,0.505536376953125,7.735692501068115,5.789687633514404,1.6954931020736694
1700939083740519200,0.522519287109375,7.68862247467041,5.856745719909668,1.6792041063308716
1700939083757521400,0.539521484375,7.636648654937744,5.917879104614258,1.7018848657608032
1700939083774516200,0.55651611328125,7.547793865203857,6.000670433044434,1.80523681640625
1700939083791506000,0.573505859375,7.405483722686768,6.1233391761779785,1.9747495651245117
1700939083808502300,0.590502197265625,7.239043235778809,6.2624735832214355,2.147974967956543
1700939083825495800,0.607495849609375,7.055235385894775,6.390970230102539,2.3696534633636475
1700939083842485200,0.6244853515625,6.895445346832275,6.478549957275391,2.5917809009552
1700939083859482600,0.641482666015625,6.80320930480957,6.507523059844971,2.757643461227417
1700939083876476200,0.65847607421875,6.751786231994629,6.492577075958252,2.9147799015045166
1700939083893471500,0.675471435546875,6.727059841156006,6.437582492828369,3.0887398719787598
1700939083910460400,0.69246044921875,6.7242045402526855,6.351552486419678,3.2678680419921875
1700939083927453200,0.709453125,6.730313777923584,6.258197784423828,3.43131947517395
1700939083944450800,0.726450927734375,6.748173713684082,6.162735939025879,3.5663628578186035
1700939083961438500,0.7434384765625,6.799774169921875,6.045482158660889,3.6676065921783447
1700939083978436400,0.760436279296875,6.849667072296143,5.913271903991699,3.7883217334747314
1700939083995431700,0.777431640625,6.883206367492676,5.756516456604004,3.9648585319519043
1700939084012420900,0.7944208984375,6.898202896118164,5.583781719207764,4.179987907409668
1700939084029417500,0.81141748046875,6.863807201385498,5.423311233520508,4.439815044403076
1700939084046409700,0.82840966796875,6.766031742095947,5.292388439178467,4.737885475158691
1700939084063405600,0.845405517578125,6.634336948394775,5.17514181137085,5.04376745223999
1700939084080394800,0.862394775390625,6.51581335067749,5.037306308746338,5.329712867736816
1700939084097390600,0.879390625,6.434532642364502,4.868509292602539,5.579472064971924
1700939084114385700,0.8963857421875,6.398227214813232,4.661922454833984,5.79355525970459
1700939084131373000,0.913373046875,6.4213972091674805,4.408971309661865,5.9634504318237305
1700939084148373500,0.93037353515625,6.4649882316589355,4.120860576629639,6.1203389167785645
1700939084165367600,0.947367431640625,6.452496528625488,3.83860445022583,6.313994407653809
1700939084182355500,0.96435546875,6.338647365570068,3.6029231548309326,6.563277244567871
1700939084199355000,0.98135498046875,6.107107639312744,3.4148483276367188,6.875911712646484
1700939084216342300,0.99834228515625,5.793066024780273,3.2371535301208496,7.224771976470947
1700939084233337600,1.015337646484375,5.475915431976318,3.024090051651001,7.556807518005371
1700939084250332200,1.032332275390625,5.204729080200195,2.762758731842041,7.843091011047363
1700939084267325400,1.049325439453125,4.958240509033203,2.474900245666504,8.094864845275879
1700939084284317700,1.066317626953125,4.666296482086182,2.2010276317596436,8.343696594238281
1700939084301312800,1.083312744140625,4.298267364501953,1.952637791633606,8.59931468963623
1700939084318318800,1.10031884765625,3.9203073978424072,1.6937425136566162,8.831679344177246
1700939084335301000,1.117301025390625,3.622302770614624,1.3936275243759155,9.009597778320312
1700939084352288000,1.1342880859375,3.434072732925415,1.0492165088653564,9.129206657409668
1700939084369286700,1.15128662109375,3.3034846782684326,0.6811421513557434,9.211902618408203
1700939084386280200,1.1682802734375,3.152130126953125,0.3107178509235382,9.284591674804688
1700939084403275000,1.18527490234375,2.9302093982696533,-0.05293455347418785,9.362008094787598
1700939084420264400,1.202264404296875,2.6437268257141113,-0.4138796925544739,9.437982559204102
1700939084437261300,1.21926123046875,2.3313474655151367,-0.7829024195671082,9.496735572814941
1700939084454255000,1.236255126953125,2.0090138912200928,-1.1606732606887817,9.531675338745117
1700939084471244500,1.25324462890625,1.679349660873413,-1.5535435676574707,9.539518356323242
1700939084488230100,1.270230224609375,1.328987956047058,-1.9619473218917847,9.519489288330078
1700939084505233200,1.287233154296875,0.9637065529823303,-2.3923895359039307,9.464875221252441
1700939084522227700,1.304227783203125,0.5994343757629395,-2.851853370666504,9.367161750793457
1700939084539219700,1.3212197265625,0.2535697817802429,-3.3295373916625977,9.224206924438477
1700939084556212000,1.3382119140625,-0.03538091853260994,-3.806462049484253,9.041335105895996
1700939084573194500,1.355194580078125,-0.25335168838500977,-4.267659664154053,8.82944107055664
1700939084590209500,1.37220947265625,-0.38107767701148987,-4.692294597625732,8.606584548950195
1700939084607194600,1.389194580078125,-0.4157429039478302,-5.064610481262207,8.39124584197998
1700939084624179700,1.4061796875,-0.3844766616821289,-5.368580341339111,8.201624870300293
1700939084641179600,1.4231796875,-0.31940943002700806,-5.583879470825195,8.059429168701172
1700939084658175200,1.44017529296875,-0.25010356307029724,-5.704343318939209,7.977096080780029
1700939084675168000,1.45716796875,-0.18847505748271942,-5.747823238372803,7.9475226402282715
1700939084692159700,1.47415966796875,-0.1371563822031021,-5.739264011383057,7.954757213592529
1700939084709159200,1.4911591796875,-0.09394955635070801,-5.700141429901123,7.983463287353516
1700939084726149400,1.5081494140625,-0.056281208992004395,-5.644598007202148,8.023181915283203
1700939084743144400,1.52514453125,-0.024718521162867546,-5.587722301483154,8.063055992126465
1700939084760134000,1.5421337890625,0.004929787945002317,-5.546291351318359,8.091647148132324
1700939084777127000,1.559126953125,0.03630770370364189,-5.5315728187561035,8.101634979248047
1700939084794127600,1.576127685546875,0.07180790603160858,-5.544463634490967,8.092582702636719
1700939084811114200,1.5931142578125,0.11673440039157867,-5.574661731719971,8.071284294128418
1700939084828110300,1.6101103515625,0.17866168916225433,-5.610568046569824,8.045228958129883
1700939084845105200,1.627105224609375,0.24485041201114655,-5.644397735595703,8.019784927368164
1700939084862094800,1.6440947265625,0.3030015528202057,-5.675490379333496,7.995818138122559
1700939084879091500,1.661091552734375,0.3520187735557556,-5.702582836151123,7.9745049476623535
1700939084896095500,1.678095458984375,0.406303733587265,-5.723533630371094,7.956894874572754
1700939084913079300,1.695079345703125,0.46763986349105835,-5.732410907745361,7.9471306800842285
1700939084930068700,1.71206884765625,0.5264680981636047,-5.726778030395508,7.947513580322266
1700939084947054000,1.72905419921875,0.569940984249115,-5.712657451629639,7.95467472076416
1700939084964065000,1.74606494140625,0.5943560600280762,-5.693126201629639,7.966880798339844
1700939084981044500,1.76304443359375,0.603419840335846,-5.664445400238037,7.9866180419921875
1700939084998040600,1.78004052734375,0.6046336889266968,-5.625253677368164,8.014179229736328
1700939085015039200,1.797039306640625,0.6019819974899292,-5.575406551361084,8.049135208129883
1700939085032033500,1.814033447265625,0.5948185920715332,-5.5120673179626465,8.093171119689941
1700939085049031000,1.831031005859375,0.5812916159629822,-5.436501979827881,8.145100593566895
1700939085066021600,1.848021728515625,0.5650316476821899,-5.350505352020264,8.202983856201172
1700939085083010600,1.865010498046875,0.5474853515625,-5.253103733062744,8.26688003540039
1700939085099999700,1.881999755859375,0.526461660861969,-5.143080234527588,8.337127685546875
1700939085117003800,1.899003662109375,0.5013426542282104,-5.023300647735596,8.411375045776367
1700939085133999900,1.915999755859375,0.47332510352134705,-4.898095607757568,8.486502647399902
1700939085150981400,1.9329814453125,0.4432739317417145,-4.773197174072266,8.558984756469727
1700939085167982600,1.949982666015625,0.41594696044921875,-4.651793956756592,8.626930236816406
1700939085184974800,1.966974853515625,0.39551210403442383,-4.530892848968506,8.691990852355957
1700939085201964300,1.98396435546875,0.3814074695110321,-4.408450126647949,8.755352973937988
1700939085218973400,2.000973388671875,0.3711075782775879,-4.286012649536133,8.816377639770508
1700939085235953700,2.01795361328125,0.36672452092170715,-4.167394638061523,8.87324333190918
1700939085252949200,2.03494921875,0.37023985385894775,-4.057523727416992,8.923874855041504
1700939085269939200,2.051939208984375,0.38693833351135254,-3.9597246646881104,8.966994285583496
1700939085286934300,2.068934326171875,0.42053350806236267,-3.8722963333129883,9.00358772277832
1700939085303929300,2.085929443359375,0.4685116708278656,-3.788892984390259,9.036641120910645
1700939085320918800,2.102918701171875,0.5223096013069153,-3.712379217147827,9.065403938293457
1700939085337913000,2.1199130859375,0.5774154663085938,-3.6489977836608887,9.087769508361816
1700939085354911500,2.136911376953125,0.6382206678390503,-3.6104776859283447,9.099079132080078
1700939085371892000,2.15389208984375,0.7022523880004883,-3.605384588241577,9.096381187438965
1700939085388894000,2.17089404296875,0.7596697211265564,-3.630586624145508,9.081731796264648
1700939085405890800,2.187890869140625,0.8043354153633118,-3.6764121055603027,9.059423446655273
1700939085422883800,2.2048837890625,0.8340521454811096,-3.7419331073760986,9.029862403869629
1700939085439873000,2.221873046875,0.853548526763916,-3.830928325653076,8.990638732910156
1700939085456865800,2.23886572265625,0.8715532422065735,-3.948559522628784,8.93786334991455
1700939085473867300,2.2558671875,0.8896053433418274,-4.093469142913818,8.870637893676758
1700939085490853400,2.272853271484375,0.9055635929107666,-4.255644798278809,8.7923583984375
1700939085507850500,2.2898505859375,0.9192583560943604,-4.429779529571533,8.704489707946777
1700939085524844500,2.306844482421875,0.9308633208274841,-4.609835147857666,8.609240531921387
1700939085541833700,2.323833740234375,0.9404229521751404,-4.791854381561279,8.508221626281738
1700939085558825700,2.34082568359375,0.9486681222915649,-4.971984386444092,8.403303146362305
1700939085575823400,2.3578232421875,0.955311119556427,-5.1431097984313965,8.298911094665527
1700939085592818400,2.374818359375,0.9596018195152283,-5.298689365386963,8.199951171875
1700939085609811200,2.391811279296875,0.9587633013725281,-5.439379692077637,8.107406616210938
1700939085626805000,2.408804931640625,0.9520407915115356,-5.5679473876953125,8.020454406738281
1700939085643795000,2.425794921875,0.9411608576774597,-5.682363033294678,7.94110107421875
1700939085660790000,2.4427900390625,0.9306744337081909,-5.783522129058838,7.868979454040527
1700939085677783300,2.459783203125,0.9229128360748291,-5.871788024902344,7.804258823394775
1700939085694781000,2.476781005859375,0.9235736131668091,-5.9447922706604,7.748713970184326
1700939085711769900,2.493769775390625,0.932214617729187,-6.000921249389648,7.704286575317383
1700939085728764400,2.510764404296875,0.9318433403968811,-6.038535118103027,7.674885272979736
1700939085745758200,2.52775830078125,0.9139367938041687,-6.057196617126465,7.66232442855835
1700939085762751200,2.544751220703125,0.8786699175834656,-6.059763431549072,7.664418697357178
1700939085779745000,2.5617451171875,0.8362986445426941,-6.048140048980713,7.6783270835876465
1700939085796721400,2.578721435546875,0.8027940988540649,-6.024162769317627,7.700721740722656
1700939085813728500,2.595728515625,0.7852010130882263,-5.991376876831055,7.7280659675598145
1700939085830726400,2.612726318359375,0.7717015147209167,-5.9518537521362305,7.759898662567139
1700939085847717000,2.629717041015625,0.750869631767273,-5.9048357009887695,7.79777193069458
1700939085864717300,2.64671728515625,0.7233608365058899,-5.850330352783203,7.841333389282227
1700939085881704400,2.663704345703125,0.6897896528244019,-5.789686679840088,7.889222621917725
1700939085898701300,2.680701416015625,0.6577211618423462,-5.725008487701416,7.939004898071289
1700939085915700500,2.697700439453125,0.6290885210037231,-5.656871318817139,7.990004062652588
1700939085932677600,2.714677734375,0.5990039706230164,-5.58227014541626,8.044599533081055
1700939085949681000,2.731680908203125,0.5653076767921448,-5.498820781707764,8.104290962219238
1700939085966673400,2.74867333984375,0.5308862924575806,-5.405328750610352,8.1692533493042
1700939085983663900,2.765663818359375,0.5057169198989868,-5.300575256347656,8.239192008972168
1700939086000656000,2.78265576171875,0.49657246470451355,-5.185770034790039,8.312479019165039
1700939086017656000,2.799656005859375,0.4994504749774933,-5.065882682800293,8.385910987854004
1700939086034639000,2.81663916015625,0.5097474455833435,-4.949612140655518,8.454442977905273
1700939086051638500,2.833638427734375,0.5235942006111145,-4.842749118804932,8.515266418457031
1700939086068635100,2.85063525390625,0.5396816730499268,-4.748978137969971,8.566916465759277
1700939086085628000,2.8676279296875,0.5544061064720154,-4.6692681312561035,8.609684944152832
1700939086102621200,2.88462109375,0.5681511759757996,-4.605396747589111,8.643125534057617
1700939086119614500,2.901614501953125,0.5819213390350342,-4.557394504547119,8.667619705200195
1700939086136608300,2.918608154296875,0.5953792929649353,-4.522558212280273,8.684935569763184
1700939086153603300,2.935603271484375,0.6091307997703552,-4.499861717224121,8.695764541625977
1700939086170593300,2.95259326171875,0.6294451951980591,-4.488698959350586,8.700087547302246
1700939086187588900,2.9695888671875,0.657066285610199,-4.489015102386475,8.697880744934082
1700939086204584000,2.986583984375,0.6914227604866028,-4.500319004058838,8.689371109008789
1700939086221582600,3.00358251953125,0.7243940234184265,-4.523093223571777,8.674848556518555
1700939086238569000,3.02056884765625,0.7512327432632446,-4.556802749633789,8.654901504516602
1700939086255564300,3.037564208984375,0.7707560062408447,-4.600217342376709,8.630183219909668
1700939086272554500,3.054554443359375,0.7876263856887817,-4.649641036987305,8.602128028869629
1700939086289550800,3.07155078125,0.8061743378639221,-4.702810287475586,8.571451187133789
1700939086306532900,3.088532958984375,0.8221554160118103,-4.757322788238525,8.539793014526367
1700939086323536000,3.105535888671875,0.8359290957450867,-4.813241958618164,8.507059097290039
1700939086340530200,3.1225302734375,0.8448291420936584,-4.872332572937012,8.472471237182617
1700939086357511200,3.13951123046875,0.8501641154289246,-4.935682773590088,8.435186386108398
1700939086374516200,3.15651611328125,0.850369393825531,-5.002283096313477,8.395840644836426
1700939086391514000,3.17351416015625,0.8461698889732361,-5.070141315460205,8.355464935302734
1700939086408494600,3.19049462890625,0.843329906463623,-5.138753890991211,8.31373119354248
1700939086425497000,3.2074970703125,0.8406945466995239,-5.2075514793396,8.271080017089844
1700939086442493400,3.224493408203125,0.8345637917518616,-5.275160789489746,8.22874927520752
1700939086459485700,3.241485595703125,0.8260642290115356,-5.343157768249512,8.18562126159668
1700939086476479200,3.258479248046875,0.8150767683982849,-5.411499977111816,8.141708374023438
1700939086493459700,3.275459716796875,0.8022666573524475,-5.4783220291137695,8.098176002502441
1700939086510455600,3.29245556640625,0.7933075428009033,-5.542306900024414,8.055408477783203
1700939086527457800,3.309457763671875,0.7905243039131165,-5.602065086364746,8.014239311218262
1700939086544452900,3.326452880859375,0.7948248982429504,-5.658387184143066,7.974147796630859
1700939086561448000,3.343447998046875,0.8018737435340881,-5.708799839019775,7.9374260902404785
1700939086578438700,3.360438720703125,0.8078785538673401,-5.750528812408447,7.90663480758667
1700939086595434000,3.37743408203125,0.8113181591033936,-5.782557487487793,7.882887840270996
1700939086612428300,3.39442822265625,0.8132176399230957,-5.802615642547607,7.867937088012695
1700939086629419000,3.4114189453125,0.8153980374336243,-5.810570240020752,7.86184024810791
1700939086646414000,3.4284140625,0.8198211789131165,-5.806900978088379,7.864090442657471
1700939086663407400,3.445407470703125,0.8233944177627563,-5.793309211730957,7.873735427856445
1700939086680394500,3.46239453125,0.8235376477241516,-5.771720886230469,7.8895583152771
1700939086697381400,3.47938134765625,0.8195422887802124,-5.743712425231934,7.9103875160217285
1700939086714390500,3.496390625,0.8150463700294495,-5.708847999572754,7.936049938201904
1700939086731381500,3.513381591796875,0.8103238344192505,-5.666122913360596,7.967091083526611
1700939086748375000,3.530375,0.8040977120399475,-5.617656707763672,8.001967430114746
1700939086765368300,3.547368408203125,0.795872151851654,-5.568714618682861,8.036921501159668
1700939086782362000,3.564362060546875,0.7859254479408264,-5.523606300354004,8.068964004516602
1700939086799355600,3.581355712890625,0.7778422832489014,-5.483291149139404,8.097196578979492
1700939086816346000,3.59834619140625,0.7741737365722656,-5.447287559509277,8.121811866760254
1700939086833342200,3.61534228515625,0.7728002071380615,-5.412355422973633,8.145263671875
1700939086850336300,3.632336181640625,0.7702817916870117,-5.378214359283447,8.168084144592285
1700939086867318500,3.649318603515625,0.7653806805610657,-5.345942497253418,8.189701080322266
1700939086884321800,3.66632177734375,0.7588464021682739,-5.316579341888428,8.209400177001953
1700939086901317400,3.6833173828125,0.7532827854156494,-5.289388656616211,8.227457046508789
1700939086918310100,3.70031005859375,0.7488494515419006,-5.261671543121338,8.245613098144531
1700939086935303200,3.71730322265625,0.7443687319755554,-5.230637550354004,8.265740394592285
1700939086952296700,3.734296630859375,0.7391968369483948,-5.198137283325195,8.286681175231934
1700939086969290500,3.75129052734375,0.7353885769844055,-5.169861316680908,8.304689407348633
1700939086986284000,3.768283935546875,0.733794629573822,-5.148526668548584,8.318074226379395
1700939087003277600,3.785277587890625,0.7349424362182617,-5.132328987121582,8.32797622680664
1700939087020271000,3.80227099609375,0.7406253218650818,-5.121681213378906,8.334024429321289
1700939087037264100,3.81926416015625,0.751956045627594,-5.1162109375,8.336371421813965
1700939087054247200,3.8362470703125,0.7677125334739685,-5.114952564239502,8.33570671081543
1700939087071251200,3.853251220703125,0.7853869199752808,-5.119469165802002,8.331286430358887
1700939087088245500,3.87024560546875,0.8046254515647888,-5.131589889526367,8.321988105773926
1700939087105238300,3.88723828125,0.8254345059394836,-5.149637222290039,8.308791160583496
1700939087122231800,3.904231689453125,0.8426510691642761,-5.169947624206543,8.294437408447266
1700939087139238100,3.921238037109375,0.8555020689964294,-5.190067768096924,8.28054428100586
1700939087156216300,3.93821630859375,0.8669573664665222,-5.2117509841918945,8.26572322845459
1700939087173214700,3.955214599609375,0.8782822489738464,-5.2365922927856445,8.248807907104492
1700939087190205700,3.972205810546875,0.8911893963813782,-5.263638019561768,8.230189323425293
1700939087207199200,3.98919921875,0.9098180532455444,-5.291798114776611,8.210068702697754
1700939087224193000,4.006193115234375,0.9336951375007629,-5.3202338218688965,8.188982963562012
1700939087241186000,4.02318603515625,0.9576336145401001,-5.347484111785889,8.168442726135254
1700939087258179800,4.040179931640625,0.9774451851844788,-5.374250888824463,8.148505210876465
1700939087275173000,4.057173095703125,0.9921269416809082,-5.399758815765381,8.12984561920166
1700939087292166700,4.074166748046875,1.0038985013961792,-5.421841621398926,8.113689422607422
1700939087309160000,4.091159912109375,1.013784408569336,-5.440545558929443,8.09992790222168
1700939087326154200,4.108154296875,1.0227160453796387,-5.456366539001465,8.088154792785645
1700939087343147000,4.12514697265625,1.0309284925460815,-5.470155715942383,8.077791213989258
1700939087360140800,4.142140869140625,1.0371557474136353,-5.481686115264893,8.069172859191895
1700939087377132000,4.159132080078125,1.0416622161865234,-5.492378234863281,8.06131649017334
1700939087394129200,4.176129150390625,1.0433123111724854,-5.501872539520264,8.054628372192383
1700939087411120000,4.1931201171875,1.0433034896850586,-5.50670862197876,8.051321983337402
1700939087428115000,4.210114990234375,1.0410658121109009,-5.504992961883545,8.05278491973877
1700939087445108200,4.227108154296875,1.0377802848815918,-5.495975017547607,8.059368133544922
1700939087462101800,4.244101806640625,1.0355249643325806,-5.482422351837158,8.068881034851074
1700939087479087000,4.261087158203125,1.034094214439392,-5.466694355010986,8.079730033874512
1700939087496088800,4.2780888671875,1.031447172164917,-5.449634552001953,8.091583251953125
1700939087513082000,4.29508203125,1.0285205841064453,-5.434000015258789,8.102463722229004
1700939087530075600,4.31207568359375,1.0262722969055176,-5.421864986419678,8.110872268676758
1700939087547069400,4.3290693359375,1.0243772268295288,-5.412539482116699,8.117339134216309
1700939087564062700,4.346062744140625,1.0246620178222656,-5.406609535217285,8.121253967285156
1700939087581045500,4.36304541015625,1.029642105102539,-5.403287887573242,8.122835159301758
1700939087598047000,4.380046875,1.0365031957626343,-5.401474475860596,8.123167037963867
1700939087615045600,4.397045654296875,1.04017174243927,-5.401244163513184,8.122851371765137
1700939087632043300,4.414043212890625,1.041916012763977,-5.403097152709961,8.1213960647583
1700939087649030100,4.431030029296875,1.0458132028579712,-5.406778335571289,8.118446350097656
1700939087666023400,4.4480234375,1.0517421960830688,-5.411690711975098,8.11440372467041
1700939087683017200,4.465017333984375,1.0598739385604858,-5.41686487197876,8.109892845153809
1700939087700010800,4.4820107421875,1.0696650743484497,-5.422194004058838,8.105043411254883
1700939087717004000,4.499004150390625,1.0837492942810059,-5.427685260772705,8.099496841430664
1700939087733997600,4.51599755859375,1.1009477376937866,-5.433926105499268,8.092988967895508
1700939087750991000,4.5329912109375,1.1216907501220703,-5.440978050231934,8.085399627685547
1700939087767980000,4.54997998046875,1.141845464706421,-5.449247360229492,8.077006340026855
1700939087784975600,4.5669755859375,1.1579440832138062,-5.458993434906006,8.068127632141113
1700939087801965300,4.58396533203125,1.1690735816955566,-5.470475196838379,8.05873966217041
1700939087818965500,4.600965576171875,1.1801230907440186,-5.483802795410156,8.048064231872559
1700939087835958500,4.61795849609375,1.1926285028457642,-5.498989582061768,8.035849571228027
1700939087852964400,4.63496435546875,1.2056046724319458,-5.514367580413818,8.023365020751953
1700939087869945600,4.651945556640625,1.2142263650894165,-5.5294718742370605,8.011659622192383
1700939087886939100,4.668939208984375,1.2162717580795288,-5.543788433074951,8.001450538635254
1700939087903933000,4.685932861328125,1.212927222251892,-5.557193279266357,7.992654323577881
1700939087920926200,4.70292626953125,1.2065653800964355,-5.567894458770752,7.9861674308776855
1700939087937919500,4.71991943359375,1.1999176740646362,-5.575231552124023,7.982048988342285
1700939087954912800,4.736912841796875,1.1923285722732544,-5.578741073608398,7.9807353019714355
1700939087971907600,4.753907470703125,1.181001901626587,-5.578032970428467,7.982912540435791
1700939087988898800,4.77089892578125,1.1648935079574585,-5.572606563568115,7.989068031311035
1700939088005893600,4.7878935546875,1.1458344459533691,-5.561612606048584,7.9994797706604
1700939088022887400,4.804887451171875,1.1256113052368164,-5.545103549957275,8.013797760009766
1700939088039875300,4.821875244140625,1.1061949729919434,-5.524352550506592,8.030814170837402
1700939088056876500,4.83887646484375,1.0880184173583984,-5.501791477203369,8.048766136169434
1700939088073865000,4.855864990234375,1.067760705947876,-5.4795002937316895,8.06666374206543
1700939088090861000,4.872861083984375,1.043813943862915,-5.458686351776123,8.083891868591309
1700939088107854600,4.8898544921875,1.0189048051834106,-5.439553260803223,8.099950790405273
1700939088124848000,4.90684814453125,0.9949955940246582,-5.4213457107543945,8.115117073059082
1700939088141841700,4.923841552734375,0.9739444255828857,-5.403899669647217,8.129293441772461
1700939088158832600,4.94083251953125,0.953850507736206,-5.387226104736328,8.142732620239258
1700939088175831000,4.9578310546875,0.9322754144668579,-5.372262477874756,8.155107498168945
1700939088192812000,4.97481201171875,0.9118528366088867,-5.358638763427734,8.166374206542969
1700939088209813200,4.991813232421875,0.8936931490898132,-5.346693515777588,8.176203727722168
1700939088226811600,5.008811767578125,0.8773455023765564,-5.33715295791626,8.1842041015625
1700939088243802600,5.025802734375,0.8615732192993164,-5.3299102783203125,8.190596580505371
1700939088260796200,5.042796142578125,0.8477802276611328,-5.326875686645508,8.194009780883789
1700939088277789400,5.05978955078125,0.8379276990890503,-5.32974910736084,8.193154335021973
1700939088294783200,5.076783203125,0.8334364295005798,-5.336846351623535,8.18899154663086
1700939088311776800,5.09377685546875,0.8295281529426575,-5.3448166847229,8.184188842773438
1700939088328770000,5.11077001953125,0.8195598125457764,-5.351964950561523,8.180520057678223
1700939088345765400,5.127765380859375,0.8039342761039734,-5.356808662414551,8.178901672363281
1700939088362759200,5.14475927734375,0.7868458032608032,-5.3599467277526855,8.178505897521973
1700939088379737600,5.161737548828125,0.7749397158622742,-5.361212253570557,8.178813934326172
1700939088396742000,5.178741943359375,0.7699947357177734,-5.360100269317627,8.180009841918945
1700939088413739800,5.19573974609375,0.7656689286231995,-5.356649875640869,8.182674407958984
1700939088430720800,5.212720703125,0.756560742855072,-5.350588321685791,8.187487602233887
1700939088447724500,5.229724609375,0.7436179518699646,-5.340814113616943,8.195051193237305
1700939088464718000,5.246718017578125,0.7292238473892212,-5.328542709350586,8.204327583312988
1700939088481711600,5.263711669921875,0.7186362743377686,-5.313900470733643,8.214750289916992
1700939088498705200,5.280705078125,0.7110430598258972,-5.297994136810303,8.225680351257324
1700939088515688200,5.297688232421875,0.7038954496383667,-5.282318115234375,8.236368179321289
1700939088532692200,5.314692138671875,0.6937382817268372,-5.2668657302856445,8.247119903564453
1700939088549685800,5.331685791015625,0.6792991161346436,-5.250445365905762,8.258783340454102
1700939088566678800,5.3486787109375,0.6625977158546448,-5.234045505523682,8.270541191101074
1700939088583674000,5.365674072265625,0.6455747485160828,-5.218315124511719,8.281818389892578
1700939088600666400,5.382666259765625,0.6298398971557617,-5.201375484466553,8.293679237365723
1700939088617659400,5.399659423828125,0.6093360185623169,-5.180768013000488,8.308096885681152
1700939088634653000,5.41665283203125,0.5850168466567993,-5.156538009643555,8.324901580810547
1700939088651646700,5.433646728515625,0.5598604083061218,-5.131990432739258,8.341784477233887
1700939088668635600,5.4506357421875,0.5366235375404358,-5.110441207885742,8.356526374816895
1700939088685632000,5.467632080078125,0.5158483982086182,-5.0918474197387695,8.36917495727539
1700939088702628900,5.48462890625,0.4941423833370209,-5.074054718017578,8.3812837600708
1700939088719620900,5.501620849609375,0.4655185043811798,-5.054306507110596,8.394843101501465
1700939088736614100,5.5186142578125,0.4313771724700928,-5.033117294311523,8.40938663482666
1700939088753607400,5.535607421875,0.39386671781539917,-5.0121283531188965,8.423748970031738
1700939088770601000,5.55260107421875,0.35899215936660767,-4.99233341217041,8.437052726745605
1700939088787594800,5.5695947265625,0.3315693140029907,-4.974632740020752,8.44862174987793
1700939088804569900,5.58656982421875,0.3102830946445465,-4.959684371948242,8.458212852478027
1700939088821581800,5.603581787109375,0.2919047176837921,-4.946156024932861,8.466785430908203
1700939088838577400,5.620577392578125,0.2716897130012512,-4.932634353637695,8.475342750549316
1700939088855555000,5.63755517578125,0.24853883683681488,-4.920102596282959,8.483332633972168
1700939088872562200,5.654562255859375,0.22707955539226532,-4.910873889923096,8.489279747009277
1700939088889555500,5.671555419921875,0.21046526730060577,-4.90915584564209,8.490701675415039
1700939088906549000,5.688549072265625,0.2021891176700592,-4.916168212890625,8.486844062805176
1700939088923542500,5.70554248046875,0.20155879855155945,-4.932053565979004,8.477638244628906
1700939088940535800,5.722535888671875,0.20530861616134644,-4.953554153442383,8.465002059936523
1700939088957511200,5.73951123046875,0.20939815044403076,-4.9773688316345215,8.450922012329102
1700939088974525400,5.756525390625,0.21218201518058777,-5.001999855041504,8.436297416687012
1700939088991513000,5.77351318359375,0.21446476876735687,-5.027027130126953,8.421350479125977
1700939089008511700,5.79051171875,0.2184753715991974,-5.053774356842041,8.405221939086914
1700939089025502000,5.807501953125,0.22419220209121704,-5.082059383392334,8.387999534606934
1700939089042497000,5.8244970703125,0.23147548735141754,-5.110813617706299,8.37031078338623
1700939089059487700,5.84148779296875,0.2397235780954361,-5.138833999633789,8.352906227111816
1700939089076487000,5.85848681640625,0.24762491881847382,-5.164950847625732,8.336552619934082
1700939089093478000,5.875477783203125,0.25391125679016113,-5.187404155731201,8.322408676147461
1700939089110471400,5.892471435546875,0.2601040303707123,-5.205755233764648,8.310751914978027
1700939089127477000,5.90947705078125,0.2695595622062683,-5.221275329589844,8.300705909729004
1700939089144458000,5.9264580078125,0.2796992361545563,-5.232914924621582,8.293038368225098
1700939089161451500,5.943451416015625,0.28719303011894226,-5.239257335662842,8.288776397705078
1700939089178445300,5.9604453125,0.2916989028453827,-5.240184783935547,8.288033485412598
1700939089195438600,5.9774384765625,0.29420676827430725,-5.238075256347656,8.289278030395508
1700939089212431600,5.994431640625,0.29444533586502075,-5.234451770782471,8.291559219360352
1700939089229423000,6.011423095703125,0.2944728136062622,-5.230309963226318,8.294170379638672
1700939089246424800,6.0284248046875,0.2945184111595154,-5.227928638458252,8.295670509338379
1700939089263410000,6.045409912109375,0.29511016607284546,-5.22745943069458,8.295944213867188
1700939089280406300,6.06240625,0.2917538583278656,-5.22543478012085,8.297338485717773
1700939089297399600,6.079399658203125,0.28247782588005066,-5.218519687652588,8.302011489868164
1700939089314389200,6.09638916015625,0.27227210998535156,-5.205264091491699,8.310667991638184
1700939089331384300,6.11338427734375,0.26263004541397095,-5.1867356300354,8.322555541992188
1700939089348383000,6.130383056640625,0.25317803025245667,-5.161568641662598,8.338479042053223
1700939089365373700,6.147373779296875,0.245631605386734,-5.130996227264404,8.357552528381348
1700939089382367500,6.164367431640625,0.2410970777273178,-5.097737789154053,8.378009796142578
1700939089399361000,6.181361083984375,0.23935753107070923,-5.062865734100342,8.399179458618164
1700939089416354000,6.19835400390625,0.24023695290088654,-5.027698040008545,8.420251846313477
1700939089433347800,6.215347900390625,0.24501998722553253,-4.994148254394531,8.440055847167969
1700939089450340400,6.23234033203125,0.2551918029785156,-4.9654059410095215,8.456696510314941
1700939089467335700,6.249335693359375,0.26998934149742126,-4.942156791687012,8.469847679138184
1700939089484328400,6.266328369140625,0.28772687911987305,-4.923555374145508,8.480090141296387
1700939089501321700,6.28332177734375,0.3067385256290436,-4.911981582641602,8.48613452911377
1700939089518305000,6.300304931640625,0.3274587094783783,-4.91033411026001,8.486313819885254
1700939089535308800,6.317308837890625,0.3480643033981323,-4.919800758361816,8.48000717163086
1700939089552302300,6.33430224609375,0.36507442593574524,-4.9374895095825195,8.469003677368164
1700939089569296100,6.351296142578125,0.3797135353088379,-4.958918571472168,8.455830574035645
1700939089586289200,6.3682890625,0.3942093551158905,-4.978820323944092,8.443464279174805
1700939089603268000,6.38526806640625,0.40766263008117676,-4.995162487030029,8.433165550231934
1700939089620274400,6.4022744140625,0.4223982095718384,-5.008789539337158,8.424352645874023
1700939089637271800,6.419271728515625,0.4391259253025055,-5.0209574699401855,8.41624927520752
1700939089654263300,6.43626318359375,0.4545876979827881,-5.032598972320557,8.40847396850586
1700939089671256800,6.4532568359375,0.46491095423698425,-5.043498992919922,8.401374816894531
1700939089688238600,6.470238525390625,0.46897944808006287,-5.051366329193115,8.3964204788208
1700939089705239300,6.4872392578125,0.46880170702934265,-5.055668354034424,8.393839836120605
1700939089722233000,6.504233154296875,0.4696308374404907,-5.059170246124268,8.391683578491211
1700939089739235000,6.521235107421875,0.4742659330368042,-5.064733982086182,8.388065338134766
1700939089756222000,6.538221923828125,0.480121910572052,-5.0731353759765625,8.38265609741211
1700939089773220600,6.555220703125,0.4838150143623352,-5.084218502044678,8.375723838806152
1700939089790206000,6.5722060546875,0.4846195876598358,-5.09622859954834,8.368376731872559
1700939089807204900,6.589204833984375,0.4827631115913391,-5.106351852416992,8.362311363220215
1700939089824198700,6.60619873046875,0.47919103503227234,-5.112666606903076,8.358654975891113
1700939089841191700,6.623191650390625,0.47502607107162476,-5.115649700164795,8.357069969177246
1700939089858185500,6.640185546875,0.46916890144348145,-5.116141319274902,8.357099533081055
1700939089875179000,6.657178955078125,0.4652267098426819,-5.116923809051514,8.356841087341309
1700939089892172300,6.67417236328125,0.4631445109844208,-5.119877815246582,8.355145454406738
1700939089909166300,6.691166259765625,0.46114417910575867,-5.123776912689209,8.352866172790527
1700939089926157800,6.70815771484375,0.4576990008354187,-5.127843856811523,8.350560188293457
1700939089943154400,6.725154541015625,0.45375856757164,-5.131259918212891,8.348675727844238
1700939089960146700,6.742146728515625,0.45079872012138367,-5.132447719573975,8.34810733795166
1700939089977140200,6.75914013671875,0.4499935507774353,-5.131389141082764,8.348800659179688
1700939089994133200,6.77613330078125,0.45197808742523193,-5.130819797515869,8.349043846130371
1700939090011125000,6.793125,0.45843926072120667,-5.13368558883667,8.346928596496582
1700939090028122600,6.81012255859375,0.4676463007926941,-5.1399102210998535,8.342585563659668
1700939090045114000,6.827114013671875,0.4750055968761444,-5.146890163421631,8.337864875793457
1700939090062107400,6.844107421875,0.47921091318130493,-5.15250825881958,8.334155082702637
1700939090079101000,6.861100830078125,0.48243507742881775,-5.15638542175293,8.331570625305176
1700939090096094500,6.878094482421875,0.4877098500728607,-5.159013748168945,8.329636573791504
1700939090113088300,6.895088134765625,0.49535390734672546,-5.159331798553467,8.328988075256348
1700939090130081300,6.912081298828125,0.5043533444404602,-5.1588826179504395,8.328726768493652
1700939090147075000,6.929074951171875,0.511166512966156,-5.159454822540283,8.327956199645996
1700939090164066000,6.946066162109375,0.5157116055488586,-5.160688400268555,8.326911926269531
1700939090181064700,6.963064697265625,0.5182480812072754,-5.160254001617432,8.32702350616455
1700939090198042400,6.98004248046875,0.5197683572769165,-5.156970977783203,8.328962326049805
1700939090215049200,6.99704931640625,0.5223557949066162,-5.152738571166992,8.331419944763184
1700939090232042500,7.01404248046875,0.5253939628601074,-5.149162292480469,8.333439826965332
1700939090249035500,7.031035400390625,0.5258816480636597,-5.147578239440918,8.33438491821289
1700939090266030300,7.0480302734375,0.5228697657585144,-5.147481441497803,8.334637641906738
1700939090283012600,7.0650126953125,0.5192046761512756,-5.148219108581543,8.334409713745117
1700939090300017000,7.082016845703125,0.517211377620697,-5.147950649261475,8.334698677062988
1700939090317008100,7.099008056640625,0.5164869427680969,-5.145179271697998,8.336455345153809
1700939090334005500,7.116005615234375,0.515774130821228,-5.139642715454102,8.339913368225098
1700939090350997200,7.132997314453125,0.5124084949493408,-5.134297847747803,8.343412399291992
1700939090367980000,7.14997998046875,0.5079423785209656,-5.131224155426025,8.345575332641602
1700939090384983800,7.16698388671875,0.5055497288703918,-5.129559516906738,8.346745491027832
1700939090401977900,7.183977783203125,0.5046048164367676,-5.12553071975708,8.349276542663574
1700939090418971400,7.200971435546875,0.5015344023704529,-5.118911266326904,8.353522300720215
1700939090435964700,7.217964599609375,0.49558019638061523,-5.112513065338135,8.357793807983398
1700939090452958500,7.23495849609375,0.49099305272102356,-5.108364105224609,8.360601425170898
1700939090469952300,7.2519521484375,0.48914650082588196,-5.105921268463135,8.362201690673828
1700939090486945300,7.2689453125,0.4892926812171936,-5.103950500488281,8.363396644592285
1700939090503938800,7.285938720703125,0.4906662106513977,-5.10181999206543,8.364616394042969
1700939090520932400,7.302932373046875,0.49219465255737305,-5.099567890167236,8.365899085998535
1700939090537926000,7.31992578125,0.49279049038887024,-5.097693920135498,8.367005348205566
1700939090554919200,7.336919189453125,0.4938371479511261,-5.095522880554199,8.368267059326172
1700939090571912700,7.35391259765625,0.49986621737480164,-5.095374584197998,8.368000030517578
1700939090588901000,7.370901123046875,0.5104496479034424,-5.097967624664307,8.365781784057617
1700939090605900000,7.387900146484375,0.5188304781913757,-5.101821422576904,8.362914085388184
1700939090622893600,7.4048935546875,0.5223955512046814,-5.106093406677246,8.360085487365723
1700939090639886600,7.421886474609375,0.5239508748054504,-5.108669757843018,8.358415603637695
1700939090656880600,7.438880615234375,0.527901828289032,-5.107504367828369,8.358877182006836
1700939090673873700,7.455873779296875,0.5359832644462585,-5.103204250335693,8.360989570617676
1700939090690867500,7.472867431640625,0.5454440712928772,-5.09815788269043,8.363455772399902
1700939090707860700,7.48986083984375,0.5533179640769958,-5.094685077667236,8.3650541305542
1700939090724854300,7.506854248046875,0.5573835372924805,-5.093256950378418,8.365653991699219
1700939090741848000,7.52384814453125,0.5567058324813843,-5.094357013702393,8.365030288696289
1700939090758841300,7.54084130859375,0.554177463054657,-5.09760046005249,8.363221168518066
1700939090775835100,7.557835205078125,0.5540634393692017,-5.101200103759766,8.361034393310547
1700939090792828700,7.57482861328125,0.5547715425491333,-5.101719379425049,8.36067008972168
1700939090809822000,7.591822021484375,0.5542827248573303,-5.098593235015869,8.362610816955566
1700939090826815500,7.6088154296875,0.5515707731246948,-5.091828346252441,8.366909980773926
1700939090843809000,7.62580908203125,0.5485734939575195,-5.08392858505249,8.371908187866211
1700939090860816400,7.64281640625,0.5467743277549744,-5.077301502227783,8.376047134399414
1700939090877796000,7.659796142578125,0.5453078746795654,-5.072918891906738,8.378796577453613
1700939090894787000,7.676787109375,0.5436553955078125,-5.071486949920654,8.379772186279297
1700939090911785700,7.69378564453125,0.5396763682365417,-5.072174072265625,8.379613876342773
1700939090928777000,7.71077685546875,0.534072995185852,-5.073477268218994,8.379182815551758
1700939090945770200,7.727770263671875,0.5301916003227234,-5.073665142059326,8.379315376281738
1700939090962760200,7.74476025390625,0.5297980904579163,-5.071383953094482,8.380722045898438
1700939090979760400,7.761760498046875,0.5278223156929016,-5.064961910247803,8.384730339050293
1700939090996750800,7.778750732421875,0.5220511555671692,-5.05471658706665,8.391271591186523
1700939091013744000,7.795744140625,0.5151098966598511,-5.04279088973999,8.398872375488281
1700939091030737700,7.812737548828125,0.5096918940544128,-5.031138896942139,8.406188011169434
1700939091047728600,7.829728759765625,0.5058847665786743,-5.020849704742432,8.412567138671875
1700939091064718800,7.84671875,0.504020094871521,-5.012038230895996,8.417929649353027
1700939091081718300,7.86371826171875,0.5043656229972839,-5.004073619842529,8.422647476196289
1700939091098711800,7.8807119140625,0.5040042996406555,-4.996078014373779,8.427412986755371
1700939091115705300,7.897705322265625,0.5023050904273987,-4.989770412445068,8.431252479553223
1700939091132698600,7.91469873046875,0.5007959008216858,-4.98754358291626,8.432658195495605
1700939091149692200,7.931692138671875,0.5022004246711731,-4.990066051483154,8.431083679199219
1700939091166683100,7.94868310546875,0.5097129344940186,-4.996914386749268,8.42657470703125
1700939091183682000,7.96568212890625,0.5196719169616699,-5.004703521728516,8.421340942382812
1700939091200672800,7.9826728515625,0.5277252793312073,-5.010102272033691,8.417631149291992
1700939091217666000,7.999666015625,0.5312277674674988,-5.013501167297363,8.415385246276855
1700939091234644200,8.016644287109376,0.5312078595161438,-5.018404483795166,8.41246509552002
1700939091251642600,8.033642578125,0.5300664901733398,-5.027395725250244,8.407166481018066
1700939091268644400,8.050644287109375,0.5310359597206116,-5.0397257804870605,8.399718284606934
1700939091285643000,8.06764306640625,0.5342384576797485,-5.052316665649414,8.391949653625488
1700939091302623200,8.084623291015625,0.5375304818153381,-5.063884735107422,8.384763717651367
1700939091319627500,8.10162744140625,0.5381596088409424,-5.072534561157227,8.379493713378906
1700939091336621000,8.11862109375,0.5357096195220947,-5.077884197235107,8.376408576965332
1700939091353614300,8.1356142578125,0.533001184463501,-5.080392360687256,8.37506103515625
1700939091370607900,8.15260791015625,0.5327205657958984,-5.082510948181152,8.373793601989746
1700939091387601400,8.169601318359375,0.534110426902771,-5.0853753089904785,8.371965408325195
1700939091404585700,8.186585693359374,0.534553050994873,-5.089107990264893,8.369668006896973
1700939091421588500,8.20358837890625,0.5310195684432983,-5.092113971710205,8.368064880371094
1700939091438581800,8.220581787109374,0.5236105918884277,-5.093637466430664,8.36760425567627
1700939091455575600,8.237575439453124,0.5158191919326782,-5.093010425567627,8.36846923828125
1700939091472568800,8.25456884765625,0.5107057690620422,-5.0907206535339355,8.370176315307617
1700939091489562600,8.271562744140626,0.5083189606666565,-5.086575508117676,8.372842788696289
1700939091506556000,8.288555908203126,0.5043907761573792,-5.0802998542785645,8.376888275146484
1700939091523559000,8.305558837890626,0.4971577823162079,-5.072687149047852,8.38193416595459
1700939091540546000,8.322546142578124,0.48782795667648315,-5.065334320068359,8.38692569732666
1700939091557536800,8.339536865234376,0.4802435338497162,-5.059321880340576,8.390992164611816
1700939091574530800,8.35653076171875,0.4761960804462433,-5.053366661071777,8.394810676574707
1700939091591523300,8.3735234375,0.47555288672447205,-5.0467448234558105,8.398828506469727
1700939091608517000,8.39051708984375,0.4759627878665924,-5.039290428161621,8.403281211853027
1700939091625510700,8.4075107421875,0.47545525431632996,-5.0324835777282715,8.407388687133789
1700939091642499600,8.42449951171875,0.47389110922813416,-5.026943206787109,8.410789489746094
1700939091659497700,8.441497802734375,0.4728994369506836,-5.022856712341309,8.413288116455078
1700939091676491300,8.4584912109375,0.4732227921485901,-5.01969051361084,8.415159225463867
1700939091693484800,8.47548486328125,0.47528275847435,-5.017512321472168,8.416340827941895
1700939091710475800,8.492475830078124,0.47823792695999146,-5.016777515411377,8.416609764099121
1700939091727457500,8.50945751953125,0.4786086678504944,-5.018414497375488,8.41561508178711
1700939091744465200,8.526465087890625,0.4767872393131256,-5.021785259246826,8.413707733154297
1700939091761458700,8.543458740234374,0.47541841864585876,-5.0267181396484375,8.41083812713623
1700939091778452500,8.560452392578124,0.4753020405769348,-5.031965255737305,8.407708168029785
1700939091795446000,8.577446044921874,0.474074125289917,-5.037288188934326,8.404586791992188
1700939091812439600,8.594439453125,0.4712534546852112,-5.041409492492676,8.402275085449219
1700939091829432800,8.611432861328124,0.4684637486934662,-5.043309688568115,8.401291847229004
1700939091846426400,8.62842626953125,0.4672100841999054,-5.043942928314209,8.400981903076172
1700939091863420000,8.645419921875,0.4693244397640228,-5.044570446014404,8.40048599243164
1700939091880412400,8.662412353515625,0.47460681200027466,-5.046638011932373,8.398947715759277
1700939091897407700,8.67940771484375,0.48053881525993347,-5.049969673156738,8.3966064453125
1700939091914400500,8.696400390625,0.4834963381290436,-5.052308082580566,8.39503002166748
1700939091931394000,8.71339404296875,0.4824795126914978,-5.050956726074219,8.395902633666992
1700939091948387600,8.7303876953125,0.4792577028274536,-5.046840667724609,8.3985595703125
1700939091965378300,8.74737841796875,0.47639724612236023,-5.04431676864624,8.400240898132324
1700939091982366500,8.764366455078125,0.477115273475647,-5.045082092285156,8.399740219116211
1700939091999353900,8.781353759765626,0.48153695464134216,-5.0493340492248535,8.396932601928711
1700939092016361500,8.798361572265625,0.4857422709465027,-5.053421497344971,8.394229888916016
1700939092033349400,8.815349365234376,0.48650240898132324,-5.053964614868164,8.39385986328125
1700939092050348500,8.8323486328125,0.48670822381973267,-5.050529956817627,8.395914077758789
1700939092067341800,8.849341796875,0.4892447292804718,-5.04455041885376,8.399361610412598
1700939092084335400,8.86633544921875,0.4961818754673004,-5.038867473602295,8.402366638183594
1700939092101322500,8.883322509765625,0.5052725672721863,-5.03612756729126,8.40346622467041
1700939092118322700,8.90032275390625,0.5143029689788818,-5.036309242248535,8.402811050415039
1700939092135313700,8.917313720703126,0.5217400789260864,-5.036684989929199,8.40212631225586
1700939092152312300,8.934312255859375,0.5269598960876465,-5.033968925476074,8.403426170349121
1700939092169303000,8.951302978515624,0.5301769971847534,-5.0270843505859375,8.407344818115234
1700939092186296600,8.968296630859374,0.5342752933502197,-5.020179271697998,8.411210060119629
1700939092203290400,8.985290283203126,0.5408487319946289,-5.0164313316345215,8.413025856018066
1700939092220284000,9.002283935546876,0.544613778591156,-5.017434120178223,8.412185668945312
1700939092237277400,9.01927734375,0.5449044108390808,-5.0235090255737305,8.408541679382324
1700939092254271000,9.03627099609375,0.5462819933891296,-5.032015323638916,8.403364181518555
1700939092271264000,9.053263916015625,0.5502539873123169,-5.0388875007629395,8.39898681640625
1700939092288257500,9.070257568359375,0.5548768043518066,-5.039792537689209,8.398137092590332
1700939092305251300,9.087251220703125,0.5589810013771057,-5.03355598449707,8.401604652404785
1700939092322245000,9.1042451171875,0.5625600814819336,-5.022946834564209,8.407713890075684
1700939092339238100,9.121238037109375,0.5670828819274902,-5.0119123458862305,8.413993835449219
1700939092356229400,9.1382294921875,0.5699614882469177,-5.004116535186768,8.418437004089355
1700939092373228000,9.15522802734375,0.5693311095237732,-5.001556873321533,8.420000076293945
1700939092390218800,9.17221875,0.5675225853919983,-5.003200531005859,8.419146537780762
1700939092407212300,9.18921240234375,0.5665414333343506,-5.006793022155762,8.417075157165527
1700939092424205800,9.206205810546875,0.5666706562042236,-5.009793281555176,8.415282249450684
1700939092441199400,9.223199462890625,0.5669243931770325,-5.011598587036133,8.414191246032715
1700939092458193200,9.240193115234375,0.5647410750389099,-5.01459264755249,8.412553787231445
1700939092475186700,9.257186767578125,0.5593078136444092,-5.020706653594971,8.409268379211426
1700939092492180200,9.27418017578125,0.5532980561256409,-5.030117988586426,8.404041290283203
1700939092509173800,9.291173828125,0.5495154857635498,-5.041234493255615,8.397625923156738
1700939092526167000,9.3081669921875,0.5483782291412354,-5.050960540771484,8.391853332519531
1700939092543160600,9.32516064453125,0.5469175577163696,-5.058402061462402,8.387465476989746
1700939092560154400,9.342154296875,0.5455604195594788,-5.063690662384033,8.38436222076416
1700939092577145000,9.35914501953125,0.5460931062698364,-5.067805290222168,8.381841659545898
1700939092594143700,9.376143798828124,0.5485343337059021,-5.0716400146484375,8.379361152648926
1700939092611134700,9.393134765625,0.5488436818122864,-5.073883533477783,8.377983093261719
1700939092628128300,9.410128173828125,0.544935405254364,-5.073806285858154,8.37828540802002
1700939092645121800,9.427121826171875,0.5374322533607483,-5.07215690612793,8.379768371582031
1700939092662115000,9.444114990234375,0.5293654203414917,-5.069460391998291,8.381914138793945
1700939092679108600,9.461108642578125,0.5250957608222961,-5.068018436431885,8.383052825927734
1700939092696104000,9.47810400390625,0.5253857970237732,-5.071372985839844,8.381006240844727
1700939092713094100,9.49509423828125,0.5272130370140076,-5.080124378204346,8.375590324401855
1700939092730086400,9.51208642578125,0.5265429615974426,-5.091177940368652,8.368916511535645
1700939092747083800,9.529083740234375,0.5238175988197327,-5.100804328918457,8.363224029541016
1700939092764078800,9.546078857421875,0.5193800926208496,-5.104667663574219,8.361143112182617
1700939092781069800,9.56306982421875,0.5138586163520813,-5.10135555267334,8.363505363464355
1700939092798063000,9.58006298828125,0.5093269944190979,-5.094415664672852,8.368012428283691
1700939092815057000,9.597056884765625,0.5065092444419861,-5.0877275466918945,8.372252464294434
1700939092832050400,9.614050537109375,0.5033686757087708,-5.082905292510986,8.375368118286133
1700939092849044000,9.6310439453125,0.5014086961746216,-5.081596851348877,8.376280784606934
1700939092866024400,9.6480244140625,0.5018811821937561,-5.082640171051025,8.37562084197998
1700939092883026000,9.66502587890625,0.5047562122344971,-5.084381580352783,8.374388694763184
1700939092900024300,9.6820244140625,0.5080283284187317,-5.084599018096924,8.374058723449707
1700939092917018000,9.69901806640625,0.5112881660461426,-5.083091735839844,8.374776840209961
1700939092934001000,9.7160009765625,0.513092041015625,-5.079664707183838,8.376744270324707
1700939092951005000,9.7330048828125,0.5132966637611389,-5.07603120803833,8.378933906555176
1700939092967995600,9.74999560546875,0.5135358572006226,-5.0741658210754395,8.380050659179688
1700939092984992000,9.766991943359375,0.515788197517395,-5.074756622314453,8.379552841186523
1700939093001986300,9.783986328125,0.521083414554596,-5.078163146972656,8.37716293334961
1700939093018978600,9.800978515625,0.5267102122306824,-5.082294940948486,8.374305725097656
1700939093035972600,9.81797265625,0.5310996770858765,-5.084686279296875,8.372575759887695
1700939093052966100,9.834966064453125,0.5333608388900757,-5.086283206939697,8.371461868286133
1700939093069959700,9.851959716796875,0.5362077951431274,-5.088335990905762,8.370031356811523
1700939093086953000,9.868952880859375,0.5376719832420349,-5.08964204788208,8.369142532348633
1700939093103946800,9.88594677734375,0.5374760627746582,-5.088686943054199,8.36973762512207
1700939093120940000,9.90293994140625,0.5370907783508301,-5.0865960121154785,8.371033668518066
1700939093137918200,9.919918212890625,0.5370872616767883,-5.082735538482666,8.373377799987793
1700939093154919000,9.9369189453125,0.5377672910690308,-5.076377868652344,8.377190589904785
1700939093171920600,9.953920654296875,0.5438677072525024,-5.070600986480713,8.380293846130371
1700939093188914200,9.9709140625,0.5542277693748474,-5.068350791931152,8.380976676940918
1700939093205907700,9.98790771484375,0.563898503780365,-5.070243835449219,8.379188537597656
1700939093222901200,10.0049013671875,0.5706228017807007,-5.07628059387207,8.375075340270996
1700939093239892700,10.021892822265626,0.5770582556724548,-5.0865044593811035,8.368428230285645
1700939093256888300,10.038888427734374,0.5842245817184448,-5.098435878753662,8.360665321350098
1700939093273882000,10.055882080078124,0.5923563241958618,-5.110954284667969,8.352447509765625
1700939093290875600,10.072875732421876,0.6029824614524841,-5.1243205070495605,8.343493461608887
1700939093307869200,10.089869140625,0.6160919070243835,-5.13820219039917,8.333992004394531
1700939093324862500,10.106862548828126,0.6283365488052368,-5.152553081512451,8.324210166931152
1700939093341856300,10.123856201171876,0.6376926898956299,-5.167928695678711,8.313963890075684
1700939093358849500,10.140849609375,0.6448414921760559,-5.184825897216797,8.30288314819336
1700939093375843000,10.157843017578125,0.6508360505104065,-5.2017130851745605,8.291845321655273
1700939093392836900,10.1748369140625,0.6557208299636841,-5.217159748077393,8.281749725341797
1700939093409830400,10.191830322265625,0.661375105381012,-5.230399131774902,8.272945404052734
1700939093426823700,10.20882373046875,0.6678637266159058,-5.240403652191162,8.26608943939209
1700939093443817000,10.22581689453125,0.6744336485862732,-5.24465274810791,8.262860298156738
1700939093460810500,10.242810546875,0.6787062287330627,-5.241257190704346,8.264664649963379
1700939093477804300,10.25980419921875,0.6776759624481201,-5.231368541717529,8.271013259887695
1700939093494797800,10.2767978515625,0.6724953055381775,-5.217185974121094,8.280388832092285
1700939093511788800,10.293788818359374,0.6670123934745789,-5.199888229370117,8.291705131530762
1700939093528786700,10.31078662109375,0.6635549068450928,-5.181288242340088,8.303617477416992
1700939093545779200,10.327779296875,0.6643021702766418,-5.165445327758789,8.313423156738281
1700939093562771700,10.344771728515624,0.6711761951446533,-5.154728412628174,8.319520950317383
1700939093579765500,10.361765625,0.6858316659927368,-5.149473667144775,8.321578025817871
1700939093596755500,10.37875537109375,0.6993685364723206,-5.148016452789307,8.321353912353516
1700939093613752300,10.39575244140625,0.7048444747924805,-5.149464130401611,8.31999683380127
1700939093630736000,10.41273583984375,0.7019179463386536,-5.152839183807373,8.318154335021973
1700939093647739600,10.42973974609375,0.6964004635810852,-5.156921863555908,8.316086769104004
1700939093664733000,10.44673291015625,0.6955912113189697,-5.162247180938721,8.312849998474121
1700939093681726500,10.4637265625,0.7007554769515991,-5.1714982986450195,8.30666446685791
1700939093698719700,10.4807197265625,0.7072084546089172,-5.184370994567871,8.298089027404785
1700939093715713300,10.49771337890625,0.7098912000656128,-5.199002742767334,8.288700103759766
1700939093732707300,10.514707275390625,0.7099005579948425,-5.215102672576904,8.278578758239746
1700939093749700600,10.53170068359375,0.7097578644752502,-5.231593132019043,8.268178939819336
1700939093766694100,10.548694091796875,0.713432252407074,-5.245493412017822,8.259052276611328
1700939093783685000,10.56568505859375,0.7232029438018799,-5.255467891693115,8.251856803894043
1700939093800683800,10.582683837890626,0.7408106923103333,-5.2624125480651855,8.245868682861328
1700939093817674800,10.5996748046875,0.7657958269119263,-5.268217086791992,8.239875793457031
1700939093834668000,10.61666796875,0.7959019541740417,-5.274502754211426,8.233000755310059
1700939093851661600,10.63366162109375,0.8295140862464905,-5.28322696685791,8.224084854125977
1700939093868655400,10.6506552734375,0.865020751953125,-5.293511390686035,8.213805198669434
1700939093885649000,10.66764892578125,0.897970974445343,-5.302883148193359,8.204217910766602
1700939093902642400,10.684642333984375,0.9240255951881409,-5.3093180656433105,8.197160720825195
1700939093919635700,10.7016357421875,0.9459672570228577,-5.3130927085876465,8.19221019744873
1700939093936626700,10.718626708984376,0.9696619510650635,-5.315401554107666,8.18794059753418
1700939093953625300,10.735625244140625,0.9968392252922058,-5.31549072265625,8.184619903564453
1700939093970616300,10.7526162109375,1.0257169008255005,-5.312050819396973,8.183284759521484
1700939093987599400,10.769599365234376,1.0527163743972778,-5.306258201599121,8.183614730834961
1700939094004603400,10.786603271484376,1.0764707326889038,-5.299581050872803,8.184849739074707
1700939094021597000,10.803596923828126,1.0971662998199463,-5.292956352233887,8.18638801574707
1700939094038583800,10.820583740234374,1.1152669191360474,-5.285002708435059,8.189080238342285
1700939094055581700,10.837581787109375,1.13048255443573,-5.276392459869385,8.192545890808105
1700939094072580000,10.854580078125,1.1406170129776,-5.266880989074707,8.197259902954102
1700939094089571000,10.871571044921875,1.1453930139541626,-5.256608963012695,8.203186988830566
1700939094106564600,10.888564697265625,1.1459614038467407,-5.244283676147461,8.210992813110352
1700939094123554000,10.905553955078124,1.1451486349105835,-5.229707717895508,8.220396995544434
1700939094140549000,10.922549072265625,1.1435704231262207,-5.214113235473633,8.230515480041504
1700939094157547800,10.9395478515625,1.1415783166885376,-5.197083950042725,8.241555213928223
1700939094174538800,10.956538818359375,1.136374831199646,-5.178772926330566,8.253789901733398
1700939094191532300,10.9735322265625,1.1268508434295654,-5.162360668182373,8.26537036895752
1700939094208525800,10.99052587890625,1.1137338876724243,-5.151440620422363,8.273957252502441
1700939094225510100,11.00751025390625,1.1004056930541992,-5.146042823791504,8.279097557067871
1700939094242514700,11.0245146484375,1.0885931253433228,-5.14324951171875,8.282394409179688
1700939094259506400,11.04150634765625,1.0768928527832031,-5.140408992767334,8.285688400268555
1700939094276512500,11.058512451171875,1.0658890008926392,-5.137297630310059,8.28903865814209
1700939094293493500,11.075493408203124,1.0554640293121338,-5.134851932525635,8.291888236999512
1700939094310487000,11.092487060546874,1.0458019971847534,-5.134250164031982,8.293485641479492
1700939094327487200,11.1094873046875,1.0375182628631592,-5.13630485534668,8.293251991271973
1700939094344473900,11.126473876953124,1.0314109325408936,-5.142210006713867,8.29035472869873
1700939094361467600,11.143467529296874,1.0273056030273438,-5.150404453277588,8.28577709197998
1700939094378450400,11.160450439453125,1.0236797332763672,-5.15966796875,8.280460357666016
1700939094395454700,11.177454833984376,1.0204298496246338,-5.170501232147217,8.274101257324219
1700939094412448300,11.1944482421875,1.0176892280578613,-5.182020664215088,8.267230987548828
1700939094429441500,11.211441650390626,1.0156631469726562,-5.193163871765137,8.26048469543457
1700939094446435300,11.228435302734376,1.0153340101242065,-5.204278945922852,8.253525733947754
1700939094463428900,11.245428955078125,1.0171512365341187,-5.215583801269531,8.246162414550781
1700939094480422100,11.262422119140625,1.0216869115829468,-5.227933883666992,8.237778663635254
1700939094497416000,11.279416015625,1.0284568071365356,-5.241340160369873,8.228410720825195
1700939094514405000,11.296405029296874,1.03713059425354,-5.256773471832275,8.21746826171875
1700939094531402800,11.31340283203125,1.0470136404037476,-5.2738728523254395,8.205249786376953
1700939094548396500,11.330396484375,1.055349349975586,-5.288415431976318,8.194815635681152
1700939094565389800,11.347389892578125,1.0601915121078491,-5.296769618988037,8.188793182373047
1700939094582383400,11.36438330078125,1.0616286993026733,-5.298176288604736,8.18769645690918
1700939094599377200,11.381377197265625,1.061065673828125,-5.295837879180908,8.18928337097168
1700939094616370200,11.3983701171875,1.0594137907028198,-5.2926740646362305,8.191542625427246
1700939094633360100,11.415360107421876,1.058698058128357,-5.291078567504883,8.192666053771973
1700939094650361000,11.432361083984375,1.0587384700775146,-5.292751312255859,8.19157886505127
1700939094667351000,11.44935107421875,1.060382604598999,-5.29871940612793,8.187507629394531
1700939094684344300,11.46634423828125,1.0633916854858398,-5.307570457458496,8.181382179260254
1700939094701333500,11.48333349609375,1.06574285030365,-5.31791353225708,8.174357414245605
1700939094718336000,11.5003359375,1.0669982433319092,-5.3294291496276855,8.1666898727417
1700939094735325000,11.517324951171876,1.06808340549469,-5.3407816886901855,8.159128189086914
1700939094752318500,11.534318359375,1.0695610046386719,-5.348877429962158,8.153629302978516
1700939094769301500,11.551301513671875,1.0707334280014038,-5.352447986602783,8.151132583618164
1700939094786305800,11.568305908203126,1.0713233947753906,-5.352165699005127,8.151240348815918
1700939094803299300,11.58529931640625,1.0732961893081665,-5.350372314453125,8.1521577835083
1700939094820292900,11.60229296875,1.07749342918396,-5.348967552185059,8.152525901794434
1700939094837286400,11.619286376953125,1.0835294723510742,-5.34770393371582,8.152554512023926
1700939094854277400,11.63627734375,1.0897397994995117,-5.344576358795166,8.153776168823242
1700939094871273700,11.653273681640625,1.095450758934021,-5.337859153747559,8.1574125289917
1700939094888269000,11.67026904296875,1.0996882915496826,-5.3282294273376465,8.163134574890137
1700939094905260500,11.687260498046875,1.1023651361465454,-5.318546772003174,8.169086456298828
1700939094922253800,11.70425390625,1.1045337915420532,-5.311462879180908,8.173399925231934
1700939094939247600,11.72124755859375,1.1068189144134521,-5.306747913360596,8.176154136657715
1700939094956241200,11.7382412109375,1.1103886365890503,-5.303160667419434,8.177996635437012
1700939094973234700,11.755234619140625,1.1154762506484985,-5.29868221282959,8.180207252502441
1700939094990228200,11.772228271484375,1.120737075805664,-5.292175769805908,8.183698654174805
1700939095007221200,11.78922119140625,1.1239811182022095,-5.283822059631348,8.188650131225586
1700939095024215000,11.806215087890624,1.1271309852600098,-5.273897171020508,8.19461441040039
1700939095041208600,11.82320849609375,1.129243016242981,-5.26402473449707,8.200669288635254
1700939095058202400,11.840202392578124,1.1300030946731567,-5.255945205688477,8.205743789672852
1700939095075195600,11.857195556640624,1.1303738355636597,-5.2509660720825195,8.208879470825195
1700939095092186600,11.8741865234375,1.132338523864746,-5.249103546142578,8.209800720214844
1700939095109185300,11.891185302734375,1.1362128257751465,-5.248751640319824,8.209491729736328
1700939095126158300,11.908158447265626,1.1416168212890625,-5.248272895812988,8.2090482711792
1700939095143169500,11.92516943359375,1.1455649137496948,-5.2472615242004395,8.20914363861084
1700939095160170500,11.94217041015625,1.1453543901443481,-5.245693683624268,8.210175514221191
1700939095177156900,11.959156982421876,1.1435195207595825,-5.2437896728515625,8.211647987365723
1700939095194150100,11.976150146484375,1.1401035785675049,-5.242580413818359,8.212895393371582
1700939095211144000,11.99314404296875,1.1363110542297363,-5.2443718910217285,8.212274551391602
1700939095228137500,12.010137451171875,1.1309597492218018,-5.248467445373535,8.210397720336914
1700939095245131000,12.027131103515625,1.127619743347168,-5.2523698806762695,8.208359718322754
1700939095262124300,12.044124267578125,1.1267344951629639,-5.252325534820557,8.208511352539062
1700939095279117800,12.061117919921875,1.1258299350738525,-5.248428821563721,8.211129188537598
1700939095296111600,12.078111572265625,1.1235355138778687,-5.2434258460998535,8.214638710021973
1700939095313105000,12.09510498046875,1.122091293334961,-5.239425182342529,8.217387199401855
1700939095330096000,12.11209619140625,1.122321605682373,-5.237109184265137,8.218832969665527
1700939095347094800,12.1290947265625,1.123333215713501,-5.2361159324646,8.21932601928711
1700939095364085800,12.146085693359375,1.125089168548584,-5.236134052276611,8.219076156616211
1700939095381079300,12.163079345703125,1.1284904479980469,-5.236415863037109,8.218430519104004
1700939095398072000,12.180072021484374,1.133353590965271,-5.234830379486084,8.218768119812012
1700939095415066600,12.197066650390624,1.1393733024597168,-5.230406761169434,8.22075366973877
1700939095432060000,12.214059814453124,1.1468015909194946,-5.224161624908447,8.223690032958984
1700939095449053400,12.231053466796874,1.1537837982177734,-5.217583179473877,8.226890563964844
1700939095466047000,12.248046875,1.1594573259353638,-5.211676597595215,8.229835510253906
1700939095483040500,12.26504052734375,1.1649764776229858,-5.207503795623779,8.231698036193848
1700939095500034000,12.282033935546876,1.1711972951889038,-5.2055983543396,8.23202133178711
1700939095517027300,12.29902734375,1.1779333353042603,-5.204894065856934,8.231505393981934
1700939095534020900,12.316020751953126,1.1836302280426025,-5.20309591293335,8.231823921203613
1700939095551012600,12.3330126953125,1.1874847412109375,-5.200130462646484,8.233142852783203
1700939095568008200,12.35000830078125,1.1900955438613892,-5.198444843292236,8.233830451965332
1700939095585001700,12.367001708984375,1.1903183460235596,-5.198676586151123,8.233651161193848
1700939095601995000,12.3839951171875,1.1882612705230713,-5.201372146606445,8.232246398925781
1700939095618981400,12.4009814453125,1.1852517127990723,-5.206521987915039,8.229424476623535
1700939095635982300,12.417982421875,1.1824613809585571,-5.21256685256958,8.225998878479004
1700939095652975600,12.4349755859375,1.1804803609848022,-5.217451095581055,8.223187446594238
1700939095669969200,12.45196923828125,1.1783344745635986,-5.220494747161865,8.221562385559082
1700939095686962700,12.468962646484375,1.1758768558502197,-5.221886157989502,8.221031188964844
1700939095703956200,12.485956298828125,1.173460841178894,-5.221303462982178,8.221745491027832
1700939095720950000,12.502949951171875,1.170954704284668,-5.219865322113037,8.223015785217285
1700939095737943000,12.519943115234375,1.1658331155776978,-5.219832420349121,8.223764419555664
1700939095754932700,12.5369326171875,1.156584620475769,-5.222131729125977,8.223610877990723
1700939095771934500,12.5539345703125,1.1477406024932861,-5.22486686706543,8.223113059997559
1700939095788927700,12.570927734375,1.1418730020523071,-5.225776195526123,8.223352432250977
1700939095805919500,12.58791943359375,1.1386669874191284,-5.224880218505859,8.224365234375
1700939095822910200,12.60491015625,1.13702392578125,-5.222330570220947,8.226213455200195
1700939095839904800,12.62190478515625,1.1360251903533936,-5.21799898147583,8.22909927368164
1700939095856898300,12.638898193359376,1.1354702711105347,-5.212810516357422,8.232462882995605
1700939095873891800,12.655891845703126,1.1354855298995972,-5.208101272583008,8.235440254211426
1700939095890885400,12.672885498046876,1.1352030038833618,-5.20503568649292,8.237417221069336
1700939095907879000,12.68987890625,1.135164499282837,-5.203077793121338,8.238658905029297
1700939095924872200,12.7068720703125,1.135514736175537,-5.202563762664795,8.238934516906738
1700939095941858800,12.72385888671875,1.1355100870132446,-5.203111171722412,8.238588333129883
1700939095958859300,12.740859375,1.1351299285888672,-5.203993320465088,8.23808479309082
1700939095975853000,12.75785302734375,1.1354591846466064,-5.204400539398193,8.237783432006836
1700939095992843500,12.774843505859375,1.1393773555755615,-5.204447269439697,8.237211227416992
1700939096009832200,12.791832275390625,1.146012783050537,-5.203896522521973,8.236639022827148
1700939096026833400,12.80883349609375,1.1525598764419556,-5.202390193939209,8.236677169799805
1700939096043822300,12.825822265625,1.157189130783081,-5.199758529663086,8.237689971923828
1700939096060811800,12.842811767578125,1.1595386266708374,-5.196412563323975,8.239472389221191
1700939096077806600,12.859806640625,1.1611436605453491,-5.193331718444824,8.241188049316406
1700939096094807600,12.8768076171875,1.1634427309036255,-5.191431522369385,8.242060661315918
1700939096111801000,12.893801025390625,1.1665178537368774,-5.19016695022583,8.242423057556152
1700939096128794600,12.910794677734375,1.169437289237976,-5.190347671508789,8.24189567565918
1700939096145788000,12.927787841796874,1.1712113618850708,-5.192582607269287,8.240234375
1700939096162782000,12.944781982421874,1.1700612306594849,-5.1952924728393555,8.238689422607422
1700939096179775200,12.961775146484374,1.1664248704910278,-5.197896957397461,8.237564086914062
1700939096196768500,12.9787685546875,1.1625230312347412,-5.200451850891113,8.23650074005127
1700939096213762300,12.99576220703125,1.159999966621399,-5.201925754547119,8.235925674438477
1700939096230755800,13.012755859375,1.1580616235733032,-5.202530384063721,8.235816955566406
1700939096247749000,13.0297490234375,1.155674695968628,-5.202578067779541,8.236123085021973
1700939096264743000,13.046742919921876,1.1510887145996094,-5.202609062194824,8.236745834350586
1700939096281736700,13.06373681640625,1.1452374458312988,-5.204070568084717,8.236637115478516
1700939096298728700,13.080728759765625,1.1416168212890625,-5.208573818206787,8.234293937683105
1700939096315723300,13.09772314453125,1.1392714977264404,-5.213335037231445,8.231605529785156
1700939096332717300,13.11471728515625,1.135549783706665,-5.218398094177246,8.228911399841309
1700939096349710600,13.131710693359375,1.1302580833435059,-5.22451114654541,8.225759506225586
1700939096366704000,13.1487041015625,1.1270999908447266,-5.231050491333008,8.222036361694336
1700939096383697400,13.165697509765625,1.127150297164917,-5.235470771789551,8.219215393066406
1700939096400692000,13.18269189453125,1.1301685571670532,-5.2371368408203125,8.217738151550293
1700939096417684700,13.199684814453125,1.13463294506073,-5.237606048583984,8.216824531555176
1700939096434681000,13.21668115234375,1.1401971578598022,-5.237825393676758,8.215914726257324
1700939096451669000,13.2336689453125,1.1482248306274414,-5.23772668838501,8.214859008789062
1700939096468659000,13.250658935546875,1.1581919193267822,-5.238047122955322,8.213255882263184
1700939096485663000,13.2676630859375,1.16604483127594,-5.239569664001465,8.211172103881836
1700939096502652200,13.284652099609374,1.1704307794570923,-5.243536949157715,8.208014488220215
1700939096519646000,13.30164599609375,1.1726497411727905,-5.249558448791504,8.203848838806152
1700939096536639500,13.318639404296874,1.1764651536941528,-5.257124900817871,8.198454856872559
1700939096553632800,13.3356328125,1.1834086179733276,-5.26462459564209,8.192642211914062
1700939096570626600,13.35262646484375,1.1942161321640015,-5.270031452178955,8.18759536743164
1700939096587620000,13.3696201171875,1.2057210206985474,-5.272179126739502,8.184527397155762
1700939096604613400,13.38661328125,1.2156133651733398,-5.2731451988220215,8.182439804077148
1700939096621596400,13.403596435546875,1.222776174545288,-5.275598049163818,8.179792404174805
1700939096638596900,13.420596923828125,1.228159785270691,-5.281030178070068,8.175477981567383
1700939096655594200,13.43759423828125,1.2337052822113037,-5.290002346038818,8.168840408325195
1700939096672589300,13.45458935546875,1.2405325174331665,-5.303587436676025,8.158992767333984
1700939096689581000,13.4715810546875,1.247228741645813,-5.3196868896484375,8.147482872009277
1700939096706574600,13.48857470703125,1.253517985343933,-5.334814071655273,8.13662052154541
1700939096723568400,13.505568359375,1.258971095085144,-5.3475422859191895,8.127418518066406
1700939096740559400,13.522559326171875,1.2660930156707764,-5.358774662017822,8.11890697479248
1700939096757557800,13.539557861328126,1.274160385131836,-5.368926525115967,8.110934257507324
1700939096774548700,13.556548828125,1.2815290689468384,-5.377887725830078,8.103832244873047
1700939096791542500,13.57354248046875,1.2880065441131592,-5.386878490447998,8.096831321716309
1700939096808536000,13.5905361328125,1.294290542602539,-5.396711826324463,8.089279174804688
1700939096825510000,13.607510009765624,1.2998805046081543,-5.40775203704834,8.081005096435547
1700939096842525700,13.624525634765625,1.303917407989502,-5.419966697692871,8.072168350219727
1700939096859516400,13.641516357421875,1.3065311908721924,-5.433722019195557,8.062490463256836
1700939096876509400,13.658509521484374,1.3082789182662964,-5.449143886566162,8.051793098449707
1700939096893503700,13.675503662109374,1.3082046508789062,-5.464358806610107,8.041486740112305
1700939096910485500,13.692485595703126,1.3060733079910278,-5.4786529541015625,8.032100677490234
1700939096927489800,13.70948974609375,1.303098201751709,-5.491931915283203,8.023510932922363
1700939096944473600,13.7264736328125,1.2994080781936646,-5.5043535232543945,8.015595436096191
1700939096961478000,13.743477783203126,1.2929604053497314,-5.515730857849121,8.00881290435791
1700939096978471400,13.760471435546876,1.2847654819488525,-5.525742053985596,8.003230094909668
1700939096995465200,13.77746533203125,1.2772266864776611,-5.532429218292236,7.999814033508301
1700939097012458500,13.79445849609375,1.270198941230774,-5.535065650939941,7.999108791351318
1700939097029452000,13.8114521484375,1.2625120878219604,-5.535548210144043,7.999992847442627
1700939097046445600,13.828445556640625,1.2558842897415161,-5.53674840927124,8.000205993652344
1700939097063439000,13.845439208984375,1.2511188983917236,-5.5383501052856445,7.999842166900635
1700939097080430800,13.862430908203125,1.246924638748169,-5.5371222496032715,8.001348495483398
1700939097097427700,13.879427734375,1.2429672479629517,-5.530201435089111,8.006749153137207
1700939097114419700,13.896419677734375,1.2377170324325562,-5.516695976257324,8.01687240600586
1700939097131413200,13.913413330078125,1.2305711507797241,-5.49758768081665,8.031085968017578
1700939097148404200,13.930404296875,1.223046898841858,-5.475187301635742,8.047520637512207
1700939097165402600,13.947402587890625,1.2159730195999146,-5.453484058380127,8.063314437866211
1700939097182393900,13.964393798828125,1.2090721130371094,-5.435748100280762,8.07631778717041
1700939097199387600,13.9813876953125,1.2033756971359253,-5.423008441925049,8.085726737976074
1700939097216380700,13.998380615234375,1.1992967128753662,-5.413577079772949,8.092650413513184
1700939097233374200,14.015374267578125,1.1960737705230713,-5.404136657714844,8.099434852600098
1700939097250357200,14.032357177734376,1.1925238370895386,-5.392868518829346,8.107465744018555
1700939097267357400,14.049357421875,1.1883999109268188,-5.379305362701416,8.117074012756348
1700939097284355000,14.06635498046875,1.184585690498352,-5.364851474761963,8.127190589904785
1700939097301347800,14.083347900390624,1.1828806400299072,-5.351111888885498,8.136491775512695
1700939097318343000,14.100343017578124,1.1811264753341675,-5.337510585784912,8.145676612854004
1700939097335336200,14.117336181640624,1.1772527694702148,-5.323843955993652,8.155174255371094
1700939097352329200,14.1343291015625,1.1721194982528687,-5.311639785766602,8.163867950439453
1700939097369322500,14.151322509765626,1.1668978929519653,-5.301843643188477,8.170980453491211
1700939097386316300,14.16831640625,1.1620131731033325,-5.294370174407959,8.176521301269531
1700939097403309800,14.185309814453126,1.157507300376892,-5.289912700653076,8.180044174194336
1700939097420303400,14.202303466796875,1.1555852890014648,-5.289677619934082,8.18046760559082
1700939097437297000,14.219296875,1.1534603834152222,-5.292733669281006,8.178790092468262
1700939097454290400,14.23629052734375,1.1503034830093384,-5.29831600189209,8.175620079040527
1700939097471284000,14.253283935546875,1.145305871963501,-5.304994106292725,8.171990394592285
1700939097488280000,14.270280029296876,1.1407800912857056,-5.3107171058654785,8.168905258178711
1700939097505265700,14.287265625,1.137536644935608,-5.314013481140137,8.167214393615723
1700939097522267400,14.304267333984376,1.1366987228393555,-5.314133644104004,8.167254447937012
1700939097539247600,14.32124755859375,1.1373460292816162,-5.310911655426025,8.169259071350098
1700939097556251600,14.338251708984375,1.1391569375991821,-5.305730819702148,8.172369956970215
1700939097573245200,14.3552451171875,1.143215537071228,-5.301349639892578,8.17464828491211
1700939097590238700,14.37223876953125,1.1493293046951294,-5.29966402053833,8.174882888793945
1700939097607232500,14.389232421875,1.154011845588684,-5.301795959472656,8.17284107208252
1700939097624236800,14.40623681640625,1.1572184562683105,-5.306428909301758,8.169381141662598
1700939097641219300,14.42321923828125,1.1614629030227661,-5.310163974761963,8.166349411010742
1700939097658212900,14.440212890625,1.166508436203003,-5.309628486633301,8.165980339050293
1700939097675206400,14.457206298828124,1.171348214149475,-5.305026531219482,8.1682767868042
1700939097692198400,14.474198486328126,1.1747232675552368,-5.299167633056641,8.171595573425293
1700939097709184300,14.491184326171876,1.1776877641677856,-5.294047832489014,8.174487113952637
1700939097726187000,14.50818701171875,1.1793431043624878,-5.290712356567383,8.176406860351562
1700939097743183400,14.525183349609375,1.1800540685653687,-5.289825916290283,8.176877975463867
1700939097760175000,14.542175048828126,1.179155945777893,-5.290718078613281,8.17642879486084
1700939097777165300,14.559165283203125,1.1774321794509888,-5.291924476623535,8.175897598266602
1700939097794163700,14.576163818359374,1.1756552457809448,-5.291518211364746,8.176416397094727
1700939097811144700,14.593144775390625,1.1738730669021606,-5.29002571105957,8.17763900756836
1700939097828148200,14.610148193359375,1.1729391813278198,-5.289549350738525,8.178081512451172
1700939097845141800,14.627141845703125,1.1740514039993286,-5.291702747344971,8.17652702331543
1700939097862135300,14.64413525390625,1.176277995109558,-5.295557975769043,8.173709869384766
1700939097879128800,14.66112890625,1.1780186891555786,-5.299855709075928,8.170675277709961
1700939097896122400,14.678122314453125,1.178080677986145,-5.303542137145996,8.16827392578125
1700939097913116200,14.6951162109375,1.1773029565811157,-5.305229663848877,8.167287826538086
1700939097930107000,14.71210693359375,1.1775041818618774,-5.3056321144104,8.166998863220215
1700939097947105800,14.729105712890625,1.180524230003357,-5.306583881378174,8.16594409942627
1700939097964096500,14.746096435546875,1.1861603260040283,-5.308372974395752,8.16396427154541
1700939097981090300,14.76309033203125,1.1890138387680054,-5.31093168258667,8.161886215209961
1700939097998086000,14.7800859375,1.186468482017517,-5.314987659454346,8.159614562988281
1700939098015074800,14.79707470703125,1.1809241771697998,-5.321567058563232,8.15613079071045
1700939098032060200,14.81406005859375,1.1774649620056152,-5.329329967498779,8.15156078338623
1700939098049064400,14.831064453125,1.1763253211975098,-5.336000919342041,8.147358894348145
1700939098066058000,14.84805810546875,1.175772786140442,-5.3413519859313965,8.143932342529297
1700939098083051300,14.86505126953125,1.1742233037948608,-5.345388889312744,8.141505241394043
1700939098100032800,14.88203271484375,1.1732350587844849,-5.347997665405273,8.139936447143555
1700939098117038300,14.899038330078126,1.172553300857544,-5.350085258483887,8.138663291931152
1700939098134032100,14.9160322265625,1.170713186264038,-5.352689266204834,8.137214660644531
1700939098151025400,14.933025390625,1.1669504642486572,-5.355922698974609,8.135627746582031
1700939098168019200,14.950019287109376,1.1626615524291992,-5.357890605926514,8.1349458694458
1700939098185011000,14.967010986328125,1.1594269275665283,-5.356668472290039,8.136214256286621
1700939098202006300,14.98400634765625,1.1572809219360352,-5.352502822875977,8.139259338378906
1700939098218999800,15.000999755859375,1.1569429636001587,-5.347651958465576,8.142495155334473
1700939098235993300,15.017993408203125,1.1590906381607056,-5.345541000366211,8.143575668334961
1700939098252986600,15.034986572265625,1.1612225770950317,-5.347544193267822,8.141956329345703
1700939098269980200,15.051980224609375,1.1610454320907593,-5.353470325469971,8.138086318969727
1700939098286974000,15.068973876953125,1.1585042476654053,-5.360897064208984,8.133557319641113
1700939098303967200,15.08596728515625,1.1559284925460815,-5.365668296813965,8.130778312683105
1700939098320961300,15.102961181640625,1.1551513671875,-5.365539073944092,8.130973815917969
1700939098337954300,15.119954345703125,1.1553683280944824,-5.36027193069458,8.134417533874512
1700939098354947800,15.13694775390625,1.156166434288025,-5.352613925933838,8.139344215393066
1700939098371941400,15.15394140625,1.1565237045288086,-5.346209526062012,8.143503189086914
1700939098388921600,15.170921630859375,1.1592789888381958,-5.34282922744751,8.145329475402832
1700939098405926100,15.187926025390626,1.163854956626892,-5.3421549797058105,8.14511775970459
1700939098422924800,15.2049248046875,1.1665605306625366,-5.343315124511719,8.14396858215332
1700939098439915800,15.221915771484374,1.1645169258117676,-5.3447265625,8.143335342407227
1700939098456909300,15.238909423828124,1.1610056161880493,-5.346281051635742,8.142817497253418
1700939098473898800,15.255898681640625,1.159799337387085,-5.347748279571533,8.142024993896484
1700939098490896400,15.272896484375,1.1616406440734863,-5.349841594696045,8.140387535095215
1700939098507890000,15.289889892578126,1.1634976863861084,-5.352576732635498,8.138325691223145
1700939098524883700,15.3068837890625,1.1635509729385376,-5.354882717132568,8.136800765991211
1700939098541877800,15.323877685546876,1.162558674812317,-5.356327533721924,8.135990142822266
1700939098558868500,15.340868408203125,1.1627768278121948,-5.356318950653076,8.135963439941406
1700939098575867100,15.3578671875,1.1656934022903442,-5.355727195739746,8.13593578338623
1700939098592856600,15.374856689453125,1.1699986457824707,-5.354106903076172,8.136384963989258
1700939098609841200,15.391841064453125,1.1726205348968506,-5.351471900939941,8.137741088867188
1700939098626844700,15.4088447265625,1.1735800504684448,-5.349147796630859,8.139131546020508
1700939098643838200,15.425838134765625,1.1738046407699585,-5.3474602699279785,8.140207290649414
1700939098660831500,15.44283154296875,1.1741150617599487,-5.346395969390869,8.140861511230469
1700939098677825500,15.459825439453125,1.1740010976791382,-5.3457255363464355,8.141318321228027
1700939098694818800,15.47681884765625,1.1739864349365234,-5.345496654510498,8.141470909118652
1700939098711812400,15.493812255859375,1.1739906072616577,-5.345146656036377,8.14169979095459
1700939098728806000,15.510805908203125,1.1728930473327637,-5.344490051269531,8.142288208007812
1700939098745799700,15.527799560546875,1.169899821281433,-5.34429407119751,8.142848014831543
1700939098762793200,15.544793212890625,1.1665873527526855,-5.345051288604736,8.142826080322266
1700939098779786500,15.561786376953124,1.1646302938461304,-5.346891403198242,8.141899108886719
1700939098796780000,15.578780029296874,1.1644636392593384,-5.348274230957031,8.141014099121094
1700939098813773800,15.59577392578125,1.165094017982483,-5.348172187805176,8.1409912109375
1700939098830767400,15.612767333984374,1.1649285554885864,-5.347691059112549,8.141331672668457
1700939098847761000,15.629760986328124,1.1650443077087402,-5.347835540771484,8.141219139099121
1700939098864754200,15.646754150390626,1.1657483577728271,-5.350621700286865,8.139286041259766
1700939098881747700,15.663747802734376,1.165835976600647,-5.356741428375244,8.135246276855469
1700939098898741200,15.6807412109375,1.164717435836792,-5.363237380981445,8.13112735748291
1700939098915734800,15.69773486328125,1.1641292572021484,-5.367443084716797,8.128436088562012
1700939098932741400,15.714741455078125,1.1655402183532715,-5.3678297996521,8.127978324890137
1700939098949722000,15.73172216796875,1.1676480770111084,-5.364978313446045,8.129559516906738
1700939098966715400,15.74871533203125,1.1698694229125977,-5.359364032745361,8.132941246032715
1700939098983709200,15.765709228515625,1.1721895933151245,-5.353470325469971,8.136487007141113
1700939099000702500,15.782702392578125,1.1743571758270264,-5.350094795227051,8.138395309448242
1700939099017696300,15.7996962890625,1.1761218309402466,-5.349845886230469,8.138304710388184
1700939099034689500,15.816689453125,1.1771018505096436,-5.351135730743408,8.137316703796387
1700939099051680500,15.833680419921874,1.1786630153656006,-5.353531360626221,8.135513305664062
1700939099068674600,15.850674560546874,1.1818434000015259,-5.355169773101807,8.133974075317383
1700939099085664500,15.86766455078125,1.1866077184677124,-5.355648040771484,8.132964134216309
1700939099102664000,15.884663818359375,1.1914421319961548,-5.355571269989014,8.132308959960938
1700939099119657200,15.9016572265625,1.19579017162323,-5.356555461883545,8.131021499633789
1700939099136651300,15.9186513671875,1.1978927850723267,-5.358773231506348,8.129251480102539
1700939099153644500,15.93564453125,1.1994136571884155,-5.361455917358398,8.127257347106934
1700939099170637800,15.952637939453124,1.2014870643615723,-5.363148212432861,8.125834465026855
1700939099187631600,15.969631591796874,1.2062022686004639,-5.362207412719727,8.125758171081543
1700939099204622800,15.986622802734376,1.2124488353729248,-5.358624458312988,8.127190589904785
1700939099221614800,16.00361474609375,1.2168512344360352,-5.3539910316467285,8.129587173461914
1700939099238605000,16.02060498046875,1.2164366245269775,-5.349537372589111,8.132580757141113
1700939099255596800,16.0375966796875,1.213396668434143,-5.344908714294434,8.136075973510742
1700939099272599300,16.054599365234374,1.210440993309021,-5.339554786682129,8.140029907226562
1700939099289593300,16.07159326171875,1.2086049318313599,-5.3343377113342285,8.143723487854004
1700939099306586400,16.08858642578125,1.2061694860458374,-5.330077648162842,8.146873474121094
1700939099323569400,16.1055693359375,1.2016561031341553,-5.327345848083496,8.14932632446289
1700939099340573700,16.12257373046875,1.1954463720321655,-5.325622081756592,8.1513671875
1700939099357567200,16.139567138671875,1.189883828163147,-5.323228359222412,8.153742790222168
1700939099374560800,16.156560791015625,1.18610417842865,-5.319225311279297,8.156906127929688
1700939099391554300,16.17355419921875,1.1827532052993774,-5.313878059387207,8.160877227783203
1700939099408547800,16.1905478515625,1.174820899963379,-5.307143211364746,8.166403770446777
1700939099425528300,16.2075283203125,1.1638684272766113,-5.299685001373291,8.172813415527344
1700939099442534700,16.22453466796875,1.153141736984253,-5.2915496826171875,8.179601669311523
1700939099459527400,16.24152734375,1.1485744714736938,-5.283608436584473,8.185375213623047
1700939099476521700,16.258521728515625,1.1515671014785767,-5.27639627456665,8.189605712890625
1700939099493515500,16.275515625,1.153955101966858,-5.270970344543457,8.192764282226562
1700939099510509000,16.292509033203125,1.1482797861099243,-5.268561840057373,8.195110321044922
1700939099527491800,16.309491943359376,1.1357182264328003,-5.267843723297119,8.197320938110352
1700939099544496000,16.32649609375,1.1218088865280151,-5.267057418823242,8.199743270874023
1700939099561489700,16.34348974609375,1.1120469570159912,-5.264773368835449,8.20253849029541
1700939099578483000,16.36048291015625,1.107782006263733,-5.260686874389648,8.205735206604004
1700939099595476500,16.3774765625,1.1040579080581665,-5.254108428955078,8.21045207977295
1700939099612470000,16.394469970703124,1.0966330766677856,-5.246150970458984,8.216533660888672
1700939099629463800,16.4114638671875,1.0874429941177368,-5.23795223236084,8.222982406616211
1700939099646457300,16.428457275390624,1.0814331769943237,-5.23043966293335,8.228555679321289
1700939099663451000,16.445450927734374,1.0801392793655396,-5.223877906799316,8.232892990112305
1700939099680444400,16.4624443359375,1.0795491933822632,-5.218255996704102,8.236534118652344
1700939099697438000,16.47943798828125,1.076125144958496,-5.212528228759766,8.240607261657715
1700939099714420700,16.496420654296877,1.0699048042297363,-5.206202983856201,8.245416641235352
1700939099731425300,16.51342529296875,1.062673568725586,-5.198955535888672,8.250921249389648
1700939099748418800,16.530418701171875,1.056697130203247,-5.192152976989746,8.25597095489502
1700939099765411800,16.547411865234373,1.050933599472046,-5.187038421630859,8.259920120239258
1700939099782405600,16.564405517578123,1.0440876483917236,-5.183013916015625,8.263314247131348
1700939099799399200,16.581399169921873,1.0354782342910767,-5.178770542144775,8.267058372497559
1700939099816392700,16.598392822265627,1.0252403020858765,-5.173028945922852,8.271925926208496
1700939099833386200,16.61538623046875,1.0150188207626343,-5.165882110595703,8.277650833129883
1700939099850386700,16.63238671875,1.00482177734375,-5.157421112060547,8.28416919708252
1700939099867357400,16.649357421875,0.9971233606338501,-5.149630069732666,8.289945602416992
1700939099884356600,16.666356689453124,0.9948622584342957,-5.1445817947387695,8.293349266052246
1700939099901360600,16.683360595703125,0.994789183139801,-5.142845153808594,8.294435501098633
1700939099918351600,16.7003515625,0.991791307926178,-5.14418888092041,8.293961524963379
1700939099935350000,16.71735009765625,0.9824427962303162,-5.148311138153076,8.292515754699707
1700939099952354000,16.73435400390625,0.9681112766265869,-5.154761791229248,8.290192604064941
1700939099969334800,16.751334716796876,0.9513794779777527,-5.1620588302612305,8.287590026855469
1700939099986328300,16.768328369140626,0.9362298846244812,-5.169532775878906,8.284655570983887
1700939100003321600,16.785321533203124,0.9239442944526672,-5.177452564239502,8.281088829040527
1700939100020315400,16.8023154296875,0.911038339138031,-5.185136795043945,8.277710914611816
1700939100037309200,16.81930908203125,0.8954777121543884,-5.191498756408691,8.275419235229492
1700939100054302700,16.836302734375,0.8755936622619629,-5.195985794067383,8.274730682373047
1700939100071285200,16.85328515625,0.8535122871398926,-5.198204040527344,8.27564525604248
1700939100088286700,16.87028662109375,0.8311700224876404,-5.1996588706970215,8.277006149291992
1700939100105275000,16.88727490234375,0.8104931116104126,-5.201620101928711,8.277823448181152
1700939100122276600,16.904276611328125,0.7927181720733643,-5.2053446769714355,8.277202606201172
1700939100139270100,16.921270263671875,0.7790526151657104,-5.211280345916748,8.274765014648438
1700939100156263700,16.938263671875,0.7681499123573303,-5.217305660247803,8.271986961364746
1700939100173257500,16.955257568359375,0.7540019750595093,-5.221222400665283,8.270817756652832
1700939100190251000,16.9722509765625,0.7347027063369751,-5.223625659942627,8.271038055419922
1700939100207244300,16.989244384765627,0.7152706384658813,-5.225149154663086,8.271778106689453
1700939100224238000,17.006238037109377,0.7003725171089172,-5.226799964904785,8.27200984954834
1700939100241231600,17.023231689453127,0.6901650428771973,-5.2279372215271,8.272150039672852
1700939100258225200,17.04022509765625,0.6818210482597351,-5.227545738220215,8.273089408874512
1700939100275218400,17.057218505859375,0.6699798703193665,-5.223086833953857,8.276871681213379
1700939100292212000,17.0742119140625,0.6529615521430969,-5.213613510131836,8.284200668334961
1700939100309203000,17.091202880859374,0.6332014203071594,-5.199735164642334,8.294452667236328
1700939100326201900,17.108201904296877,0.6142938733100891,-5.183018207550049,8.306328773498535
1700939100343191600,17.125191650390626,0.5985473394393921,-5.165238857269287,8.318544387817383
1700939100360187100,17.142187255859376,0.5867020487785339,-5.148534774780273,8.329734802246094
1700939100377180000,17.159179931640626,0.5752063989639282,-5.133760452270508,8.339651107788086
1700939100394173400,17.17617333984375,0.5620899200439453,-5.120970726013184,8.34840202331543
1700939100411168500,17.19316845703125,0.5479671359062195,-5.108815670013428,8.35678482055664
1700939100428156700,17.21015673828125,0.5344477891921997,-5.095952033996582,8.365510940551758
1700939100445156900,17.227156982421874,0.5226019620895386,-5.0825276374816895,8.374421119689941
1700939100462147600,17.244147705078124,0.5122967958450317,-5.06987190246582,8.38272476196289
1700939100479141000,17.26114111328125,0.5041803121566772,-5.060116767883301,8.389108657836914
1700939100496136200,17.27813623046875,0.500053882598877,-5.053881645202637,8.393113136291504
1700939100513124000,17.2951240234375,0.5021068453788757,-5.050528526306152,8.395007133483887
1700939100530124300,17.312124267578124,0.5099695920944214,-5.047665119171143,8.396257400512695
1700939100547106600,17.3291064453125,0.5231059789657593,-5.043141841888428,8.398165702819824
1700939100564109300,17.346109375,0.536981999874115,-5.035562038421631,8.401839256286621
1700939100581102600,17.3631025390625,0.5489243268966675,-5.026297569274902,8.40661334991455
1700939100598096000,17.380095947265627,0.5611222386360168,-5.018735408782959,8.410324096679688
1700939100615089400,17.39708935546875,0.5770681500434875,-5.013583660125732,8.412318229675293
1700939100632083000,17.4140830078125,0.5965388417243958,-5.010409355163574,8.412851333618164
1700939100649076700,17.43107666015625,0.6206579804420471,-5.010219573974609,8.411219596862793
1700939100666070300,17.4480703125,0.6434141993522644,-5.0126543045043945,8.408056259155273
1700939100683063800,17.465063720703125,0.6596238613128662,-5.01705265045166,8.404176712036133
1700939100700057300,17.482057373046874,0.6691647171974182,-5.0248823165893555,8.398743629455566
1700939100717057300,17.499057373046874,0.6766538619995117,-5.037131309509277,8.390801429748535
1700939100734044200,17.516044189453126,0.6838318705558777,-5.053109169006348,8.380606651306152
1700939100751038000,17.533037841796876,0.6921296715736389,-5.071033000946045,8.36909294128418
1700939100768031700,17.55003173828125,0.701149582862854,-5.090780735015869,8.356341361999512
1700939100785025300,17.567025390625,0.7083931565284729,-5.110934257507324,8.343420028686523
1700939100802018600,17.5840185546875,0.7115634679794312,-5.130407333374023,8.331188201904297
1700939100819009800,17.601009765625,0.7103525400161743,-5.147789478302002,8.320565223693848
1700939100836005600,17.618005615234374,0.7069973945617676,-5.162288188934326,8.31186294555664
1700939100853001700,17.635001708984376,0.7034779787063599,-5.17448091506958,8.304574966430664
1700939100869982500,17.651982421875,0.6998883485794067,-5.186183929443359,8.297577857971191
1700939100886986200,17.668986328125,0.695774257183075,-5.199942111968994,8.289306640625
1700939100903980000,17.68597998046875,0.6935189962387085,-5.2184367179870605,8.277865409851074
1700939100920973600,17.7029736328125,0.693354070186615,-5.242130756378174,8.262895584106445
1700939100937967000,17.719967041015625,0.6905392408370972,-5.269342422485352,8.245804786682129
1700939100954960600,17.736960693359375,0.6848124861717224,-5.2966766357421875,8.228753089904785
1700939100971954200,17.7539541015625,0.6786126494407654,-5.3217902183532715,8.213047981262207
1700939100988947500,17.770947509765627,0.6738085746765137,-5.344058990478516,8.19897174835205
1700939101005941800,17.787941650390625,0.671059250831604,-5.3631978034973145,8.186691284179688
1700939101022934800,17.804934814453127,0.6692243814468384,-5.37837553024292,8.176877975463867
1700939101039928300,17.82192822265625,0.6677228212356567,-5.389638423919678,8.16958236694336
1700939101056919300,17.838919189453126,0.6656920909881592,-5.397486686706543,8.164565086364746
1700939101073918000,17.85591796875,0.6632421016693115,-5.402896404266357,8.161185264587402
1700939101090909200,17.8729091796875,0.6626719832420349,-5.405591011047363,8.159445762634277
1700939101107902500,17.88990234375,0.6644641757011414,-5.4047417640686035,8.159862518310547
1700939101124896300,17.906896240234374,0.6672825217247009,-5.40011739730835,8.162694931030273
1700939101141889800,17.923889892578124,0.6696430444717407,-5.392458438873291,8.167561531066895
1700939101158883000,17.940883056640626,0.6700423955917358,-5.383477210998535,8.173453330993652
1700939101175876900,17.957876953125,0.6684589982032776,-5.374364376068115,8.179577827453613
1700939101192870400,17.974870361328126,0.6657441258430481,-5.365572452545166,8.185567855834961
1700939101209864200,17.9918642578125,0.6646179556846619,-5.355849742889404,8.192024230957031
1700939101226857200,18.008857177734374,0.6652184724807739,-5.344725608825684,8.199239730834961
1700939101243850800,18.025850830078124,0.6670819520950317,-5.3339056968688965,8.206130027770996
1700939101260844500,18.042844482421874,0.6675772070884705,-5.324796199798584,8.212004661560059
1700939101277838000,18.059838134765624,0.664019763469696,-5.31760311126709,8.216951370239258
1700939101294831400,18.076831298828125,0.6564698815345764,-5.3114542961120605,8.22153377532959
1700939101311815700,18.093815673828125,0.6480820178985596,-5.306047439575195,8.225688934326172
1700939101328818700,18.110818603515625,0.6446918249130249,-5.299273490905762,8.230321884155273
1700939101345812200,18.127812255859375,0.6446216106414795,-5.290611743927002,8.2358980178833
1700939101362806000,18.144805908203125,0.6454063653945923,-5.281127452850342,8.241921424865723
1700939101379799300,18.16179931640625,0.6459483504295349,-5.273953914642334,8.246471405029297
1700939101396792800,18.178792724609377,0.6465991735458374,-5.269672393798828,8.249156951904297
1700939101413800000,18.195800048828126,0.6488521099090576,-5.267457008361816,8.250393867492676
1700939101430777600,18.212777587890624,0.6518324017524719,-5.265899658203125,8.251152992248535
1700939101447776300,18.2297763671875,0.6531229019165039,-5.263819694519043,8.252378463745117
1700939101464764700,18.2467646484375,0.6526837944984436,-5.261250972747803,8.254051208496094
1700939101481763000,18.26376318359375,0.652409553527832,-5.257246494293213,8.256624221801758
1700939101498754300,18.28075439453125,0.6500320434570312,-5.250697612762451,8.260977745056152
1700939101515747800,18.297747802734374,0.6467880606651306,-5.242106914520264,8.26668643951416
1700939101532741000,18.3147412109375,0.6444275379180908,-5.231797218322754,8.273399353027344
1700939101549735000,18.33173486328125,0.6447783708572388,-5.219233512878418,8.281303405761719
1700939101566728400,18.348728515625,0.6472750902175903,-5.203981399536133,8.290701866149902
1700939101583705900,18.365705810546874,0.6532790064811707,-5.187705993652344,8.300424575805664
1700939101600711700,18.382711669921875,0.66311115026474,-5.171581268310547,8.309700965881348
1700939101617713200,18.399713134765626,0.6756879091262817,-5.15706729888916,8.317704200744629
1700939101634702600,18.41670263671875,0.6893341541290283,-5.146677494049072,8.323019027709961
1700939101651696000,18.433696044921874,0.7035276889801025,-5.142812728881836,8.324219703674316
1700939101668689700,18.450689697265624,0.7171627879142761,-5.147124767303467,8.320390701293945
1700939101685683500,18.467683349609374,0.7267335057258606,-5.15868616104126,8.312396049499512
1700939101702677000,18.484677001953123,0.7322076559066772,-5.175751686096191,8.301300048828125
1700939101719670500,18.50167041015625,0.7358399629592896,-5.196165084838867,8.288214683532715
1700939101736664000,18.5186640625,0.7393190264701843,-5.218384265899658,8.273934364318848
1700939101753657600,18.53565771484375,0.7413650155067444,-5.240195274353027,8.259956359863281
1700939101770651000,18.55265087890625,0.7409054040908813,-5.259094715118408,8.247977256774902
1700939101787644700,18.569644775390625,0.7383261919021606,-5.273603439331055,8.238937377929688
1700939101804638200,18.58663818359375,0.7360931634902954,-5.284193515777588,8.232349395751953
1700939101821631700,18.6036318359375,0.7364270091056824,-5.291877746582031,8.227383613586426
1700939101838625000,18.620625,0.738908588886261,-5.298107147216797,8.223149299621582
1700939101855619000,18.637619140625,0.7413655519485474,-5.304008483886719,8.219122886657715
1700939101872612400,18.6546123046875,0.7420444488525391,-5.309250831604004,8.215675354003906
1700939101889606100,18.671606201171876,0.7405031323432922,-5.312690734863281,8.213591575622559
1700939101906599400,18.688599365234374,0.7381197810173035,-5.313894748687744,8.213027954101562
1700939101923590700,18.705590576171875,0.7373082041740417,-5.313859939575195,8.213122367858887
1700939101940589300,18.72258935546875,0.737287163734436,-5.3127641677856445,8.213834762573242
1700939101957580000,18.739580078125,0.7377075552940369,-5.31063985824585,8.215168952941895
1700939101974573600,18.756573486328126,0.7381519675254822,-5.306845664978027,8.217581748962402
1700939101991567600,18.773567626953124,0.7395447492599487,-5.301657199859619,8.220805168151855
1700939102008547300,18.79054736328125,0.743194580078125,-5.295483589172363,8.22445297241211
1700939102025544000,18.8075439453125,0.7480098009109497,-5.2891435623168945,8.228096008300781
1700939102042547700,18.824547607421874,0.7532699108123779,-5.282145023345947,8.232110023498535
1700939102059551500,18.841551513671874,0.7581634521484375,-5.273478984832764,8.23721694946289
1700939102076535000,18.85853515625,0.7636551856994629,-5.262638568878174,8.243638038635254
1700939102093528800,18.87552880859375,0.7698216438293457,-5.249405860900879,8.251498222351074
1700939102110522400,18.8925224609375,0.7739492058753967,-5.234045505523682,8.2608642578125
1700939102127505200,18.909505126953125,0.7760144472122192,-5.217841625213623,8.270915031433105
1700939102144509400,18.926509521484373,0.7778306007385254,-5.201056957244873,8.281309127807617
1700939102161502700,18.943502685546875,0.7792555689811707,-5.184196472167969,8.291741371154785
1700939102178486000,18.960486083984375,0.7806337475776672,-5.169102668762207,8.301032066345215
1700939102195489800,18.97748974609375,0.7824832201004028,-5.156878471374512,8.308456420898438
1700939102212483600,18.994483642578125,0.7850372791290283,-5.147263050079346,8.314173698425293
1700939102229470500,19.011470458984373,0.7884643077850342,-5.140191555023193,8.318225860595703
1700939102246470700,19.028470703125,0.7915738821029663,-5.134481430053711,8.321455001831055
1700939102263464200,19.045464111328126,0.794662356376648,-5.128786087036133,8.324673652648926
1700939102280447200,19.062447265625,0.7972590923309326,-5.121219635009766,8.329081535339355
1700939102297440800,19.079440673828124,0.7993950843811035,-5.110098838806152,8.335704803466797
1700939102314442500,19.0964423828125,0.801946222782135,-5.096992015838623,8.34348201751709
1700939102331441200,19.113441162109375,0.8061515688896179,-5.085685729980469,8.349971771240234
1700939102348432100,19.13043212890625,0.8112550377845764,-5.0786004066467285,8.353789329528809
1700939102365425700,19.14742578125,0.815801203250885,-5.075672626495361,8.35512638092041
1700939102382419200,19.164419189453124,0.8206199407577515,-5.07707405090332,8.353801727294922
1700939102399412700,19.181412841796874,0.82584148645401,-5.0829668045043945,8.349702835083008
1700939102416406000,19.198406005859376,0.8293889760971069,-5.091180801391602,8.344346046447754
1700939102433393700,19.2153935546875,0.8304531574249268,-5.098511695861816,8.339762687683105
1700939102450382300,19.23238232421875,0.8307332396507263,-5.10438346862793,8.336142539978027
1700939102467389400,19.249389404296874,0.8329826593399048,-5.108497142791748,8.33339786529541
1700939102484380400,19.26638037109375,0.8366062045097351,-5.11028528213501,8.331937789916992
1700939102501374200,19.283374267578125,0.8388912677764893,-5.109818458557129,8.331995964050293
1700939102518367700,19.30036767578125,0.8390772342681885,-5.108806610107422,8.332595825195312
1700939102535361300,19.317361328125,0.8372236490249634,-5.108798503875732,8.33278751373291
1700939102552350000,19.334349853515626,0.8354303240776062,-5.111215114593506,8.3314847946167
1700939102569353700,19.351353759765626,0.8345988392829895,-5.115331649780273,8.329042434692383
1700939102586340400,19.36834033203125,0.8351379632949829,-5.119606971740723,8.326359748840332
1700939102603335400,19.38533544921875,0.8362928032875061,-5.122330665588379,8.324570655822754
1700939102620329000,19.402328857421875,0.8349444270133972,-5.124246597290039,8.323527336120605
1700939102637322500,19.419322509765625,0.8329756855964661,-5.126754283905029,8.322179794311523
1700939102654317800,19.43631787109375,0.8316682577133179,-5.1306657791137695,8.319899559020996
1700939102671307800,19.453307861328124,0.8318775296211243,-5.135549068450928,8.316864967346191
1700939102688303400,19.470303466796874,0.8328633904457092,-5.1400465965271,8.313986778259277
1700939102705297400,19.48729736328125,0.8334972262382507,-5.142065048217773,8.312675476074219
1700939102722290200,19.504290283203126,0.8322599530220032,-5.139688968658447,8.314268112182617
1700939102739284000,19.521283935546876,0.8288177251815796,-5.136133670806885,8.316807746887207
1700939102756277500,19.538277587890626,0.8263314962387085,-5.134357452392578,8.318151473999023
1700939102773270800,19.555270751953124,0.8272916078567505,-5.136102199554443,8.316980361938477
1700939102790264300,19.572264404296874,0.8313805460929871,-5.139951705932617,8.314192771911621
1700939102807257900,19.5892578125,0.8348830342292786,-5.144382953643799,8.311101913452148
1700939102824251600,19.606251708984374,0.8364804983139038,-5.147094249725342,8.309261322021484
1700939102841234400,19.623234375,0.837322473526001,-5.147228240966797,8.309093475341797
1700939102858221600,19.6402216796875,0.8399122357368469,-5.145122051239014,8.310137748718262
1700939102875232300,19.657232177734375,0.8443567156791687,-5.14210319519043,8.311556816101074
1700939102892225800,19.674225830078125,0.8483784198760986,-5.139455795288086,8.312783241271973
1700939102909217000,19.691217041015626,0.8494911193847656,-5.137857913970947,8.3136568069458
1700939102926215700,19.708215576171874,0.8482497930526733,-5.137513160705566,8.313997268676758
1700939102943196000,19.72519580078125,0.8486906290054321,-5.139377117156982,8.312801361083984
1700939102960200000,19.742199951171877,0.8528380990028381,-5.145108699798584,8.308830261230469
1700939102977193500,19.759193359375,0.8577240109443665,-5.153558731079102,8.30308723449707
1700939102994187300,19.776187255859377,0.8600009083747864,-5.162379264831543,8.297370910644531
1700939103011180500,19.7931806640625,0.8598541617393494,-5.168712139129639,8.293442726135254
1700939103028174300,19.81017431640625,0.8597652912139893,-5.170973300933838,8.29204273223877
1700939103045167900,19.82716796875,0.8623374700546265,-5.169816017150879,8.292495727539062
1700939103062161200,19.8441611328125,0.8668596744537354,-5.167121410369873,8.29370403289795
1700939103079155000,19.861155029296874,0.8717035055160522,-5.166555881500244,8.293547630310059
1700939103096148500,19.8781484375,0.8749961256980896,-5.170146942138672,8.29096508026123
1700939103113140000,19.895139892578126,0.87759929895401,-5.1779890060424805,8.28579330444336
1700939103130133500,19.912133544921875,0.8798522353172302,-5.189141750335693,8.278572082519531
1700939103147133700,19.9291337890625,0.8829600214958191,-5.20188570022583,8.270240783691406
1700939103164123100,19.946123046875,0.8871665000915527,-5.2139739990234375,8.262175559997559
1700939103181116400,19.963116455078126,0.8929259777069092,-5.225526809692383,8.254252433776855
1700939103198110000,19.98010986328125,0.8994702100753784,-5.236011505126953,8.246893882751465
1700939103215103500,19.997103515625,0.90326327085495,-5.2443528175354,8.24117660522461
1700939103232096000,20.014095947265623,0.9043806791305542,-5.251233100891113,8.236672401428223
1700939103249090600,20.031090576171874,0.9070791602134705,-5.258609294891357,8.231667518615723
1700939103266084000,20.048083984375,0.9099788069725037,-5.265279293060303,8.227083206176758
1700939103283064000,20.06506396484375,0.9114388823509216,-5.269861221313477,8.223986625671387
1700939103300068900,20.08206884765625,0.912277340888977,-5.272441387176514,8.22223949432373
1700939103317056500,20.099056396484375,0.9153430461883545,-5.274662971496582,8.220474243164062
1700939103334058200,20.116058349609375,0.9205307364463806,-5.276864528656006,8.218481063842773
1700939103351051800,20.1330517578125,0.9256739020347595,-5.2776594161987305,8.21739387512207
1700939103368045600,20.150045654296875,0.9286741018295288,-5.277027606964111,8.217460632324219
1700939103385039000,20.1670390625,0.9298792481422424,-5.276088714599609,8.217927932739258
1700939103402032600,20.18403271484375,0.930328905582428,-5.274048328399658,8.219185829162598
1700939103419026400,20.2010263671875,0.9302125573158264,-5.2703962326049805,8.221541404724121
1700939103436019700,20.218019775390626,0.9307639002799988,-5.265953063964844,8.224327087402344
1700939103453013500,20.235013427734376,0.9311966300010681,-5.261274814605713,8.227270126342773
1700939103470006800,20.2520068359375,0.9304376244544983,-5.2555670738220215,8.231001853942871
1700939103487000300,20.269000244140624,0.9287244081497192,-5.249670028686523,8.234957695007324
1700939103503994000,20.285994140625,0.9270819425582886,-5.245061874389648,8.238079071044922
1700939103520987600,20.302987548828124,0.925692617893219,-5.243038177490234,8.23952579498291
1700939103537981200,20.319981201171874,0.9238308668136597,-5.24384880065918,8.239215850830078
1700939103554974500,20.336974365234376,0.9217019081115723,-5.245955944061279,8.238113403320312
1700939103571968000,20.353968017578126,0.9197144508361816,-5.248586654663086,8.236660957336426
1700939103588943400,20.370943359375,0.9189350008964539,-5.2508015632629395,8.235335350036621
1700939103605955300,20.387955322265626,0.9193378686904907,-5.252048492431641,8.234496116638184
1700939103622937600,20.4049375,0.9223217368125916,-5.252756595611572,8.233710289001465
1700939103639933200,20.42193310546875,0.9282858967781067,-5.252825736999512,8.23299503326416
1700939103656936000,20.43893603515625,0.9350762367248535,-5.253202438354492,8.231986999511719
1700939103673929700,20.4559296875,0.9402551054954529,-5.255171298980713,8.230140686035156
1700939103690923000,20.472923095703123,0.9437552690505981,-5.2608561515808105,8.226106643676758
1700939103707915300,20.489915283203125,0.9470168352127075,-5.269623756408691,8.220117568969727
1700939103724910300,20.506910400390623,0.9514104127883911,-5.279065132141113,8.213550567626953
1700939103741903400,20.5239033203125,0.9575172662734985,-5.28818416595459,8.2069730758667
1700939103758897400,20.5408974609375,0.9647520184516907,-5.2961554527282715,8.200982093811035
1700939103775891000,20.557890869140625,0.9722896814346313,-5.302421569824219,8.196043014526367
1700939103792884200,20.57488427734375,0.9787678122520447,-5.307519435882568,8.19196891784668
1700939103809867800,20.59186767578125,0.9840998649597168,-5.312266826629639,8.188253402709961
1700939103826869500,20.608869384765626,0.9882823824882507,-5.317048072814941,8.184645652770996
1700939103843867400,20.625867431640625,0.9906973242759705,-5.321474552154541,8.181475639343262
1700939103860858600,20.642858642578126,0.9897991418838501,-5.324855804443359,8.179384231567383
1700939103877852200,20.65985205078125,0.986243486404419,-5.3274827003479,8.178102493286133
1700939103894846000,20.676845947265626,0.9802781343460083,-5.329428195953369,8.177552223205566
1700939103911839200,20.693839111328124,0.97347491979599,-5.3309245109558105,8.177390098571777
1700939103928833000,20.7108330078125,0.9659337401390076,-5.331668853759766,8.177799224853516
1700939103945826600,20.72782666015625,0.9576593637466431,-5.332492351531982,8.178235054016113
1700939103962820000,20.744820068359374,0.9502123594284058,-5.3340277671813965,8.178102493286133
1700939103979813400,20.7618134765625,0.942927896976471,-5.337596416473389,8.176617622375488
1700939103996807200,20.77880712890625,0.9345815777778625,-5.344953536987305,8.172768592834473
1700939104013800700,20.79580078125,0.9266433715820312,-5.3556437492370605,8.166672706604004
1700939104030783700,20.81278369140625,0.9193910956382751,-5.367188930511475,8.159908294677734
1700939104047788000,20.8297880859375,0.9100618362426758,-5.377662658691406,8.154057502746582
1700939104064770800,20.846770751953127,0.8965185284614563,-5.3856987953186035,8.150252342224121
1700939104081774800,20.86377490234375,0.8795259594917297,-5.389797210693359,8.149394989013672
1700939104098768400,20.880768310546873,0.8618813753128052,-5.38947057723999,8.151495933532715
1700939104115762200,20.89776220703125,0.8446344137191772,-5.386686325073242,8.155139923095703
1700939104132763400,20.914763427734375,0.828883171081543,-5.3841753005981445,8.158414840698242
1700939104149749200,20.931749267578127,0.8155381083488464,-5.38330602645874,8.160334587097168
1700939104166742800,20.94874267578125,0.804947018623352,-5.383187770843506,8.161462783813477
1700939104183740400,20.965740478515624,0.7956692576408386,-5.383782386779785,8.161979675292969
1700939104200729900,20.982729736328125,0.787136435508728,-5.3858561515808105,8.16143798828125
1700939104217723400,20.999723388671875,0.7804454565048218,-5.3882622718811035,8.160492897033691
1700939104234717400,21.016717529296876,0.7745426893234253,-5.388815879821777,8.160691261291504
1700939104251710700,21.033710693359374,0.7705151438713074,-5.38777494430542,8.161759376525879
1700939104268704300,21.050704345703124,0.7689112424850464,-5.383347988128662,8.164830207824707
1700939104285697500,21.067697509765626,0.769133985042572,-5.373772621154785,8.171113967895508
1700939104302691300,21.08469140625,0.7721312642097473,-5.359358787536621,8.180294036865234
1700939104319685000,21.10168505859375,0.7769598960876465,-5.342347621917725,8.190957069396973
1700939104336678700,21.1186787109375,0.7837648987770081,-5.325062274932861,8.201557159423828
1700939104353672000,21.135671875,0.7899991869926453,-5.30922269821167,8.211222648620605
1700939104370665700,21.152665771484376,0.7951582074165344,-5.295952796936035,8.219290733337402
1700939104387659000,21.169658935546874,0.8004739284515381,-5.28504753112793,8.225790023803711
1700939104404652800,21.18665283203125,0.8094564080238342,-5.27592658996582,8.23076343536377
1700939104421646300,21.203646240234374,0.8214759230613708,-5.26849365234375,8.234333992004395
1700939104438642400,21.220642333984376,0.8347187042236328,-5.263423919677734,8.236246109008789
1700939104455631000,21.237631103515625,0.847173273563385,-5.260542392730713,8.23681354522705
1700939104472627000,21.254626953125,0.857383131980896,-5.257681846618652,8.237585067749023
1700939104489620700,21.271620849609373,0.8639940023422241,-5.252674102783203,8.240087509155273
1700939104506614000,21.288614013671875,0.8673742413520813,-5.245209217071533,8.244486808776855
1700939104523605200,21.305605224609376,0.8706124424934387,-5.237909317016602,8.248785018920898
1700939104540603600,21.322603759765624,0.8751194477081299,-5.232061862945557,8.252018928527832
1700939104557586700,21.339586669921875,0.8802205920219421,-5.228573322296143,8.253686904907227
1700939104574588400,21.35658837890625,0.8851462602615356,-5.228715896606445,8.253070831298828
1700939104591582200,21.373582275390625,0.8880810141563416,-5.232508182525635,8.250349044799805
1700939104608575500,21.390575439453126,0.8924793004989624,-5.238397121429443,8.246137619018555
1700939104625571600,21.407571533203125,0.9006145000457764,-5.243256568908691,8.242166519165039
1700939104642562800,21.424562744140626,0.9105892777442932,-5.246186256408691,8.239202499389648
1700939104659556400,21.441556396484376,0.9201629161834717,-5.248297691345215,8.236796379089355
1700939104676550000,21.4585498046875,0.9295055866241455,-5.25108003616333,8.233973503112793
1700939104693543400,21.47554345703125,0.9401849508285522,-5.254406929016113,8.230635643005371
1700939104710536700,21.49253662109375,0.9536329507827759,-5.2584123611450195,8.226531028747559
1700939104727522300,21.509522216796874,0.9688807725906372,-5.263363361358643,8.221580505371094
1700939104744524000,21.52652392578125,0.9821702837944031,-5.2684760093688965,8.216728210449219
1700939104761517600,21.543517578125,0.9903318285942078,-5.275608539581299,8.211170196533203
1700939104778510800,21.5605107421875,0.9929917454719543,-5.285284996032715,8.204622268676758
1700939104795504600,21.577504638671876,0.9925222396850586,-5.296110153198242,8.197697639465332
1700939104812498400,21.59449853515625,0.9917871952056885,-5.306942939758301,8.190777778625488
1700939104829491700,21.61149169921875,0.9919848442077637,-5.317292213439941,8.184039115905762
1700939104846485500,21.628485595703125,0.9935805797576904,-5.32631778717041,8.177972793579102
1700939104863478800,21.645478759765624,0.9973672032356262,-5.335499286651611,8.171525955200195
1700939104880472600,21.66247265625,1.002010464668274,-5.345646381378174,8.164322853088379
1700939104897465900,21.6794658203125,1.0068496465682983,-5.356182098388672,8.156818389892578
1700939104914459600,21.696459716796873,1.012360692024231,-5.367076396942139,8.148971557617188
1700939104931453400,21.713453369140623,1.0197895765304565,-5.379505157470703,8.139843940734863
1700939104948438000,21.73043798828125,1.0247129201889038,-5.391677379608154,8.1311674118042
1700939104965440500,21.7474404296875,1.0240492820739746,-5.401865482330322,8.12448501586914
1700939104982447900,21.76444775390625,1.0187183618545532,-5.409221649169922,8.120262145996094
1700939104999427300,21.78142724609375,1.0109730958938599,-5.41366720199585,8.118267059326172
1700939105016421000,21.798421142578125,1.001837968826294,-5.414708614349365,8.118704795837402
1700939105033414700,21.81541455078125,0.9923853874206543,-5.411331653594971,8.122116088867188
1700939105050419000,21.8324189453125,0.9845863580703735,-5.40218448638916,8.129151344299316
1700939105067391200,21.84939111328125,0.9814329743385315,-5.387777805328369,8.139087677001953
1700939105084395300,21.866395263671876,0.9833672046661377,-5.370432376861572,8.150310516357422
1700939105101388800,21.883388916015626,0.984314501285553,-5.353313446044922,8.161449432373047
1700939105118382600,21.900382568359376,0.9786731004714966,-5.337039947509766,8.172779083251953
1700939105135376000,21.9173759765625,0.9678311944007874,-5.32079553604126,8.184654235839844
1700939105152359000,21.93435888671875,0.9583627581596375,-5.301939487457275,8.197993278503418
1700939105169363000,21.951363037109374,0.9526020884513855,-5.27931547164917,8.213251113891602
1700939105186356700,21.968356689453124,0.9491604566574097,-5.255119323730469,8.22914981842041
1700939105203350500,21.9853505859375,0.9470490217208862,-5.231180191040039,8.244632720947266
1700939105220343800,22.00234375,0.9460964798927307,-5.2083892822265625,8.259159088134766
