time,seconds_elapsed,z,y,x
1701897633979036400,0.109036376953125,7.792543888092041,5.806995868682861,1.3383493423461914
1701897633996026000,0.126026123046875,7.811076641082764,5.786658763885498,1.3182458877563477
1701897634013020000,0.14302001953125,7.822046279907227,5.778602123260498,1.2881999015808105
1701897634030011100,0.16001123046875,7.825340747833252,5.7809624671936035,1.2572277784347534
1701897634047002000,0.177002197265625,7.819753170013428,5.7936811447143555,1.2332205772399902
1701897634063998700,0.193998779296875,7.814280033111572,5.806646823883057,1.206644058227539
1701897634080988200,0.21098828125,7.815184116363525,5.8108439445495605,1.180296540260315
1701897634097991200,0.2279912109375,7.816524982452393,5.813360691070557,1.1588326692581177
1701897634114977300,0.244977294921875,7.809588432312012,5.825621128082275,1.1439334154129028
1701897634131968500,0.261968505859375,7.792806148529053,5.848050117492676,1.1439361572265625
1701897634148963000,0.278963134765625,7.7688889503479,5.877379417419434,1.1562378406524658
1701897634165951200,0.295951171875,7.744247913360596,5.909176349639893,1.159471035003662
1701897634182943700,0.31294384765625,7.734318256378174,5.92463493347168,1.1467933654785156
1701897634199940900,0.32994091796875,7.739996910095215,5.919845104217529,1.1331324577331543
1701897634216929300,0.34692919921875,7.747584342956543,5.912254333496094,1.1208468675613403
1701897634233925400,0.36392529296875,7.744647979736328,5.917645454406738,1.1126590967178345
1701897634250919200,0.380919189453125,7.723920822143555,5.943274021148682,1.120111107826233
1701897634267904500,0.397904541015625,7.684945106506348,5.989428997039795,1.1421366930007935
1701897634284904200,0.414904296875,7.634343147277832,6.0481858253479,1.1714770793914795
1701897634301895000,0.43189501953125,7.584292888641357,6.102169036865234,1.2157902717590332
1701897634318905900,0.44890576171875,7.543604373931885,6.139651775360107,1.2786028385162354
1701897634335876600,0.465876708984375,7.505923748016357,6.164931297302246,1.3750783205032349
1701897634352876000,0.4828759765625,7.460238933563232,6.1901702880859375,1.5042394399642944
1701897634369866800,0.49986669921875,7.398878574371338,6.220919132232666,1.671187400817871
1701897634386857700,0.516857666015625,7.299377918243408,6.267309188842773,1.917299509048462
1701897634403854800,0.533854736328125,7.163937091827393,6.31638765335083,2.239948034286499
1701897634420843800,0.55084375,7.0196452140808105,6.342684268951416,2.5944254398345947
1701897634437832700,0.567832763671875,6.872148036956787,6.348797798156738,2.9499928951263428
1701897634454830800,0.584830810546875,6.663920879364014,6.347718715667725,3.396280527114868
1701897634471820300,0.6018203125,6.306975364685059,6.3427324295043945,4.028388977050781
1701897634488815000,0.618815185546875,5.841135025024414,6.285093307495117,4.755508899688721
1701897634505810400,0.635810546875,5.401121139526367,6.105742454528809,5.457464694976807
1701897634522802000,0.652802001953125,5.0959014892578125,5.779506206512451,6.071673393249512
1701897634539795700,0.669795654296875,4.980438709259033,5.319562911987305,6.567617416381836
1701897634556780500,0.686780517578125,4.937849521636963,4.787172794342041,6.995478630065918
1701897634573777700,0.703777587890625,4.77762508392334,4.284158229827881,7.420000076293945
1701897634590772500,0.7207724609375,4.424737930297852,3.8742504119873047,7.85162353515625
1701897634607761400,0.737761474609375,3.947126865386963,3.5059096813201904,8.26830768585205
1701897634624757200,0.75475732421875,3.473839044570923,3.0960617065429688,8.63614273071289
1701897634641749500,0.77174951171875,3.0810577869415283,2.6366031169891357,8.932611465454102
1701897634658739700,0.78873974609375,2.6883347034454346,2.1615548133850098,9.18349838256836
1701897634675735600,0.805735595703125,2.2140448093414307,1.6978013515472412,9.404870986938477
1701897634692723700,0.8227236328125,1.7074350118637085,1.2159065008163452,9.583442687988281
1701897634709721300,0.839721435546875,1.2631986141204834,0.705907940864563,9.70268726348877
1701897634726710000,0.8567099609375,0.937135636806488,0.19404585659503937,9.763208389282227
1701897634743705300,0.873705322265625,0.6985867619514465,-0.2924647331237793,9.780725479125977
1701897634760694000,0.890694091796875,0.49833542108535767,-0.7243823409080505,9.770519256591797
1701897634777690400,0.9076904296875,0.2860832214355469,-1.0950545072555542,9.744492530822754
1701897634794673700,0.924673583984375,0.04748348519206047,-1.4411394596099854,9.703452110290527
1701897634811676200,0.94167626953125,-0.19884860515594482,-1.7973660230636597,9.641890525817871
1701897634828666600,0.95866650390625,-0.42714789509773254,-2.1544015407562256,9.560973167419434
1701897634845659400,0.975659423828125,-0.6212930083274841,-2.4945147037506104,9.467181205749512
1701897634862656800,0.99265673828125,-0.7872340679168701,-2.811567783355713,9.365440368652344
1701897634879648000,1.00964794921875,-0.9380460381507874,-3.1087112426757812,9.257001876831055
1701897634896639700,1.0266396484375,-1.0892263650894165,-3.402822494506836,9.136220932006836
1701897634913632000,1.043632080078125,-1.256456732749939,-3.704437017440796,8.996366500854492
1701897634930626000,1.0606259765625,-1.4413889646530151,-3.9982798099517822,8.841507911682129
1701897634947614700,1.07761474609375,-1.6181672811508179,-4.254563331604004,8.690013885498047
1701897634964610800,1.09461083984375,-1.7611855268478394,-4.4581990242004395,8.559136390686035
1701897634981603800,1.111603759765625,-1.8582954406738281,-4.60843563079834,8.4584379196167
1701897634998592800,1.1285927734375,-1.9109209775924683,-4.715897560119629,8.387181282043457
1701897635015588900,1.1455888671875,-1.9339327812194824,-4.795413494110107,8.33666706085205
1701897635032581600,1.16258154296875,-1.9358161687850952,-4.852360725402832,8.30321216583252
1701897635049579500,1.17957958984375,-1.9219692945480347,-4.886260986328125,8.286531448364258
1701897635066561800,1.196561767578125,-1.8942430019378662,-4.894100189208984,8.288289070129395
1701897635083558700,1.21355859375,-1.863690733909607,-4.878587245941162,8.304346084594727
1701897635100552700,1.230552734375,-1.8398685455322266,-4.8506574630737305,8.325989723205566
1701897635117541600,1.247541748046875,-1.8218802213668823,-4.825237274169922,8.344697952270508
1701897635134537000,1.264536865234375,-1.807574987411499,-4.814103603363037,8.354232788085938
1701897635151528200,1.281528076171875,-1.79520583152771,-4.8136773109436035,8.357145309448242
1701897635168522800,1.298522705078125,-1.7927522659301758,-4.807778358459473,8.361066818237305
1701897635185515800,1.315515869140625,-1.80635404586792,-4.794715404510498,8.365638732910156
1701897635202507500,1.332507568359375,-1.8323514461517334,-4.781876087188721,8.367332458496094
1701897635219502000,1.349502197265625,-1.8671873807907104,-4.770432472229004,8.366164207458496
1701897635236490500,1.366490478515625,-1.9040663242340088,-4.75583028793335,8.366167068481445
1701897635253484000,1.383484130859375,-1.935989260673523,-4.734493255615234,8.370939254760742
1701897635270477800,1.400477783203125,-1.9579174518585205,-4.7042975425720215,8.382856369018555
1701897635287469300,1.41746923828125,-1.9614795446395874,-4.660415172576904,8.406500816345215
1701897635304464000,1.4344638671875,-1.9511926174163818,-4.599787712097168,8.442211151123047
1701897635321458000,1.4514580078125,-1.9424526691436768,-4.525151252746582,8.484457969665527
1701897635338446600,1.468446533203125,-1.9368540048599243,-4.443004131317139,8.529035568237305
1701897635355442700,1.485442626953125,-1.930396318435669,-4.362763404846191,8.57181167602539
1701897635372434200,1.50243408203125,-1.921091079711914,-4.287794589996338,8.611639976501465
1701897635389424600,1.519424560546875,-1.9074273109436035,-4.215546131134033,8.650260925292969
1701897635406417400,1.53641748046875,-1.895456314086914,-4.1398162841796875,8.689379692077637
1701897635423411000,1.553410888671875,-1.8928303718566895,-4.061888217926025,8.726646423339844
1701897635440408300,1.570408203125,-1.899202585220337,-3.989427328109741,8.758631706237793
1701897635457390800,1.587390869140625,-1.9063438177108765,-3.9277641773223877,8.784908294677734
1701897635474395100,1.60439501953125,-1.913684368133545,-3.876032829284668,8.806264877319336
1701897635491384800,1.621384765625,-1.9215863943099976,-3.8312180042266846,8.824138641357422
1701897635508373200,1.638373291015625,-1.9339853525161743,-3.785529375076294,8.841130256652832
1701897635525369600,1.65536962890625,-1.956007719039917,-3.7352559566497803,8.85765266418457
1701897635542361600,1.672361572265625,-1.981823205947876,-3.686577320098877,8.872297286987305
1701897635559355400,1.68935546875,-2.004045009613037,-3.648543119430542,8.883020401000977
1701897635576344300,1.70634423828125,-2.018557071685791,-3.6277360916137695,8.888254165649414
1701897635593336000,1.723336181640625,-2.0326788425445557,-3.6216158866882324,8.887534141540527
1701897635610316300,1.74031640625,-2.0515780448913574,-3.6234912872314453,8.882425308227539
1701897635627322000,1.757322021484375,-2.074765920639038,-3.631852626800537,8.87362003326416
1701897635644317400,1.7743173828125,-2.09403657913208,-3.6479344367980957,8.862489700317383
1701897635661311700,1.791311767578125,-2.1060385704040527,-3.671200752258301,8.850029945373535
1701897635678300400,1.808300537109375,-2.1094768047332764,-3.6997621059417725,8.837306022644043
1701897635695296500,1.825296630859375,-2.112020254135132,-3.7290518283843994,8.824379920959473
1701897635712288300,1.842288330078125,-2.1204869747161865,-3.753596782684326,8.811932563781738
1701897635729282600,1.859282470703125,-2.1309962272644043,-3.771636724472046,8.801691055297852
1701897635746271200,1.876271240234375,-2.1389050483703613,-3.7844231128692627,8.794281005859375
1701897635763266300,1.893266357421875,-2.140486240386963,-3.7957136631011963,8.789027214050293
1701897635780256800,1.9102568359375,-2.138727903366089,-3.8084981441497803,8.783924102783203
1701897635797247700,1.927247802734375,-2.1366961002349854,-3.825460910797119,8.777043342590332
1701897635814247000,1.944246826171875,-2.1341333389282227,-3.8476884365081787,8.76794719696045
1701897635831238700,1.96123876953125,-2.1363160610198975,-3.8728742599487305,8.756319999694824
1701897635848226600,1.9782265625,-2.141634702682495,-3.8977246284484863,8.74398422241211
1701897635865224000,1.995223876953125,-2.146557331085205,-3.9271304607391357,8.729608535766602
1701897635882216000,2.0122158203125,-2.1471614837646484,-3.9641952514648438,8.712691307067871
1701897635899206000,2.029205810546875,-2.146667957305908,-4.007965564727783,8.692764282226562
1701897635916196600,2.046196533203125,-2.1469671726226807,-4.055566787719727,8.670584678649902
1701897635933193200,2.063193115234375,-2.1498305797576904,-4.104736804962158,8.64670467376709
1701897635950187500,2.0801875,-2.153822660446167,-4.15431547164917,8.621996879577637
1701897635967175200,2.097175048828125,-2.1588261127471924,-4.19992208480835,8.59861946105957
1701897635984172000,2.114172119140625,-2.1638429164886475,-4.2396721839904785,8.577825546264648
1701897636001165600,2.13116552734375,-2.1674723625183105,-4.275348663330078,8.559182167053223
1701897636018154000,2.148154052734375,-2.169475555419922,-4.309388160705566,8.541584014892578
1701897636035143700,2.165143798828125,-2.166660785675049,-4.34322452545166,8.525145530700684
1701897636052128300,2.182128173828125,-2.163389205932617,-4.374545574188232,8.509947776794434
1701897636069129500,2.19912939453125,-2.1605777740478516,-4.400553226470947,8.497243881225586
1701897636086117600,2.21611767578125,-2.1593430042266846,-4.4190874099731445,8.487933158874512
1701897636103116500,2.233116455078125,-2.1577348709106445,-4.431270599365234,8.481987953186035
1701897636120120600,2.25012060546875,-2.156141519546509,-4.43760871887207,8.479082107543945
1701897636137104000,2.267103759765625,-2.15224552154541,-4.439113140106201,8.47928524017334
1701897636154098200,2.28409814453125,-2.148085832595825,-4.436015605926514,8.481959342956543
1701897636171089400,2.30108935546875,-2.1467525959014893,-4.429160118103027,8.485878944396973
1701897636188081200,2.3180810546875,-2.1469743251800537,-4.4171953201293945,8.492053985595703
1701897636205077000,2.335076904296875,-2.144768238067627,-4.3994975090026855,8.501795768737793
1701897636222069000,2.352069091796875,-2.1386425495147705,-4.376175880432129,8.515364646911621
1701897636239052800,2.369052734375,-2.1309173107147217,-4.347815990447998,8.53181266784668
1701897636256052500,2.386052490234375,-2.1246531009674072,-4.316532135009766,8.549239158630371
1701897636273044000,2.4030439453125,-2.117755174636841,-4.2860846519470215,8.566254615783691
1701897636290041900,2.420041748046875,-2.108135938644409,-4.258188724517822,8.582523345947266
1701897636307031000,2.437031005859375,-2.098259925842285,-4.230318546295166,8.598711967468262
1701897636324025000,2.454025146484375,-2.089975595474243,-4.199878692626953,8.615633010864258
1701897636341019100,2.47101904296875,-2.0833261013031006,-4.168704986572266,8.632368087768555
1701897636358007000,2.488007080078125,-2.078270673751831,-4.138880252838135,8.647923469543457
1701897636375003600,2.505003662109375,-2.073331594467163,-4.113598823547363,8.661160469055176
1701897636391986700,2.521986572265625,-2.0663704872131348,-4.0949225425720215,8.67166805267334
1701897636408990200,2.538990234375,-2.057964563369751,-4.083431243896484,8.679081916809082
1701897636425979100,2.555979248046875,-2.0515260696411133,-4.078010082244873,8.683156967163086
1701897636442974000,2.572973876953125,-2.0472869873046875,-4.0775251388549805,8.6843843460083
1701897636459969000,2.589968994140625,-2.044062614440918,-4.081480979919434,8.683283805847168
1701897636476957000,2.60695703125,-2.039635181427002,-4.088202476501465,8.68116283416748
1701897636493948700,2.62394873046875,-2.0354952812194824,-4.0955071449279785,8.678693771362305
1701897636510946300,2.6409462890625,-2.0352907180786133,-4.100514888763428,8.676375389099121
1701897636527935000,2.65793505859375,-2.0397305488586426,-4.101921558380127,8.674668312072754
1701897636544930800,2.674930908203125,-2.048896074295044,-4.101751804351807,8.672587394714355
1701897636561918700,2.691918701171875,-2.0602431297302246,-4.101649761199951,8.66994857788086
1701897636578917000,2.708917236328125,-2.069917917251587,-4.103489398956299,8.66677188873291
1701897636595907000,2.725906982421875,-2.078167200088501,-4.108804225921631,8.66227912902832
1701897636612897800,2.742897705078125,-2.0856363773345947,-4.116650581359863,8.656755447387695
1701897636629898800,2.759898681640625,-2.0962982177734375,-4.126288414001465,8.649587631225586
1701897636646878000,2.7768779296875,-2.1083383560180664,-4.137538433074951,8.64128589630127
1701897636663881000,2.793880859375,-2.117323160171509,-4.149587154388428,8.633305549621582
1701897636680871000,2.810870849609375,-2.1221954822540283,-4.159704208374023,8.627239227294922
1701897636697863200,2.82786328125,-2.1249566078186035,-4.167703628540039,8.622698783874512
1701897636714857500,2.844857421875,-2.1280977725982666,-4.177443504333496,8.617209434509277
1701897636731855400,2.86185546875,-2.133327007293701,-4.1909003257751465,8.60937786102295
1701897636748842200,2.87884228515625,-2.1397290229797363,-4.207641124725342,8.599617958068848
1701897636765846300,2.89584619140625,-2.1469180583953857,-4.224103927612305,8.589750289916992
1701897636782823700,2.91282373046875,-2.1513755321502686,-4.236507415771484,8.582521438598633
1701897636799820800,2.92982080078125,-2.154317855834961,-4.245068073272705,8.577553749084473
1701897636816812500,2.9468125,-2.157235622406006,-4.250060081481934,8.574348449707031
1701897636833809200,2.96380908203125,-2.161257266998291,-4.253909111022949,8.571425437927246
1701897636850789000,2.9807890625,-2.164740562438965,-4.25898551940918,8.568025588989258
1701897636867788000,2.9977880859375,-2.1677448749542236,-4.2661004066467285,8.563727378845215
1701897636884789000,3.0147890625,-2.169145107269287,-4.271562576293945,8.560646057128906
1701897636901773800,3.03177392578125,-2.169322967529297,-4.273226261138916,8.559772491455078
1701897636918760200,3.04876025390625,-2.166353702545166,-4.273177146911621,8.560548782348633
1701897636935762400,3.065762451171875,-2.1627869606018066,-4.273183822631836,8.561447143554688
1701897636952756500,3.082756591796875,-2.161412239074707,-4.274004936218262,8.561384201049805
1701897636969746400,3.099746337890625,-2.1599411964416504,-4.276943206787109,8.56028938293457
1701897636986741000,3.116740966796875,-2.1565706729888916,-4.283649444580078,8.557785034179688
1701897637003731500,3.1337314453125,-2.150866746902466,-4.294126510620117,8.553967475891113
1701897637020727000,3.15072705078125,-2.1446564197540283,-4.304135799407959,8.550498008728027
1701897637037719000,3.167718994140625,-2.1369311809539795,-4.31242561340332,8.548251152038574
1701897637054711800,3.1847119140625,-2.125530242919922,-4.319498538970947,8.547523498535156
1701897637071704300,3.201704345703125,-2.115622043609619,-4.323112964630127,8.548152923583984
1701897637088697300,3.218697265625,-2.1104772090911865,-4.3214640617370605,8.550259590148926
1701897637105690000,3.235690185546875,-2.1084113121032715,-4.316755771636963,8.55314826965332
1701897637122683600,3.25268359375,-2.1042778491973877,-4.310602188110352,8.557268142700195
1701897637139677200,3.26967724609375,-2.0959556102752686,-4.3045806884765625,8.562341690063477
1701897637156668200,3.286668212890625,-2.0858259201049805,-4.299274921417236,8.567479133605957
1701897637173661000,3.303660888671875,-2.077348470687866,-4.2932915687561035,8.572538375854492
1701897637190650400,3.320650390625,-2.0711212158203125,-4.288872241973877,8.576255798339844
1701897637207646000,3.33764599609375,-2.0652143955230713,-4.288924694061279,8.577653884887695
1701897637224639000,3.354638916015625,-2.0592193603515625,-4.294122695922852,8.576493263244629
1701897637241621000,3.37162109375,-2.0567855834960938,-4.304086208343506,8.57208251953125
1701897637258624300,3.388624267578125,-2.0579679012298584,-4.318084239959717,8.564756393432617
1701897637275617000,3.405616943359375,-2.0616867542266846,-4.336500644683838,8.554550170898438
1701897637292610000,3.422610107421875,-2.0658318996429443,-4.357441425323486,8.542902946472168
1701897637309602600,3.4396025390625,-2.067946195602417,-4.379201412200928,8.531255722045898
1701897637326593000,3.456593017578125,-2.0691583156585693,-4.40020227432251,8.520149230957031
1701897637343590000,3.47358984375,-2.0708651542663574,-4.4190449714660645,8.509974479675293
1701897637360580400,3.490580322265625,-2.074183464050293,-4.434390068054199,8.501181602478027
1701897637377572600,3.507572509765625,-2.0792806148529053,-4.445022106170654,8.49438190460205
1701897637394566700,3.524566650390625,-2.0859439373016357,-4.450397491455078,8.48992919921875
1701897637411548200,3.541548095703125,-2.091198205947876,-4.4503397941589355,8.488667488098145
1701897637428550400,3.55855029296875,-2.0930168628692627,-4.445435523986816,8.490790367126465
1701897637445540600,3.57554052734375,-2.091177225112915,-4.4378204345703125,8.49522590637207
1701897637462541000,3.592541015625,-2.087981700897217,-4.42896842956543,8.500629425048828
1701897637479518700,3.609518798828125,-2.0853915214538574,-4.4204301834106445,8.505707740783691
1701897637496522000,3.62652197265625,-2.0851359367370605,-4.412502765655518,8.509886741638184
1701897637513511700,3.64351171875,-2.086526870727539,-4.404865264892578,8.513501167297363
1701897637530507500,3.660507568359375,-2.085631847381592,-4.398744583129883,8.51688289642334
1701897637547500000,3.6775,-2.079002857208252,-4.394487380981445,8.52070140838623
1701897637564484900,3.69448486328125,-2.0703020095825195,-4.392335414886475,8.523929595947266
1701897637581485800,3.71148583984375,-2.065615653991699,-4.393903732299805,8.524259567260742
1701897637598475800,3.728475830078125,-2.0650641918182373,-4.401210308074951,8.520621299743652
1701897637615473700,3.7454736328125,-2.066368579864502,-4.413481712341309,8.513954162597656
1701897637632453000,3.762453125,-2.0672106742858887,-4.428624153137207,8.50588321685791
1701897637649453800,3.779453857421875,-2.0639894008636475,-4.44469690322876,8.498278617858887
1701897637666451500,3.796451416015625,-2.057504892349243,-4.458669662475586,8.492531776428223
1701897637683442000,3.81344189453125,-2.051955223083496,-4.47026252746582,8.487776756286621
1701897637700431000,3.83043115234375,-2.049638509750366,-4.4798407554626465,8.483287811279297
1701897637717427500,3.847427490234375,-2.0492544174194336,-4.4892754554748535,8.478388786315918
1701897637734428000,3.864427978515625,-2.0527172088623047,-4.497818946838379,8.473023414611816
1701897637751412700,3.881412841796875,-2.0603816509246826,-4.502142906188965,8.468864440917969
1701897637768404500,3.898404541015625,-2.070706844329834,-4.5012736320495605,8.46680736541748
1701897637785408500,3.915408447265625,-2.0861105918884277,-4.495290279388428,8.466204643249512
1701897637802390800,3.932390869140625,-2.1069986820220947,-4.485095500946045,8.466439247131348
1701897637819383300,3.94938330078125,-2.131307363510132,-4.472725868225098,8.466897964477539
1701897637836376000,3.9663759765625,-2.152310371398926,-4.462386608123779,8.467041015625
1701897637853368800,3.983368896484375,-2.1670069694519043,-4.455451488494873,8.46694564819336
1701897637870351600,4.0003515625,-2.1753222942352295,-4.4511189460754395,8.46709156036377
1701897637887353300,4.017353271484375,-2.1791141033172607,-4.446710109710693,8.46843433380127
1701897637904348000,4.034347900390625,-2.1840274333953857,-4.439683437347412,8.470853805541992
1701897637921339600,4.051339599609375,-2.1917307376861572,-4.429178237915039,8.47436237335205
1701897637938332400,4.06833251953125,-2.1992249488830566,-4.416903495788574,8.478825569152832
1701897637955325200,4.0853251953125,-2.204594612121582,-4.404144287109375,8.4840669631958
1701897637972319500,4.102319580078125,-2.2041068077087402,-4.391513347625732,8.490737915039062
1701897637989308700,4.11930859375,-2.2001113891601562,-4.3788604736328125,8.498307228088379
1701897638006303000,4.136302978515625,-2.1956119537353516,-4.366227149963379,8.505965232849121
1701897638023292700,4.153292724609375,-2.191542387008667,-4.353664398193359,8.513452529907227
1701897638040286000,4.170285888671875,-2.1864261627197266,-4.342143535614014,8.520647048950195
1701897638057283600,4.18728369140625,-2.1805951595306396,-4.33146333694458,8.527576446533203
1701897638074273800,4.204273681640625,-2.1743106842041016,-4.321263313293457,8.534353256225586
1701897638091263500,4.221263427734375,-2.1632957458496094,-4.31390380859375,8.540872573852539
1701897638108259000,4.238259033203125,-2.1452651023864746,-4.311354160308838,8.546707153320312
1701897638125251800,4.255251953125,-2.1252822875976562,-4.312833786010742,8.550951957702637
1701897638142244600,4.27224462890625,-2.111616849899292,-4.316653251647949,8.552409172058105
1701897638159237400,4.2892373046875,-2.106370687484741,-4.32356595993042,8.550212860107422
1701897638176230400,4.30623046875,-2.105630874633789,-4.332879543304443,8.545677185058594
1701897638193223000,4.323222900390625,-2.102627754211426,-4.34403657913208,8.540750503540039
1701897638210211800,4.3402119140625,-2.0951130390167236,-4.355821132659912,8.53659439086914
1701897638227209200,4.357209228515625,-2.086275577545166,-4.365455150604248,8.533838272094727
1701897638244183300,4.374183349609375,-2.08183217048645,-4.371487140655518,8.53183364868164
1701897638261186800,4.391186767578125,-2.080185651779175,-4.3741841316223145,8.530852317810059
1701897638278188000,4.40818798828125,-2.0785882472991943,-4.374341011047363,8.531164169311523
1701897638295179800,4.4251796875,-2.0775279998779297,-4.372879981994629,8.532169342041016
1701897638312171800,4.442171875,-2.076188564300537,-4.370701313018799,8.533612251281738
1701897638329161700,4.45916162109375,-2.070930004119873,-4.368841648101807,8.535842895507812
1701897638346160000,4.47616015625,-2.064772367477417,-4.368913650512695,8.537294387817383
1701897638363149800,4.49314990234375,-2.058342218399048,-4.370663642883301,8.537955284118652
1701897638380142600,4.510142578125,-2.053096055984497,-4.373448371887207,8.53779125213623
1701897638397135400,4.52713525390625,-2.0498831272125244,-4.3774237632751465,8.536524772644043
1701897638414124800,4.544124755859375,-2.0499117374420166,-4.381791114807129,8.53427791595459
1701897638431118000,4.5611181640625,-2.05181622505188,-4.385510444641113,8.531908988952637
1701897638448116200,4.5781162109375,-2.05228328704834,-4.389438152313232,8.529775619506836
1701897638465106200,4.595106201171875,-2.051445960998535,-4.392055034637451,8.528631210327148
1701897638482099000,4.612098876953125,-2.047179937362671,-4.392880916595459,8.529230117797852
1701897638499091700,4.629091796875,-2.04150390625,-4.392840385437012,8.53061294555664
1701897638516081400,4.646081298828125,-2.0361409187316895,-4.3936920166015625,8.531455039978027
1701897638533076500,4.663076416015625,-2.031278371810913,-4.3958258628845215,8.531516075134277
1701897638550077200,4.6800771484375,-2.0301930904388428,-4.397156238555908,8.531086921691895
1701897638567062300,4.697062255859375,-2.033623695373535,-4.39480447769165,8.531481742858887
1701897638584055300,4.71405517578125,-2.037626028060913,-4.3895182609558105,8.533248901367188
1701897638601044700,4.731044677734375,-2.0368402004241943,-4.381736755371094,8.537433624267578
1701897638618040300,4.748040283203125,-2.0314385890960693,-4.373223304748535,8.543085098266602
1701897638635033300,4.765033447265625,-2.026435613632202,-4.3653564453125,8.548294067382812
1701897638652025900,4.78202587890625,-2.024806022644043,-4.3575544357299805,8.55265998840332
1701897638669018600,4.7990185546875,-2.0250954627990723,-4.350975513458252,8.555940628051758
1701897638686011100,4.81601123046875,-2.0248453617095947,-4.34529447555542,8.55888843536377
1701897638703004200,4.833004150390625,-2.0221047401428223,-4.339876174926758,8.562283515930176
1701897638719993300,4.849993408203125,-2.01724910736084,-4.33588981628418,8.565448760986328
1701897638736979000,4.86697900390625,-2.010849952697754,-4.333596706390381,8.56811237335205
1701897638753982200,4.883982177734375,-2.003223419189453,-4.332308769226074,8.570549964904785
1701897638770974700,4.900974609375,-1.9944730997085571,-4.330154895782471,8.573678016662598
1701897638787966500,4.917966552734375,-1.982579231262207,-4.327037334442139,8.578009605407715
1701897638804961000,4.9349609375,-1.969126582145691,-4.323455333709717,8.582911491394043
1701897638821953300,4.951953369140625,-1.9555352926254272,-4.322262763977051,8.586620330810547
1701897638838946300,4.9689462890625,-1.942129373550415,-4.32325553894043,8.589163780212402
1701897638855937800,4.985937744140625,-1.9299800395965576,-4.324917316436768,8.591065406799316
1701897638872931000,5.00293115234375,-1.9167699813842773,-4.325527667999268,8.59371566772461
1701897638889923600,5.019923583984375,-1.9027541875839233,-4.325908184051514,8.596636772155762
1701897638906916400,5.036916259765625,-1.8870532512664795,-4.329502105712891,8.598288536071777
1701897638923906000,5.053906005859375,-1.8714370727539062,-4.33721923828125,8.59781265258789
1701897638940901600,5.070901611328125,-1.8584433794021606,-4.3472371101379395,8.595571517944336
1701897638957895000,5.08789501953125,-1.849674940109253,-4.3568525314331055,8.592592239379883
1701897638974884900,5.104884765625,-1.8428021669387817,-4.36577033996582,8.589543342590332
1701897638991861800,5.12186181640625,-1.8340142965316772,-4.3731513023376465,8.58767032623291
1701897639008871400,5.138871337890625,-1.825827717781067,-4.377532958984375,8.587180137634277
1701897639025865200,5.155865234375,-1.8195548057556152,-4.379805564880371,8.587353706359863
1701897639042858200,5.172858154296875,-1.8138279914855957,-4.382737159729004,8.587069511413574
1701897639059851000,5.18985107421875,-1.8082661628723145,-4.386601448059082,8.586270332336426
1701897639076843800,5.20684375,-1.8034088611602783,-4.388611316680908,8.586264610290527
1701897639093836300,5.223836181640625,-1.8011893033981323,-4.387462139129639,8.587315559387207
1701897639110824200,5.24082421875,-1.801386833190918,-4.384157180786133,8.588963508605957
1701897639127823000,5.257822998046875,-1.8026785850524902,-4.380183696746826,8.590719223022461
1701897639144814000,5.27481396484375,-1.80377197265625,-4.376038551330566,8.592601776123047
1701897639161807000,5.29180712890625,-1.8042373657226562,-4.372802257537842,8.594152450561523
1701897639178795300,5.308795166015625,-1.8023422956466675,-4.3701581954956055,8.595894813537598
1701897639195796500,5.32579638671875,-1.7999069690704346,-4.368561267852783,8.59721565246582
1701897639212785700,5.34278564453125,-1.8009395599365234,-4.369361400604248,8.596592903137207
1701897639229775400,5.359775390625,-1.8043514490127563,-4.373227596282959,8.593911170959473
1701897639246773500,5.3767734375,-1.8069393634796143,-4.379369258880615,8.590240478515625
1701897639263763200,5.39376318359375,-1.806489109992981,-4.385790824890137,8.587059020996094
1701897639280753200,5.410753173828125,-1.802720069885254,-4.392152786254883,8.58459758758545
1701897639297750500,5.42775048828125,-1.7978919744491577,-4.399110794067383,8.582048416137695
1701897639314742300,5.4447421875,-1.7941913604736328,-4.4065632820129395,8.578996658325195
1701897639331721500,5.461721435546875,-1.792734146118164,-4.411370277404785,8.57683277130127
1701897639348726800,5.478726806640625,-1.7933967113494873,-4.412022113800049,8.576358795166016
1701897639365720000,5.495719970703125,-1.7932709455490112,-4.408885478973389,8.577995300292969
1701897639382712000,5.512712158203125,-1.7915769815444946,-4.402316093444824,8.581724166870117
1701897639399704800,5.529704833984375,-1.7888463735580444,-4.392553806304932,8.58729362487793
1701897639416700000,5.546699951171875,-1.7863951921463013,-4.382126331329346,8.593130111694336
1701897639433685000,5.56368505859375,-1.7824472188949585,-4.373654842376709,8.598264694213867
1701897639450679000,5.580678955078125,-1.7770706415176392,-4.368009090423584,8.60224723815918
1701897639467675600,5.597675537109375,-1.770939826965332,-4.3648881912231445,8.605093955993652
1701897639484668700,5.614668701171875,-1.76527738571167,-4.363034248352051,8.607196807861328
1701897639501661200,5.6316611328125,-1.7606101036071777,-4.361303329467773,8.609029769897461
1701897639518654000,5.648654052734375,-1.7560399770736694,-4.3592963218688965,8.610980033874512
1701897639535646700,5.665646728515625,-1.7500249147415161,-4.35626745223999,8.613738059997559
1701897639552629200,5.682629150390625,-1.742973804473877,-4.353204727172852,8.616715431213379
1701897639569632000,5.699632080078125,-1.7364768981933594,-4.351585865020752,8.618844032287598
1701897639586624800,5.716624755859375,-1.731967568397522,-4.3527631759643555,8.619157791137695
1701897639603617500,5.733617431640625,-1.727972149848938,-4.356374740600586,8.618133544921875
1701897639620603400,5.750603271484375,-1.723140001296997,-4.36041259765625,8.617058753967285
1701897639637606700,5.767606689453125,-1.717322587966919,-4.363706588745117,8.616552352905273
1701897639654595600,5.784595703125,-1.7110188007354736,-4.367862701416016,8.615701675415039
1701897639671588000,5.801588134765625,-1.704220175743103,-4.372737884521484,8.614575386047363
1701897639688580000,5.818580078125,-1.699633002281189,-4.3769917488098145,8.613322257995605
1701897639705574700,5.83557470703125,-1.699868083000183,-4.379368782043457,8.612067222595215
1701897639722567700,5.852567626953125,-1.702995777130127,-4.381266117095947,8.61048412322998
1701897639739558400,5.869558349609375,-1.70409095287323,-4.382876396179199,8.609447479248047
1701897639756552200,5.88655224609375,-1.703084111213684,-4.384280681610107,8.608931541442871
1701897639773544200,5.903544189453125,-1.7008873224258423,-4.387305736541748,8.607826232910156
1701897639790537500,5.920537353515625,-1.6969152688980103,-4.391997814178467,8.606215476989746
1701897639807529000,5.937529052734375,-1.692610502243042,-4.397708892822266,8.604147911071777
1701897639824523500,5.9545234375,-1.6905652284622192,-4.4035820960998535,8.601545333862305
1701897639841515500,5.971515625,-1.691928744316101,-4.410198211669922,8.59788703918457
1701897639858508300,5.98850830078125,-1.6921672821044922,-4.418217658996582,8.593720436096191
1701897639875500500,6.00550048828125,-1.689876914024353,-4.426732540130615,8.589788436889648
1701897639892493800,6.022493896484375,-1.6837975978851318,-4.4342427253723145,8.587109565734863
1701897639909486300,6.039486328125,-1.6788818836212158,-4.439367771148682,8.58542251586914
1701897639926478800,6.056478759765625,-1.6763207912445068,-4.441044807434082,8.58505630493164
1701897639943468300,6.07346826171875,-1.6766499280929565,-4.4388556480407715,8.5861234664917
1701897639960453600,6.09045361328125,-1.6753109693527222,-4.435818672180176,8.5879545211792
1701897639977457200,6.10745703125,-1.6707541942596436,-4.433864116668701,8.589852333068848
1701897639994450000,6.124449951171875,-1.6641960144042969,-4.434627532958984,8.590730667114258
1701897640011439000,6.141439208984375,-1.6559197902679443,-4.438050270080566,8.59056282043457
1701897640028432100,6.15843212890625,-1.6469625234603882,-4.444427967071533,8.588987350463867
1701897640045427700,6.175427734375,-1.6398504972457886,-4.451102256774902,8.58689022064209
1701897640062420500,6.19242041015625,-1.6363521814346313,-4.457030773162842,8.58448314666748
1701897640079402800,6.20940283203125,-1.6333156824111938,-4.463115215301514,8.58189868927002
1701897640096406300,6.22640625,-1.6297839879989624,-4.469447612762451,8.579276084899902
1701897640113398800,6.243398681640625,-1.626375675201416,-4.475595951080322,8.576717376708984
1701897640130374700,6.260374755859375,-1.6241507530212402,-4.481431007385254,8.574090003967285
1701897640147384800,6.277384765625,-1.6243150234222412,-4.486888408660889,8.57120418548584
1701897640164377000,6.294377197265625,-1.6249558925628662,-4.493226051330566,8.567764282226562
1701897640181369300,6.311369384765625,-1.6263095140457153,-4.4994330406188965,8.564249038696289
1701897640198354400,6.3283544921875,-1.6276854276657104,-4.504353046417236,8.561400413513184
1701897640215356000,6.34535595703125,-1.6273696422576904,-4.508405685424805,8.559328079223633
1701897640232348000,6.362347900390625,-1.6269749402999878,-4.51168155670166,8.557673454284668
1701897640249340400,6.37934033203125,-1.6291618347167969,-4.5129618644714355,8.556584358215332
1701897640266333400,6.39633349609375,-1.633223295211792,-4.512750625610352,8.555920600891113
1701897640283325700,6.41332568359375,-1.6365714073181152,-4.511253833770752,8.556069374084473
1701897640300307500,6.430307373046875,-1.6396880149841309,-4.508637428283691,8.556852340698242
1701897640317305900,6.447305908203125,-1.6444429159164429,-4.503633975982666,8.558575630187988
1701897640334300700,6.46430078125,-1.6487493515014648,-4.497873306274414,8.560775756835938
1701897640351296800,6.481296875,-1.6501100063323975,-4.491762161254883,8.563721656799316
1701897640368289300,6.498289306640625,-1.6503316164016724,-4.485225677490234,8.567106246948242
1701897640385282000,6.515281982421875,-1.6492124795913696,-4.479804515838623,8.570155143737793
1701897640402275000,6.532275146484375,-1.645350456237793,-4.477715015411377,8.571990013122559
1701897640419267000,6.54926708984375,-1.6402463912963867,-4.478974342346191,8.572310447692871
1701897640436260400,6.56626025390625,-1.6386302709579468,-4.48223352432251,8.570915222167969
1701897640453247500,6.58324755859375,-1.6390600204467773,-4.485645294189453,8.569048881530762
1701897640470231600,6.6002314453125,-1.638672947883606,-4.48870325088501,8.567523002624512
1701897640487238700,6.61723876953125,-1.6360059976577759,-4.489697456359863,8.567510604858398
1701897640504231400,6.6342314453125,-1.632453203201294,-4.486633777618408,8.569792747497559
1701897640521220900,6.651220947265625,-1.6295477151870728,-4.479280948638916,8.57419204711914
1701897640538216400,6.668216552734375,-1.6281099319458008,-4.469629287719727,8.579499244689941
1701897640555209500,6.68520947265625,-1.627586007118225,-4.460896015167236,8.58414077758789
1701897640572201700,6.70220166015625,-1.626253366470337,-4.453824996948242,8.588064193725586
1701897640589194500,6.719194580078125,-1.625395655632019,-4.447647571563721,8.591426849365234
1701897640606187500,6.7361875,-1.6242974996566772,-4.442411422729492,8.594344139099121
1701897640623178500,6.753178466796875,-1.6219440698623657,-4.439207077026367,8.59644603729248
1701897640640174800,6.7701748046875,-1.61860990524292,-4.4376749992370605,8.597864151000977
1701897640657165600,6.78716552734375,-1.6164557933807373,-4.436406135559082,8.598923683166504
1701897640674158300,6.804158447265625,-1.6146466732025146,-4.435158729553223,8.599906921386719
1701897640691148300,6.821148193359375,-1.6128077507019043,-4.433228015899658,8.601247787475586
1701897640708145400,6.8381455078125,-1.6101700067520142,-4.43230676651001,8.602216720581055
1701897640725122000,6.8551220703125,-1.6071242094039917,-4.432831287384033,8.602516174316406
1701897640742133500,6.872133544921875,-1.6046257019042969,-4.434408664703369,8.602168083190918
1701897640759122000,6.889121826171875,-1.604662537574768,-4.437183380126953,8.600730895996094
1701897640776115000,6.906114990234375,-1.6059857606887817,-4.439914226531982,8.599076271057129
1701897640793104600,6.923104736328125,-1.6070289611816406,-4.442512512207031,8.59753704071045
1701897640810102800,6.940102783203125,-1.6079188585281372,-4.445939064025879,8.595601081848145
1701897640827092500,6.957092529296875,-1.6095870733261108,-4.4505934715271,8.592880249023438
1701897640844079600,6.97407958984375,-1.6128474473953247,-4.455236911773682,8.589861869812012
1701897640861080300,6.991080322265625,-1.6173774003982544,-4.4583516120910645,8.587392807006836
1701897640878070800,7.00807080078125,-1.623064398765564,-4.4603376388549805,8.585288047790527
1701897640895075800,7.025075927734375,-1.6284297704696655,-4.4604268074035645,8.584224700927734
1701897640912056000,7.04205615234375,-1.633419156074524,-4.459977626800537,8.583511352539062
1701897640929049000,7.059049072265625,-1.6385372877120972,-4.460258960723877,8.582388877868652
1701897640946041900,7.076041748046875,-1.6410293579101562,-4.461692810058594,8.581167221069336
1701897640963034000,7.0930341796875,-1.6390628814697266,-4.4646687507629395,8.579995155334473
1701897640980023800,7.11002392578125,-1.635732889175415,-4.470089435577393,8.577807426452637
1701897640997020000,7.12702001953125,-1.6337496042251587,-4.478580474853516,8.573755264282227
1701897641014012400,7.144012451171875,-1.6343897581100464,-4.48912239074707,8.568120002746582
1701897641031001900,7.161001953125,-1.634036660194397,-4.501357555389404,8.561766624450684
1701897641047998000,7.177998046875,-1.6298840045928955,-4.5146636962890625,8.555547714233398
1701897641064990500,7.194990478515625,-1.6227649450302124,-4.526139736175537,8.550836563110352
1701897641081983200,7.211983154296875,-1.6157208681106567,-4.534945011138916,8.547504425048828
1701897641098976000,7.22897607421875,-1.6095443964004517,-4.541180610656738,8.54535961151123
1701897641115968800,7.24596875,-1.6039479970932007,-4.544229984283447,8.54478931427002
1701897641132961500,7.26296142578125,-1.5994094610214233,-4.544393539428711,8.545555114746094
1701897641149943800,7.27994384765625,-1.5945264101028442,-4.5413594245910645,8.548078536987305
1701897641166946800,7.29694677734375,-1.5875033140182495,-4.5353569984436035,8.552572250366211
1701897641183935200,7.313935302734375,-1.5791044235229492,-4.526754379272461,8.558682441711426
1701897641200936700,7.330936767578125,-1.571729302406311,-4.517053127288818,8.56516170501709
1701897641217924000,7.347924072265625,-1.5642402172088623,-4.506215572357178,8.57223892211914
1701897641234918700,7.364918701171875,-1.5565271377563477,-4.493854522705078,8.580130577087402
1701897641251910400,7.381910400390625,-1.5494537353515625,-4.482288837432861,8.587454795837402
1701897641268903400,7.3989033203125,-1.5448923110961914,-4.473527908325195,8.59284496307373
1701897641285895000,7.41589501953125,-1.5417687892913818,-4.469045639038086,8.59573745727539
1701897641302889500,7.432889404296875,-1.5380966663360596,-4.467250823974609,8.597329139709473
1701897641319881500,7.449881591796875,-1.5334563255310059,-4.4650115966796875,8.599319458007812
1701897641336874200,7.466874267578125,-1.5275477170944214,-4.462545871734619,8.601651191711426
1701897641353863400,7.483863525390625,-1.5200310945510864,-4.460220813751221,8.604188919067383
1701897641370859500,7.500859619140625,-1.5123783349990845,-4.458780288696289,8.606283187866211
1701897641387849700,7.517849609375,-1.5073210000991821,-4.457761764526367,8.607699394226074
1701897641404847600,7.53484765625,-1.504237174987793,-4.455942153930664,8.609179496765137
1701897641421837800,7.551837890625,-1.5005704164505005,-4.4535393714904785,8.611061096191406
1701897641438830300,7.568830322265625,-1.4926596879959106,-4.45017147064209,8.614177703857422
1701897641455825000,7.585824951171875,-1.4818739891052246,-4.445499420166016,8.618453025817871
1701897641472813800,7.602813720703125,-1.4719536304473877,-4.441406726837158,8.622261047363281
1701897641489809000,7.619808837890625,-1.4665390253067017,-4.4392242431640625,8.624307632446289
1701897641506798800,7.636798828125,-1.4630500078201294,-4.440093994140625,8.624452590942383
1701897641523796500,7.65379638671875,-1.4585809707641602,-4.441883563995361,8.624286651611328
1701897641540776200,7.670776123046875,-1.4522923231124878,-4.443014144897461,8.624767303466797
1701897641557779500,7.687779541015625,-1.4465433359146118,-4.443134307861328,8.62567138671875
1701897641574772200,7.704772216796875,-1.44040846824646,-4.44484281539917,8.625818252563477
1701897641591765000,7.721764892578125,-1.4352055788040161,-4.451642036437988,8.623176574707031
1701897641608769000,7.73876904296875,-1.430810809135437,-4.464071273803711,8.617481231689453
1701897641625750000,7.75575,-1.4283087253570557,-4.478845119476318,8.610224723815918
1701897641642734600,7.772734619140625,-1.426832914352417,-4.492845058441162,8.603175163269043
1701897641659735600,7.789735595703125,-1.4248080253601074,-4.504952907562256,8.597175598144531
1701897641676728300,7.806728271484375,-1.419985294342041,-4.514941692352295,8.592732429504395
1701897641693706500,7.82370654296875,-1.4144707918167114,-4.523923873901367,8.58891773223877
1701897641710713900,7.8407138671875,-1.4062138795852661,-4.53251314163208,8.585744857788086
1701897641727704600,7.85770458984375,-1.3977916240692139,-4.5400919914245605,8.583114624023438
1701897641744701200,7.874701171875,-1.3905012607574463,-4.546041011810303,8.581151008605957
1701897641761692000,7.89169189453125,-1.3852381706237793,-4.549795150756836,8.580012321472168
1701897641778684400,7.908684326171875,-1.379875659942627,-4.551510334014893,8.579967498779297
1701897641795677400,7.925677490234375,-1.3733758926391602,-4.5510783195495605,8.581238746643066
1701897641812670000,7.942669921875,-1.3657867908477783,-4.549699783325195,8.583179473876953
1701897641829662700,7.959662841796875,-1.3579275608062744,-4.548142433166504,8.585251808166504
1701897641846655700,7.97665576171875,-1.3501935005187988,-4.5457377433776855,8.587746620178223
1701897641863645200,7.993645263671875,-1.342917799949646,-4.542382717132568,8.59066104888916
1701897641880641000,8.01064111328125,-1.3371583223342896,-4.538784503936768,8.593460083007812
1701897641897633500,8.027633544921875,-1.3322536945343018,-4.536031723022461,8.595674514770508
1701897641914626300,8.044626220703124,-1.3284839391708374,-4.533688068389893,8.597495079040527
1701897641931616000,8.061615966796875,-1.3252153396606445,-4.53285026550293,8.598441123962402
1701897641948611800,8.07861181640625,-1.3219298124313354,-4.533883094787598,8.598403930664062
1701897641965604600,8.0956044921875,-1.318556547164917,-4.536812782287598,8.597375869750977
1701897641982597400,8.112597412109375,-1.3149091005325317,-4.541622638702393,8.595396041870117
1701897641999590000,8.12958984375,-1.311698317527771,-4.547372817993164,8.592843055725098
1701897642016583000,8.1465830078125,-1.3098284006118774,-4.55342960357666,8.589921951293945
1701897642033571600,8.163571533203125,-1.3101224899291992,-4.559210300445557,8.586811065673828
1701897642050556700,8.180556640625,-1.3122175931930542,-4.564332485198975,8.58376693725586
1701897642067561500,8.1975615234375,-1.3121801614761353,-4.569274425506592,8.581145286560059
1701897642084553500,8.214553466796875,-1.3074603080749512,-4.5751633644104,8.578725814819336
1701897642101546500,8.23154638671875,-1.3006242513656616,-4.582006454467773,8.5761137008667
1701897642118538200,8.248538330078125,-1.2985461950302124,-4.588603973388672,8.572898864746094
1701897642135532300,8.2655322265625,-1.3004599809646606,-4.594090461730957,8.569671630859375
1701897642152524300,8.282524169921874,-1.3019784688949585,-4.597813129425049,8.56744384765625
1701897642169517300,8.299517333984374,-1.299493432044983,-4.598704814910889,8.567342758178711
1701897642186510300,8.31651025390625,-1.2968043088912964,-4.595330715179443,8.569560050964355
1701897642203502600,8.333502685546875,-1.2955273389816284,-4.589300155639648,8.57298469543457
1701897642220495400,8.350495361328125,-1.2935105562210083,-4.582304954528809,8.57702922821045
1701897642237488000,8.367488037109375,-1.290311574935913,-4.576003074645996,8.580873489379883
1701897642254477800,8.384477783203126,-1.288420557975769,-4.569877624511719,8.58442211151123
1701897642271462700,8.401462646484376,-1.288256287574768,-4.566037178039551,8.5864896774292
1701897642288466400,8.418466552734374,-1.2867599725723267,-4.565481185913086,8.587011337280273
1701897642305459000,8.435458984375,-1.2813817262649536,-4.567458152770996,8.586764335632324
1701897642322451700,8.45245166015625,-1.2747491598129272,-4.568722724914551,8.587077140808105
1701897642339444500,8.469444580078125,-1.2692124843597412,-4.570249080657959,8.58708667755127
1701897642356436700,8.486436767578125,-1.264682650566101,-4.57288932800293,8.586348533630371
1701897642373426400,8.503426513671876,-1.2608001232147217,-4.57517671585083,8.585700035095215
1701897642390411800,8.520411865234376,-1.25714910030365,-4.576862812042236,8.58533763885498
1701897642407415300,8.537415283203124,-1.2526198625564575,-4.578119277954102,8.585329055786133
1701897642424407800,8.55440771484375,-1.2477484941482544,-4.57958459854126,8.585257530212402
1701897642441397500,8.5713974609375,-1.2443190813064575,-4.581722259521484,8.584614753723145
1701897642458393600,8.5883935546875,-1.242543339729309,-4.585021018981934,8.583109855651855
1701897642475386000,8.60538623046875,-1.2417200803756714,-4.58876895904541,8.58122730255127
1701897642492379000,8.62237890625,-1.2415989637374878,-4.593068599700928,8.578944206237793
1701897642509371600,8.63937158203125,-1.2431145906448364,-4.5966386795043945,8.576811790466309
1701897642526361300,8.656361328125,-1.2458242177963257,-4.599602699279785,8.574828147888184
1701897642543358200,8.673358154296874,-1.2483203411102295,-4.601462364196777,8.573468208312988
1701897642560348400,8.690348388671875,-1.2506511211395264,-4.600861549377441,8.573451042175293
1701897642577324300,8.70732421875,-1.252469539642334,-4.598719596862793,8.574335098266602
1701897642594335200,8.724335205078125,-1.254963994026184,-4.595569133758545,8.575658798217773
1701897642611328000,8.741327880859375,-1.2585606575012207,-4.591180801391602,8.577483177185059
1701897642628319700,8.75831982421875,-1.2619951963424683,-4.585984230041504,8.579755783081055
1701897642645310200,8.775310302734376,-1.263452410697937,-4.583571910858154,8.580831527709961
1701897642662309600,8.7923095703125,-1.2639687061309814,-4.585160255432129,8.57990837097168
1701897642679298600,8.809298583984376,-1.2653861045837402,-4.589695930480957,8.577272415161133
1701897642696291800,8.826291748046875,-1.2658497095108032,-4.59571647644043,8.573981285095215
1701897642713284000,8.8432841796875,-1.264016032218933,-4.601002216339111,8.571415901184082
1701897642730276900,8.86027685546875,-1.2632477283477783,-4.603730201721191,8.570062637329102
1701897642747269400,8.877269287109375,-1.2636523246765137,-4.603235244750977,8.570269584655762
1701897642764251600,8.894251708984376,-1.2641178369522095,-4.601044654846191,8.57137680053711
1701897642781254700,8.911254638671876,-1.2628757953643799,-4.598344802856445,8.573009490966797
1701897642798244900,8.928244873046875,-1.2597721815109253,-4.595020771026611,8.575248718261719
1701897642815243000,8.945242919921874,-1.2553528547286987,-4.593232154846191,8.576855659484863
1701897642832233200,8.962233154296875,-1.2496610879898071,-4.594174385070801,8.577179908752441
1701897642849226000,8.97922607421875,-1.24447762966156,-4.59702730178833,8.57640552520752
1701897642866218000,8.996218017578125,-1.2408032417297363,-4.600339889526367,8.57516098022461
1701897642883212000,9.0132119140625,-1.238516926765442,-4.604371547698975,8.573328018188477
1701897642900204000,9.0302041015625,-1.235754132270813,-4.610095500946045,8.570651054382324
1701897642917196800,9.04719677734375,-1.2323241233825684,-4.616700172424316,8.567590713500977
1701897642934189600,9.064189453125,-1.228660225868225,-4.624070167541504,8.564140319824219
1701897642951179000,9.081178955078125,-1.2245280742645264,-4.630193710327148,8.561422348022461
1701897642968174600,9.098174560546875,-1.2203935384750366,-4.635735511779785,8.559015274047852
1701897642985167600,9.115167724609375,-1.2167682647705078,-4.638707637786865,8.557918548583984
1701897643002163000,9.132162841796875,-1.2160735130310059,-4.639682292938232,8.557490348815918
1701897643019150300,9.149150390625,-1.216336727142334,-4.638827323913574,8.557914733886719
1701897643036145700,9.166145751953126,-1.2173107862472534,-4.636262893676758,8.559167861938477
1701897643053138700,9.183138671875,-1.2173669338226318,-4.633186340332031,8.560824394226074
1701897643070131500,9.20013134765625,-1.2150304317474365,-4.630399703979492,8.562664031982422
1701897643087124200,9.217124267578125,-1.2131166458129883,-4.629232406616211,8.563567161560059
1701897643104117000,9.234116943359375,-1.2130768299102783,-4.6289238929748535,8.563737869262695
1701897643121109500,9.251109619140625,-1.2163559198379517,-4.628893852233887,8.5632905960083
1701897643138101200,9.268101318359374,-1.2196450233459473,-4.628443717956543,8.563065528869629
1701897643155095800,9.285095703125,-1.2218079566955566,-4.625417232513428,8.564393997192383
1701897643172087800,9.302087890625,-1.2234586477279663,-4.619787216186523,8.567194938659668
1701897643189080000,9.319080078125,-1.224626898765564,-4.6131205558776855,8.5706205368042
1701897643206072000,9.336072021484375,-1.2249729633331299,-4.607529163360596,8.573578834533691
1701897643223066400,9.35306640625,-1.2265090942382812,-4.604092121124268,8.57520580291748
1701897643240055800,9.370055908203126,-1.2283351421356201,-4.604000568389893,8.574992179870605
1701897643257051100,9.387051025390624,-1.230530858039856,-4.605712413787842,8.57375717163086
1701897643274040600,9.40404052734375,-1.233173131942749,-4.607141971588135,8.572609901428223
1701897643291026400,9.4210263671875,-1.2365282773971558,-4.607332229614258,8.572023391723633
1701897643308029400,9.438029541015625,-1.2391595840454102,-4.6048665046691895,8.572968482971191
1701897643325022000,9.45502197265625,-1.2408838272094727,-4.59959602355957,8.575549125671387
1701897643342014500,9.472014404296875,-1.240390419960022,-4.593962669372559,8.578640937805176
1701897643359007500,9.489007568359375,-1.2374486923217773,-4.5899553298950195,8.581208229064941
1701897643375991800,9.50599169921875,-1.2347968816757202,-4.588441848754883,8.582399368286133
1701897643392991000,9.522990966796876,-1.2325048446655273,-4.588940620422363,8.582464218139648
1701897643409988900,9.53998876953125,-1.2292368412017822,-4.592004776000977,8.581294059753418
1701897643426978600,9.556978515625,-1.223974347114563,-4.596721649169922,8.579520225524902
1701897643443970800,9.573970703125,-1.2186065912246704,-4.602458477020264,8.577207565307617
1701897643460960800,9.590960693359374,-1.2130546569824219,-4.608974933624268,8.574494361877441
1701897643477956400,9.607956298828125,-1.208059310913086,-4.616063117980957,8.571386337280273
1701897643494947000,9.624947021484376,-1.2042884826660156,-4.623109340667725,8.568120002746582
1701897643511942400,9.6419423828125,-1.2012730836868286,-4.629916667938232,8.56486701965332
1701897643528930300,9.658930419921875,-1.198135495185852,-4.636438846588135,8.561776161193848
1701897643545931800,9.675931884765625,-1.1957743167877197,-4.641887187957764,8.55915355682373
1701897643562909400,9.692909423828125,-1.1956866979599,-4.646453857421875,8.55668830871582
1701897643579912700,9.70991259765625,-1.1976536512374878,-4.651095867156982,8.5538911819458
1701897643596906000,9.726906005859375,-1.2003480195999146,-4.654761791229248,8.551520347595215
1701897643613898500,9.7438984375,-1.2027418613433838,-4.657486915588379,8.549699783325195
1701897643630891000,9.76089111328125,-1.205704689025879,-4.659882068634033,8.54797649383545
1701897643647869000,9.777868896484375,-1.2106022834777832,-4.661091327667236,8.546624183654785
1701897643664861700,9.79486181640625,-1.2167693376541138,-4.660984992980957,8.545805931091309
1701897643681869300,9.811869384765625,-1.2212132215499878,-4.660183906555176,8.545608520507812
1701897643698861600,9.828861572265625,-1.2248783111572266,-4.659282207489014,8.545577049255371
1701897643715853600,9.845853515625,-1.2302513122558594,-4.658570289611816,8.545193672180176
1701897643732848000,9.86284814453125,-1.2374199628829956,-4.658771991729736,8.544048309326172
1701897643749840100,9.879840087890624,-1.2429018020629883,-4.6596832275390625,8.542755126953125
1701897643766833000,9.8968330078125,-1.24785315990448,-4.659758567810059,8.541994094848633
1701897643783822000,9.913822021484375,-1.2535477876663208,-4.659007549285889,8.5415678024292
1701897643800807400,9.930807373046875,-1.2600042819976807,-4.657716274261475,8.541322708129883
1701897643817811000,9.94781103515625,-1.2661339044570923,-4.654942989349365,8.541927337646484
1701897643834803500,9.964803466796875,-1.2695902585983276,-4.650628089904785,8.543766021728516
1701897643851785000,9.981784912109376,-1.2732166051864624,-4.6446404457092285,8.546481132507324
1701897643868789200,9.998789306640624,-1.2778412103652954,-4.637793064117432,8.549510955810547
1701897643885781200,10.01578125,-1.2831469774246216,-4.631223678588867,8.552275657653809
1701897643902775000,10.032775146484376,-1.2876182794570923,-4.626587867736816,8.554110527038574
1701897643919767000,10.04976708984375,-1.2902594804763794,-4.623702526092529,8.55527400970459
1701897643936759800,10.066759765625,-1.2906752824783325,-4.622341156005859,8.555947303771973
1701897643953752800,10.0837529296875,-1.2897186279296875,-4.621167182922363,8.556727409362793
1701897643970742300,10.1007421875,-1.2876230478286743,-4.62084436416626,8.557215690612793
1701897643987738000,10.117738037109374,-1.285246729850769,-4.621983528137207,8.556958198547363
1701897644004731000,10.13473095703125,-1.2826277017593384,-4.62477445602417,8.555842399597168
1701897644021723600,10.1517236328125,-1.2775330543518066,-4.627840995788574,8.554945945739746
1701897644038715600,10.168715576171875,-1.271348476409912,-4.63019323348999,8.554594993591309
1701897644055710000,10.1857099609375,-1.2644463777542114,-4.631363868713379,8.554984092712402
1701897644072702000,10.202701904296875,-1.2582863569259644,-4.62992000579834,8.55667495727539
1701897644089694500,10.219694580078125,-1.2531629800796509,-4.6257429122924805,8.559684753417969
1701897644106687000,10.23668701171875,-1.2473831176757812,-4.620552062988281,8.563331604003906
1701897644123680000,10.253679931640624,-1.2412124872207642,-4.616596221923828,8.566361427307129
1701897644140662000,10.270662109375,-1.2345752716064453,-4.61492395401001,8.568222999572754
1701897644157665500,10.28766552734375,-1.227981448173523,-4.61607551574707,8.568547248840332
1701897644174656300,10.30465625,-1.2217512130737305,-4.618819713592529,8.567960739135742
1701897644191650800,10.32165087890625,-1.2164530754089355,-4.621395111083984,8.5673246383667
1701897644208645400,10.338645263671875,-1.2102965116500854,-4.622973442077637,8.56734561920166
1701897644225636400,10.35563623046875,-1.203951120376587,-4.621941566467285,8.568795204162598
1701897644242618000,10.3726181640625,-1.1985535621643066,-4.618298530578613,8.571516990661621
1701897644259622000,10.389621826171876,-1.1952509880065918,-4.61309289932251,8.57478141784668
1701897644276614400,10.406614501953126,-1.1920859813690186,-4.608008861541748,8.577954292297363
1701897644293603800,10.423603759765625,-1.1875795125961304,-4.605183124542236,8.580097198486328
1701897644310599700,10.440599609375,-1.1820281744003296,-4.605389595031738,8.580753326416016
1701897644327588900,10.4575888671875,-1.1796424388885498,-4.607432842254639,8.579984664916992
1701897644344585200,10.474585205078125,-1.1797138452529907,-4.60982084274292,8.578691482543945
1701897644361574700,10.49157470703125,-1.1804213523864746,-4.61154317855835,8.577667236328125
1701897644378570500,10.508570556640626,-1.1789203882217407,-4.611645221710205,8.57781982421875
1701897644395563500,10.5255634765625,-1.1762089729309082,-4.609309196472168,8.579448699951172
1701897644412556500,10.542556640625,-1.1737706661224365,-4.604565620422363,8.582328796386719
1701897644429548800,10.559548828125,-1.1728661060333252,-4.598093509674072,8.585922241210938
1701897644446539000,10.5765390625,-1.17174232006073,-4.592152118682861,8.589255332946777
1701897644463537000,10.593536865234375,-1.1690046787261963,-4.588274002075195,8.591700553894043
1701897644480526800,10.61052685546875,-1.1655185222625732,-4.5871100425720215,8.592793464660645
1701897644497519900,10.627519775390626,-1.163547396659851,-4.587066173553467,8.593085289001465
1701897644514512400,10.644512451171876,-1.1633245944976807,-4.587418556213379,8.592927932739258
1701897644531505400,10.66150537109375,-1.1629515886306763,-4.587671756744385,8.592843055725098
1701897644548497200,10.6784970703125,-1.161731243133545,-4.587267875671387,8.593222618103027
1701897644565494000,10.695493896484376,-1.1599701642990112,-4.5863261222839355,8.593964576721191
1701897644582481200,10.712481201171874,-1.1579346656799316,-4.585386276245117,8.594738006591797
1701897644599476200,10.729476318359374,-1.1536972522735596,-4.5848565101623535,8.595592498779297
1701897644616468000,10.746468017578126,-1.149013638496399,-4.585483074188232,8.595885276794434
1701897644633455000,10.763455078125,-1.1429553031921387,-4.586740016937256,8.596022605895996
1701897644650454300,10.780454345703125,-1.1367268562316895,-4.588306427001953,8.596012115478516
1701897644667447000,10.797447021484375,-1.130169153213501,-4.588784694671631,8.596620559692383
1701897644684436700,10.814436767578124,-1.1256422996520996,-4.589263916015625,8.596959114074707
1701897644701432800,10.831432861328125,-1.1221672296524048,-4.590862274169922,8.596559524536133
1701897644718425300,10.84842529296875,-1.1182893514633179,-4.59423828125,8.595261573791504
1701897644735418000,10.865418212890624,-1.114227294921875,-4.598834037780762,8.593331336975098
1701897644752410600,10.88241064453125,-1.1095565557479858,-4.603875637054443,8.59123706817627
1701897644769403400,10.8994033203125,-1.1056740283966064,-4.609635353088379,8.588647842407227
1701897644786396000,10.91639599609375,-1.1031591892242432,-4.614552974700928,8.586329460144043
1701897644803389000,10.933388916015625,-1.10216224193573,-4.617415904998779,8.584919929504395
1701897644820381700,10.950381591796875,-1.1009483337402344,-4.618701934814453,8.584383964538574
1701897644837374500,10.96737451171875,-1.0987871885299683,-4.618637561798096,8.584694862365723
1701897644854367200,10.9843671875,-1.095319151878357,-4.618978500366211,8.584953308105469
1701897644871356700,11.001356689453125,-1.0926686525344849,-4.62046480178833,8.584490776062012
1701897644888352300,11.018352294921876,-1.0933469533920288,-4.623398303985596,8.58282470703125
1701897644905345300,11.03534521484375,-1.095490574836731,-4.62717866897583,8.580513954162598
1701897644922338800,11.0523388671875,-1.096289873123169,-4.631603717803955,8.578024864196777
1701897644939329800,11.069329833984375,-1.0946391820907593,-4.6356120109558105,8.576069831848145
1701897644956320800,11.08632080078125,-1.094516396522522,-4.636219024658203,8.57575798034668
1701897644973318400,11.103318359375,-1.0973095893859863,-4.634820938110352,8.576157569885254
1701897644990308600,11.12030859375,-1.1014686822891235,-4.633972644805908,8.576081275939941
1701897645007287600,11.13728759765625,-1.1026779413223267,-4.634322643280029,8.575736045837402
1701897645024294100,11.154294189453125,-1.1022785902023315,-4.635217189788818,8.575304985046387
1701897645041287200,11.171287109375,-1.1020417213439941,-4.636657238006592,8.57455825805664
1701897645058279000,11.18827880859375,-1.102297306060791,-4.638997554779053,8.573258399963379
1701897645075273000,11.20527294921875,-1.1017985343933105,-4.642129421234131,8.571627616882324
1701897645092265200,11.22226513671875,-1.101383924484253,-4.645308494567871,8.569957733154297
1701897645109258000,11.239258056640624,-1.1015610694885254,-4.648472785949707,8.568220138549805
1701897645126249700,11.256249755859375,-1.1023480892181396,-4.652022361755371,8.566190719604492
1701897645143244000,11.273244140625,-1.1026580333709717,-4.656929969787598,8.563484191894531
1701897645160236000,11.290236083984375,-1.101987361907959,-4.662379264831543,8.560604095458984
1701897645177228800,11.307228759765625,-1.101940631866455,-4.667706489562988,8.557707786560059
1701897645194218500,11.324218505859376,-1.1027346849441528,-4.671807765960693,8.555366516113281
1701897645211214300,11.34121435546875,-1.103764295578003,-4.675759315490723,8.553074836730957
1701897645228202500,11.358202392578125,-1.1039116382598877,-4.6791486740112305,8.551202774047852
1701897645245204000,11.375203857421875,-1.103004813194275,-4.681759834289551,8.549890518188477
1701897645262182000,11.392181884765625,-1.10160493850708,-4.684082508087158,8.548797607421875
1701897645279185000,11.409184814453125,-1.1012219190597534,-4.6867852210998535,8.547365188598633
1701897645296178000,11.426177978515625,-1.1009646654129028,-4.689761638641357,8.54576587677002
1701897645313170700,11.443170654296875,-1.101446509361267,-4.691926956176758,8.544516563415527
1701897645330163200,11.4601630859375,-1.1027147769927979,-4.693228244781494,8.543638229370117
1701897645347153700,11.477153564453126,-1.104643702507019,-4.693148612976074,8.543432235717773
1701897645364151300,11.4941513671875,-1.1061359643936157,-4.692229270935059,8.543745040893555
1701897645381138400,11.511138427734375,-1.1068756580352783,-4.690314292907715,8.54470157623291
1701897645398131500,11.52813134765625,-1.1087713241577148,-4.6879072189331055,8.545775413513184
1701897645415130000,11.545130126953126,-1.1102471351623535,-4.6855950355529785,8.546853065490723
1701897645432119600,11.56211962890625,-1.1116522550582886,-4.684664249420166,8.547179222106934
1701897645449111800,11.57911181640625,-1.1129614114761353,-4.686564922332764,8.545966148376465
1701897645466105900,11.59610595703125,-1.114594578742981,-4.689101219177246,8.544363975524902
1701897645483095000,11.613094970703125,-1.1164129972457886,-4.691254138946533,8.542943000793457
1701897645500093400,11.630093505859374,-1.1161680221557617,-4.692801475524902,8.542123794555664
1701897645517083400,11.64708349609375,-1.1160341501235962,-4.692073345184326,8.542542457580566
1701897645534076000,11.664075927734375,-1.1168304681777954,-4.689323902130127,8.54394817352295
1701897645551069000,11.68106884765625,-1.1201066970825195,-4.685190677642822,8.545785903930664
1701897645568060700,11.698060791015624,-1.1250529289245605,-4.681215763092041,8.547314643859863
1701897645585055000,11.715054931640625,-1.1284232139587402,-4.6778883934021,8.548691749572754
1701897645602046700,11.732046630859376,-1.1295779943466187,-4.676401615142822,8.549352645874023
1701897645619039700,11.749039794921876,-1.1291395425796509,-4.676158428192139,8.549545288085938
1701897645636031500,11.766031494140625,-1.1284629106521606,-4.676170349121094,8.549627304077148
1701897645653025800,11.78302587890625,-1.128780484199524,-4.675484657287598,8.54996109008789
1701897645670014500,11.800014404296874,-1.1306463479995728,-4.674257755279541,8.550383567810059
1701897645686999800,11.816999755859374,-1.1324548721313477,-4.673458576202393,8.550582885742188
1701897645704000300,11.834000244140626,-1.1326273679733276,-4.673117637634277,8.550745964050293
1701897645720995800,11.850995849609374,-1.131588339805603,-4.673566818237305,8.550636291503906
1701897645737988900,11.86798876953125,-1.1306936740875244,-4.67612886428833,8.549354553222656
1701897645754981400,11.8849814453125,-1.1303943395614624,-4.680232524871826,8.547148704528809
1701897645771964000,11.9019638671875,-1.1305276155471802,-4.684298992156982,8.544902801513672
1701897645788966700,11.918966552734375,-1.1308836936950684,-4.68652868270874,8.543633460998535
1701897645805949000,11.935948974609374,-1.1325619220733643,-4.686811447143555,8.543256759643555
1701897645822952400,11.952952392578124,-1.1353989839553833,-4.68557071685791,8.543559074401855
1701897645839944700,11.96994482421875,-1.1364163160324097,-4.683076858520508,8.544791221618652
1701897645856928000,11.986927978515626,-1.1357743740081787,-4.680782794952393,8.546134948730469
1701897645873930500,12.003930419921875,-1.1350300312042236,-4.6803669929504395,8.546462059020996
1701897645890917600,12.020917724609374,-1.134782075881958,-4.682807922363281,8.545154571533203
1701897645907918600,12.037918701171876,-1.1335641145706177,-4.685974597930908,8.543582916259766
1701897645924898000,12.05489794921875,-1.1318484544754028,-4.6882781982421875,8.542545318603516
1701897645941901600,12.071901611328125,-1.1302253007888794,-4.689319133758545,8.542189598083496
1701897645958893300,12.088893310546876,-1.129205584526062,-4.688453674316406,8.54279899597168
1701897645975887600,12.1058876953125,-1.1291838884353638,-4.685259819030762,8.5445556640625
1701897645992879600,12.122879638671876,-1.1289634704589844,-4.680962562561035,8.5469388961792
1701897646009872600,12.13987255859375,-1.1284741163253784,-4.677091121673584,8.549121856689453
1701897646026865200,12.156865234375,-1.1279963254928589,-4.674136161804199,8.550801277160645
1701897646043857700,12.173857666015625,-1.1259474754333496,-4.673478126525879,8.551429748535156
1701897646060850400,12.190850341796875,-1.122721552848816,-4.674488067626953,8.551301956176758
1701897646077843000,12.207843017578124,-1.1215919256210327,-4.676263332366943,8.550481796264648
1701897646094836200,12.224836181640624,-1.1239219903945923,-4.678783893585205,8.548796653747559
1701897646111828700,12.241828857421876,-1.1249330043792725,-4.682276248931885,8.546751976013184
1701897646128821500,12.258821533203125,-1.122533917427063,-4.685389518737793,8.545357704162598
1701897646145813500,12.2758134765625,-1.1182689666748047,-4.686430931091309,8.545348167419434
1701897646162807600,12.2928076171875,-1.1147302389144897,-4.684665679931641,8.54677677154541
1701897646179799800,12.3097998046875,-1.1122410297393799,-4.682012557983398,8.548555374145508
1701897646196795000,12.326794921875,-1.1108119487762451,-4.680973052978516,8.549308776855469
1701897646213782000,12.343781982421875,-1.1097173690795898,-4.681568145751953,8.549125671386719
1701897646230777600,12.360777587890626,-1.108181357383728,-4.683945178985596,8.548023223876953
1701897646247770400,12.377770263671875,-1.1058670282363892,-4.687360763549805,8.5464506149292
1701897646264763400,12.394763427734375,-1.1029627323150635,-4.691092014312744,8.544779777526855
1701897646281745400,12.411745361328125,-1.0997519493103027,-4.694454669952393,8.543344497680664
1701897646298748400,12.42874853515625,-1.0972347259521484,-4.697216987609863,8.54215145111084
1701897646315740700,12.44574072265625,-1.0953092575073242,-4.699517726898193,8.541131973266602
1701897646332734500,12.462734375,-1.095347285270691,-4.7004570960998535,8.540610313415527
1701897646349719300,12.47971923828125,-1.0942193269729614,-4.700746059417725,8.540596008300781
1701897646366719700,12.4967197265625,-1.091273546218872,-4.699489593505859,8.541665077209473
1701897646383712300,12.513712158203125,-1.0867944955825806,-4.696765422821045,8.543733596801758
1701897646400705000,12.530705078125,-1.083823561668396,-4.6922407150268555,8.546598434448242
1701897646417688300,12.547688232421875,-1.0836265087127686,-4.68675422668457,8.54963207244873
1701897646434690300,12.564690185546874,-1.0841153860092163,-4.681108474731445,8.55266284942627
1701897646451683300,12.581683349609374,-1.0837171077728271,-4.676520824432373,8.555221557617188
1701897646468675000,12.598675048828126,-1.0832926034927368,-4.672879695892334,8.557266235351562
1701897646485669600,12.615669677734376,-1.0843030214309692,-4.669710159301758,8.558868408203125
1701897646502657000,12.632656982421874,-1.0848426818847656,-4.666351795196533,8.56063175201416
1701897646519654100,12.649654052734375,-1.0850409269332886,-4.663056373596191,8.562400817871094
1701897646536644600,12.66664453125,-1.084496021270752,-4.6599321365356445,8.564169883728027
1701897646553642000,12.68364208984375,-1.0842269659042358,-4.656604766845703,8.566014289855957
1701897646570632400,12.700632568359374,-1.084389567375183,-4.6537394523620605,8.567549705505371
1701897646587625200,12.717625244140624,-1.0847532749176025,-4.6515302658081055,8.568704605102539
1701897646604620800,12.734620849609374,-1.08395516872406,-4.6498565673828125,8.569714546203613
1701897646621610500,12.751610595703125,-1.083274483680725,-4.648900508880615,8.570318222045898
1701897646638603300,12.768603271484375,-1.0817197561264038,-4.649351596832275,8.570271492004395
1701897646655596000,12.785595947265625,-1.0800362825393677,-4.651010990142822,8.569581985473633
1701897646672578800,12.802578857421874,-1.0789048671722412,-4.652296543121338,8.569026947021484
1701897646689576200,12.819576171875,-1.0798977613449097,-4.653286933898926,8.568364143371582
1701897646706573800,12.83657373046875,-1.0792961120605469,-4.653751373291016,8.568187713623047
1701897646723567000,12.853567138671876,-1.076317548751831,-4.6547346115112305,8.568028450012207
1701897646740560000,12.870559814453125,-1.0734354257583618,-4.656824111938477,8.567254066467285
1701897646757552000,12.88755224609375,-1.0741580724716187,-4.661027431488037,8.564876556396484
1701897646774545000,12.904544921875,-1.074089765548706,-4.667787075042725,8.561203956604004
1701897646791534600,12.92153466796875,-1.0719361305236816,-4.674927711486816,8.557576179504395
1701897646808530400,12.938530517578124,-1.0705848932266235,-4.679783344268799,8.555091857910156
1701897646825520600,12.955520751953125,-1.0714123249053955,-4.6807026863098145,8.554484367370605
1701897646842518500,12.9725185546875,-1.0731816291809082,-4.679377555847168,8.554987907409668
1701897646859508500,12.989508544921875,-1.0724594593048096,-4.676640033721924,8.556575775146484
1701897646876501500,13.00650146484375,-1.0710415840148926,-4.6735076904296875,8.558465003967285
1701897646893494300,13.023494384765625,-1.0700422525405884,-4.672107219696045,8.559353828430176
1701897646910486800,13.04048681640625,-1.0697884559631348,-4.672562599182129,8.559137344360352
1701897646927479600,13.0574794921875,-1.068764090538025,-4.6745405197143555,8.558185577392578
1701897646944454000,13.074453857421876,-1.0656895637512207,-4.677386283874512,8.557013511657715
1701897646961457000,13.091456787109376,-1.0617824792861938,-4.680612564086914,8.55573558807373
1701897646978457000,13.10845703125,-1.0592260360717773,-4.684909343719482,8.553699493408203
1701897646995440000,13.125440185546875,-1.0564545392990112,-4.690920829772949,8.550747871398926
1701897647012443400,13.142443359375,-1.051865577697754,-4.6967291831970215,8.548125267028809
1701897647029436200,13.159436279296875,-1.046343445777893,-4.701687335968018,8.546075820922852
1701897647046424800,13.1764248046875,-1.040077567100525,-4.704828262329102,8.545112609863281
1701897647063425000,13.193425048828125,-1.034031629562378,-4.706345558166504,8.545010566711426
1701897647080414000,13.2104140625,-1.0286357402801514,-4.705862522125244,8.545928001403809
1701897647097407000,13.227406982421876,-1.0262489318847656,-4.702754974365234,8.54792594909668
1701897647114396400,13.244396484375,-1.0245064496994019,-4.69964599609375,8.549842834472656
1701897647131392500,13.261392578125,-1.022973895072937,-4.698380470275879,8.550722122192383
1701897647148385000,13.278385009765625,-1.0213589668273926,-4.700087070465088,8.54997730255127
1701897647165377800,13.295377685546875,-1.0199198722839355,-4.704599380493164,8.547667503356934
1701897647182370600,13.31237060546875,-1.0179535150527954,-4.711653709411621,8.544014930725098
1701897647199360500,13.329360595703125,-1.0160040855407715,-4.719787120819092,8.53975772857666
1701897647216359000,13.34635888671875,-1.0144761800765991,-4.728394031524658,8.535176277160645
1701897647233348600,13.3633486328125,-1.0121326446533203,-4.737460613250732,8.530428886413574
1701897647250341600,13.380341552734375,-1.009147047996521,-4.747337818145752,8.525288581848145
1701897647267334100,13.397334228515625,-1.0057737827301025,-4.757725715637207,8.519892692565918
1701897647284327000,13.414326904296875,-1.002771258354187,-4.7679948806762695,8.514505386352539
1701897647301316600,13.431316650390626,-0.9991394877433777,-4.777313232421875,8.5097074508667
1701897647318312400,13.4483125,-0.9959030747413635,-4.785494327545166,8.505489349365234
1701897647335305200,13.46530517578125,-0.9935881495475769,-4.792446613311768,8.501845359802246
1701897647352297700,13.482297607421875,-0.9925356507301331,-4.7982177734375,8.498710632324219
1701897647369289700,13.499289794921875,-0.9928841590881348,-4.801159381866455,8.497007369995117
1701897647386284300,13.5162841796875,-0.9940705299377441,-4.802183151245117,8.49629020690918
1701897647403276000,13.533276123046875,-0.9956539869308472,-4.802049160003662,8.496183395385742
1701897647420268800,13.550268798828125,-0.9969327449798584,-4.801342487335205,8.496431350708008
1701897647437252400,13.56725244140625,-0.9997774362564087,-4.79850435256958,8.497702598571777
1701897647454254300,13.58425439453125,-1.0027010440826416,-4.794168472290039,8.49980354309082
1701897647471247000,13.6012470703125,-1.0031635761260986,-4.788802146911621,8.502774238586426
1701897647488238800,13.61823876953125,-1.003633737564087,-4.78108549118042,8.507059097290039
1701897647505233200,13.635233154296875,-1.0062280893325806,-4.771797180175781,8.511966705322266
1701897647522225200,13.65222509765625,-1.0085430145263672,-4.763308525085449,8.51644515991211
1701897647539218000,13.669218017578125,-1.0068531036376953,-4.756955623626709,8.520196914672852
1701897647556208400,13.68620849609375,-1.0009170770645142,-4.752180099487305,8.5235595703125
1701897647573205500,13.70320556640625,-0.9951990842819214,-4.747740268707275,8.526703834533691
1701897647590196200,13.7201962890625,-0.9917866587638855,-4.7431464195251465,8.529657363891602
1701897647607189000,13.73718896484375,-0.9899401068687439,-4.738724231719971,8.532328605651855
1701897647624177700,13.754177734375,-0.9873462319374084,-4.735764026641846,8.534272193908691
1701897647641174500,13.771174560546875,-0.9825801849365234,-4.734635829925537,8.535449028015137
1701897647658169000,13.788169189453125,-0.9779088497161865,-4.734581470489502,8.536014556884766
1701897647675159600,13.80515966796875,-0.9733099937438965,-4.736271381378174,8.535601615905762
1701897647692149500,13.8221494140625,-0.9671213030815125,-4.739496231079102,8.534516334533691
1701897647709144800,13.839144775390626,-0.9606356024742126,-4.7430195808410645,8.53329086303711
1701897647726137900,13.856137939453125,-0.9559946656227112,-4.74498176574707,8.532722473144531
1701897647743130400,13.87313037109375,-0.953368067741394,-4.745813846588135,8.532552719116211
1701897647760123600,13.89012353515625,-0.9509537816047668,-4.745950222015381,8.532747268676758
1701897647777116000,13.907115966796875,-0.9492955207824707,-4.746345043182373,8.532712936401367
1701897647794109000,13.92410888671875,-0.947857677936554,-4.746800422668457,8.532618522644043
1701897647811098600,13.9410986328125,-0.9472220540046692,-4.748075008392334,8.53197956085205
1701897647828094500,13.958094482421876,-0.9462993741035461,-4.750696182250977,8.530621528625488
1701897647845089300,13.97508935546875,-0.9459936022758484,-4.753719806671143,8.528971672058105
1701897647862065700,13.992065673828124,-0.9473711848258972,-4.755086421966553,8.528057098388672
1701897647879061000,14.00906103515625,-0.9508397579193115,-4.754179954528809,8.528176307678223
1701897647896066300,14.02606640625,-0.953902542591095,-4.752310276031494,8.528877258300781
1701897647913057800,14.043057861328125,-0.9551409482955933,-4.750349044799805,8.529829978942871
1701897647930048300,14.06004833984375,-0.9552888870239258,-4.748303413391113,8.530952453613281
1701897647947043300,14.077043212890626,-0.9556409120559692,-4.746033191680908,8.53217601776123
1701897647964036000,14.0940361328125,-0.957665205001831,-4.743445873260498,8.533387184143066
1701897647981028900,14.11102880859375,-0.9604735970497131,-4.73997688293457,8.535000801086426
1701897647998021400,14.128021484375,-0.962284505367279,-4.7358293533325195,8.537099838256836
1701897648015015000,14.145014892578125,-0.9639585614204407,-4.731506824493408,8.539305686950684
1701897648031997700,14.161997802734374,-0.9670301079750061,-4.727214336395264,8.541336059570312
1701897648049000000,14.179,-0.9708705544471741,-4.722992897033691,8.543235778808594
1701897648065991400,14.195991455078126,-0.9733866453170776,-4.719184875488281,8.545052528381348
1701897648082986000,14.212986083984376,-0.973641574382782,-4.714269638061523,8.547735214233398
1701897648099980000,14.22997998046875,-0.9707126617431641,-4.707508087158203,8.55179500579834
1701897648116970800,14.246970703125,-0.9656261801719666,-4.700477600097656,8.55623722076416
1701897648133960200,14.263960205078124,-0.9610916972160339,-4.692411422729492,8.561174392700195
1701897648150953700,14.28095361328125,-0.9577833414077759,-4.684943675994873,8.565631866455078
1701897648167951600,14.29795166015625,-0.9524418711662292,-4.679831027984619,8.569024085998535
1701897648184941600,14.314941650390624,-0.9449048042297363,-4.677650451660156,8.571046829223633
1701897648201931300,14.33193115234375,-0.9382980465888977,-4.677542209625244,8.571832656860352
1701897648218927000,14.348927001953125,-0.9326525926589966,-4.678900718688965,8.571707725524902
1701897648235919600,14.365919677734375,-0.9252079129219055,-4.682107925415039,8.570764541625977
1701897648252912400,14.382912353515625,-0.9152424931526184,-4.6857757568359375,8.56982707977295
1701897648269905400,14.399905517578125,-0.9066774845123291,-4.687407970428467,8.569846153259277
1701897648286898200,14.416898193359375,-0.9007858037948608,-4.687182903289795,8.57059097290039
1701897648303891000,14.433890869140624,-0.8952280282974243,-4.685964584350586,8.571839332580566
1701897648320883500,14.450883544921876,-0.8885411620140076,-4.6849870681762695,8.573068618774414
1701897648337876500,14.46787646484375,-0.8808895349502563,-4.68456506729126,8.574088096618652
1701897648354869000,14.484868896484375,-0.8736448287963867,-4.685269355773926,8.574444770812988
1701897648371861500,14.501861572265625,-0.8671035170555115,-4.686183929443359,8.57460880279541
1701897648388853500,14.518853515625,-0.8601564764976501,-4.6875081062316895,8.574585914611816
1701897648405831700,14.535831787109375,-0.8527269959449768,-4.690311431884766,8.573795318603516
1701897648422839600,14.552839599609374,-0.8438555598258972,-4.694046497344971,8.572628021240234
1701897648439832600,14.56983251953125,-0.836543619632721,-4.696815490722656,8.57182788848877
1701897648456825600,14.58682568359375,-0.8308490514755249,-4.698027610778809,8.571718215942383
1701897648473818000,14.603818115234375,-0.8272681832313538,-4.698284149169922,8.571924209594727
1701897648490800000,14.620800048828125,-0.82392418384552,-4.697322368621826,8.572772979736328
1701897648507793200,14.637793212890625,-0.8200240731239319,-4.696193218231201,8.573766708374023
1701897648524796400,14.65479638671875,-0.8163532018661499,-4.696356773376465,8.574028015136719
1701897648541789000,14.671788818359374,-0.8130425214767456,-4.697168350219727,8.573894500732422
1701897648558781700,14.68878173828125,-0.8102001547813416,-4.697982311248779,8.573719024658203
1701897648575763200,14.70576318359375,-0.8074169158935547,-4.69965124130249,8.573067665100098
1701897648592768000,14.72276806640625,-0.8062269687652588,-4.702447891235352,8.571646690368652
1701897648609760300,14.73976025390625,-0.8086272478103638,-4.7054057121276855,8.569795608520508
1701897648626752500,14.75675244140625,-0.8132922053337097,-4.708420753479004,8.56769847869873
1701897648643745300,14.773745361328125,-0.8174928426742554,-4.710747718811035,8.566019058227539
1701897648660738000,14.790738037109374,-0.8219080567359924,-4.711503982543945,8.565180778503418
1701897648677731000,14.80773095703125,-0.8273342847824097,-4.710392951965332,8.56527042388916
1701897648694723600,14.8247236328125,-0.8336650729179382,-4.7071990966796875,8.566410064697266
1701897648711711200,14.841711181640624,-0.8411436676979065,-4.701976776123047,8.568546295166016
1701897648728698600,14.85869873046875,-0.8494402766227722,-4.695974349975586,8.57102108001709
1701897648745702000,14.875701904296875,-0.8570474982261658,-4.6910600662231445,8.572956085205078
1701897648762697000,14.892697021484375,-0.8630765676498413,-4.687714099884033,8.574179649353027
1701897648779687200,14.909687255859374,-0.8676309585571289,-4.685467720031738,8.57494831085205
1701897648796669400,14.92666943359375,-0.8712059259414673,-4.684040069580078,8.57536506652832
1701897648813672700,14.943672607421876,-0.8736839890480042,-4.681962966918945,8.576247215270996
1701897648830665500,14.96066552734375,-0.8762696385383606,-4.677430629730225,8.57845687866211
1701897648847658200,14.977658203125,-0.8774004578590393,-4.6703596115112305,8.582193374633789
1701897648864651000,14.994651123046875,-0.8767274618148804,-4.6626996994018555,8.586426734924316
1701897648881643800,15.011643798828125,-0.8721683621406555,-4.658129692077637,8.589370727539062
1701897648898635800,15.0286357421875,-0.866291344165802,-4.658111095428467,8.589975357055664
1701897648915629800,15.0456298828125,-0.8630052208900452,-4.6624603271484375,8.587945938110352
1701897648932622000,15.0626220703125,-0.8617328405380249,-4.670131206512451,8.583904266357422
1701897648949604000,15.07960400390625,-0.8586730360984802,-4.67839241027832,8.579710960388184
1701897648966606600,15.096606689453125,-0.8521714806556702,-4.684476375579834,8.57703971862793
1701897648983602400,15.1136025390625,-0.845402181148529,-4.685390949249268,8.577208518981934
1701897649000590300,15.13059033203125,-0.8415628671646118,-4.6819915771484375,8.579442977905273
1701897649017586700,15.147586669921875,-0.8400934934616089,-4.677536964416504,8.582016944885254
1701897649034575000,15.1645751953125,-0.8384082913398743,-4.674215316772461,8.583992004394531
1701897649051571000,15.181571044921874,-0.8366371989250183,-4.673411846160889,8.584601402282715
1701897649068564000,15.19856396484375,-0.8356806039810181,-4.674886703491211,8.583890914916992
1701897649085556500,15.215556396484375,-0.8358840942382812,-4.677628517150879,8.582377433776855
1701897649102549500,15.232549560546875,-0.8364623785018921,-4.681530475616455,8.580194473266602
1701897649119539500,15.24953955078125,-0.8364447951316833,-4.6864423751831055,8.5775146484375
1701897649136537000,15.266537109375,-0.8359553813934326,-4.690673828125,8.575248718261719
1701897649153527600,15.283527587890624,-0.8349426984786987,-4.6930012702941895,8.574074745178223
1701897649170520000,15.30052001953125,-0.8336825966835022,-4.693239688873291,8.574066162109375
1701897649187512800,15.317512939453126,-0.8352449536323547,-4.692909240722656,8.574092864990234
1701897649204505300,15.33450537109375,-0.8382024765014648,-4.692556858062744,8.573997497558594
1701897649221495000,15.3514951171875,-0.8405869603157043,-4.692464828491211,8.57381534576416
1701897649238482000,15.36848193359375,-0.8417213559150696,-4.692799091339111,8.573521614074707
1701897649255484000,15.38548388671875,-0.8424563407897949,-4.6933913230896,8.573123931884766
1701897649272476700,15.4024765625,-0.8427603840827942,-4.694131851196289,8.572689056396484
1701897649289468400,15.419468505859374,-0.8435667157173157,-4.693882465362549,8.572745323181152
1701897649306462700,15.436462646484374,-0.8437789678573608,-4.69344425201416,8.572965621948242
1701897649323455000,15.453455078125,-0.8426206707954407,-4.692930221557617,8.57336139678955
1701897649340447500,15.470447509765625,-0.8422732949256897,-4.690817832946777,8.57455062866211
1701897649357440300,15.487440185546875,-0.8424364328384399,-4.688238143920898,8.575946807861328
1701897649374432800,15.504432861328125,-0.8419885635375977,-4.686757564544678,8.576799392700195
1701897649391415300,15.521415283203124,-0.8412272334098816,-4.6858744621276855,8.57735538482666
1701897649408417500,15.53841748046875,-0.8404366970062256,-4.685069561004639,8.577874183654785
1701897649425410300,15.555410400390626,-0.8389438986778259,-4.683178424835205,8.579051971435547
1701897649442405600,15.572405517578124,-0.8366085290908813,-4.679882526397705,8.581076622009277
1701897649459396900,15.58939697265625,-0.8328791856765747,-4.6767401695251465,8.58315372467041
1701897649476377900,15.6063779296875,-0.8299883008003235,-4.673726558685303,8.585074424743652
1701897649493383000,15.6233828125,-0.8286721110343933,-4.671891212463379,8.586201667785645
1701897649510373600,15.64037353515625,-0.8273015022277832,-4.671822547912598,8.586371421813965
1701897649527369200,15.657369140625,-0.8246515989303589,-4.672343730926514,8.586342811584473
1701897649544356900,15.67435693359375,-0.8216425776481628,-4.67121696472168,8.587242126464844
1701897649561353200,15.691353271484376,-0.8196942806243896,-4.668305397033691,8.589012145996094
1701897649578344000,15.708343994140625,-0.8179477453231812,-4.665757656097412,8.59056282043457
1701897649595339500,15.725339599609375,-0.8162614107131958,-4.664648532867432,8.591326713562012
1701897649612324600,15.74232470703125,-0.8165438175201416,-4.665855884552002,8.590643882751465
1701897649629323800,15.75932373046875,-0.8181769251823425,-4.670280456542969,8.588083267211914
1701897649646314800,15.776314697265626,-0.8182143568992615,-4.676324367523193,8.584792137145996
1701897649663312400,15.7933125,-0.8176834583282471,-4.680403232574463,8.582618713378906
1701897649680301000,15.810301025390626,-0.8186768889427185,-4.680538654327393,8.58244800567627
1701897649697302500,15.827302490234375,-0.8224033117294312,-4.6775617599487305,8.583717346191406
1701897649714289000,15.844288818359376,-0.826651930809021,-4.6746015548706055,8.584921836853027
1701897649731276300,15.8612763671875,-0.8279412388801575,-4.672554016113281,8.585912704467773
1701897649748273200,15.878273193359375,-0.8274862766265869,-4.6708784103393555,8.586867332458496
1701897649765266000,15.895265869140625,-0.8278582096099854,-4.667518138885498,8.588658332824707
1701897649782258700,15.9122587890625,-0.8296334147453308,-4.661192417144775,8.591920852661133
1701897649799250400,15.92925048828125,-0.8308191895484924,-4.653916835784912,8.595749855041504
1701897649816244000,15.946243896484376,-0.8307899832725525,-4.647924423217773,8.598995208740234
1701897649833238000,15.963238037109376,-0.8322991728782654,-4.644867897033691,8.600500106811523
1701897649850229800,15.980229736328125,-0.8338860869407654,-4.646782875061035,8.599310874938965
1701897649867227000,15.997226806640626,-0.8335562944412231,-4.651499271392822,8.596794128417969
1701897649884217600,16.014217529296875,-0.8319330811500549,-4.656854152679443,8.5940523147583
1701897649901207000,16.03120703125,-0.8298467993736267,-4.661533832550049,8.591714859008789
1701897649918200600,16.04820068359375,-0.8270074129104614,-4.663303375244141,8.591029167175293
1701897649935193600,16.065193603515624,-0.8238095641136169,-4.661288261413574,8.592430114746094
1701897649952186000,16.08218603515625,-0.8215718269348145,-4.656436443328857,8.595273971557617
1701897649969168100,16.099168212890625,-0.8219507336616516,-4.651516437530518,8.597900390625
1701897649986171000,16.1161708984375,-0.8233096599578857,-4.649621486663818,8.598796844482422
1701897650003165000,16.1331650390625,-0.8224875330924988,-4.652979850769043,8.597060203552246
1701897650020157000,16.150156982421876,-0.819460391998291,-4.658990383148193,8.594093322753906
1701897650037149700,16.167149658203126,-0.8165666460990906,-4.6645002365112305,8.591377258300781
1701897650054139400,16.184139404296875,-0.8158643841743469,-4.668853759765625,8.589079856872559
1701897650071135000,16.201135009765625,-0.8157164454460144,-4.672286510467529,8.587226867675781
1701897650088128000,16.2181279296875,-0.8156650066375732,-4.674516201019287,8.586017608642578
1701897650105118200,16.2351181640625,-0.8163175582885742,-4.676441192626953,8.584906578063965
1701897650122112500,16.252112548828126,-0.8166309595108032,-4.680225849151611,8.582815170288086
1701897650139095800,16.269095703125,-0.8147727251052856,-4.687314510345459,8.579122543334961
1701897650156098600,16.2860986328125,-0.8128331899642944,-4.695383548736572,8.5748929977417
1701897650173091600,16.303091552734376,-0.8137617111206055,-4.701601028442383,8.571398735046387
1701897650190089200,16.320089111328127,-0.8169244527816772,-4.706265449523926,8.568538665771484
1701897650207076900,16.337076904296875,-0.8200603127479553,-4.7099480628967285,8.566213607788086
1701897650224069600,16.354069580078125,-0.8224769830703735,-4.71283483505249,8.564393997192383
1701897650241062700,16.371062744140627,-0.8251807689666748,-4.715505599975586,8.562663078308105
1701897650258055200,16.38805517578125,-0.8263648152351379,-4.720849514007568,8.559602737426758
1701897650275048200,16.405048095703126,-0.825812816619873,-4.728950023651123,8.555185317993164
1701897650292040700,16.422040771484376,-0.8271699547767639,-4.738104343414307,8.549985885620117
1701897650309022000,16.43902197265625,-0.8308688998222351,-4.74644660949707,8.544998168945312
1701897650326026800,16.45602685546875,-0.8347052931785583,-4.753059387207031,8.540947914123535
1701897650343018800,16.473018798828125,-0.836020290851593,-4.758080005645752,8.53802490234375
1701897650360012800,16.4900126953125,-0.834735095500946,-4.760340213775635,8.536890029907227
1701897650377002000,16.507001953125,-0.8343503475189209,-4.758981227874756,8.537684440612793
1701897650394000000,16.523999755859375,-0.8365009427070618,-4.7545013427734375,8.539971351623535
1701897650410990000,16.540989990234376,-0.8392117023468018,-4.74827766418457,8.543167114257812
1701897650427982800,16.55798291015625,-0.8429673910140991,-4.742072105407715,8.546243667602539
1701897650444975600,16.5749755859375,-0.8467002511024475,-4.7383575439453125,8.547935485839844
1701897650461968100,16.591968017578125,-0.8496946096420288,-4.73642635345459,8.548707962036133
1701897650478960600,16.608960693359375,-0.8509231209754944,-4.734743118286133,8.549518585205078
1701897650495953000,16.625952880859376,-0.8498150706291199,-4.73216438293457,8.551055908203125
1701897650512947000,16.642947021484375,-0.8476200103759766,-4.729374408721924,8.552816390991211
1701897650529939000,16.65993896484375,-0.84415203332901,-4.726504802703857,8.554746627807617
1701897650546932000,16.676931884765626,-0.8420113921165466,-4.7236738204956055,8.55652141571045
1701897650563922000,16.693921875,-0.8418523073196411,-4.7219061851501465,8.557512283325195
1701897650580919800,16.710919921875,-0.8422703742980957,-4.721622943878174,8.557626724243164
1701897650597909800,16.72790966796875,-0.8403034210205078,-4.723426818847656,8.55682373046875
1701897650614902500,16.744902587890625,-0.834904670715332,-4.728674411773682,8.554454803466797
1701897650631892500,16.761892578125,-0.8274067640304565,-4.737143039703369,8.550496101379395
1701897650648888300,16.778888427734376,-0.8194077610969543,-4.746156692504883,8.54626750946045
1701897650665880800,16.795880859375,-0.8127291202545166,-4.753348350524902,8.54290771484375
1701897650682873900,16.812873779296876,-0.8072666525840759,-4.757683277130127,8.54101276397705
1701897650699866600,16.82986669921875,-0.8030414581298828,-4.760305404663086,8.539948463439941
1701897650716859000,16.84685888671875,-0.7995155453681946,-4.762455463409424,8.539082527160645
1701897650733851600,16.8638515625,-0.7965744137763977,-4.7646894454956055,8.53810977935791
1701897650750844200,16.88084423828125,-0.7932613492012024,-4.766219139099121,8.53756332397461
1701897650767837400,16.89783740234375,-0.7892636060714722,-4.767091274261475,8.537447929382324
1701897650784830000,16.914829833984374,-0.7847232818603516,-4.7675018310546875,8.537637710571289
1701897650801822700,16.93182275390625,-0.7818529009819031,-4.767780303955078,8.537745475769043
1701897650818814700,16.948814697265625,-0.7811576128005981,-4.76737117767334,8.53803825378418
1701897650835808500,16.96580859375,-0.7802074551582336,-4.766796112060547,8.538444519042969
1701897650852801500,16.982801513671873,-0.7766704559326172,-4.766988754272461,8.538661003112793
1701897650869793500,16.99979345703125,-0.7709688544273376,-4.768331050872803,8.53842830657959
1701897650886785800,17.016785888671876,-0.764888346195221,-4.770290851593018,8.537879943847656
1701897650903780000,17.033780029296874,-0.7582821846008301,-4.771140098571777,8.537995338439941
1701897650920771800,17.050771728515624,-0.7501533627510071,-4.76962423324585,8.539558410644531
1701897650937764600,17.0677646484375,-0.7411644458770752,-4.766392230987549,8.542149543762207
1701897650954757600,17.084757568359375,-0.7308282852172852,-4.7655415534973145,8.543513298034668
1701897650971760400,17.101760498046875,-0.7179287672042847,-4.770204067230225,8.54200553894043
1701897650988743000,17.118742919921875,-0.7044690847396851,-4.779354572296143,8.538009643554688
1701897651005738000,17.135738037109373,-0.6923062801361084,-4.7905707359313965,8.532716751098633
1701897651022726000,17.152725830078126,-0.6812088489532471,-4.802700996398926,8.526790618896484
1701897651039721000,17.169720947265624,-0.6719257831573486,-4.815740585327148,8.520167350769043
1701897651056714000,17.1867138671875,-0.6649465560913086,-4.82719612121582,8.514232635498047
1701897651073706500,17.20370654296875,-0.6596963405609131,-4.832364082336426,8.51170825958252
1701897651090699300,17.22069921875,-0.6553337574005127,-4.830547332763672,8.513075828552246
1701897651107692300,17.2376923828125,-0.648897111415863,-4.8272480964660645,8.515439987182617
1701897651124684800,17.254684814453125,-0.6408641934394836,-4.8269877433776855,8.516195297241211
1701897651141674500,17.271674560546874,-0.6345843076705933,-4.829886436462402,8.515022277832031
1701897651158670300,17.28867041015625,-0.6341381669044495,-4.834300518035889,8.512550354003906
1701897651175662800,17.305662841796874,-0.6356291770935059,-4.839072227478027,8.509729385375977
1701897651192655600,17.322655517578124,-0.6337247490882874,-4.8443522453308105,8.506864547729492
1701897651209642200,17.339642333984376,-0.6267151236534119,-4.849916934967041,8.504213333129883
1701897651226642200,17.35664208984375,-0.6192973256111145,-4.856619834899902,8.500930786132812
1701897651243634000,17.373634033203125,-0.614662230014801,-4.865264892578125,8.496322631835938
1701897651260627000,17.390626953125,-0.6101534962654114,-4.875215530395508,8.49094295501709
1701897651277619700,17.40761962890625,-0.6012732982635498,-4.886186122894287,8.485267639160156
1701897651294612500,17.424612548828126,-0.5902039408683777,-4.894478797912598,8.481266021728516
1701897651311605200,17.441605224609376,-0.581404447555542,-4.8988356590271,8.479358673095703
1701897651328599800,17.458599853515626,-0.5753882527351379,-4.900702953338623,8.47868824005127
1701897651345583900,17.475583984375,-0.5682640075683594,-4.901529312133789,8.478692054748535
1701897651362588000,17.492587890625,-0.5593949556350708,-4.903745174407959,8.477999687194824
1701897651379558100,17.50955810546875,-0.5495195984840393,-4.9076433181762695,8.47638988494873
1701897651396568000,17.526568115234376,-0.5407113432884216,-4.912769794464111,8.473986625671387
1701897651413562000,17.54356201171875,-0.5337502360343933,-4.916593074798584,8.472209930419922
1701897651430554000,17.56055419921875,-0.5279901623725891,-4.9194488525390625,8.470913887023926
1701897651447540000,17.5775400390625,-0.5200929045677185,-4.921328544616699,8.47031021118164
1701897651464536600,17.59453662109375,-0.510858416557312,-4.922232151031494,8.47034740447998
1701897651481532400,17.611532470703125,-0.5010479092597961,-4.923093318939209,8.47043228149414
1701897651498525000,17.62852490234375,-0.49151813983917236,-4.926163673400879,8.469205856323242
1701897651515517700,17.645517578125,-0.484907865524292,-4.930199146270752,8.46723747253418
1701897651532507400,17.66250732421875,-0.48423776030540466,-4.930885314941406,8.466876983642578
1701897651549503200,17.679503173828124,-0.4889465272426605,-4.927238464355469,8.468729019165039
1701897651566496300,17.696496337890625,-0.4937763214111328,-4.921815395355225,8.471601486206055
1701897651583488800,17.71348876953125,-0.4977436661720276,-4.918134689331055,8.47350788116455
1701897651600479200,17.730479248046876,-0.5020922422409058,-4.916539192199707,8.474177360534668
1701897651617474000,17.74747412109375,-0.5085124969482422,-4.916053295135498,8.474074363708496
1701897651634467000,17.764467041015624,-0.5157724022865295,-4.916182041168213,8.473563194274902
1701897651651456800,17.781456787109374,-0.522319495677948,-4.916110992431641,8.473201751708984
1701897651668452400,17.798452392578124,-0.5268680453300476,-4.916001319885254,8.472983360290527
1701897651685435100,17.81543505859375,-0.5312739610671997,-4.916550636291504,8.472389221191406
1701897651702438100,17.832438232421875,-0.5363873243331909,-4.917949676513672,8.471256256103516
1701897651719429600,17.8494296875,-0.5403172373771667,-4.9185895919799805,8.470634460449219
1701897651736424700,17.8664248046875,-0.543343186378479,-4.917274475097656,8.471202850341797
1701897651753416400,17.88341650390625,-0.5438594818115234,-4.913768291473389,8.473206520080566
1701897651770409700,17.90040966796875,-0.5435501933097839,-4.906998157501221,8.47714900970459
1701897651787401000,17.91740087890625,-0.5429139733314514,-4.897453784942627,8.482706069946289
1701897651804394200,17.934394287109374,-0.5428870916366577,-4.886438369750977,8.489060401916504
1701897651821387300,17.95138720703125,-0.5416316986083984,-4.876471042633057,8.494869232177734
1701897651838379800,17.9683798828125,-0.5365288257598877,-4.869577407836914,8.4991455078125
1701897651855373000,17.985373046875,-0.5284117460250854,-4.865894794464111,8.501761436462402
1701897651872365800,18.00236572265625,-0.5224095582962036,-4.864742279052734,8.502792358398438
1701897651889357800,18.01935791015625,-0.5186667442321777,-4.866036415100098,8.50228214263916
1701897651906350000,18.03635009765625,-0.5134100914001465,-4.868470668792725,8.501206398010254
1701897651923344600,18.0533447265625,-0.5049854516983032,-4.869779586791992,8.500960350036621
1701897651940336400,18.07033642578125,-0.4949919581413269,-4.868889331817627,8.502059936523438
1701897651957329200,18.0873291015625,-0.4859311282634735,-4.866637706756592,8.50387191772461
1701897651974318800,18.10431884765625,-0.4792535901069641,-4.863728046417236,8.505913734436035
1701897651991314700,18.121314697265625,-0.4730561375617981,-4.860483169555664,8.50811767578125
1701897652008307500,18.138307373046874,-0.4660511612892151,-4.857913017272949,8.509970664978027
1701897652025300000,18.155300048828124,-0.458860844373703,-4.856783866882324,8.511004447937012
1701897652042290000,18.1722900390625,-0.4543251693248749,-4.856618404388428,8.511343002319336
1701897652059285800,18.18928564453125,-0.45257100462913513,-4.8576555252075195,8.510844230651855
1701897652076278300,18.2062783203125,-0.45039233565330505,-4.860805034637451,8.509162902832031
1701897652093271000,18.22327099609375,-0.4461396634578705,-4.866601943969727,8.506071090698242
1701897652110263800,18.240263916015625,-0.44233837723731995,-4.874228000640869,8.501904487609863
1701897652127256600,18.257256591796875,-0.4423208236694336,-4.8834357261657715,8.496618270874023
1701897652144249000,18.2742490234375,-0.4447912871837616,-4.893367290496826,8.490774154663086
1701897652161242000,18.2912421875,-0.44665712118148804,-4.902093410491943,8.485640525817871
1701897652178238000,18.308238037109376,-0.4476599395275116,-4.90797233581543,8.482189178466797
1701897652195227600,18.3252275390625,-0.4498777687549591,-4.909851551055908,8.480982780456543
1701897652212220400,18.342220458984375,-0.4509045481681824,-4.908634185791016,8.481634140014648
1701897652229212400,18.35921240234375,-0.4499134421348572,-4.904731273651123,8.483943939208984
1701897652246206500,18.37620654296875,-0.44799673557281494,-4.898377418518066,8.487714767456055
1701897652263198500,18.393198486328124,-0.44711437821388245,-4.890622138977051,8.492234230041504
1701897652280191000,18.41019091796875,-0.4448339641094208,-4.884787559509277,8.495711326599121
1701897652297183700,18.427183837890624,-0.4414338171482086,-4.881393909454346,8.497838020324707
1701897652314176500,18.444176513671874,-0.4394562840461731,-4.879347801208496,8.499114990234375
1701897652331169300,18.461169189453123,-0.4413057565689087,-4.87790584564209,8.499846458435059
1701897652348162300,18.478162353515625,-0.4456578493118286,-4.877692699432373,8.49974250793457
1701897652365155300,18.4951552734375,-0.4530048668384552,-4.87800931930542,8.49917221069336
1701897652382147800,18.51214794921875,-0.46277907490730286,-4.8776421546936035,8.498857498168945
1701897652399140600,18.529140625,-0.4742162227630615,-4.874517917633057,8.500018119812012
1701897652416132000,18.546132080078124,-0.4838816821575165,-4.869950771331787,8.502091407775879
1701897652433126700,18.563126708984374,-0.4909076988697052,-4.86599588394165,8.503952026367188
1701897652450118700,18.58011865234375,-0.49756765365600586,-4.865099906921387,8.504077911376953
1701897652467111400,18.597111328125,-0.5055117011070251,-4.868621349334717,8.501593589782715
1701897652484104000,18.61410400390625,-0.5136434435844421,-4.873884201049805,8.498088836669922
1701897652501096700,18.6310966796875,-0.5195766091346741,-4.878530025482178,8.495064735412598
1701897652518094300,18.64809423828125,-0.5232983231544495,-4.880701541900635,8.4935884475708
1701897652535082500,18.66508251953125,-0.525544285774231,-4.8802409172058105,8.49371337890625
1701897652552072000,18.682072021484377,-0.5285216569900513,-4.879031181335449,8.494224548339844
1701897652569057300,18.699057373046877,-0.5328480005264282,-4.878549098968506,8.494232177734375
1701897652586060300,18.716060302734373,-0.5391659140586853,-4.8786702156066895,8.49376106262207
1701897652603042600,18.73304248046875,-0.5474777221679688,-4.876483917236328,8.494485855102539
1701897652620044800,18.750044921875,-0.5572811961174011,-4.870811939239502,8.497102737426758
1701897652637038800,18.767038818359374,-0.5680745840072632,-4.8613691329956055,8.501792907714844
1701897652654030600,18.784030517578124,-0.5779464244842529,-4.849601745605469,8.50784683227539
1701897652671024000,18.801024169921874,-0.5873540043830872,-4.837478160858154,8.514101028442383
1701897652688017000,18.818016845703124,-0.596817135810852,-4.82729959487915,8.519220352172852
1701897652705010000,18.835010009765625,-0.6052774786949158,-4.820572853088379,8.522431373596191
1701897652722002000,18.852001953125,-0.6120871305465698,-4.816979885101318,8.52397632598877
1701897652738995200,18.8689951171875,-0.6175355911254883,-4.814247131347656,8.525128364562988
1701897652755978200,18.885978271484376,-0.6232138276100159,-4.811914443969727,8.526031494140625
1701897652772980700,18.902980712890624,-0.6306502819061279,-4.809047222137451,8.527100563049316
1701897652789974300,18.919974365234374,-0.638710081577301,-4.804299831390381,8.529176712036133
1701897652806965500,18.936965576171875,-0.646074652671814,-4.7960920333862305,8.533242225646973
1701897652823959600,18.95395947265625,-0.6519423723220825,-4.786418437957764,8.538224220275879
1701897652840951800,18.970951904296875,-0.6580550074577332,-4.777733325958252,8.542619705200195
1701897652857944600,18.987944580078125,-0.6642501354217529,-4.770706653594971,8.546067237854004
1701897652874937600,19.0049375,-0.6712948679924011,-4.764424800872803,8.549019813537598
1701897652891927600,19.021927490234376,-0.680927574634552,-4.758932590484619,8.55131721496582
1701897652908925400,19.038925537109375,-0.690798282623291,-4.755693435668945,8.552326202392578
1701897652925914600,19.05591455078125,-0.6974173188209534,-4.75509786605835,8.55212116241455
1701897652942909000,19.072908935546874,-0.6967267394065857,-4.757223129272461,8.550995826721191
1701897652959901000,19.08990087890625,-0.690485417842865,-4.761936187744141,8.54887866973877
1701897652976893700,19.106893798828125,-0.6852819919586182,-4.768362998962402,8.545713424682617
1701897652993886500,19.123886474609375,-0.6843569874763489,-4.774857997894287,8.542160987854004
1701897653010879200,19.140879150390624,-0.6860813498497009,-4.779788970947266,8.539262771606445
1701897653027871700,19.157871826171874,-0.6875367164611816,-4.784339427947998,8.536598205566406
1701897653044854300,19.174854248046874,-0.6840500235557556,-4.7878804206848145,8.534892082214355
1701897653061846300,19.19184619140625,-0.6798423528671265,-4.789759635925293,8.534173965454102
1701897653078851600,19.2088515625,-0.6799417734146118,-4.789334774017334,8.534405708312988
1701897653095842800,19.2258427734375,-0.6837851405143738,-4.789318084716797,8.534107208251953
1701897653112835800,19.2428359375,-0.6888880133628845,-4.789571285247803,8.533554077148438
1701897653129828000,19.259828125,-0.6948801875114441,-4.789176940917969,8.53329086303711
1701897653146821400,19.2768212890625,-0.6998544335365295,-4.78987979888916,8.532489776611328
1701897653163813600,19.293813720703124,-0.7045403718948364,-4.793345928192139,8.530156135559082
1701897653180806400,19.310806396484374,-0.7091743350028992,-4.800411224365234,8.525799751281738
1701897653197799400,19.32779931640625,-0.7175814509391785,-4.810283660888672,8.51952838897705
1701897653214774300,19.344774169921877,-0.7315744161605835,-4.819620132446289,8.513057708740234
1701897653231785000,19.361784912109375,-0.747172474861145,-4.8255615234375,8.50833797454834
1701897653248776700,19.378776611328124,-0.7592673897743225,-4.827639102935791,8.506087303161621
1701897653265770200,19.395770263671874,-0.7686364054679871,-4.82921838760376,8.504350662231445
1701897653282761000,19.412760986328124,-0.7764096856117249,-4.832710266113281,8.501659393310547
1701897653299758600,19.429758544921874,-0.7859932780265808,-4.838327884674072,8.497583389282227
1701897653316748000,19.446748046875,-0.7971041798591614,-4.84427547454834,8.493158340454102
1701897653333739300,19.4637392578125,-0.805634081363678,-4.849045753479004,8.489631652832031
1701897653350726100,19.48072607421875,-0.8090044260025024,-4.8519816398620605,8.48763370513916
1701897653367726800,19.497726806640625,-0.8081676959991455,-4.853356838226318,8.486926078796387
1701897653384720000,19.514719970703126,-0.806079626083374,-4.854450225830078,8.486498832702637
1701897653401712400,19.53171240234375,-0.8045260310173035,-4.857555866241455,8.484869003295898
1701897653418705400,19.548705322265626,-0.8003453016281128,-4.864208221435547,8.481454849243164
1701897653435697700,19.56569775390625,-0.7931619882583618,-4.873081684112549,8.477033615112305
1701897653452687400,19.582687255859376,-0.7851700186729431,-4.883322715759277,8.471881866455078
1701897653469683200,19.59968310546875,-0.7776679992675781,-4.893911361694336,8.466461181640625
1701897653486676000,19.616676025390625,-0.7709203362464905,-4.902774333953857,8.461950302124023
1701897653503669000,19.6336689453125,-0.7654812335968018,-4.910398483276367,8.45802116394043
1701897653520661500,19.65066162109375,-0.7617360949516296,-4.918544769287109,8.45362663269043
1701897653537654300,19.667654296875,-0.7597615122795105,-4.928894996643066,8.447772979736328
1701897653554653400,19.6846533203125,-0.7571319937705994,-4.941418647766113,8.440690994262695
1701897653571636500,19.701636474609376,-0.7524238228797913,-4.953427314758301,8.434070587158203
1701897653588629800,19.718629638671874,-0.7489096522331238,-4.96070671081543,8.430103302001953
1701897653605627600,19.735627685546874,-0.7478548288345337,-4.962092399597168,8.429380416870117
1701897653622607400,19.752607421875,-0.7449358701705933,-4.959195613861084,8.431344032287598
1701897653639610000,19.769610107421876,-0.7375175356864929,-4.9538702964782715,8.435126304626465
1701897653656604200,19.786604248046874,-0.7283093333244324,-4.946126461029053,8.440468788146973
1701897653673585200,19.803585205078125,-0.7210155129432678,-4.936809062957764,8.446548461914062
1701897653690590200,19.820590087890626,-0.7156928181648254,-4.926079273223877,8.453262329101562
1701897653707581200,19.837581298828123,-0.709933876991272,-4.913672924041748,8.460966110229492
1701897653724574200,19.85457421875,-0.7007333040237427,-4.899256706237793,8.470087051391602
1701897653741567700,19.871567626953127,-0.6886664032936096,-4.883722305297852,8.48004150390625
1701897653758560000,19.88856005859375,-0.6780057549476624,-4.866929054260254,8.49055004119873
1701897653775555300,19.905555419921875,-0.6702780723571777,-4.849418640136719,8.501174926757812
1701897653792543000,19.92254296875,-0.6657271385192871,-4.83229398727417,8.51127815246582
1701897653809522000,19.93952197265625,-0.6604225635528564,-4.818044185638428,8.519765853881836
1701897653826530300,19.9565302734375,-0.6533854603767395,-4.807648181915283,8.526178359985352
1701897653843524400,19.9735244140625,-0.648905336856842,-4.799781799316406,8.530951499938965
1701897653860516000,19.99051611328125,-0.6502636075019836,-4.7929205894470215,8.53470516204834
1701897653877499400,20.00749951171875,-0.6520452499389648,-4.787834167480469,8.537423133850098
1701897653894498800,20.024498779296874,-0.6494900584220886,-4.786425590515137,8.538407325744629
1701897653911494700,20.04149462890625,-0.6434615254402161,-4.788857460021973,8.537500381469727
1701897653928487200,20.058487060546874,-0.6399210691452026,-4.793588638305664,8.535112380981445
1701897653945477000,20.07547705078125,-0.6425166130065918,-4.799134731292725,8.531797409057617
1701897653962472700,20.09247265625,-0.6488047242164612,-4.803789138793945,8.528702735900879
1701897653979465500,20.109465576171875,-0.6542461514472961,-4.804840087890625,8.527695655822754
1701897653996457700,20.126457763671876,-0.6587280631065369,-4.803372383117676,8.528178215026855
1701897654013441300,20.143441162109376,-0.6642647981643677,-4.800581932067871,8.529318809509277
1701897654030443800,20.16044384765625,-0.6712960600852966,-4.7958083152771,8.531453132629395
1701897654047436800,20.177436767578126,-0.6783354878425598,-4.787179946899414,8.535741806030273
1701897654064427000,20.194427001953127,-0.6824332475662231,-4.775437355041504,8.5419921875
1701897654081414400,20.211414306640624,-0.682525634765625,-4.76228666305542,8.549324035644531
1701897654098414800,20.228414794921875,-0.6803422570228577,-4.749363422393799,8.556682586669922
1701897654115405000,20.245405029296876,-0.6776788830757141,-4.737205982208252,8.563629150390625
1701897654132392200,20.26239208984375,-0.6760743856430054,-4.726764678955078,8.569523811340332
1701897654149392100,20.27939208984375,-0.6764532923698425,-4.720646381378174,8.57286548614502
1701897654166386700,20.29638671875,-0.675672709941864,-4.7191948890686035,8.573725700378418
1701897654183378400,20.31337841796875,-0.6708703637123108,-4.720577716827393,8.573341369628906
1701897654200371500,20.330371337890625,-0.6620428562164307,-4.720336437225342,8.574162483215332
1701897654217364200,20.3473642578125,-0.6528404951095581,-4.7169671058654785,8.576720237731934
1701897654234356700,20.364356689453125,-0.6438989043235779,-4.7120041847229,8.580122947692871
1701897654251349500,20.381349609375,-0.6354771852493286,-4.705377101898193,8.584385871887207
1701897654268342500,20.398342529296876,-0.6270168423652649,-4.697677135467529,8.589224815368652
1701897654285332700,20.415332763671874,-0.6177366971969604,-4.689452648162842,8.594390869140625
1701897654302330400,20.432330322265624,-0.6077017188072205,-4.682555675506592,8.598865509033203
1701897654319320600,20.449320556640625,-0.5972439646720886,-4.678709030151367,8.601692199707031
1701897654336312600,20.4663125,-0.5873183608055115,-4.679506778717041,8.601940155029297
1701897654353307000,20.483306884765625,-0.5792152881622314,-4.683298587799072,8.600427627563477
1701897654370288400,20.500288330078124,-0.5749362707138062,-4.687892436981201,8.598211288452148
1701897654387291400,20.51729150390625,-0.5761513113975525,-4.691160202026367,8.59634780883789
1701897654404284200,20.5342841796875,-0.5773295164108276,-4.691859245300293,8.595885276794434
1701897654421277200,20.551277099609376,-0.5750216245651245,-4.689145088195801,8.597521781921387
1701897654438260700,20.5682607421875,-0.5698872208595276,-4.68156099319458,8.601994514465332
1701897654455262500,20.585262451171875,-0.5663367509841919,-4.6699748039245605,8.608526229858398
1701897654472252200,20.602252197265624,-0.5686639547348022,-4.655800819396973,8.616045951843262
1701897654489247700,20.619247802734375,-0.5770699381828308,-4.641482353210449,8.623209953308105
1701897654506240500,20.636240478515624,-0.5871353149414062,-4.628751277923584,8.62937068939209
1701897654523241700,20.65324169921875,-0.5988771319389343,-4.619986057281494,8.633260726928711
1701897654540226300,20.670226318359376,-0.6109253168106079,-4.616758823394775,8.634142875671387
1701897654557219000,20.687218994140625,-0.6262379884719849,-4.618692398071289,8.632011413574219
1701897654574211800,20.7042119140625,-0.6456186175346375,-4.6252827644348145,8.627054214477539
1701897654591204000,20.7212041015625,-0.6655657887458801,-4.633395671844482,8.621183395385742
1701897654608197400,20.738197265625,-0.6845598816871643,-4.6393938064575195,8.616466522216797
1701897654625190000,20.75518994140625,-0.705297589302063,-4.640974044799805,8.613943099975586
1701897654642182700,20.7721826171875,-0.7287887930870056,-4.639636039733887,8.612709045410156
1701897654659178500,20.789178466796876,-0.752441942691803,-4.6348676681518555,8.613242149353027
1701897654676168700,20.806168701171874,-0.7727288603782654,-4.625620365142822,8.616415977478027
1701897654693150200,20.823150146484377,-0.7880830764770508,-4.6137871742248535,8.621369361877441
1701897654710153700,20.84015380859375,-0.7993898391723633,-4.601157188415527,8.627076148986816
1701897654727145500,20.8571455078125,-0.8094277381896973,-4.588111400604248,8.633085250854492
1701897654744139800,20.874139892578125,-0.8215028643608093,-4.574434757232666,8.639200210571289
1701897654761131800,20.8911318359375,-0.8342760801315308,-4.560588836669922,8.645294189453125
1701897654778124500,20.90812451171875,-0.8455144166946411,-4.547722339630127,8.650979042053223
1701897654795117800,20.925117919921874,-0.8538689613342285,-4.53599739074707,8.656312942504883
1701897654812099800,20.942099853515625,-0.8633419871330261,-4.5244927406311035,8.661392211914062
1701897654829102800,20.959102783203125,-0.8752416968345642,-4.514094352722168,8.665624618530273
1701897654846094800,20.9760947265625,-0.8861069679260254,-4.506643295288086,8.668396949768066
1701897654863089200,20.993089111328125,-0.8935937285423279,-4.501436233520508,8.670333862304688
1701897654880071200,21.0100712890625,-0.8981703519821167,-4.496382236480713,8.672481536865234
1701897654897070600,21.027070556640624,-0.9029586315155029,-4.489938735961914,8.675323486328125
1701897654914069800,21.04406982421875,-0.9057202935218811,-4.482892990112305,8.678678512573242
1701897654931059200,21.06105908203125,-0.904694676399231,-4.477624416351318,8.681504249572754
1701897654948052200,21.07805224609375,-0.9000473022460938,-4.4748854637146,8.68340015411377
1701897654965045000,21.095044921875,-0.8943153023719788,-4.475131988525391,8.683863639831543
1701897654982034200,21.1120341796875,-0.8867180347442627,-4.480558395385742,8.681845664978027
1701897654999028700,21.12902880859375,-0.8777869939804077,-4.492785930633545,8.676431655883789
1701897655016023000,21.14602294921875,-0.8689547777175903,-4.51084566116333,8.667947769165039
1701897655033015800,21.163015869140626,-0.8615586161613464,-4.531478404998779,8.657917022705078
1701897655050004700,21.180004638671875,-0.8547319769859314,-4.553163051605225,8.647210121154785
1701897655067002000,21.197002197265626,-0.8465657830238342,-4.573761463165283,8.637139320373535
1701897655083994000,21.213994140625,-0.8378247618675232,-4.5906219482421875,8.629040718078613
1701897655100984300,21.230984375,-0.8313249945640564,-4.604276180267334,8.622392654418945
1701897655117991200,21.2479912109375,-0.8275389075279236,-4.615812301635742,8.616586685180664
1701897655134971600,21.2649716796875,-0.8252719640731812,-4.625957489013672,8.61136245727539
1701897655151965200,21.281965087890626,-0.8221004009246826,-4.634873390197754,8.606870651245117
1701897655168957000,21.29895703125,-0.8188166618347168,-4.642919063568115,8.602845191955566
1701897655185951200,21.315951171875,-0.8160158395767212,-4.6503071784973145,8.599120140075684
1701897655202943200,21.332943115234375,-0.8143973350524902,-4.658212661743164,8.594993591308594
1701897655219936000,21.34993603515625,-0.8142195343971252,-4.668051242828369,8.58967113494873
1701897655236928300,21.36692822265625,-0.815036416053772,-4.678875923156738,8.58370304107666
1701897655253922600,21.383922607421876,-0.8149802684783936,-4.689680099487305,8.577811241149902
1701897655270914000,21.4009140625,-0.8138698935508728,-4.698958873748779,8.572836875915527
1701897655287907000,21.417906982421876,-0.8136301636695862,-4.706497669219971,8.56872272491455
1701897655304900000,21.434900146484374,-0.8153170943260193,-4.71220588684082,8.565424919128418
1701897655321881900,21.4518818359375,-0.8172478079795837,-4.716583728790283,8.562830924987793
1701897655338885000,21.468885009765625,-0.8172653913497925,-4.719967365264893,8.560964584350586
1701897655355878100,21.485878173828127,-0.8173407912254333,-4.721553802490234,8.56008243560791
1701897655372867600,21.50286767578125,-0.8195943236351013,-4.720483779907227,8.560457229614258
1701897655389853000,21.51985302734375,-0.8227348327636719,-4.71693229675293,8.562113761901855
1701897655406846000,21.536845947265626,-0.8251479864120483,-4.711224555969238,8.565023422241211
1701897655423849200,21.55384912109375,-0.826126217842102,-4.704079627990723,8.568854331970215
1701897655440839200,21.570839111328127,-0.827606737613678,-4.696213722229004,8.573025703430176
1701897655457837000,21.587837158203126,-0.8305338621139526,-4.688372611999512,8.577033042907715
1701897655474827000,21.604826904296875,-0.8326604962348938,-4.6792192459106445,8.58182430267334
1701897655491814400,21.621814453125,-0.8334352374076843,-4.6682658195495605,8.587712287902832
1701897655508815600,21.638815673828127,-0.8342351317405701,-4.655613899230957,8.594498634338379
1701897655525804800,21.6558046875,-0.8346368670463562,-4.643559455871582,8.600979804992676
1701897655542798600,21.672798583984374,-0.8329499363899231,-4.634566783905029,8.605992317199707
1701897655559790300,21.689790283203124,-0.8287639021873474,-4.630188465118408,8.608753204345703
1701897655576784600,21.70678466796875,-0.8260098695755005,-4.629088878631592,8.60960865020752
1701897655593774800,21.72377490234375,-0.8251059055328369,-4.628525257110596,8.609999656677246
1701897655610768600,21.7407685546875,-0.823913037776947,-4.627740859985352,8.610533714294434
1701897655627764500,21.757764404296875,-0.8204047083854675,-4.627902984619141,8.610783576965332
