time,seconds_elapsed,z,y,x
1700936630396714200,0.11871435546875,0.009581565856933594,0.14440560340881348,-0.1474142074584961
1700936630413702100,0.1357021484375,-0.14800739288330078,0.15564560890197754,-0.07432913780212402
1700936630430704000,0.1527041015625,-0.3714151382446289,0.19745469093322754,0.04100298881530762
1700936630447686400,0.169686279296875,-0.5479202270507812,0.14736247062683105,0.3750462532043457
1700936630464690700,0.186690673828125,-0.7161035537719727,0.047454118728637695,0.5043981075286865
1700936630481680400,0.203680419921875,-0.4009246826171875,-0.014124393463134766,0.21639013290405273
1700936630498677200,0.22067724609375,0.1511974334716797,-0.05426383018493652,-0.31926167011260986
1700936630515670000,0.237669921875,0.42322444915771484,-0.003701925277709961,-0.3292316198348999
1700936630532665300,0.254665283203125,0.24425411224365234,0.09369611740112305,-0.07799863815307617
1700936630549659000,0.271658935546875,-0.11639595031738281,0.16930532455444336,0.17628860473632812
1700936630566655000,0.288655029296875,-0.5826501846313477,0.11519265174865723,0.3386116027832031
1700936630583644700,0.305644775390625,-1.208409309387207,-0.08351278305053711,0.3694126605987549
1700936630600642000,0.32264208984375,-1.5845451354980469,-0.3360860347747803,0.07339143753051758
1700936630617635300,0.33963525390625,-1.5489187240600586,-0.43561220169067383,-0.02001500129699707
1700936630634628900,0.35662890625,-1.4284296035766602,-0.41199755668640137,0.4253959655761719
1700936630651623200,0.373623046875,-1.1917853355407715,-0.6806144714355469,0.39210963249206543
1700936630668617200,0.3906171875,-0.4704256057739258,-1.3342268466949463,0.519141435623169
1700936630685613000,0.407613037109375,-1.2998738288879395,-1.5037226676940918,0.3453202247619629
1700936630702608000,0.42460791015625,-5.086485862731934,-2.204807758331299,0.23650884628295898
1700936630719599600,0.441599609375,-7.428523540496826,-2.783973455429077,-0.06418228149414062
1700936630736595200,0.45859521484375,-6.325746059417725,-3.2523720264434814,-0.9558219909667969
1700936630753585200,0.475585205078125,-3.254927635192871,-3.4127297401428223,-2.2680258750915527
1700936630770582500,0.49258251953125,-1.8201236724853516,-4.295329570770264,-3.1337437629699707
1700936630787575800,0.509575927734375,-1.3252379894256592,-5.328927040100098,-3.40411376953125
1700936630804571100,0.526571044921875,-0.9315125942230225,-5.684272289276123,-2.928372383117676
1700936630821561300,0.543561279296875,-1.866511583328247,-5.711660861968994,-2.6463193893432617
1700936630838559700,0.560559814453125,-2.293708086013794,-5.500779151916504,-3.166048526763916
1700936630855551200,0.57755126953125,-1.3228309154510498,-4.933185577392578,-3.9237170219421387
1700936630872543500,0.59454345703125,-1.8156951665878296,-4.6443400382995605,-3.869417667388916
1700936630889539800,0.611539794921875,-1.4431428909301758,-4.611985206604004,-1.8884429931640625
1700936630906546200,0.628546142578125,-0.5529690980911255,-3.6064019203186035,0.5865154266357422
1700936630923525400,0.645525390625,-0.5916403532028198,-2.810807704925537,1.5497493743896484
1700936630940522000,0.66252197265625,-1.1376426219940186,-1.95819890499115,1.1332292556762695
1700936630957516800,0.679516845703125,-1.2531131505966187,-2.1434874534606934,0.7409772872924805
1700936630974511900,0.696511962890625,-0.20719373226165771,-2.314974069595337,0.9598312377929688
1700936630991502800,0.7135029296875,1.0053526163101196,-2.5227179527282715,2.6192331314086914
1700936631008497000,0.730496826171875,1.8030247688293457,-2.1660778522491455,3.104092597961426
1700936631025478000,0.747477783203125,2.031045436859131,-2.0004613399505615,3.2056045532226562
1700936631042484000,0.76448388671875,2.200512647628784,-1.7901802062988281,3.317953109741211
1700936631059478800,0.781478759765625,2.4813289642333984,-1.5379562377929688,4.362277030944824
1700936631076477200,0.798477294921875,2.653036594390869,-0.9130659103393555,5.852352142333984
1700936631093458700,0.815458740234375,2.7541937828063965,0.427182674407959,6.640594959259033
1700936631110462500,0.83246240234375,2.2121825218200684,2.1247239112854004,7.342385768890381
1700936631127462700,0.849462646484375,0.03590109944343567,3.3127942085266113,7.694340705871582
1700936631144450800,0.866450927734375,-1.5288853645324707,4.092471122741699,8.20760726928711
1700936631161440000,0.88343994140625,-2.2860729694366455,4.755856037139893,8.728520393371582
1700936631178430200,0.90043017578125,-2.8478541374206543,5.017508029937744,9.424459457397461
1700936631195428600,0.9174287109375,-3.005887508392334,5.58902645111084,9.058347702026367
1700936631212424400,0.934424560546875,-3.567051410675049,5.860185146331787,8.262510299682617
1700936631229425400,0.95142529296875,-4.152698516845703,6.024794578552246,7.373264312744141
1700936631246409200,0.9684091796875,-4.433886528015137,5.926565170288086,6.763575553894043
1700936631263409400,0.985409423828125,-4.034866809844971,5.827593803405762,6.408662796020508
1700936631280402400,1.00240234375,-3.3498287200927734,5.611322402954102,6.378207683563232
1700936631297398300,1.019398193359375,-2.821420192718506,4.608719825744629,6.892725944519043
1700936631314382000,1.036382080078125,-2.4939687252044678,3.394878387451172,7.06253719329834
1700936631331382500,1.053382568359375,-1.8154596090316772,2.3419132232666016,7.1485795974731445
1700936631348379000,1.07037890625,-1.3010822534561157,0.5314998626708984,8.437335968017578
1700936631365374500,1.08737451171875,-0.8458347320556641,-2.37166690826416,10.68628978729248
1700936631382364400,1.104364501953125,-0.17705106735229492,-6.342521667480469,13.123903274536133
1700936631399361000,1.121361083984375,1.005881905555725,-7.324392318725586,13.005199432373047
1700936631416356900,1.13835693359375,2.249697208404541,-5.8801398277282715,12.344963073730469
1700936631433346600,1.1553466796875,2.7226998805999756,-4.649470329284668,12.627373695373535
1700936631450343700,1.17234375,2.9516167640686035,-4.448256969451904,12.691715240478516
1700936631467337200,1.189337158203125,3.0122251510620117,-5.411325931549072,11.575492858886719
1700936631484321800,1.20632177734375,2.730515956878662,-6.538308143615723,8.95245361328125
1700936631501324300,1.22332421875,2.6019418239593506,-6.952770709991455,4.8283867835998535
1700936631518319400,1.2403193359375,2.688453435897827,-5.757873058319092,0.1744556427001953
1700936631535322600,1.257322509765625,2.711744785308838,-4.221344470977783,-3.288776397705078
1700936631552303900,1.274303955078125,2.3551065921783447,-2.9177675247192383,-5.401391983032227
1700936631569302300,1.29130224609375,1.6973689794540405,-2.204554557800293,-6.545476913452148
1700936631586296800,1.308296875,1.1130847930908203,-1.9644660949707031,-7.51333475112915
1700936631603287000,1.325287109375,0.7464144229888916,-1.8317108154296875,-8.385807037353516
1700936631620284200,1.3422841796875,0.3020075559616089,-2.0686750411987305,-8.86965274810791
1700936631637276000,1.35927587890625,-0.1064113974571228,-2.276287078857422,-9.211286544799805
1700936631654274800,1.37627490234375,-0.5236049890518188,-2.5428693294525146,-9.41869831085205
1700936631671263200,1.39326318359375,-1.0611997842788696,-3.138810157775879,-9.428210258483887
1700936631688259600,1.410259521484375,-1.157211422920227,-3.6171205043792725,-9.803315162658691
1700936631705255400,1.42725537109375,-1.1750767230987549,-3.6274375915527344,-10.436338424682617
1700936631722242600,1.44424267578125,-1.76700758934021,-3.931990146636963,-10.787826538085938
1700936631739244300,1.461244384765625,-2.228675603866577,-4.613936424255371,-10.394442558288574
1700936631756237600,1.478237548828125,-2.8550350666046143,-6.020681381225586,-9.136625289916992
1700936631773227300,1.495227294921875,-3.213839292526245,-7.0687665939331055,-8.254218101501465
1700936631790224600,1.512224609375,-2.1404242515563965,-7.600378036499023,-8.209482192993164
1700936631807218000,1.529218017578125,-0.23692567646503448,-7.732641220092773,-7.722282886505127
1700936631824209400,1.54620947265625,1.0448561906814575,-8.40117073059082,-6.320158004760742
1700936631841207000,1.56320703125,-0.5943405032157898,-11.446541786193848,-3.994102954864502
1700936631858201000,1.580201171875,-1.0942058563232422,-13.972219467163086,-0.7198514938354492
1700936631875179300,1.59717919921875,0.34376028180122375,-15.33785629272461,3.260788917541504
1700936631892181500,1.614181396484375,2.3998143672943115,-15.019254684448242,8.253732681274414
1700936631909183500,1.63118359375,2.971911907196045,-13.42127799987793,12.406024932861328
1700936631926179300,1.648179443359375,2.443767547607422,-11.546085357666016,13.662076950073242
1700936631943168800,1.665168701171875,0.7119238376617432,-8.733634948730469,12.508076667785645
1700936631960164600,1.68216455078125,-1.0587987899780273,-6.364944934844971,11.368169784545898
1700936631977158100,1.699158203125,-2.545865774154663,-3.8321633338928223,10.00996208190918
1700936631994150400,1.716150390625,-3.526890993118286,-1.2340292930603027,8.752386093139648
1700936632011146000,1.73314599609375,-4.259761333465576,1.237454891204834,9.364845275878906
1700936632028138500,1.750138427734375,-5.027641773223877,3.958085060119629,9.137516021728516
1700936632045134000,1.767134033203125,-5.812191486358643,6.058231353759766,7.3289103507995605
1700936632062126800,1.784126953125,-6.468322277069092,7.251389026641846,5.227023124694824
1700936632079120000,1.801119873046875,-6.481629848480225,7.888803005218506,3.095118522644043
1700936632096120000,1.8181201171875,-5.471312522888184,7.963269233703613,1.5427675247192383
1700936632113110300,1.8351103515625,-3.938852071762085,7.65004825592041,1.2902188301086426
1700936632130107400,1.852107421875,-2.348081588745117,7.43677282333374,1.248487949371338
1700936632147108900,1.86910888671875,-1.4215211868286133,7.177895545959473,1.0146174430847168
1700936632164091000,1.8860908203125,-1.1123090982437134,6.989831924438477,0.7863650321960449
1700936632181087500,1.90308740234375,-1.1978139877319336,6.595948696136475,0.6670637130737305
1700936632198080800,1.920080810546875,-1.3528475761413574,6.32164192199707,0.6965274810791016
1700936632215076600,1.93707666015625,-1.6120233535766602,4.911550045013428,2.0866761207580566
1700936632232066000,1.954066162109375,-1.8097641468048096,3.5421314239501953,4.238333702087402
1700936632249062700,1.971062744140625,-2.0513641834259033,3.0809574127197266,6.1077470779418945
1700936632266049800,1.9880498046875,-2.3762905597686768,1.5714540481567383,8.828588485717773
1700936632283045400,2.00504541015625,-1.9833769798278809,-2.0283823013305664,12.768392562866211
1700936632300045800,2.0220458984375,1.307985782623291,-4.544410705566406,16.185914993286133
1700936632317039000,2.0390390625,4.84247350692749,-3.696765899658203,17.60277557373047
1700936632334031400,2.05603125,7.170813083648682,-2.4854793548583984,18.864349365234375
1700936632351027700,2.07302783203125,8.81915283203125,-3.0633621215820312,19.26189422607422
1700936632368021000,2.09002099609375,8.46310043334961,-5.924188613891602,17.412132263183594
1700936632385016800,2.107016845703125,6.324624538421631,-7.760641574859619,12.74879264831543
1700936632402006800,2.1240068359375,4.0059099197387695,-8.348963737487793,8.032051086425781
1700936632419003100,2.141003173828125,1.80356764793396,-7.6639485359191895,4.225001811981201
1700936632435996700,2.15799658203125,0.16947171092033386,-6.476316452026367,1.4145607948303223
1700936632452991200,2.1749912109375,-0.8348968625068665,-5.308182239532471,-0.8855400085449219
1700936632469986000,2.191986083984375,-1.0686681270599365,-4.305459499359131,-3.005129337310791
1700936632486979300,2.208979248046875,-0.9314908981323242,-3.5140774250030518,-4.73459005355835
1700936632503971600,2.2259716796875,-0.740241289138794,-3.200181722640991,-5.881816864013672
1700936632520976100,2.24297607421875,-0.8074778914451599,-3.1794540882110596,-6.646600723266602
1700936632537955800,2.259955810546875,-0.8348931670188904,-3.274898052215576,-7.231430530548096
1700936632554957000,2.27695703125,-1.014503002166748,-3.4229421615600586,-7.792506217956543
1700936632571947000,2.293947021484375,-1.3197846412658691,-3.637922763824463,-8.394169807434082
1700936632588943400,2.310943359375,-1.462406873703003,-3.8402304649353027,-8.957433700561523
1700936632605939200,2.327939208984375,-1.7221893072128296,-4.27095890045166,-9.39588737487793
1700936632622929200,2.34492919921875,-1.9353783130645752,-4.506766319274902,-9.986834526062012
1700936632639945200,2.3619453125,-2.036468982696533,-4.707193374633789,-10.539350509643555
1700936632656910600,2.37891064453125,-1.6355372667312622,-4.792109489440918,-10.694868087768555
1700936632673911000,2.3959111328125,-0.8970365524291992,-5.2652435302734375,-9.902472496032715
1700936632690908700,2.41290869140625,-0.42746490240097046,-6.241340160369873,-8.74846076965332
1700936632707901700,2.429901611328125,-0.006896346807479858,-6.595266342163086,-8.403157234191895
1700936632724896500,2.446896484375,0.5782328844070435,-6.28963565826416,-8.398463249206543
1700936632741888000,2.463887939453125,0.8294606804847717,-6.660685062408447,-7.148187637329102
1700936632758879000,2.48087890625,1.1250518560409546,-7.432677268981934,-3.9553442001342773
1700936632775879000,2.49787890625,1.3445367813110352,-8.849443435668945,-0.7683839797973633
1700936632792867600,2.51486767578125,1.7750532627105713,-9.7372465133667,0.660191535949707
1700936632809868500,2.53186865234375,2.5074050426483154,-10.03376293182373,1.4448614120483398
1700936632826862000,2.548862060546875,3.598360061645508,-9.620460510253906,3.078594207763672
1700936632843851300,2.565851318359375,4.613092422485352,-9.570417404174805,7.078276634216309
1700936632860849000,2.582848876953125,5.263882637023926,-8.830853462219238,10.488792419433594
1700936632877842000,2.599842041015625,5.190973281860352,-6.90670108795166,11.638986587524414
1700936632894838000,2.616838134765625,3.2189605236053467,-4.533696174621582,10.47913646697998
1700936632911829500,2.63382958984375,0.4152103364467621,-2.1855812072753906,8.66611385345459
1700936632928824300,2.65082421875,-2.2574172019958496,0.14096450805664062,6.61688756942749
1700936632945820200,2.667820068359375,-4.289981365203857,1.749990463256836,5.0519890785217285
1700936632962809900,2.684809814453125,-5.052330493927002,2.944626808166504,5.1046953201293945
1700936632979796700,2.701796630859375,-4.599042892456055,4.434700012207031,5.700929164886475
1700936632996802000,2.718802001953125,-4.45779275894165,5.35362434387207,4.606811046600342
1700936633013792000,2.7357919921875,-4.676258563995361,5.661314010620117,2.682011604309082
1700936633030787300,2.752787353515625,-4.822996139526367,5.625208854675293,0.8929600715637207
1700936633047780900,2.76978076171875,-4.560754299163818,5.541172027587891,-0.36932849884033203
1700936633064779800,2.78677978515625,-3.9273715019226074,5.248282432556152,-0.3298659324645996
1700936633081768200,2.803768310546875,-3.191710948944092,5.165624618530273,0.2696218490600586
1700936633098767400,2.820767333984375,-2.6437859535217285,4.6371564865112305,1.631089210510254
1700936633115760000,2.837760009765625,-3.016038417816162,3.8240694999694824,2.3393025398254395
1700936633132744400,2.854744384765625,-3.417478561401367,2.416065216064453,2.5955843925476074
1700936633149746700,2.87174658203125,-3.418576717376709,-0.05253314971923828,4.080097198486328
1700936633166742300,2.8887421875,-2.9096217155456543,-3.302931785583496,6.868382930755615
1700936633183720700,2.905720703125,-0.6369600296020508,-4.946023941040039,9.186613082885742
1700936633200729600,2.9227294921875,2.6582565307617188,-5.3650360107421875,11.876147270202637
1700936633217721900,2.939721923828125,4.625953674316406,-4.847988128662109,14.179790496826172
1700936633234719700,2.9567197265625,5.354222774505615,-3.36867618560791,15.565702438354492
1700936633251708700,2.973708740234375,4.280138969421387,-1.8160200119018555,15.604948043823242
1700936633268705000,2.990705078125,2.3875057697296143,-1.5791568756103516,14.1761474609375
1700936633285700600,3.00770068359375,0.9935250282287598,-1.7824206352233887,10.371999740600586
1700936633302690800,3.02469091796875,0.06611821800470352,-2.0504751205444336,5.638582706451416
1700936633319687200,3.041687255859375,-0.670196533203125,-2.055924415588379,1.485501766204834
1700936633336683000,3.05868310546875,-0.2958627939224243,-1.3560371398925781,-1.9035396575927734
1700936633353672700,3.075672607421875,-0.06565555930137634,-0.5141434669494629,-4.169932842254639
1700936633370670000,3.092670166015625,0.1976332664489746,0.21617889404296875,-5.614490985870361
1700936633387663400,3.109663330078125,0.25643181800842285,1.0554990768432617,-6.681558132171631
1700936633404657700,3.12665771484375,0.2600593566894531,1.5619206428527832,-7.160174369812012
1700936633421666000,3.143666015625,-0.055557191371917725,1.7961819171905518,-7.153936386108398
1700936633438643500,3.1606435546875,-0.5027479529380798,1.865189790725708,-7.1412458419799805
1700936633455643400,3.177643310546875,-0.8431662321090698,1.7424685955047607,-7.256966590881348
1700936633472634000,3.194634033203125,-1.1764696836471558,1.342595100402832,-7.381012439727783
1700936633489629000,3.21162890625,-1.4126694202423096,0.9028759002685547,-7.525478839874268
1700936633506622200,3.228622314453125,-1.5582975149154663,0.636084794998169,-7.858987808227539
1700936633523616800,3.24561669921875,-1.5378763675689697,0.3674759864807129,-8.11673355102539
1700936633540600800,3.262600830078125,-1.112797498703003,0.09209299087524414,-8.134895324707031
1700936633557603600,3.279603515625,-0.3121504783630371,-0.3752610683441162,-7.55859899520874
1700936633574598700,3.2965986328125,0.3287418484687805,-1.4085514545440674,-6.752601623535156
1700936633591593000,3.313593017578125,0.9639675617218018,-2.017411708831787,-6.665536880493164
1700936633608575000,3.330574951171875,1.8358899354934692,-2.848437786102295,-6.297728538513184
1700936633625578200,3.347578125,2.744957685470581,-3.911127805709839,-5.348515510559082
1700936633642577400,3.364577392578125,3.2380459308624268,-5.207033157348633,-3.643918514251709
1700936633659575800,3.381575927734375,2.4093306064605713,-7.158665657043457,-1.5596613883972168
1700936633676562700,3.398562744140625,1.3984752893447876,-9.219889640808105,0.7039051055908203
1700936633693556700,3.415556640625,1.854133129119873,-9.474617004394531,3.601151466369629
1700936633710540500,3.43254052734375,1.74951171875,-8.374778747558594,8.212377548217773
1700936633727545000,3.449545166015625,0.640466034412384,-6.77482271194458,12.366630554199219
1700936633744539100,3.4665390625,-1.2454009056091309,-4.303905487060547,13.686655044555664
1700936633761533200,3.483533203125,-3.2323052883148193,-2.272045612335205,12.562508583068848
1700936633778524700,3.500524658203125,-4.5053019523620605,-0.7791571617126465,8.972126007080078
1700936633795523600,3.517523681640625,-4.323378562927246,0.24818849563598633,4.44566535949707
1700936633812515000,3.53451513671875,-2.558929920196533,1.3595175743103027,0.9033703804016113
1700936633829509400,3.55150927734375,-0.46935567259788513,2.319365978240967,-0.9407157897949219
1700936633846501600,3.568501708984375,0.9304973483085632,3.0586764812469482,-1.0739388465881348
1700936633863499000,3.5854990234375,1.2422547340393066,3.8544301986694336,-0.9696474075317383
1700936633880491500,3.602491455078125,0.4334912896156311,4.359729766845703,-1.2565522193908691
1700936633897482800,3.619482666015625,-0.9289090633392334,4.655017852783203,-1.724198341369629
1700936633914482000,3.63648193359375,-2.3712806701660156,4.980930805206299,-2.33096981048584
1700936633931473400,3.653473388671875,-3.7418766021728516,5.2814435958862305,-2.717935085296631
1700936633948467700,3.6704677734375,-4.619553089141846,5.320112228393555,-2.825037956237793
1700936633965461200,3.687461181640625,-4.517606735229492,5.087078094482422,-2.32796573638916
1700936633982455600,3.70445556640625,-3.608937978744507,5.01030158996582,-1.415266513824463
1700936633999449600,3.72144970703125,-2.8941550254821777,4.725947380065918,-0.47844839096069336
1700936634016444000,3.73844384765625,-2.7532057762145996,3.959787607192993,0.0799098014831543
1700936634033437700,3.755437744140625,-2.24827241897583,3.027848243713379,0.716789722442627
1700936634050431200,3.77243115234375,-1.5559396743774414,1.90901517868042,1.8978562355041504
1700936634067426000,3.789426025390625,-0.8450562953948975,-0.7495951652526855,5.132866382598877
1700936634084401000,3.80640087890625,-1.0024240016937256,-4.861358642578125,8.868237495422363
1700936634101414000,3.823413818359375,-0.6106796860694885,-7.351618766784668,9.85076904296875
1700936634118408000,3.840407958984375,1.4406708478927612,-6.556197166442871,10.740328788757324
1700936634135401700,3.857401611328125,3.7580277919769287,-4.143211841583252,13.06418514251709
1700936634152396000,3.87439599609375,4.807826995849609,-2.5523457527160645,15.13351821899414
1700936634169390000,3.89139013671875,4.9728498458862305,-2.400905132293701,15.837240219116211
1700936634186384100,3.908384033203125,4.072741508483887,-2.6186556816101074,13.315841674804688
1700936634203375400,3.925375244140625,2.6659998893737793,-2.3840136528015137,8.124192237854004
1700936634220374500,3.94237451171875,1.9529129266738892,-1.7141079902648926,3.1882081031799316
1700936634237366300,3.9593662109375,1.4837291240692139,-1.0191245079040527,-0.2964153289794922
1700936634254360000,3.976360107421875,1.1124471426010132,-0.3448152542114258,-2.7321677207946777
1700936634271354000,3.99335400390625,0.9526191353797913,0.05149698257446289,-4.321457386016846
1700936634288344800,4.0103447265625,0.7575562000274658,0.5469448566436768,-5.736991882324219
1700936634305342500,4.027342529296875,0.5159880518913269,0.8628146648406982,-6.678924560546875
1700936634322336300,4.044336181640625,0.2933601140975952,1.0318689346313477,-7.051797866821289
1700936634339330300,4.061330322265625,0.12010109424591064,1.0532810688018799,-7.078908920288086
1700936634356324600,4.07832470703125,-0.16784429550170898,1.0968117713928223,-7.274085998535156
1700936634373318400,4.095318359375,-0.6007477045059204,0.8756372928619385,-7.238955020904541
1700936634390312200,4.112312255859375,-0.8852308988571167,0.4622988700866699,-6.929347515106201
1700936634407306500,4.129306396484375,-1.0753096342086792,0.021134376525878906,-6.839547157287598
1700936634424300500,4.146300537109375,-1.0371415615081787,-0.48017358779907227,-7.114041805267334
1700936634441286700,4.16328662109375,-1.1343071460723877,-1.2166423797607422,-7.306931495666504
1700936634458288400,4.180288330078125,-1.1682697534561157,-1.8285448551177979,-7.6448588371276855
1700936634475282400,4.197282470703125,-0.9704790115356445,-2.7856638431549072,-7.145727634429932
1700936634492276500,4.2142763671875,-0.8532702326774597,-3.820695638656616,-6.906696319580078
1700936634509270500,4.2312705078125,0.14087440073490143,-4.1312127113342285,-6.67282247543335
1700936634526264800,4.248264892578125,1.4617195129394531,-4.421067237854004,-5.3273091316223145
1700936634543257300,4.26525732421875,2.2510478496551514,-4.352348327636719,-4.01181173324585
1700936634560254000,4.28225390625,1.252506971359253,-5.814215660095215,-1.3437271118164062
1700936634577247000,4.2992470703125,0.8284764885902405,-7.5168256759643555,1.5439472198486328
1700936634594230500,4.31623046875,1.5058990716934204,-8.111395835876465,3.047003746032715
1700936634611235000,4.333235107421875,2.3661584854125977,-7.55922794342041,4.198460578918457
1700936634628229000,4.35022900390625,2.176349639892578,-6.728528022766113,5.601428031921387
1700936634645223200,4.36722314453125,1.2281076908111572,-5.827702045440674,7.372784614562988
1700936634662217000,4.384217041015625,-0.13144826889038086,-4.193624019622803,7.917280197143555
1700936634679211300,4.401211181640625,-1.4684536457061768,-2.243335723876953,7.335193634033203
1700936634696205000,4.418205078125,-2.5587668418884277,-0.4071650505065918,6.145715236663818
1700936634713199000,4.43519921875,-2.8785457611083984,1.254673957824707,4.3701395988464355
1700936634730193200,4.452193115234375,-2.5641136169433594,2.742302894592285,3.1260910034179688
1700936634747187500,4.4691875,-2.209125280380249,3.7771494388580322,2.594326972961426
1700936634764179500,4.486179443359375,-1.676225185394287,4.566290855407715,2.427586555480957
1700936634781177300,4.50317724609375,-1.4041776657104492,5.146610736846924,2.4063210487365723
1700936634798169300,4.52016943359375,-1.6621348857879639,5.603233337402344,2.5372157096862793
1700936634815163600,4.53716357421875,-2.4554502964019775,5.844391822814941,2.532665252685547
1700936634832157200,4.5541572265625,-3.3174734115600586,6.009212493896484,2.4037885665893555
1700936634849151200,4.571151123046875,-4.096686840057373,6.1304707527160645,2.0227904319763184
1700936634866145300,4.588145263671875,-4.307083606719971,5.9936628341674805,2.0395078659057617
1700936634883139800,4.605139892578125,-3.716325521469116,5.730622291564941,2.3896255493164062
1700936634900133600,4.622133544921875,-2.914890766143799,5.1031107902526855,3.046236515045166
1700936634917127700,4.639127685546875,-2.03743314743042,4.5371246337890625,3.7308120727539062
1700936634934121500,4.65612158203125,-1.3607372045516968,3.854557991027832,4.0766921043396
1700936634951105000,4.67310498046875,-1.0360392332077026,2.9334139823913574,4.2146315574646
1700936634968109800,4.69010986328125,-0.1526259183883667,2.1505651473999023,4.309268474578857
1700936634985104000,4.707103759765625,0.9458028674125671,0.6572599411010742,5.406814098358154
1700936635002097700,4.72409765625,1.413250207901001,-2.7707953453063965,8.513741493225098
1700936635019091700,4.741091796875,1.7494579553604126,-5.94990348815918,10.225973129272461
1700936635036086000,4.7580859375,3.2392494678497314,-6.0485310554504395,9.081968307495117
1700936635053077200,4.7750771484375,4.592846870422363,-4.9374213218688965,8.670329093933105
1700936635070076700,4.79207666015625,4.783418655395508,-5.241434574127197,10.18266773223877
1700936635087068200,4.809068115234375,3.930724620819092,-5.504724025726318,10.785477638244629
1700936635104062000,4.82606201171875,2.9743683338165283,-5.316492080688477,9.649760246276855
1700936635121056000,4.843055908203125,2.1171107292175293,-4.821056842803955,6.7365546226501465
1700936635138050000,4.860050048828125,1.3544232845306396,-3.81687068939209,2.70712947845459
1700936635155043800,4.8770439453125,0.7373777627944946,-2.616828441619873,-0.8247284889221191
1700936635172038400,4.894038330078125,0.4591042399406433,-1.3850984573364258,-3.544121265411377
1700936635189031400,4.911031494140625,0.11819836497306824,-0.581873893737793,-5.169912338256836
1700936635206027000,4.928027099609375,-0.09455782175064087,0.13611841201782227,-6.431092739105225
1700936635223020000,4.94502001953125,-0.31531691551208496,0.5661735534667969,-7.3424763679504395
1700936635240027400,4.96202734375,-0.41208040714263916,0.8903706073760986,-8.174529075622559
1700936635256997600,4.97899755859375,-0.6522156000137329,1.0102064609527588,-8.450373649597168
1700936635274002400,4.99600244140625,-1.1569206714630127,0.8776895999908447,-8.562281608581543
1700936635290996700,5.012996826171875,-1.7460594177246094,0.7007873058319092,-8.625199317932129
1700936635307990500,5.029990478515625,-2.339992046356201,0.35858917236328125,-8.660719871520996
1700936635324984800,5.04698486328125,-2.6960110664367676,0.1668102741241455,-8.7518892288208
1700936635341978000,5.06397802734375,-2.9369022846221924,-0.18736910820007324,-8.646109580993652
1700936635358973700,5.0809736328125,-2.9026403427124023,-0.41413354873657227,-8.72524642944336
1700936635375966500,5.097966552734375,-2.591444969177246,-0.7106547355651855,-8.43500804901123
1700936635392956400,5.114956298828125,-2.2161827087402344,-1.594491720199585,-7.528751373291016
1700936635409959000,5.131958984375,-1.8054354190826416,-3.00726318359375,-6.314134120941162
1700936635426940200,5.148940185546875,-0.8110350370407104,-3.990570545196533,-5.799135208129883
1700936635443943000,5.16594287109375,0.7229292988777161,-4.68359375,-4.9757304191589355
1700936635460936700,5.182936767578125,1.9390907287597656,-5.202845573425293,-3.7811779975891113
1700936635477931000,5.199930908203125,1.8832218647003174,-5.945620536804199,-1.3505339622497559
1700936635494925000,5.216925048828125,1.0226969718933105,-7.875936985015869,2.2721548080444336
1700936635511918800,5.2339189453125,0.8385581970214844,-10.010245323181152,5.019587516784668
1700936635528906000,5.250906005859375,1.9434870481491089,-10.462409019470215,5.926909446716309
1700936635545907000,5.267906982421875,3.404695749282837,-9.214902877807617,6.9483642578125
1700936635562901000,5.28490087890625,3.8015432357788086,-7.318286895751953,8.852818489074707
1700936635579894800,5.301894775390625,2.7138612270355225,-5.15245246887207,10.795236587524414
1700936635596886800,5.31888671875,0.5687965750694275,-2.752981185913086,11.487258911132812
1700936635613883000,5.3358828125,-1.9269037246704102,-0.641169548034668,9.802749633789062
1700936635630877000,5.352876953125,-3.7733073234558105,1.296982765197754,6.672779083251953
1700936635647861000,5.369861083984375,-4.607253074645996,3.0532474517822266,3.968507766723633
1700936635664865300,5.386865234375,-4.032980918884277,4.076363563537598,2.952192783355713
1700936635681859000,5.403859130859375,-2.297487735748291,4.809042453765869,3.6840109825134277
1700936635698853400,5.420853271484375,-0.8179692029953003,5.581851959228516,4.146041393280029
1700936635715847200,5.43784716796875,-0.46794116497039795,6.107313632965088,3.8154497146606445
1700936635732841200,5.45484130859375,-0.9661639928817749,6.275600433349609,3.279301166534424
1700936635749835300,5.471835205078125,-1.7254691123962402,6.585363388061523,2.458454132080078
1700936635766829300,5.488829345703125,-1.9849169254302979,6.613162040710449,2.1258254051208496
1700936635783823400,5.5058232421875,-1.8066084384918213,6.3320207595825195,2.358203887939453
1700936635800817400,5.5228173828125,-1.3259851932525635,6.0912275314331055,2.914425849914551
1700936635817811500,5.5398115234375,-1.1275664567947388,5.761561393737793,3.2593026161193848
1700936635834808300,5.556808349609375,-0.8840821385383606,5.4096832275390625,3.351433753967285
1700936635851797000,5.573796875,-0.4022723436355591,5.344569206237793,3.1231374740600586
1700936635868793300,5.59079345703125,0.07513105869293213,5.304828643798828,3.394740581512451
1700936635885787600,5.60778759765625,0.274489164352417,5.026844024658203,3.8261218070983887
1700936635902779100,5.624779052734375,0.5340945720672607,4.8129353523254395,3.984426975250244
1700936635919778300,5.6417783203125,0.7902837991714478,3.956134796142578,4.17494010925293
1700936635936770000,5.65877001953125,0.9496874809265137,2.100306987762451,4.863751411437988
1700936635953763800,5.675763916015625,1.0298174619674683,-1.3148880004882812,6.18370246887207
1700936635970759700,5.692759765625,1.0840216875076294,-5.857584476470947,7.932526588439941
1700936635987750100,5.709750244140625,2.136143207550049,-7.744693279266357,7.774738311767578
1700936636004745700,5.726745849609375,3.7966320514678955,-4.948044776916504,6.529860496520996
1700936636021739800,5.74373974609375,3.678541898727417,-2.7378759384155273,7.025701999664307
1700936636038733800,5.76073388671875,3.131028652191162,-1.1280713081359863,7.708810329437256
1700936636055728000,5.77772802734375,2.186309576034546,-1.8803067207336426,8.218502044677734
1700936636072722000,5.794721923828125,1.2665958404541016,-3.454197406768799,6.291640281677246
1700936636089716000,5.811716064453125,1.3673064708709717,-3.9264373779296875,2.328613758087158
1700936636106710300,5.828710205078125,1.2201266288757324,-3.631143093109131,-1.3644213676452637
1700936636123704300,5.845704345703125,1.4090825319290161,-2.316159248352051,-3.851254940032959
1700936636140698000,5.862697998046875,1.1128602027893066,-1.097844123840332,-4.953765869140625
1700936636157692400,5.8796923828125,0.36581918597221375,-0.14415740966796875,-5.789724826812744
1700936636174686200,5.896686279296875,-0.6084622144699097,0.18462061882019043,-6.8831329345703125
1700936636191680300,5.91368017578125,-1.1352521181106567,0.6485195159912109,-7.751061916351318
1700936636208674600,5.930674560546875,-1.2578370571136475,0.8565001487731934,-7.726471900939941
1700936636225668000,5.947668212890625,-1.418710708618164,0.892866849899292,-7.33307409286499
1700936636242662400,5.964662353515625,-1.7259957790374756,0.9604294300079346,-6.974241256713867
1700936636259656400,5.981656494140625,-1.948839783668518,0.9830138683319092,-6.6737775802612305
1700936636276650200,5.998650146484375,-1.9403667449951172,0.825202465057373,-5.969796180725098
1700936636293644500,6.01564453125,-1.5488390922546387,0.2827317714691162,-4.683253765106201
1700936636310638300,6.032638427734375,-1.6676732301712036,-2.3490540981292725,-1.8579368591308594
1700936636327626500,6.04962646484375,-2.9229736328125,-5.153428077697754,0.2505979537963867
1700936636344626700,6.066626708984375,-3.192302942276001,-6.271838188171387,1.0038719177246094
1700936636361618200,6.0836181640625,-3.490377902984619,-8.885712623596191,2.3360280990600586
1700936636378617000,6.1006171875,-1.607330083847046,-11.74690055847168,2.81516170501709
1700936636395608600,6.117608642578125,3.754399299621582,-12.97793960571289,2.282748222351074
1700936636412602600,6.1346025390625,9.071680068969727,-10.934671401977539,1.3725452423095703
1700936636429597000,6.151596923828125,9.913734436035156,-8.476879119873047,2.6205244064331055
1700936636446590700,6.1685908203125,6.162675857543945,-7.153310775756836,4.611764907836914
1700936636463584800,6.185584716796875,2.664220094680786,-4.725163459777832,4.245413780212402
1700936636480578800,6.202578857421875,-0.05196233093738556,-2.351731300354004,2.4735212326049805
1700936636497572900,6.21957275390625,-1.1634658575057983,-0.7430562973022461,0.7459096908569336
1700936636514564600,6.236564697265625,-0.30540117621421814,0.16928577423095703,-0.23133182525634766
1700936636531563500,6.2535634765625,2.068631410598755,0.5398683547973633,-0.016660690307617188
1700936636548555000,6.270554931640625,4.005621433258057,1.4176983833312988,1.5648536682128906
1700936636565549000,6.287549072265625,3.6957201957702637,2.5248210430145264,2.91373348236084
1700936636582542800,6.30454296875,1.4702028036117554,3.640608310699463,3.0832672119140625
1700936636599537200,6.321537109375,-1.199558138847351,4.79450798034668,2.448141098022461
1700936636616531500,6.338531494140625,-3.1836767196655273,5.544312477111816,1.8775968551635742
1700936636633523200,6.355523193359375,-3.9483325481414795,5.822530746459961,1.524637222290039
1700936636650521300,6.372521240234375,-3.7928080558776855,5.837517738342285,2.0299806594848633
1700936636667513300,6.389513427734375,-3.523528814315796,6.001192092895508,2.322892189025879
1700936636684507100,6.406507080078125,-4.143407344818115,5.944666385650635,2.382044792175293
1700936636701501200,6.423501220703125,-4.980809211730957,5.449931621551514,2.515042781829834
1700936636718483000,6.44048291015625,-5.580043792724609,4.370274066925049,3.0187506675720215
1700936636735478800,6.457478759765625,-6.132018566131592,2.17811918258667,4.416017055511475
1700936636752483000,6.474483154296875,-6.601858615875244,0.05939483642578125,5.573030471801758
1700936636769480200,6.491480224609375,-6.411198616027832,-1.2071571350097656,5.464284420013428
1700936636786471700,6.5084716796875,-5.212430953979492,-2.119408130645752,6.0946431159973145
1700936636803457300,6.525457275390625,-3.7052664756774902,-2.9145236015319824,7.996056079864502
1700936636820459500,6.54245947265625,-2.2971713542938232,-3.5207910537719727,9.529447555541992
1700936636837451000,6.559450927734375,-1.1921390295028687,-4.5175371170043945,10.067281723022461
1700936636854450200,6.5764501953125,0.15829282999038696,-5.614222049713135,9.456785202026367
1700936636871441400,6.59344140625,1.1936419010162354,-6.6577959060668945,8.003934860229492
1700936636888435700,6.610435791015625,1.632285475730896,-7.764091491699219,6.508500576019287
1700936636905429500,6.627429443359375,1.7023563385009766,-8.272507667541504,4.831755638122559
1700936636922423800,6.644423828125,1.4322572946548462,-7.822567462921143,3.2205820083618164
1700936636939417600,6.66141748046875,1.0262467861175537,-7.3568434715271,2.0331506729125977
1700936636956414500,6.67841455078125,0.8069660663604736,-6.8523759841918945,0.6490230560302734
1700936636973406000,6.695406005859375,0.9437757730484009,-6.489258289337158,-1.0547943115234375
1700936636990398500,6.7123984375,1.251962661743164,-6.225129127502441,-2.98716402053833
1700936637007394000,6.72939404296875,1.6281089782714844,-5.943110942840576,-4.8804426193237305
1700936637024388000,6.74638818359375,2.2390358448028564,-5.4230780601501465,-6.676519870758057
1700936637041375200,6.763375244140625,2.644705057144165,-4.764496803283691,-8.023841857910156
1700936637058376200,6.780376220703125,2.688852310180664,-4.089163303375244,-8.982751846313477
1700936637075370000,6.797369873046875,2.5195345878601074,-3.6420838832855225,-9.422942161560059
1700936637092364300,6.8143642578125,1.9890377521514893,-3.4106976985931396,-9.783342361450195
1700936637109358000,6.831358154296875,1.6354212760925293,-3.1023621559143066,-10.059623718261719
1700936637126348000,6.84834814453125,1.2397737503051758,-2.901608943939209,-10.172013282775879
1700936637143348000,6.865347900390625,0.9394791722297668,-2.7109627723693848,-10.201386451721191
1700936637160342800,6.8823427734375,0.5659846067428589,-2.6489651203155518,-9.993720054626465
1700936637177333500,6.89933349609375,0.2715910077095032,-2.8786251544952393,-9.52795696258545
1700936637194329300,6.916329345703125,0.0007015466690063477,-3.4958622455596924,-8.874249458312988
1700936637211322400,6.933322265625,-0.13769489526748657,-4.206757068634033,-8.312810897827148
1700936637228316400,6.95031640625,0.3019830882549286,-4.705572128295898,-7.64285945892334
1700936637245310200,6.967310302734375,0.6611913442611694,-5.485708236694336,-6.6687188148498535
1700936637262304500,6.984304443359375,1.0188199281692505,-7.311576843261719,-4.183919429779053
1700936637279298600,7.001298583984375,1.0985016822814941,-9.842421531677246,-1.2015628814697266
1700936637296292600,7.018292724609375,1.7042236328125,-11.936666488647461,0.8651790618896484
1700936637313293300,7.035293212890625,2.873338460922241,-12.76951789855957,2.173640251159668
1700936637330270000,7.05227001953125,4.234997272491455,-12.239836692810059,3.579989433288574
1700936637347274800,7.069274658203125,6.317953109741211,-10.433045387268066,6.344943046569824
1700936637364275700,7.086275634765625,7.784687042236328,-8.380472183227539,9.847249031066895
1700936637381262600,7.1032626953125,7.89829158782959,-6.617885112762451,12.585904121398926
1700936637398257000,7.1202568359375,6.309551239013672,-4.484753608703613,11.774160385131836
1700936637415250400,7.13725048828125,2.895998001098633,-2.8454837799072266,7.941603660583496
1700936637432245000,7.154244873046875,-0.47932642698287964,-1.3338370323181152,4.026517868041992
1700936637449239000,7.171239013671875,-2.121450662612915,0.4691891670227051,1.5134716033935547
1700936637466227000,7.18822705078125,-2.3877837657928467,1.7317357063293457,0.5958261489868164
1700936637483225000,7.20522509765625,-1.7586365938186646,2.5311594009399414,0.8449611663818359
1700936637500223000,7.222222900390625,-0.7183716297149658,3.239745616912842,1.4829139709472656
1700936637517215000,7.239215087890625,0.02874043583869934,3.9272568225860596,1.3505463600158691
1700936637534206500,7.25620654296875,0.14112317562103271,4.190728187561035,0.7636151313781738
1700936637551203000,7.273203125,-0.027194783091545105,4.089227199554443,0.2988862991333008
1700936637568199400,7.290199462890625,0.02351360023021698,4.024283409118652,-0.22092628479003906
1700936637585191000,7.30719091796875,0.4798508286476135,3.8512165546417236,-0.24892377853393555
1700936637602182400,7.324182373046875,0.9940721988677979,3.471160411834717,0.2131195068359375
1700936637619181600,7.341181640625,1.6223713159561157,3.1039414405822754,1.2761902809143066
1700936637636173300,7.35817333984375,2.1597325801849365,3.256147861480713,1.6110310554504395
1700936637653167000,7.3751669921875,2.2107510566711426,3.0978479385375977,1.4632964134216309
1700936637670161200,7.3921611328125,2.3822598457336426,2.8219504356384277,1.1321606636047363
1700936637687155200,7.4091552734375,2.716458559036255,2.3244009017944336,0.9482879638671875
1700936637704149200,7.426149169921875,3.192498207092285,1.9553728103637695,1.1254019737243652
1700936637721143300,7.443143310546875,3.3983676433563232,1.7076058387756348,2.068222999572754
1700936637738137600,7.4601376953125,2.751518726348877,1.87919282913208,3.0450077056884766
1700936637755131400,7.47713134765625,0.8061569333076477,1.8397326469421387,3.336822509765625
1700936637772125400,7.49412548828125,-0.9253066182136536,2.292011260986328,2.716808319091797
1700936637789119200,7.511119140625,-1.7927930355072021,2.31717586517334,2.497800350189209
1700936637806113300,7.52811328125,-1.7341800928115845,2.1783251762390137,2.8510642051696777
1700936637823097300,7.545097412109375,-1.1490888595581055,1.8499960899353027,3.5945677757263184
1700936637840092000,7.562091796875,-1.3318804502487183,0.9947576522827148,4.389888763427734
1700936637857095400,7.579095458984375,-2.1575632095336914,0.7565627098083496,4.094076633453369
1700936637874089500,7.59608935546875,-3.3476722240448,0.2914729118347168,3.9968442916870117
1700936637891083500,7.61308349609375,-4.495059013366699,-0.5426459312438965,4.584089279174805
1700936637908075300,7.6300751953125,-4.706701755523682,-0.5596013069152832,4.920139312744141
1700936637925071600,7.647071533203125,-4.291512966156006,0.40017080307006836,5.255122661590576
1700936637942068500,7.664068359375,-4.044904708862305,1.3389267921447754,5.494838714599609
1700936637959059700,7.681059814453125,-4.102954387664795,1.4227943420410156,5.813243865966797
1700936637976051700,7.6980517578125,-4.088550090789795,0.08681821823120117,5.979663848876953
1700936637993047800,7.7150478515625,-3.4999494552612305,-1.973764419555664,5.557960033416748
1700936638010041900,7.732041748046875,-2.8939974308013916,-3.7715811729431152,4.934840679168701
1700936638027036000,7.749035888671875,-1.848787546157837,-4.249762535095215,4.093333721160889
1700936638044030200,7.7660302734375,-0.9323822855949402,-4.070556640625,3.5628299713134766
1700936638061021400,7.783021484375,-0.3216174840927124,-3.7494778633117676,2.9774465560913086
1700936638078020600,7.8000205078125,0.6179395318031311,-3.8186612129211426,2.4156980514526367
1700936638095012000,7.81701220703125,1.6902600526809692,-4.116507053375244,1.5192384719848633
1700936638112006000,7.834005859375,2.6818623542785645,-4.485345363616943,0.3156776428222656
1700936638128995600,7.85099560546875,3.206740617752075,-4.748660564422607,-1.2248764038085938
1700936638145983000,7.86798291015625,3.5127034187316895,-4.572890281677246,-3.0610947608947754
1700936638162988500,7.884988525390625,3.250016689300537,-4.568606853485107,-4.622291564941406
1700936638179981800,7.90198193359375,2.8233795166015625,-4.510225296020508,-5.9409074783325195
1700936638196976000,7.91897607421875,2.554164171218872,-4.276124954223633,-6.708039283752441
1700936638213970400,7.935970458984375,2.507087469100952,-3.969691276550293,-7.116515159606934
1700936638230964000,7.9529638671875,2.659296989440918,-3.607487678527832,-7.418051719665527
1700936638247958500,7.96995849609375,2.815957546234131,-3.2772717475891113,-7.612449645996094
1700936638264952300,7.986952392578125,2.760793685913086,-3.1758298873901367,-7.560701847076416
1700936638281946600,8.003946533203125,2.2239112854003906,-3.266369342803955,-7.53312349319458
1700936638298940200,8.020940185546875,1.7026132345199585,-3.238198757171631,-7.708555221557617
1700936638315933400,8.037933349609375,1.087904691696167,-3.1901957988739014,-8.077900886535645
1700936638332930300,8.054930419921876,0.8236404061317444,-3.136068344116211,-8.631548881530762
1700936638349921500,8.071921630859375,0.7097439169883728,-3.026628017425537,-9.262263298034668
1700936638366916400,8.088916259765625,0.7307933568954468,-3.0995397567749023,-9.66273307800293
1700936638383910400,8.105910400390625,0.848499059677124,-3.193000078201294,-9.775262832641602
1700936638400904400,8.122904541015625,0.9582538604736328,-3.3604488372802734,-9.898836135864258
1700936638417898500,8.1398984375,1.4429495334625244,-3.3612284660339355,-9.713953018188477
1700936638434892500,8.156892578125,1.742699146270752,-3.3384435176849365,-9.031076431274414
1700936638451886800,8.173886962890625,2.0283353328704834,-3.1349854469299316,-7.64278507232666
1700936638468876000,8.1908759765625,1.513786792755127,-3.7003822326660156,-5.523527145385742
1700936638485879300,8.20787939453125,0.013064295053482056,-4.330075263977051,-3.8872289657592773
1700936638502869000,8.224868896484375,-1.0416324138641357,-4.804924011230469,-3.261181354522705
1700936638519862800,8.24186279296875,-1.36836576461792,-6.472543716430664,-1.4075021743774414
1700936638536856800,8.25885693359375,-2.371971368789673,-10.150890350341797,2.0569944381713867
1700936638553843700,8.27584375,-1.9851007461547852,-13.580020904541016,4.724872589111328
1700936638570841900,8.292841796875,0.45600056648254395,-15.81354808807373,7.452911376953125
1700936638587842000,8.309842041015624,4.3730974197387695,-13.963628768920898,11.416123390197754
1700936638604839400,8.32683935546875,6.032565116882324,-11.005623817443848,17.85463523864746
1700936638621827000,8.3438271484375,4.1168317794799805,-6.747739315032959,21.426780700683594
1700936638638821000,8.360821044921876,-0.770265519618988,-2.92880916595459,18.999187469482422
1700936638655815000,8.37781494140625,-5.963594913482666,-0.44516897201538086,12.562899589538574
1700936638672809200,8.394809326171876,-7.758218765258789,1.5860142707824707,6.598097324371338
1700936638689800400,8.411800537109375,-6.944253921508789,3.0402402877807617,3.151017189025879
1700936638706795300,8.428795166015625,-4.1826701164245605,4.004467487335205,1.7475028038024902
1700936638723795500,8.44579541015625,-1.302611231803894,4.910012245178223,1.073512077331543
1700936638740785200,8.46278515625,0.4173985719680786,5.483893394470215,0.8075580596923828
1700936638757776400,8.4797763671875,0.8658069372177124,6.104846000671387,0.47337865829467773
1700936638774775800,8.49677587890625,0.05127561092376709,6.567988872528076,0.21907472610473633
1700936638791767300,8.513767333984376,-1.4465830326080322,6.9679975509643555,-0.04904365539550781
1700936638808761300,8.53076123046875,-2.909637689590454,7.371902942657471,-0.18578195571899414
1700936638825755100,8.547755126953126,-4.101199626922607,7.730603218078613,-0.5136070251464844
1700936638842749200,8.564749267578126,-4.789706707000732,7.607014179229736,-0.3279232978820801
1700936638859743500,8.581743408203126,-5.133242130279541,7.491935729980469,-0.43598222732543945
1700936638876737300,8.5987373046875,-4.950811386108398,6.917916297912598,-0.5819613933563232
1700936638893731300,8.6157314453125,-4.412017345428467,6.4250335693359375,-0.9111685752868652
1700936638910725600,8.6327255859375,-3.6896119117736816,5.760279655456543,-0.9913132190704346
1700936638927719700,8.6497197265625,-3.071747064590454,4.556642055511475,-0.6681747436523438
1700936638944726000,8.66672607421875,-2.2276451587677,2.7010674476623535,-0.24604082107543945
1700936638961707500,8.68370751953125,-0.7922283411026001,-0.42931079864501953,1.5899381637573242
1700936638978701600,8.70070166015625,0.7695459127426147,-4.304559707641602,5.187838554382324
1700936638995695600,8.717695556640624,1.5573301315307617,-9.459372520446777,9.826913833618164
1700936639012688400,8.7346884765625,3.1659560203552246,-13.182876586914062,12.474174499511719
1700936639029685200,8.751685302734375,6.228880405426025,-10.937158584594727,12.248191833496094
1700936639046677800,8.768677734375,9.531951904296875,-8.210633277893066,13.833477020263672
1700936639063671600,8.785671630859374,11.687556266784668,-6.365756034851074,16.36111831665039
1700936639080665900,8.802665771484374,9.886346817016602,-7.449745178222656,17.170310974121094
1700936639097657000,8.819656982421876,4.451955795288086,-8.686921119689941,12.849602699279785
1700936639114656300,8.83665625,-0.15229186415672302,-8.062695503234863,5.988432884216309
1700936639131638800,8.853638671875,-1.8737744092941284,-6.039351940155029,0.46980953216552734
1700936639148641800,8.870641845703124,-1.612775444984436,-4.282914638519287,-2.586843967437744
1700936639165636000,8.887635986328124,-0.6442608833312988,-3.249619483947754,-4.151453495025635
1700936639182630000,8.9046298828125,0.3230799436569214,-2.5825953483581543,-5.181509017944336
1700936639199621400,8.921621337890626,0.08049166202545166,-2.177377700805664,-6.097077369689941
1700936639216620300,8.938620361328125,-1.0516471862792969,-1.989654302597046,-6.956474304199219
1700936639233612000,8.955612060546875,-2.4125277996063232,-1.645129919052124,-7.946120738983154
1700936639250606000,8.972606201171875,-3.405317783355713,-1.4261372089385986,-8.775530815124512
1700936639267600000,8.989599853515625,-3.858386278152466,-1.2368288040161133,-9.537208557128906
1700936639284584000,9.006583984375,-3.8461852073669434,-1.2884740829467773,-9.917593955993652
1700936639301588200,9.023588134765625,-3.7083957195281982,-1.4666101932525635,-10.17902660369873
1700936639318582000,9.04058203125,-3.456831693649292,-1.7646913528442383,-10.204883575439453
1700936639335577600,9.05757763671875,-3.250276803970337,-1.8326823711395264,-10.466940879821777
1700936639352568600,9.074568603515624,-2.833571434020996,-2.13685941696167,-10.675776481628418
1700936639369564400,9.091564453125,-2.345343589782715,-2.6347455978393555,-10.678987503051758
1700936639386555400,9.108555419921874,-1.4583154916763306,-3.2093169689178467,-10.366743087768555
1700936639403554800,9.125554931640625,-0.4084621071815491,-3.9937539100646973,-9.340845108032227
1700936639420545300,9.142545166015625,0.3756065368652344,-4.95703125,-7.952008247375488
1700936639437541400,9.159541259765625,0.884068489074707,-5.796106815338135,-6.634819030761719
1700936639454534400,9.176534423828125,0.8982175588607788,-6.881130695343018,-5.693621635437012
1700936639471528400,9.193528564453125,1.10080087184906,-8.236783027648926,-4.209288120269775
1700936639488521700,9.210521728515625,1.5397650003433228,-9.65056037902832,-2.346435546875
1700936639505516800,9.227516845703125,1.7812530994415283,-11.323575019836426,-0.4880332946777344
1700936639522510300,9.24451025390625,2.1718719005584717,-12.968391418457031,1.0776262283325195
1700936639539501600,9.26150146484375,3.429511070251465,-13.898139953613281,2.758416175842285
1700936639556501000,9.2785009765625,4.347182750701904,-13.73021125793457,4.708854675292969
1700936639573492700,9.29549267578125,4.623331069946289,-12.409994125366211,7.521171569824219
1700936639590484000,9.31248388671875,3.7541394233703613,-9.769277572631836,9.61233139038086
1700936639607481300,9.3294814453125,1.8740825653076172,-6.36665153503418,10.207135200500488
1700936639624477200,9.346477294921876,-0.3459155559539795,-2.6713738441467285,9.877016067504883
1700936639641458400,9.36345849609375,-2.2339911460876465,0.49637317657470703,9.39487075805664
1700936639658462500,9.38046240234375,-3.425954818725586,3.1760077476501465,8.437875747680664
1700936639675456800,9.397456787109375,-3.9336342811584473,4.987645149230957,6.592783451080322
1700936639692450800,9.414450927734375,-4.080997943878174,5.799567222595215,4.569332122802734
1700936639709444600,9.431444580078125,-3.781066417694092,6.026346206665039,2.6281356811523438
1700936639726439000,9.44843896484375,-3.122668504714966,6.031651020050049,0.9602212905883789
1700936639743446300,9.4654462890625,-1.9908034801483154,5.915009021759033,-0.17322540283203125
1700936639760426800,9.4824267578125,-0.8803883790969849,6.043944358825684,-0.8754634857177734
1700936639777421000,9.499421142578125,-0.3238072991371155,6.048931121826172,-1.2755818367004395
1700936639794414600,9.51641455078125,-0.22726264595985413,5.947933197021484,-1.4059720039367676
1700936639811409000,9.533408935546875,-0.3158982992172241,5.8578901290893555,-1.3848867416381836
1700936639828403000,9.55040283203125,-0.6209637522697449,5.747951030731201,-0.9388513565063477
1700936639845397000,9.56739697265625,-0.8619635105133057,5.376650333404541,0.5372328758239746
1700936639862391000,9.58439111328125,-0.731141984462738,4.980548858642578,2.5313358306884766
1700936639879384800,9.601384765625,-0.6046535968780518,3.615105628967285,5.3911027908325195
1700936639896379100,9.618379150390625,-0.002883799374103546,3.3942952156066895,6.963853359222412
1700936639913368300,9.635368408203124,1.17699134349823,2.6894989013671875,9.154611587524414
1700936639930369500,9.65236962890625,1.4798206090927124,-0.6423873901367188,13.01795768737793
1700936639947362800,9.66936279296875,1.8783702850341797,-4.656913757324219,15.397775650024414
1700936639964355000,9.68635498046875,3.888880968093872,-7.079952239990234,15.369562149047852
1700936639981346800,9.703346923828125,5.7766218185424805,-5.808870792388916,13.050971031188965
1700936639998345500,9.720345458984376,6.080953121185303,-4.685612201690674,12.102664947509766
1700936640015337200,9.737337158203125,5.317054748535156,-4.296772003173828,11.83246898651123
1700936640032331500,9.75433154296875,3.6211366653442383,-4.821070671081543,10.89980697631836
1700936640049316000,9.771316162109375,1.5325709581375122,-5.615447044372559,8.474215507507324
1700936640066319000,9.788319091796875,0.5455076098442078,-5.668334484100342,4.506264686584473
1700936640083313700,9.805313720703126,0.7740622758865356,-4.934020519256592,0.8996810913085938
1700936640100307000,9.822306884765625,1.0915266275405884,-3.9560813903808594,-1.9054088592529297
1700936640117301500,9.839301513671876,1.234739065170288,-2.878676176071167,-4.0926384925842285
1700936640134295600,9.856295654296876,1.2313328981399536,-2.170908212661743,-5.567110061645508
1700936640151289300,9.873289306640626,1.3285231590270996,-1.8979990482330322,-5.839364051818848
1700936640168283100,9.890283203125,1.830435872077942,-1.8728840351104736,-4.967148780822754
1700936640185277400,9.90727734375,1.700706958770752,-1.9815473556518555,-4.609620571136475
1700936640202271500,9.924271484375,0.5473599433898926,-2.3026461601257324,-5.271108150482178
1700936640219265300,9.941265380859376,-0.5656591653823853,-2.6356005668640137,-6.267777442932129
1700936640236254500,9.95825439453125,-1.6022955179214478,-2.613933563232422,-7.540047645568848
1700936640253253600,9.975253662109376,-2.1223182678222656,-2.7061984539031982,-8.223306655883789
1700936640270247700,9.99224755859375,-2.231487512588501,-3.2517879009246826,-8.249399185180664
1700936640287241700,10.00924169921875,-1.80739164352417,-3.834735155105591,-8.083230972290039
1700936640304233200,10.026233154296875,-1.0002357959747314,-4.182245254516602,-8.047945976257324
1700936640321232000,10.04323193359375,-0.27354341745376587,-4.383601665496826,-8.033740043640137
1700936640338225000,10.060224853515624,0.4604641795158386,-4.786145210266113,-7.629369258880615
1700936640355217700,10.0772177734375,1.1408411264419556,-5.402987957000732,-7.078834056854248
1700936640372211700,10.094211669921876,1.301164150238037,-6.271690845489502,-6.685371398925781
1700936640389206000,10.1112060546875,1.5856684446334839,-6.717500686645508,-6.537290573120117
1700936640406195000,10.12819482421875,2.227799892425537,-7.449620246887207,-5.579868793487549
1700936640423193900,10.14519384765625,3.5330450534820557,-8.19527816772461,-3.584965229034424
1700936640440177700,10.162177734375,3.813357353210449,-9.280084609985352,-0.9949789047241211
1700936640457179100,10.17917919921875,3.2081942558288574,-10.769285202026367,1.223668098449707
1700936640474178600,10.196178466796875,2.868353843688965,-11.062932014465332,3.133289337158203
1700936640491170000,10.213170166015624,2.431516647338867,-10.56480884552002,5.123787879943848
1700936640508163800,10.230163818359374,1.6913056373596191,-9.748473167419434,7.625514030456543
1700936640525158000,10.247157958984374,0.5211285352706909,-8.765303611755371,10.169363975524902
1700936640542152000,10.26415185546875,-0.699334979057312,-6.818286418914795,10.905488967895508
1700936640559146000,10.28114599609375,-2.372743606567383,-4.279469966888428,9.740285873413086
1700936640576140000,10.29814013671875,-4.120830059051514,-1.519941806793213,7.21311092376709
1700936640593134000,10.315134033203124,-4.712125301361084,0.9672327041625977,4.50130558013916
1700936640610128000,10.3321279296875,-3.9492745399475098,2.469637393951416,2.8964972496032715
1700936640627122200,10.3491220703125,-2.3997645378112793,3.4158718585968018,2.3002796173095703
1700936640644116000,10.366115966796874,-0.44556817412376404,4.177664756774902,3.420546531677246
1700936640661110300,10.3831103515625,1.054427981376648,5.548728942871094,3.8190293312072754
1700936640678093600,10.400093505859376,1.507099986076355,7.039856910705566,2.875720977783203
1700936640695098400,10.417098388671874,0.500933825969696,7.210665225982666,2.03652286529541
1700936640712092400,10.434092529296874,-1.0215333700180054,7.206830978393555,0.9058570861816406
1700936640729087700,10.451087646484375,-1.9833157062530518,7.203474998474121,0.501431941986084
1700936640746082000,10.46808203125,-2.550485372543335,7.213390350341797,0.371917724609375
1700936640763072500,10.485072509765626,-3.0123376846313477,6.793368339538574,0.2036724090576172
1700936640780068400,10.502068359375,-2.6641571521759033,5.9742631912231445,0.6401348114013672
1700936640797062400,10.5190625,-1.7591418027877808,5.400864601135254,0.9574828147888184
1700936640814056200,10.53605615234375,-1.098317265510559,5.056629180908203,1.7251462936401367
1700936640831050200,10.55305029296875,-0.8753309845924377,4.752435684204102,3.261044502258301
1700936640848044300,10.570044189453125,-0.9485278129577637,4.123425483703613,5.325383186340332
1700936640865038300,10.587038330078125,-0.6852462291717529,4.041322708129883,6.024221897125244
1700936640882022100,10.604022216796874,-0.06470215320587158,2.9907174110412598,7.068134307861328
1700936640899024100,10.621024169921874,1.0614567995071411,-1.1904001235961914,10.234321594238281
1700936640916023000,10.63802294921875,2.650886058807373,-8.114158630371094,14.753578186035156
1700936640933014800,10.655014892578125,4.32302713394165,-13.081170082092285,16.369922637939453
1700936640950010400,10.67201025390625,6.053619861602783,-7.811403274536133,12.673669815063477
1700936640967000800,10.689000732421874,5.902215003967285,-4.358180999755859,14.053072929382324
1700936640983996400,10.705996337890625,5.967431545257568,-2.027527332305908,14.892592430114746
1700936641000991000,10.722990966796875,4.802119255065918,-3.178830623626709,14.383336067199707
1700936641017985000,10.739985107421875,2.723494529724121,-5.352762222290039,10.119852066040039
1700936641034978000,10.75697802734375,0.6239356398582458,-6.474371910095215,4.199211597442627
1700936641051972600,10.77397265625,-0.11162397265434265,-5.934709548950195,-0.9736495018005371
1700936641068966700,10.790966552734375,0.6359884738922119,-4.238568305969238,-4.372110843658447
1700936641085960200,10.807960205078125,0.6680268049240112,-3.1671690940856934,-5.917204856872559
1700936641102955500,10.82495556640625,1.001039743423462,-2.420083999633789,-6.781181335449219
1700936641119958800,10.841958740234375,0.7254464626312256,-1.831404209136963,-7.339080333709717
1700936641136942800,10.85894287109375,-0.1717223823070526,-1.6582286357879639,-7.703329563140869
1700936641153936600,10.8759365234375,-0.43207839131355286,-1.5877461433410645,-7.959338188171387
1700936641170931000,10.892930908203125,-0.34267163276672363,-1.7431395053863525,-8.266728401184082
1700936641187925000,10.909925048828125,-0.4610675871372223,-2.224574565887451,-8.666251182556152
1700936641204919000,10.9269189453125,-0.7427650094032288,-2.6805224418640137,-9.112964630126953
1700936641221908700,10.94390869140625,-1.280519962310791,-2.8442978858947754,-9.766403198242188
1700936641238907100,10.9609072265625,-1.40992271900177,-2.9685730934143066,-10.110920906066895
1700936641255901200,10.977901123046875,-1.444999098777771,-3.925910472869873,-9.826188087463379
1700936641272908000,10.994907958984374,-0.7456765174865723,-4.783744812011719,-10.0469970703125
1700936641289889000,11.011888916015625,0.02669239044189453,-5.546213150024414,-10.337977409362793
1700936641306883000,11.028883056640625,0.43238288164138794,-6.574449062347412,-9.926237106323242
1700936641323876900,11.045876953125,-0.2618634104728699,-7.894036293029785,-8.8172607421875
1700936641340871000,11.062870849609375,-0.5172427296638489,-9.653775215148926,-7.392775058746338
1700936641357865000,11.079864990234375,1.421532392501831,-11.831949234008789,-4.896554470062256
1700936641374859000,11.09685888671875,4.4711151123046875,-12.02783203125,-1.9145464897155762
1700936641391853300,11.113853271484375,5.42344856262207,-12.132551193237305,2.4237260818481445
1700936641408847000,11.13084716796875,4.4918365478515625,-12.19105339050293,7.094976425170898
1700936641425841200,11.147841064453125,2.9916880130767822,-10.86772346496582,9.704968452453613
1700936641442826500,11.164826416015625,0.9211695194244385,-8.853400230407715,10.12311840057373
1700936641459829200,11.181829345703125,-1.2216084003448486,-6.042852878570557,8.211213111877441
1700936641476823000,11.198822998046875,-2.886807441711426,-3.460793972015381,5.858883857727051
1700936641493817000,11.215817138671875,-2.804192543029785,-1.6098756790161133,4.971438884735107
1700936641510802000,11.232802001953125,-1.3992855548858643,0.09279060363769531,4.901653289794922
1700936641527802600,11.249802734375,0.4918782114982605,1.6557340621948242,4.571061611175537
1700936641544802000,11.266802001953126,1.8964462280273438,2.916050434112549,5.092597961425781
1700936641561793500,11.28379345703125,2.530643939971924,4.757133483886719,5.756078720092773
1700936641578787300,11.300787353515625,1.3384277820587158,6.002230644226074,5.261965274810791
1700936641595781000,11.317781005859375,-0.86761474609375,6.533451080322266,3.7960424423217773
1700936641612775200,11.334775146484375,-2.578545570373535,6.59578800201416,2.233896255493164
1700936641629769200,11.351769287109375,-3.057377338409424,6.257816791534424,1.428384780883789
1700936641646760700,11.3687607421875,-2.5037269592285156,5.925106048583984,1.2109756469726562
1700936641663760100,11.385760009765624,-1.4768364429473877,5.662786483764648,1.980870246887207
1700936641680743700,11.40274365234375,-0.8152809739112854,5.851147651672363,2.858041286468506
1700936641697745700,11.41974560546875,-1.1723271608352661,5.760300636291504,3.3943448066711426
1700936641714739200,11.4367392578125,-1.7946223020553589,5.254403114318848,3.5432839393615723
1700936641731733500,11.4537333984375,-1.6183749437332153,4.302910327911377,3.8749256134033203
1700936641748727300,11.470727294921875,-0.3841014504432678,3.528207302093506,4.56689453125
1700936641765721300,11.487721435546876,1.220137596130371,1.3269538879394531,7.558979034423828
1700936641782715600,11.504715576171876,1.9405522346496582,-3.7389726638793945,12.205537796020508
1700936641799709700,11.521709716796876,3.2415661811828613,-7.676727294921875,14.44491958618164
1700936641816703700,11.538703857421876,4.421308994293213,-6.889123916625977,13.192144393920898
1700936641833697500,11.555697509765626,4.453900337219238,-3.6260690689086914,12.412179946899414
1700936641850691800,11.57269189453125,4.434018611907959,-2.2962770462036133,13.94033432006836
1700936641867685600,11.589685546875,4.155689716339111,-3.5041074752807617,14.561986923217773
1700936641884679700,11.6066796875,3.6858720779418945,-4.751237392425537,11.975767135620117
1700936641901663500,11.62366357421875,2.4423322677612305,-5.539247989654541,7.700961112976074
1700936641918667800,11.640667724609376,1.6127161979675293,-4.935124397277832,2.8532400131225586
1700936641935664400,11.657664306640624,1.2701467275619507,-3.5650949478149414,-0.7407784461975098
1700936641952652800,11.67465283203125,0.762791097164154,-2.3563427925109863,-3.0157012939453125
1700936641969650000,11.69164990234375,0.24520286917686462,-1.4362950325012207,-4.4743475914001465
1700936641986644000,11.70864404296875,-0.16743454337120056,-0.8483519554138184,-5.518698215484619
1700936642003627300,11.725627197265625,-0.6693928837776184,-0.5931038856506348,-6.31248664855957
1700936642020632000,11.742632080078126,-1.006380558013916,-0.6510641574859619,-6.686435699462891
1700936642037624800,11.759624755859376,-1.3342335224151611,-1.0579533576965332,-6.841259002685547
1700936642054621000,11.776620849609374,-1.5292718410491943,-1.243171215057373,-7.4812235832214355
1700936642071614000,11.793614013671874,-1.035775065422058,-1.088087797164917,-8.304498672485352
1700936642088608000,11.81060791015625,-0.429200679063797,-1.2218222618103027,-9.007157325744629
1700936642105604400,11.827604248046875,0.09677377343177795,-1.6163043975830078,-9.315038681030273
1700936642122593500,11.844593505859375,0.12128522992134094,-2.105703353881836,-9.419114112854004
1700936642139580000,11.861579833984376,-0.05852489918470383,-2.9292054176330566,-9.220059394836426
1700936642156584000,11.878583984375,-0.190292626619339,-3.4808194637298584,-9.192062377929688
1700936642173576700,11.89557666015625,-0.6785005927085876,-4.110546588897705,-9.256110191345215
1700936642190573300,11.9125732421875,-0.9580838680267334,-4.604479789733887,-9.422895431518555
1700936642207566000,11.929566162109374,-0.11855100095272064,-5.1710524559021,-8.668492317199707
1700936642224560000,11.94656005859375,0.9819950461387634,-5.994097709655762,-6.8693037033081055
1700936642241543700,11.963543701171876,1.0876675844192505,-7.298006057739258,-5.3041253089904785
1700936642258548000,11.9805478515625,0.7039880752563477,-9.700329780578613,-3.9763431549072266
1700936642275542000,11.9975419921875,0.7628554105758667,-12.71098518371582,-2.2997384071350098
1700936642292522800,12.014522705078125,2.0769989490509033,-14.221233367919922,1.179708480834961
1700936642309533000,12.031532958984375,2.7101588249206543,-13.900248527526855,5.742794990539551
1700936642326524200,12.048524169921874,1.3174948692321777,-12.699848175048828,10.205862045288086
1700936642343518200,12.065518310546874,-1.1508874893188477,-10.793981552124023,12.631629943847656
1700936642360512300,12.08251220703125,-3.2552003860473633,-7.878231525421143,12.49244499206543
1700936642377506300,12.09950634765625,-4.726343631744385,-4.3011603355407715,10.585897445678711
1700936642394500400,12.116500244140624,-5.427615642547607,-0.8039407730102539,7.685338020324707
1700936642411494100,12.133494140625,-5.1205267906188965,1.6605329513549805,5.405581474304199
1700936642428488200,12.15048828125,-3.3432977199554443,2.8856749534606934,4.830214500427246
1700936642445482500,12.167482421875,-1.3465330600738525,3.726238250732422,5.441341400146484
1700936642462476300,12.184476318359375,-0.1892511546611786,5.2873077392578125,5.345673561096191
1700936642479470300,12.20147021484375,-0.4167676270008087,6.502376556396484,4.8970112800598145
1700936642496464400,12.21846435546875,-1.507162094116211,7.050024032592773,4.055273056030273
1700936642513455900,12.235455810546876,-2.907909631729126,7.039268970489502,3.186980962753296
1700936642530455000,12.252455078125,-3.912898063659668,6.591708183288574,2.4146695137023926
1700936642547438800,12.26943896484375,-3.78444242477417,6.188494682312012,1.9918358325958252
1700936642564440600,12.286440673828125,-2.9757375717163086,5.737908363342285,1.8610196113586426
1700936642581434600,12.3034345703125,-1.967470645904541,5.414760112762451,1.9455435276031494
1700936642598424300,12.32042431640625,-1.2984271049499512,4.91871452331543,2.2072789669036865
1700936642615426600,12.337426513671875,-0.3791714310646057,4.746565818786621,2.3912150859832764
1700936642632416500,12.35441650390625,0.42624449729919434,4.685793876647949,2.8749585151672363
1700936642649410300,12.371410400390625,1.06355619430542,4.7441205978393555,3.811565399169922
1700936642666404400,12.388404296875,1.3668016195297241,4.079220771789551,5.014148235321045
1700936642683388200,12.40538818359375,2.127995252609253,2.9964733123779297,5.664923191070557
1700936642700392700,12.422392822265625,2.5183303356170654,1.8567447662353516,6.784317493438721
1700936642717383000,12.4393828125,2.119405746459961,-2.383502960205078,10.385152816772461
1700936642734378200,12.456378173828124,1.6756236553192139,-8.940103530883789,13.720233917236328
1700936642751377200,12.473377197265625,2.25064754486084,-12.04053783416748,13.810796737670898
1700936642768368600,12.49036865234375,2.9209859371185303,-8.13215446472168,11.229927062988281
1700936642785362400,12.507362548828125,2.512148141860962,-5.369076728820801,10.783424377441406
1700936642802356500,12.5243564453125,3.3179779052734375,-4.395981311798096,11.060115814208984
1700936642819342600,12.541342529296875,3.105628728866577,-6.854676246643066,10.50845718383789
1700936642836344800,12.5583447265625,1.6611515283584595,-8.68864631652832,6.227512836456299
1700936642853338600,12.575338623046875,0.652118980884552,-8.355873107910156,0.6462850570678711
1700936642870332700,12.592332763671875,0.6134158372879028,-5.748393535614014,-4.5003252029418945
1700936642887326700,12.60932666015625,0.9537792205810547,-3.133453369140625,-6.7744855880737305
1700936642904321000,12.626321044921875,0.9760562777519226,-1.4034361839294434,-7.378711700439453
1700936642921315000,12.643315185546875,0.8878446817398071,-0.3876931667327881,-7.490203857421875
1700936642938298000,12.660298095703125,0.26562729477882385,0.07633852958679199,-7.549983501434326
1700936642955303000,12.677302978515625,-0.1307746022939682,0.2408301830291748,-7.447083473205566
1700936642972296700,12.694296630859375,-0.4367949068546295,0.25023984909057617,-7.376391410827637
1700936642989290800,12.711290771484375,-1.0192549228668213,0.26993680000305176,-7.5895280838012695
1700936643006285000,12.72828515625,-1.6028718948364258,0.46979236602783203,-8.066938400268555
1700936643023278800,12.74527880859375,-2.2162084579467773,0.4829692840576172,-8.56501579284668
1700936643040273000,12.76227294921875,-2.5051305294036865,0.5421898365020752,-8.980002403259277
1700936643057266700,12.7792666015625,-2.6665968894958496,0.44848132133483887,-9.208897590637207
1700936643074253000,12.796253173828125,-2.739745616912842,0.21827936172485352,-9.37964916229248
1700936643091245800,12.813245849609375,-2.3598461151123047,-0.08696174621582031,-9.48782730102539
1700936643108239600,12.830239501953125,-1.4631640911102295,-0.3873922824859619,-9.695626258850098
1700936643125243100,12.8472431640625,-0.40754055976867676,-0.8527195453643799,-9.378933906555176
1700936643142234400,12.864234375,0.44335484504699707,-1.5279905796051025,-8.410852432250977
1700936643159233800,12.88123388671875,0.9326114654541016,-1.854440450668335,-7.312032699584961
1700936643176207600,12.89820751953125,0.7461201548576355,-2.8267953395843506,-6.199094772338867
1700936643193219000,12.915218994140625,0.8821068406105042,-3.920013666152954,-4.547816276550293
1700936643210213000,12.932213134765625,1.4299461841583252,-5.607978820800781,-2.1389265060424805
1700936643227207200,12.949207275390625,1.7167105674743652,-7.565971851348877,0.488677978515625
1700936643244201200,12.966201171875,0.9980522990226746,-9.724702835083008,2.9861831665039062
1700936643261195300,12.9831953125,0.46118587255477905,-12.393603324890137,5.910414695739746
1700936643278189000,13.00018896484375,2.8782668113708496,-12.670817375183105,8.018797874450684
1700936643295183600,13.01718359375,6.153767108917236,-10.536314964294434,10.328306198120117
1700936643312177000,13.034177001953125,7.145757675170898,-6.582888126373291,12.064037322998047
1700936643329171200,13.051171142578125,4.695202827453613,-2.659057140350342,12.373001098632812
1700936643346165200,13.068165283203125,-0.504944920539856,-0.10111474990844727,11.002764701843262
1700936643363159300,13.0851591796875,-4.8256402015686035,1.400599479675293,8.16200065612793
1700936643380154400,13.102154296875,-7.272152900695801,2.8958592414855957,4.998591423034668
1700936643397136600,13.11913671875,-7.1413044929504395,3.4167098999023438,3.4289612770080566
1700936643414141200,13.13614111328125,-4.901728630065918,3.674647569656372,2.7117300033569336
1700936643431135200,13.15313525390625,-2.5504701137542725,3.9389517307281494,1.9969062805175781
1700936643448129300,13.17012939453125,-1.0685560703277588,4.4455156326293945,1.385507583618164
1700936643465123300,13.187123291015626,-0.7562491297721863,5.004016876220703,0.5718326568603516
1700936643482117400,13.204117431640626,-1.220371961593628,5.156408309936523,-0.054538726806640625
1700936643499111200,13.221111083984376,-1.4149619340896606,5.099956512451172,-0.4543628692626953
1700936643516105500,13.23810546875,-0.6229158639907837,5.234204292297363,-0.6078152656555176
1700936643533099300,13.255099365234376,0.09957516193389893,5.009847640991211,-0.5642457008361816
1700936643550093600,13.272093505859376,0.5775400400161743,4.6508307456970215,-0.35125160217285156
1700936643567087400,13.28908740234375,0.756890058517456,4.322787284851074,-0.11797332763671875
1700936643584081400,13.306081298828126,0.45781317353248596,3.7687571048736572,0.39398908615112305
1700936643601075500,13.323075439453126,0.25951266288757324,2.699312686920166,1.6720523834228516
1700936643618078200,13.340078125,-0.14786666631698608,1.389326572418213,3.0758724212646484
1700936643635063300,13.357063232421876,-0.3143017888069153,0.4645228385925293,3.5489044189453125
1700936643652057600,13.3740576171875,-0.2919193208217621,-1.846956729888916,5.374313831329346
1700936643669051400,13.391051513671876,-0.3124551773071289,-6.3224310874938965,8.48163890838623
1700936643686045400,13.40804541015625,1.2815208435058594,-9.311347961425781,9.549102783203125
1700936643703039500,13.42503955078125,2.6592941284179688,-7.890061855316162,8.543601989746094
1700936643720033500,13.442033447265626,2.4503304958343506,-5.76311731338501,9.49753189086914
1700936643737026800,13.45902685546875,0.14158043265342712,-6.24897575378418,11.577238082885742
1700936643754019800,13.476019775390625,-1.2384002208709717,-6.504245758056641,11.217094421386719
1700936643771018000,13.49301806640625,-1.9424045085906982,-6.271127700805664,8.436326026916504
1700936643788011800,13.51001171875,-2.072598457336426,-5.302445411682129,3.919745445251465
1700936643804998100,13.526998046875,-1.6479452848434448,-4.010458946228027,-0.020788192749023438
1700936643821997600,13.54399755859375,-0.7892152070999146,-2.7927565574645996,-2.3552675247192383
1700936643838991600,13.56099169921875,0.035057663917541504,-1.8673529624938965,-4.102162837982178
1700936643855975200,13.57797509765625,0.7011367082595825,-1.0695641040802002,-5.441409111022949
1700936643872979700,13.594979736328124,0.8994386196136475,-0.6620237827301025,-6.466619968414307
1700936643889973800,13.611973876953124,0.9990604519844055,-0.2588927745819092,-7.285536289215088
1700936643906967600,13.628967529296874,0.7895238399505615,-0.0682687759399414,-7.3838276863098145
1700936643923961900,13.6459619140625,0.36236393451690674,0.07782316207885742,-7.221305847167969
1700936643940956000,13.662955810546874,-0.20489633083343506,0.14827370643615723,-7.016641616821289
1700936643957950000,13.679949951171874,-0.7476310729980469,0.09006643295288086,-7.026279926300049
1700936643974942000,13.69694189453125,-0.9739217758178711,-0.258786678314209,-7.020022392272949
1700936643991939600,13.713939697265625,-0.7830290794372559,-0.8552629947662354,-7.1195220947265625
1700936644008922400,13.73092236328125,0.03743314743041992,-1.474064588546753,-7.436097145080566
1700936644025926000,13.74792578125,0.9943819642066956,-2.2877938747406006,-7.470739841461182
1700936644042919700,13.764919677734374,1.733580231666565,-3.2826530933380127,-7.211068153381348
1700936644059914000,13.7819140625,2.581480026245117,-4.049636363983154,-7.021047592163086
1700936644076897800,13.798897705078126,3.237858295440674,-4.908415794372559,-6.3778767585754395
1700936644093900300,13.815900390625,3.539079189300537,-6.164011478424072,-4.76602840423584
1700936644110898000,13.83289794921875,3.3462982177734375,-7.96507453918457,-2.7627992630004883
1700936644127890000,13.849889892578124,3.177720069885254,-9.588947296142578,-1.1751394271850586
1700936644144883700,13.8668837890625,3.6464767456054688,-10.049245834350586,-0.16717815399169922
1700936644161877800,13.883877685546874,4.787725448608398,-9.440155982971191,1.4977102279663086
1700936644178869500,13.900869384765626,6.275398254394531,-8.034963607788086,4.869760513305664
1700936644195867000,13.917866943359375,6.0718512535095215,-6.596750259399414,7.954776763916016
1700936644212862000,13.934862060546875,4.058444499969482,-5.065381050109863,8.600791931152344
1700936644229851000,13.951850830078126,1.238826870918274,-3.8793673515319824,6.381814002990723
1700936644246843100,13.968843017578125,-0.8991760015487671,-2.7465639114379883,2.691312789916992
1700936644263839700,13.98583984375,-1.6674754619598389,-1.5155982971191406,-0.14556598663330078
1700936644280838700,14.002838623046875,-1.3994327783584595,-0.33107662200927734,-1.3434371948242188
1700936644297820000,14.01981982421875,-0.3227391242980957,0.546027660369873,-1.121002197265625
1700936644314821400,14.0368212890625,0.5440667867660522,1.2730684280395508,-0.4711952209472656
1700936644331820500,14.053820556640625,1.306627869606018,1.959169626235962,-0.1072392463684082
1700936644348812000,14.07081201171875,1.536908507347107,2.1642041206359863,-0.3374290466308594
1700936644365806000,14.08780615234375,1.8018776178359985,2.3464813232421875,-1.072336196899414
1700936644382800100,14.104800048828125,2.157658338546753,2.36256742477417,-1.5258431434631348
1700936644399795700,14.121795654296875,2.4430854320526123,2.3288798332214355,-1.3713197708129883
1700936644416786700,14.13878662109375,2.4888176918029785,2.511348247528076,-0.5452842712402344
1700936644433782300,14.1557822265625,2.4044065475463867,2.863497257232666,0.6636295318603516
1700936644450776000,14.172776123046875,2.1444578170776367,3.0168275833129883,1.3588476181030273
1700936644467771000,14.18977099609375,1.9975086450576782,2.9257431030273438,1.7535157203674316
1700936644484763600,14.206763671875,2.02517032623291,2.770496368408203,1.6574649810791016
1700936644501758000,14.223758056640625,2.219611167907715,2.6441354751586914,1.75309419631958
1700936644518752300,14.240752197265625,2.238159418106079,2.473857879638672,2.377065658569336
1700936644535743700,14.25774365234375,1.7598649263381958,2.331636428833008,3.5934529304504395
1700936644552742700,14.27474267578125,0.9877638220787048,2.365903377532959,4.430514335632324
1700936644569732400,14.291732421875,0.13177388906478882,2.1988935470581055,4.693993091583252
1700936644586730800,14.308730712890625,-0.26880502700805664,1.606687068939209,4.143989562988281
1700936644603722200,14.32572216796875,-0.6174066662788391,0.1707930564880371,4.128401756286621
1700936644620716500,14.342716552734375,-1.1735526323318481,-1.4107704162597656,4.385015964508057
1700936644637710300,14.35971044921875,-1.260542631149292,-2.0833640098571777,4.003082752227783
1700936644654704600,14.37670458984375,-0.71230548620224,-1.8072242736816406,3.9207940101623535
1700936644671686000,14.393685791015624,-0.4924187660217285,-0.46314287185668945,4.257927417755127
1700936644688692500,14.4106923828125,-0.6089285612106323,0.979072093963623,4.197193145751953
1700936644705686300,14.427686279296875,-1.0399835109710693,0.7590765953063965,3.7646923065185547
1700936644722680300,14.444680419921875,-1.241698980331421,-0.35375308990478516,2.8197011947631836
1700936644739674400,14.46167431640625,-1.3720301389694214,-1.7870306968688965,1.4933247566223145
1700936644756668000,14.47866796875,-2.2075083255767822,-2.672107696533203,0.33945465087890625
1700936644773662700,14.495662841796875,-3.204369068145752,-2.7074151039123535,-0.21293926239013672
1700936644790656500,14.512656494140625,-4.1373395919799805,-2.44382381439209,0.28034400939941406
1700936644807650600,14.529650634765625,-4.668022155761719,-2.252133369445801,0.5025949478149414
1700936644824644400,14.546644287109375,-4.2680535316467285,-2.1577110290527344,0.0837259292602539
1700936644841627100,14.563627197265625,-2.985675811767578,-2.767660617828369,-0.38684940338134766
1700936644858633200,14.58063330078125,-1.4985308647155762,-3.112893581390381,-1.0565705299377441
1700936644875626800,14.597626708984375,-0.5055780410766602,-3.002537727355957,-1.9357829093933105
1700936644892616200,14.6146162109375,0.10791292786598206,-2.7302746772766113,-2.749152183532715
1700936644909613300,14.63161328125,0.2640678584575653,-2.491570234298706,-3.10709285736084
1700936644926609700,14.648609619140625,0.1374325454235077,-2.476562976837158,-3.3039450645446777
1700936644943602700,14.665602783203125,-0.8653029203414917,-3.0864458084106445,-3.1686596870422363
1700936644960594400,14.682594482421875,-0.6284940242767334,-3.301591634750366,-4.337393760681152
1700936644977592800,14.6995927734375,-0.16298910975456238,-3.6243598461151123,-5.595633506774902
1700936644994584600,14.71658447265625,0.4705907106399536,-3.8315627574920654,-6.807710647583008
1700936645011579000,14.733578857421875,1.2623635530471802,-3.907090663909912,-7.526896953582764
1700936645028572400,14.750572509765625,2.415468454360962,-3.641505241394043,-7.6662821769714355
1700936645045566700,14.767566650390625,2.7385730743408203,-3.259141206741333,-6.853052139282227
1700936645062560800,14.784560791015625,1.8908849954605103,-2.9444375038146973,-5.28326416015625
1700936645079554800,14.801554931640625,0.741557776927948,-2.6978275775909424,-3.9870171546936035
1700936645096548900,14.818548828125,-0.044543296098709106,-2.423823833465576,-3.305912494659424
1700936645113538600,14.83553857421875,-0.2797911763191223,-2.3097100257873535,-2.6462202072143555
1700936645130541300,14.852541259765625,-0.18454906344413757,-1.9779329299926758,-2.0065793991088867
1700936645147531000,14.869531005859375,-0.23908236622810364,-2.0886030197143555,-0.3807497024536133
1700936645164524800,14.88652490234375,-0.28725647926330566,-2.410529613494873,0.9802227020263672
1700936645181519000,14.90351904296875,0.07334746420383453,-2.974318504333496,1.5916547775268555
1700936645198512600,14.9205126953125,0.4112659692764282,-3.5642781257629395,1.787099838256836
1700936645215507000,14.9375068359375,1.2762353420257568,-3.193924903869629,1.3587274551391602
1700936645232500700,14.954500732421875,2.5161232948303223,-2.00563907623291,1.9096369743347168
1700936645249494800,14.971494873046876,3.1774048805236816,-0.5754380226135254,3.5807414054870605
1700936645266488600,14.988488525390625,2.643003463745117,-0.12544775009155273,6.094349384307861
1700936645283483000,15.00548291015625,1.3065671920776367,0.04583024978637695,7.269795894622803
1700936645300477000,15.022476806640626,-0.07134248316287994,0.25608253479003906,5.902231216430664
1700936645317477600,15.0394775390625,-1.0515201091766357,0.7512617111206055,3.6598315238952637
1700936645334467800,15.0564677734375,-1.7534775733947754,1.4871973991394043,2.160478115081787
1700936645351453200,15.073453125,-1.7838377952575684,2.4886574745178223,1.9912190437316895
1700936645368445200,15.090445068359376,-1.1077221632003784,3.2549290657043457,2.7306036949157715
1700936645385444400,15.1074443359375,-0.5342767238616943,4.134418487548828,2.995697498321533
1700936645402443500,15.124443603515624,-0.6831364035606384,4.567290306091309,2.576539993286133
1700936645419434800,15.141434814453126,-1.2877312898635864,4.884523868560791,1.761199951171875
1700936645436429000,15.158428955078126,-2.3091468811035156,5.027274131774902,0.930142879486084
1700936645453422800,15.1754228515625,-3.0579142570495605,5.146183967590332,0.0845036506652832
1700936645470417200,15.192417236328126,-3.159466028213501,5.190905570983887,-0.42329835891723633
1700936645487411200,15.2094111328125,-2.48372220993042,5.298274517059326,-0.6365232467651367
1700936645504405000,15.226405029296876,-1.7485289573669434,5.2813591957092285,-0.8252048492431641
1700936645521398800,15.243398681640626,-1.438175082206726,5.303731918334961,-1.176961898803711
1700936645538390500,15.260390625,-1.4748178720474243,5.170222282409668,-1.0322976112365723
1700936645555389700,15.2773896484375,-1.996327519416809,4.871648788452148,-1.2574739456176758
1700936645572391000,15.294390869140624,-2.6097071170806885,4.301682472229004,-2.10593843460083
1700936645589375200,15.311375244140624,-2.9325263500213623,3.6689865589141846,-2.6156325340270996
1700936645606354000,15.32835400390625,-2.768235445022583,2.9887588024139404,-2.642798900604248
1700936645623363000,15.345363037109376,-2.2253835201263428,2.5282344818115234,-2.316777229309082
1700936645640357000,15.362357177734374,-1.9467251300811768,1.8877296447753906,-1.8228230476379395
1700936645657351200,15.37935107421875,-1.7573167085647583,1.191236972808838,-1.3571667671203613
1700936645674336300,15.396336181640624,-1.6143971681594849,-0.09833335876464844,-0.8105096817016602
1700936645691339300,15.41333935546875,-1.55282723903656,-1.6606559753417969,-0.3480796813964844
1700936645708333300,15.430333251953124,-0.8171104192733765,-3.1266188621520996,0.46456146240234375
1700936645725327000,15.4473271484375,0.039141155779361725,-4.376656532287598,2.1362810134887695
1700936645742318600,15.464318603515625,-0.7404531240463257,-7.370402812957764,6.320913314819336
1700936645759321300,15.4813212890625,-1.195133924484253,-10.460274696350098,9.32552433013916
1700936645776305700,15.4983056640625,-0.29957759380340576,-10.785442352294922,9.157295227050781
1700936645793303000,15.515302978515624,1.0578017234802246,-8.866626739501953,8.94602108001709
1700936645810297000,15.532297119140624,0.959388256072998,-7.412723541259766,9.894635200500488
1700936645827291400,15.54929150390625,-0.08923053741455078,-7.123277187347412,9.953778266906738
1700936645844285400,15.566285400390624,-0.10765194892883301,-6.805731773376465,7.403720855712891
1700936645861279200,15.583279296875,0.5097669363021851,-5.763710975646973,3.2201128005981445
1700936645878273300,15.600273193359374,1.2494397163391113,-3.8192243576049805,-0.8247928619384766
1700936645895267000,15.61726708984375,1.754983901977539,-1.715043306350708,-3.3894548416137695
1700936645912262400,15.634262451171875,1.642686128616333,-0.2667062282562256,-4.685154914855957
1700936645929253600,15.651253662109376,1.200821876525879,0.6134552955627441,-5.446253299713135
1700936645946249200,15.668249267578124,0.4173389971256256,0.9974536895751953,-6.013669967651367
1700936645963243300,15.6852431640625,-0.09913305938243866,1.3178354501724243,-6.869881629943848
1700936645980234500,15.702234375,-0.4534163475036621,1.506584644317627,-7.916053295135498
1700936645997234400,15.719234375,-0.6989638805389404,1.5435419082641602,-8.756767272949219
1700936646014225400,15.736225341796874,-1.0041424036026,1.4179739952087402,-9.28354263305664
1700936646031219200,15.75321923828125,-1.2099530696868896,1.3847919702529907,-9.654647827148438
1700936646048203000,15.770203125,-1.041120171546936,1.2194960117340088,-9.420988082885742
1700936646065207300,15.787207275390625,-0.6125268936157227,1.0243126153945923,-8.764418601989746
1700936646082201300,15.804201416015625,-0.18135276436805725,0.7009627819061279,-8.069849014282227
1700936646099196700,15.82119677734375,-0.2665253281593323,-0.4338209629058838,-7.270936965942383
1700936646116189400,15.838189453125,-0.618003249168396,-0.9243133068084717,-7.9881911277771
1700936646133181200,15.85518115234375,-0.8802416920661926,-1.8462331295013428,-8.159399032592773
1700936646150179800,15.872179931640625,-0.6720842123031616,-2.598811388015747,-6.9296979904174805
1700936646167171300,15.88917138671875,0.031213462352752686,-3.538653612136841,-3.367753505706787
1700936646184165400,15.906165283203125,0.6736357808113098,-4.595798492431641,0.20433330535888672
1700936646201152300,15.92315234375,1.314087152481079,-5.576623916625977,1.696019172668457
1700936646218153700,15.94015380859375,2.6026387214660645,-6.357195854187012,1.846879005432129
1700936646235147300,15.957147216796875,3.8541793823242188,-7.089221954345703,2.7704877853393555
1700936646252141600,15.9741416015625,3.8948049545288086,-7.719238758087158,4.746247291564941
1700936646269135400,15.99113525390625,2.804753303527832,-8.817852020263672,6.607810020446777
1700936646286130000,16.0081298828125,2.273345470428467,-7.988216400146484,7.276094436645508
1700936646303124200,16.025124267578125,1.4011784791946411,-6.42204475402832,7.724026679992676
1700936646320117800,16.04211767578125,-0.45006752014160156,-4.944870471954346,8.379278182983398
1700936646337115000,16.059114990234374,-2.7017974853515625,-3.036132335662842,8.128231048583984
1700936646354102300,16.076102294921874,-5.046081066131592,-1.0631532669067383,6.172593593597412
1700936646371099600,16.093099609375,-6.158567905426025,0.6878767013549805,3.727241039276123
1700936646388093400,16.110093505859375,-5.08015251159668,1.8363213539123535,2.111614227294922
1700936646405085200,16.127085205078124,-2.7634854316711426,2.8036890029907227,1.9340357780456543
1700936646422084400,16.14408447265625,-0.7182593941688538,4.043396949768066,2.3727312088012695
1700936646439075300,16.161075439453125,-0.3199460506439209,5.377743721008301,1.6516203880310059
1700936646456069600,16.178069580078127,-1.3140007257461548,6.191558837890625,0.6423740386962891
1700936646473061000,16.19506103515625,-2.706009864807129,6.617313861846924,-0.41484975814819336
1700936646490060000,16.21206005859375,-3.203047037124634,6.713623046875,-1.0248780250549316
1700936646507051800,16.2290517578125,-2.794412851333618,6.388075828552246,-1.1035752296447754
1700936646524045300,16.24604541015625,-1.859053373336792,6.169568061828613,-1.2068986892700195
1700936646541029400,16.263029296875,-0.9706186056137085,5.809430122375488,-1.030250072479248
1700936646558033400,16.280033447265627,-0.5591692328453064,5.505086898803711,-1.265610694885254
1700936646575028000,16.297028076171873,-0.5824758410453796,4.8475189208984375,-1.4598050117492676
1700936646592020200,16.314020263671875,-0.8636484146118164,3.913558006286621,-1.319551944732666
1700936646609017000,16.33101708984375,-0.5767694711685181,3.5282554626464844,-1.035027027130127
1700936646626013700,16.348013671875,0.10785570740699768,3.323586940765381,-0.12429952621459961
1700936646643004000,16.36500390625,0.6481610536575317,2.575594902038574,1.6115236282348633
1700936646659996400,16.381996337890627,0.7050742506980896,1.2483854293823242,3.5797505378723145
1700936646676993000,16.398992919921874,0.6214278936386108,0.2426128387451172,4.575681209564209
1700936646693985800,16.41598583984375,0.3742797076702118,-1.5605220794677734,6.054313659667969
1700936646710976300,16.432976318359376,0.0611710399389267,-4.741901874542236,8.759899139404297
1700936646727977200,16.449977294921876,0.555518627166748,-7.382413387298584,10.762287139892578
1700936646744968000,16.466968017578125,2.0803730487823486,-8.214675903320312,11.015478134155273
1700936646761961700,16.483961669921875,3.2604892253875732,-7.1505961418151855,10.361093521118164
1700936646778955800,16.500955810546873,3.109459161758423,-6.770369052886963,9.867639541625977
1700936646795945500,16.517945556640626,2.4214673042297363,-7.155828475952148,8.860206604003906
1700936646812947200,16.534947265625,1.508323073387146,-8.054213523864746,7.3072285652160645
1700936646829939000,16.55193896484375,1.368121862411499,-7.786838054656982,4.3280029296875
1700936646846931700,16.568931640625,1.711718201637268,-6.387397289276123,0.9410581588745117
1700936646863926000,16.585926025390624,1.8563239574432373,-4.958869457244873,-1.313734531402588
1700936646880919800,16.602919921875,1.6711516380310059,-3.7880806922912598,-3.023740768432617
1700936646897913900,16.619913818359375,1.2959843873977661,-2.8255579471588135,-4.466784477233887
1700936646914909400,16.636909423828126,0.6450678110122681,-2.045172691345215,-5.745498180389404
1700936646931900400,16.653900390625,-0.05820727348327637,-1.4044444561004639,-6.870436191558838
1700936646948896000,16.67089599609375,-0.3525359034538269,-0.7532286643981934,-8.041791915893555
1700936646965896400,16.687896484375,0.005992770195007324,-0.06460762023925781,-8.888421058654785
1700936646982883800,16.7048837890625,0.2731934189796448,0.2578420639038086,-9.156975746154785
1700936646999878100,16.721878173828124,0.13471120595932007,0.379974365234375,-9.22530746459961
1700936647016872200,16.7388720703125,-0.478162556886673,0.3232870101928711,-9.294116020202637
1700936647033866000,16.755865966796875,-1.0424692630767822,0.2929048538208008,-9.531624794006348
1700936647050856700,16.772856689453125,-1.5425443649291992,-0.014378070831298828,-9.79151725769043
1700936647067857200,16.789857177734376,-1.6632802486419678,-0.520465612411499,-9.799076080322266
1700936647084847900,16.806847900390625,-1.0807607173919678,-0.7495448589324951,-9.327284812927246
1700936647101827000,16.8238271484375,-0.2823558449745178,-0.8689863681793213,-8.510125160217285
1700936647118836200,16.840836181640626,0.31935474276542664,-1.2154481410980225,-7.470525741577148
1700936647135827700,16.85782763671875,0.8516355752944946,-1.6931285858154297,-5.660002708435059
1700936647152815900,16.87481591796875,0.7477609515190125,-2.6235053539276123,-4.119212627410889
1700936647169818000,16.891818115234376,0.4025720953941345,-3.5105159282684326,-3.5972414016723633
1700936647186812200,16.908812255859374,0.9228962063789368,-4.088623046875,-2.7038512229919434
1700936647203806000,16.925805908203124,-0.2927353084087372,-5.966711521148682,-0.5072441101074219
1700936647220800300,16.94280029296875,-2.4053194522857666,-8.573594093322754,1.3750247955322266
1700936647237794000,16.9597939453125,-2.6484756469726562,-10.909204483032227,2.302213668823242
1700936647254788400,16.976788330078126,0.38610050082206726,-12.784133911132812,3.935004234313965
1700936647271782000,16.993781982421876,5.162642478942871,-11.762434005737305,6.9830427169799805
1700936647288776000,17.01077587890625,6.576822280883789,-10.389263153076172,12.245694160461426
1700936647305756000,17.027755859375,3.0833442211151123,-7.907883167266846,14.781267166137695
1700936647322767600,17.044767578125,-2.9404706954956055,-4.086770534515381,13.27710247039795
1700936647339758000,17.061758056640624,-8.211849212646484,-0.5541610717773438,10.027082443237305
1700936647356752100,17.078752197265626,-9.446245193481445,2.2557296752929688,6.828743934631348
1700936647373746000,17.095745849609376,-5.814334869384766,3.5840721130371094,4.623778343200684
1700936647390740200,17.112740234375,-1.6718822717666626,4.081869125366211,2.7689638137817383
1700936647407734000,17.129734130859376,0.9187825918197632,4.453441143035889,1.3157453536987305
1700936647424728000,17.14672802734375,2.0566067695617676,4.836513996124268,0.24257755279541016
1700936647441736000,17.16373583984375,2.2143287658691406,5.40082311630249,-0.7663626670837402
1700936647458716200,17.180716064453126,1.9403010606765747,5.777552604675293,-1.3429923057556152
1700936647475710200,17.197710205078124,1.4969522953033447,6.1197190284729,-1.7375292778015137
1700936647492705000,17.214705078125,0.9836878180503845,6.389920234680176,-2.0617241859436035
1700936647509698300,17.2316982421875,0.4822700023651123,6.391261577606201,-2.2433362007141113
1700936647526689500,17.248689453125,0.25999343395233154,6.3998212814331055,-2.4705097675323486
1700936647543689200,17.265689208984377,0.11316275596618652,6.21055793762207,-2.4847004413604736
1700936647560672000,17.282672119140624,0.3208601474761963,5.613089561462402,-1.9093084335327148
1700936647577674200,17.29967431640625,0.7722582221031189,5.2436113357543945,-0.9939107894897461
1700936647594668000,17.31666796875,0.6086357235908508,4.705010414123535,0.8110799789428711
1700936647611662300,17.333662353515624,-0.41729244589805603,4.6610870361328125,1.5783100128173828
1700936647628656000,17.35065625,-2.2409286499023438,3.7406344413757324,0.962313175201416
1700936647645650200,17.367650146484376,-2.7023816108703613,3.3223681449890137,0.7909073829650879
1700936647662644500,17.38464453125,-1.99351167678833,2.9600162506103516,1.8557519912719727
1700936647679635700,17.4016357421875,-0.058469027280807495,2.6084842681884766,3.877892017364502
1700936647696633300,17.41863330078125,0.9041996002197266,1.380178451538086,5.911096096038818
1700936647713631000,17.435630859375,0.9872435331344604,-0.0809321403503418,6.765812873840332
1700936647730620400,17.452620361328126,1.122131586074829,-0.8475313186645508,6.130697250366211
1700936647747612000,17.46961181640625,1.0711299180984497,-3.0475940704345703,7.514204978942871
1700936647764610800,17.48661083984375,1.8142876625061035,-7.229154109954834,10.712672233581543
1700936647781602600,17.5036025390625,3.7264559268951416,-9.723689079284668,12.787721633911133
1700936647798596400,17.520596435546874,4.023148059844971,-8.919435501098633,12.109770774841309
1700936647815592400,17.537592529296877,2.911687135696411,-6.924602031707764,10.247847557067871
1700936647832582400,17.55458251953125,1.6383333206176758,-6.020064353942871,8.559477806091309
1700936647849578500,17.57157861328125,0.7186253070831299,-5.888186454772949,6.817770957946777
1700936647866572300,17.588572265625,-0.051783978939056396,-5.922576427459717,4.183559417724609
1700936647883566600,17.605566650390625,-0.45160165429115295,-5.205099105834961,0.8124561309814453
1700936647900560400,17.622560302734374,-0.39117011427879333,-4.006058692932129,-2.428952693939209
1700936647917554200,17.63955419921875,0.15775127708911896,-2.43829083442688,-5.031974792480469
1700936647934548200,17.65654833984375,0.6146193742752075,-1.1496756076812744,-6.606393814086914
1700936647951542500,17.67354248046875,0.8072039484977722,-0.2823023796081543,-7.267559051513672
1700936647968534000,17.690533935546874,0.3869217038154602,0.013976097106933594,-7.346663951873779
1700936647985533000,17.707532958984373,-0.09453649818897247,0.2843623161315918,-7.13715934753418
1700936648002524400,17.7245244140625,-0.5818383693695068,0.5607579946517944,-7.008962631225586
1700936648019518200,17.741518310546876,-1.1811442375183105,0.6955548524856567,-7.167579650878906
1700936648036512300,17.75851220703125,-1.6098856925964355,0.8181531429290771,-7.338242530822754
1700936648053506600,17.775506591796876,-1.7266325950622559,0.8509426116943359,-7.4521918296813965
1700936648070500600,17.79250048828125,-1.5488195419311523,0.5861040353775024,-7.491722106933594
1700936648087494400,17.809494384765625,-1.3887568712234497,0.010184764862060547,-7.597210884094238
1700936648104488700,17.82648876953125,-1.3055781126022339,-0.5928618907928467,-8.032584190368652
1700936648121482500,17.843482421875,-1.317903757095337,-1.4701220989227295,-8.429922103881836
1700936648138476300,17.860476318359375,-0.7012810707092285,-2.0334081649780273,-8.536238670349121
1700936648155470600,17.877470703125,-0.12173652648925781,-2.825112819671631,-7.5776214599609375
1700936648172464600,17.894464599609375,0.4977723956108093,-3.915437936782837,-5.95308256149292
1700936648189461200,17.911461181640625,0.6438888311386108,-5.202278137207031,-4.5007243156433105
1700936648206450000,17.928449951171874,0.45131105184555054,-5.763628005981445,-3.374570846557617
1700936648223446500,17.945446533203125,0.26007401943206787,-6.559159278869629,-1.9838452339172363
1700936648240440600,17.962440673828127,0.36055994033813477,-7.779609680175781,0.16414260864257812
1700936648257434400,17.979434326171877,0.9540414810180664,-9.971357345581055,3.235518455505371
1700936648274428700,17.9964287109375,2.094578266143799,-11.871021270751953,5.920574188232422
1700936648291422700,18.013422607421877,3.9055097103118896,-10.801136016845703,7.641168594360352
1700936648308416500,18.03041650390625,4.869729995727539,-8.053730010986328,9.809052467346191
1700936648325410800,18.047410888671877,3.634021759033203,-5.950059413909912,12.028936386108398
1700936648342404600,18.064404541015627,0.56003737449646,-3.636049747467041,11.8179292678833
1700936648359398400,18.0813984375,-3.124439239501953,-1.4613709449768066,9.146865844726562
1700936648376392400,18.098392333984375,-6.01727294921875,0.2821640968322754,5.89286994934082
1700936648393386500,18.115386474609377,-6.621640205383301,1.967865228652954,3.1835265159606934
1700936648410379000,18.13237890625,-6.367952346801758,3.1563827991485596,1.1071033477783203
1700936648427375900,18.1493759765625,-5.412494659423828,3.778563976287842,0.30279541015625
1700936648444368600,18.16636865234375,-3.3444693088531494,4.519481658935547,0.15560340881347656
1700936648461362700,18.18336279296875,-1.3288787603378296,5.195374965667725,-0.25962114334106445
1700936648478356500,18.2003564453125,0.15968549251556396,5.9498748779296875,-0.9147562980651855
1700936648495350800,18.217350830078125,0.702545702457428,6.358444690704346,-1.7397089004516602
1700936648512344600,18.234344482421875,0.4985537528991699,6.45947790145874,-2.4143991470336914
1700936648529334300,18.251334228515624,0.0623934268951416,6.525573253631592,-3.1135356426239014
1700936648546351600,18.2683515625,-0.11879995465278625,6.477849960327148,-3.341055154800415
1700936648563326700,18.28532666015625,-0.0595363974571228,6.027415752410889,-3.064453125
1700936648580320500,18.302320556640623,0.24772214889526367,5.580815315246582,-2.6569058895111084
1700936648597314600,18.319314453125,0.5249019861221313,4.783877372741699,-2.1217727661132812
1700936648614306300,18.336306396484375,0.6744608879089355,3.8730645179748535,-1.198925495147705
1700936648631305200,18.35330517578125,0.36017656326293945,3.5411429405212402,-0.3535890579223633
1700936648648296400,18.37029638671875,-0.1621423065662384,2.638517379760742,1.4430561065673828
1700936648665290500,18.38729052734375,-0.45000192523002625,2.0542850494384766,3.0821237564086914
1700936648682284500,18.404284423828123,0.2799621522426605,1.4544196128845215,5.129359245300293
1700936648699278600,18.421278564453125,1.2118369340896606,-1.8147482872009277,9.454277038574219
1700936648716272600,18.438272705078123,1.5999269485473633,-6.060159206390381,13.208375930786133
1700936648733267000,18.455266845703125,2.795142650604248,-8.076828002929688,13.755592346191406
1700936648750261000,18.472260986328124,3.435108184814453,-6.235629081726074,12.605185508728027
1700936648767254800,18.4892548828125,3.183720350265503,-4.17308235168457,13.370627403259277
1700936648784248600,18.50624853515625,2.674598217010498,-3.8890514373779297,14.490827560424805
1700936648801232000,18.52323193359375,2.249748468399048,-4.591223239898682,12.91401481628418
1700936648818237000,18.54023681640625,2.090437650680542,-5.842621803283691,9.585906028747559
1700936648835228200,18.557228271484377,1.4815223217010498,-6.144517421722412,4.753078460693359
1700936648852227300,18.574227294921876,1.5150947570800781,-5.0353312492370605,0.32465457916259766
1700936648869218800,18.59121875,1.2937889099121094,-3.541548728942871,-2.71575927734375
1700936648886212900,18.608212890625,0.9336676597595215,-2.1168408393859863,-4.650816440582275
1700936648903206700,18.62520654296875,0.6239278316497803,-1.0694940090179443,-5.751375198364258
1700936648920201000,18.642200927734375,0.0018725618720054626,-0.4658167362213135,-6.543374538421631
1700936648937182200,18.65918212890625,-0.44537416100502014,-0.0704646110534668,-7.257192611694336
1700936648954188300,18.676188232421875,-0.6417699456214905,0.07111430168151855,-7.4317240715026855
1700936648971186400,18.6931865234375,-0.6923648715019226,0.13088011741638184,-7.615470886230469
1700936648988174300,18.71017431640625,-0.8824343681335449,0.07514834403991699,-7.841525554656982
1700936649005173500,18.727173583984374,-1.2968829870224,-0.03570103645324707,-8.094403266906738
1700936649022159600,18.74415966796875,-1.563693642616272,-0.12539100646972656,-8.483318328857422
1700936649039160800,18.761160888671874,-1.5658543109893799,-0.3535017967224121,-8.707298278808594
1700936649056151000,18.778151123046875,-1.355136513710022,-0.6166880130767822,-9.117873191833496
1700936649073156600,18.795156494140624,-0.8612995743751526,-0.9489375352859497,-9.454036712646484
1700936649090140000,18.812139892578124,-0.13233722746372223,-1.26656973361969,-9.235428810119629
1700936649107135500,18.829135498046874,0.6815230846405029,-1.7472889423370361,-8.378461837768555
1700936649124129000,18.84612890625,1.0914362668991089,-2.738715648651123,-7.0964179039001465
1700936649141123000,18.863123046875,1.343868374824524,-3.6943299770355225,-5.958182334899902
1700936649158116600,18.88011669921875,1.3338406085968018,-4.6507158279418945,-4.401593208312988
1700936649175111200,18.897111083984374,0.5178588032722473,-6.424065589904785,-2.680217742919922
1700936649192095000,18.914094970703125,-0.7441843748092651,-9.012746810913086,-0.31003475189208984
1700936649209099000,18.93109912109375,-1.0002162456512451,-11.753517150878906,1.581233024597168
1700936649226093000,18.948093017578124,1.580216646194458,-13.048718452453613,3.89949893951416
1700936649243084500,18.96508447265625,5.14459228515625,-11.89093017578125,7.068872451782227
1700936649260081200,18.9820810546875,6.721560478210449,-9.668028831481934,10.474952697753906
1700936649277075200,18.9990751953125,5.839377403259277,-7.691314220428467,12.71839714050293
1700936649294066000,19.01606591796875,2.7409305572509766,-5.784334659576416,12.429061889648438
1700936649311062800,19.033062744140626,-1.0395925045013428,-3.4338364601135254,9.439213752746582
1700936649328046300,19.05004638671875,-4.8098883628845215,-1.0123109817504883,5.510567665100098
1700936649345051100,19.067051025390626,-6.743307113647461,1.5750775337219238,2.08085298538208
1700936649362042600,19.084042724609375,-5.85725736618042,2.856980085372925,0.9577775001525879
1700936649379041300,19.101041259765626,-3.390636920928955,3.4680416584014893,1.492570400238037
1700936649396032800,19.11803271484375,-0.6113592386245728,4.475632667541504,2.280653476715088
1700936649413027000,19.135027099609374,0.47955888509750366,5.708996772766113,1.384946346282959
1700936649430020900,19.152020751953124,-0.14758208394050598,6.2659807205200195,-0.09523248672485352
1700936649447015000,19.169014892578126,-1.6340422630310059,6.288407802581787,-1.4263262748718262
1700936649463997200,19.1859970703125,-2.4164016246795654,6.614017963409424,-2.598616361618042
1700936649480994800,19.202994873046876,-2.598910093307495,6.603752136230469,-2.7132468223571777
1700936649497999400,19.219999267578125,-1.9970660209655762,6.616587162017822,-2.243912696838379
1700936649514982400,19.236982421875,-1.2066951990127563,6.525969505310059,-1.397843837738037
1700936649531982600,19.253982666015624,-1.327383041381836,5.861807346343994,-0.9658994674682617
1700936649548981500,19.2709814453125,-1.6436240673065186,5.070684432983398,-0.8231182098388672
1700936649565973200,19.28797314453125,-1.8435590267181396,4.165255546569824,0.22809171676635742
1700936649582966800,19.304966796875,-1.9331929683685303,3.7539234161376953,1.643578052520752
1700936649599960800,19.3219609375,-1.9850244522094727,3.809903144836426,3.3446993827819824
1700936649616955100,19.338955078125,-2.543703079223633,3.5643839836120605,5.5824294090271
1700936649633949000,19.355948974609376,-2.825314998626709,2.759716033935547,7.265571594238281
1700936649650940400,19.3729404296875,-1.9741425514221191,1.669970989227295,8.257441520690918
1700936649667939600,19.389939697265625,-0.5013296604156494,-0.39652252197265625,9.581323623657227
1700936649684930800,19.406930908203126,0.9080678820610046,-4.318689346313477,12.134188652038574
1700936649701924900,19.4239248046875,2.2842319011688232,-8.778940200805664,14.311060905456543
1700936649718919000,19.4409189453125,3.337296485900879,-11.708137512207031,13.902941703796387
1700936649735910400,19.457910400390624,5.193077564239502,-7.9057207107543945,10.139646530151367
1700936649752909600,19.47490966796875,5.527178764343262,-5.953741073608398,9.549663543701172
1700936649769901000,19.491901123046876,5.235659122467041,-4.943983554840088,8.620928764343262
1700936649786895000,19.50889501953125,3.8423383235931396,-5.644812107086182,7.342453956604004
1700936649803893500,19.5258935546875,2.1793389320373535,-6.230738639831543,4.523159027099609
1700936649820883200,19.54288330078125,0.9160824418067932,-6.315725803375244,0.4277048110961914
1700936649837874400,19.55987451171875,0.7728394865989685,-5.043728828430176,-3.967471122741699
1700936649854873600,19.57687353515625,1.2116122245788574,-3.3411107063293457,-6.710453033447266
1700936649871854800,19.593854736328126,1.561919093132019,-1.8838300704956055,-8.003259658813477
1700936649888859100,19.610859130859374,1.1107099056243896,-0.9579603672027588,-8.670817375183105
1700936649905850600,19.6278505859375,0.546196460723877,-0.5127198696136475,-8.77391529083252
1700936649922849500,19.644849609375,-0.0569799542427063,-0.2936384677886963,-8.881987571716309
1700936649939831300,19.661831298828126,-0.7092181444168091,-0.23869585990905762,-9.062990188598633
1700936649956834800,19.678834716796874,-1.2692515850067139,-0.1852095127105713,-9.403053283691406
1700936649973828900,19.695828857421876,-1.7476325035095215,-0.14170432090759277,-9.708507537841797
1700936649990823000,19.712822998046875,-2.090561866760254,-0.2669517993927002,-9.812688827514648
1700936650007817200,19.729817138671876,-2.5439453125,-0.6278938055038452,-9.71542739868164
1700936650024811000,19.74681103515625,-2.7160048484802246,-0.9886041879653931,-9.532293319702148
1700936650041805000,19.76380517578125,-2.5686614513397217,-1.476603627204895,-9.095524787902832
1700936650058796500,19.780796630859374,-1.7556172609329224,-2.259326457977295,-8.135080337524414
1700936650075795700,19.797795654296873,-1.1731127500534058,-4.025511264801025,-6.548064708709717
1700936650092770000,19.81477001953125,-0.07164623588323593,-5.316533088684082,-5.284646511077881
1700936650109770500,19.8317705078125,1.502021074295044,-6.594071865081787,-3.468724250793457
1700936650126775000,19.848775146484375,2.489183187484741,-8.012243270874023,-1.0391826629638672
1700936650143769000,19.86576904296875,2.5383574962615967,-9.413366317749023,1.7450580596923828
1700936650160763400,19.882763427734375,2.186603307723999,-11.232888221740723,5.022341728210449
1700936650177757200,19.899757080078125,3.496363878250122,-11.81916618347168,7.320589065551758
1700936650194751000,19.9167509765625,4.836071491241455,-10.572319030761719,8.626764297485352
1700936650211745000,19.9337451171875,3.7618277072906494,-8.742948532104492,9.797490119934082
1700936650228739300,19.9507392578125,1.338840126991272,-6.935449123382568,10.35622501373291
1700936650245733000,19.967733154296877,-1.5352802276611328,-4.903975486755371,9.72921371459961
1700936650262727200,19.98472705078125,-4.65328311920166,-2.6017627716064453,7.2311015129089355
1700936650279712300,20.001712158203127,-6.824093341827393,-0.5931587219238281,4.849454402923584
1700936650296716000,20.018716064453123,-6.450560569763184,1.1830134391784668,3.637176036834717
1700936650313709000,20.035708984375,-4.59034538269043,2.5217041969299316,3.7845849990844727
1700936650330703000,20.052703125,-2.6787514686584473,3.555948257446289,4.561380386352539
1700936650347697200,20.069697265625,-1.0981314182281494,4.929842948913574,5.382076740264893
1700936650364691000,20.08669091796875,-0.012310802936553955,6.595470905303955,4.557971000671387
1700936650381688000,20.10368798828125,-0.055349647998809814,7.417146682739258,2.9045662879943848
1700936650398676200,20.12067626953125,-0.4460105299949646,7.72340726852417,1.5586280822753906
1700936650415673000,20.137673095703125,-0.6154106259346008,7.835218906402588,0.5551257133483887
1700936650432667100,20.154667236328127,-0.5418817400932312,7.561281204223633,0.2028212547302246
1700936650449661200,20.1716611328125,-0.19593414664268494,7.2213134765625,0.07629156112670898
1700936650466655200,20.1886552734375,0.26052895188331604,6.643816947937012,0.22449970245361328
1700936650483649000,20.20564892578125,0.7320957779884338,5.7087202072143555,0.7485299110412598
1700936650500632600,20.222632568359376,1.073164939880371,5.148879528045654,1.7302088737487793
1700936650517636900,20.239636962890625,0.7429952025413513,4.955615043640137,3.0218987464904785
1700936650534631200,20.256631103515623,-0.37921392917633057,4.686334609985352,3.690077304840088
1700936650551628800,20.27362890625,-2.0832319259643555,4.091618537902832,3.698936939239502
1700936650568616000,20.290615966796874,-2.551558256149292,3.3930020332336426,3.547736644744873
1700936650585602600,20.3076025390625,-1.4913685321807861,2.982485294342041,3.9159607887268066
1700936650602607000,20.324607177734375,0.2007722556591034,1.933527946472168,4.785492420196533
1700936650619601400,20.341601318359373,1.7568050622940063,0.4978370666503906,5.199642658233643
1700936650636595200,20.35859521484375,2.95237398147583,-1.0825109481811523,4.797656059265137
1700936650653589200,20.37558935546875,3.416957378387451,-2.6941962242126465,4.6360063552856445
1700936650670583000,20.3925830078125,3.493691921234131,-3.634805202484131,4.763324737548828
1700936650687577600,20.40957763671875,2.7774088382720947,-5.295117378234863,5.810200214385986
1700936650704571400,20.4265712890625,1.9942126274108887,-7.084950923919678,6.440882682800293
1700936650721565200,20.443565185546873,2.0166549682617188,-7.631394863128662,5.963360786437988
1700936650738548700,20.460548828125,2.2215757369995117,-6.4014997482299805,4.4024658203125
1700936650755553300,20.47755322265625,2.0061333179473877,-4.739470958709717,3.3269758224487305
1700936650772544500,20.49454443359375,0.44732344150543213,-3.843824863433838,2.595107078552246
1700936650789544200,20.511544189453126,-1.3924105167388916,-3.770793914794922,1.8923273086547852
1700936650806535000,20.528534912109375,-2.497933864593506,-3.620168924331665,0.5371313095092773
1700936650823526700,20.545526611328125,-3.029831886291504,-3.4295425415039062,-1.6542305946350098
1700936650840526000,20.562526123046876,-2.6811130046844482,-2.43808650970459,-4.137916564941406
1700936650857517300,20.579517333984374,-2.264286518096924,-1.4043824672698975,-5.6342453956604
1700936650874509300,20.59650927734375,-2.0486888885498047,-0.607457160949707,-6.474852561950684
1700936650891498500,20.61349853515625,-1.7785313129425049,-0.08414578437805176,-6.880260467529297
1700936650908499500,20.63049951171875,-1.107884168624878,0.1327199935913086,-6.685784816741943
1700936650925493200,20.6474931640625,-0.4186323881149292,0.28955626487731934,-6.326418876647949
1700936650942487300,20.6644873046875,0.11375188827514648,0.2359921932220459,-6.105090618133545
1700936650959481000,20.681481201171874,0.6624456644058228,0.24886465072631836,-6.465447425842285
1700936650976475400,20.698475341796875,1.194471836090088,0.10385990142822266,-7.148018836975098
1700936650993469200,20.71546923828125,1.3489997386932373,0.097076416015625,-7.794534683227539
1700936651010463200,20.732463134765624,1.2140891551971436,0.05514073371887207,-7.935476303100586
1700936651027457300,20.749457275390625,1.298408031463623,-0.012704133987426758,-6.8479790687561035
1700936651044451300,20.766451416015624,1.3361692428588867,-0.32163453102111816,-5.349028587341309
1700936651061445000,20.783445068359374,1.355162262916565,-0.23895645141601562,-4.19184684753418
1700936651078439400,20.800439453125,1.0710901021957397,-0.3716731071472168,-2.9963459968566895
1700936651095433200,20.81743310546875,0.8478782773017883,-1.109947919845581,-1.3258075714111328
1700936651112427300,20.83442724609375,0.5512491464614868,-2.4439072608947754,0.3888063430786133
1700936651129421600,20.851421630859374,0.7765451669692993,-3.460766315460205,1.4642143249511719
1700936651146412500,20.86841259765625,1.0808906555175781,-5.292372703552246,4.029604911804199
1700936651163412000,20.885411865234374,0.031903207302093506,-7.702964782714844,7.02520751953125
1700936651180393200,20.902393310546874,-0.2688954472541809,-8.898359298706055,8.87969970703125
1700936651197397500,20.9193974609375,2.238922595977783,-7.641721248626709,9.988654136657715
1700936651214391000,20.93639111328125,5.625050067901611,-4.618258953094482,11.631550788879395
1700936651231385000,20.953385009765626,7.265559196472168,-2.319284439086914,13.689306259155273
1700936651248379400,20.97037939453125,5.606926441192627,-0.6554932594299316,13.289501190185547
1700936651265371100,20.98737109375,1.605811357498169,0.32141876220703125,9.281896591186523
1700936651282369300,21.004369384765624,-2.827857494354248,0.8014316558837891,4.197263717651367
1700936651299361300,21.021361328125,-5.304924011230469,1.3428587913513184,0.3699064254760742
1700936651316357000,21.038357177734376,-4.951895713806152,2.358062267303467,-1.5879440307617188
1700936651333347600,21.05534765625,-3.3576650619506836,2.792311429977417,-2.0696139335632324
1700936651350343400,21.072343505859376,-1.844601035118103,3.1889994144439697,-2.497584342956543
1700936651367337500,21.08933740234375,-1.083526849746704,3.3942694664001465,-3.141115665435791
1700936651384331300,21.106331298828124,-1.2701027393341064,3.4042961597442627,-3.6935172080993652
1700936651401325300,21.1233251953125,-1.759427785873413,3.300529718399048,-4.160852432250977
1700936651418319600,21.140319580078124,-2.6020243167877197,2.9989848136901855,-4.696585655212402
1700936651435310600,21.157310546875,-2.6731371879577637,2.8735125064849854,-4.665920734405518
1700936651452310000,21.17431005859375,-2.1511306762695312,2.391897678375244,-3.89262056350708
1700936651469301500,21.191301513671874,-1.5341598987579346,1.6840856075286865,-3.108366012573242
1700936651486295600,21.208295654296876,-1.0892536640167236,0.755831241607666,-2.425076484680176
1700936651503289000,21.2252890625,-1.0580699443817139,-0.6321244239807129,-1.9037513732910156
1700936651520283400,21.242283447265624,-0.7569027543067932,-1.4408369064331055,-1.0635476112365723
1700936651537275100,21.259275146484374,-1.0168818235397339,-1.7195086479187012,0.41799068450927734
1700936651554273500,21.2762734375,-2.240175485610962,-2.001253604888916,1.8261489868164062
1700936651571265300,21.293265380859374,-3.327439785003662,-2.9923596382141113,2.5661773681640625
1700936651588259300,21.31025927734375,-3.782496929168701,-4.817638874053955,2.7798643112182617
1700936651605253400,21.32725341796875,-3.3671135902404785,-6.444676399230957,3.1316604614257812
1700936651622247200,21.3442470703125,-2.1584672927856445,-6.3275933265686035,4.0142364501953125
1700936651639241500,21.361241455078126,-1.0513794422149658,-5.003024578094482,5.454943656921387
1700936651656231400,21.3782314453125,-0.688957929611206,-3.7382216453552246,6.976352691650391
1700936651673240600,21.395240478515625,-1.4681503772735596,-3.103431224822998,7.198264122009277
1700936651690223400,21.412223388671876,-2.9989068508148193,-3.3967981338500977,5.707033157348633
1700936651707217400,21.429217529296874,-4.402264595031738,-3.7611069679260254,2.8544063568115234
1700936651724211200,21.446211181640624,-4.410959243774414,-4.021398544311523,0.1380481719970703
1700936651741205500,21.46320556640625,-2.890284538269043,-4.211276531219482,-1.1809864044189453
1700936651758199300,21.48019921875,-0.6951872110366821,-4.494325637817383,-1.5516529083251953
1700936651775193300,21.497193359375,1.5956746339797974,-4.517671585083008,-1.7709264755249023
1700936651792187600,21.514187744140624,3.2811636924743652,-4.394740104675293,-1.9935173988342285
1700936651809179000,21.531178955078126,4.207534313201904,-4.003058910369873,-2.60213565826416
1700936651826178000,21.548177978515625,4.232570648193359,-3.7920584678649902,-3.3986077308654785
1700936651843169000,21.5651689453125,3.5512008666992188,-3.7459092140197754,-4.342485427856445
1700936651860160800,21.582160888671876,3.192081928253174,-3.490861177444458,-5.241237640380859
1700936651877160000,21.599159912109375,2.83711314201355,-3.2189865112304688,-5.876943588256836
1700936651894151200,21.616151123046876,2.283395528793335,-3.005488157272339,-6.49722957611084
1700936651911134700,21.633134765625,2.0066566467285156,-2.841295003890991,-6.815221786499023
