time,seconds_elapsed,z,y,x
1700944546489532000,0.112531982421875,-0.11082744598388672,-0.15750813484191895,0.013216853141784668
1700944546506519600,0.12951953125,0.07109546661376953,-0.2973673343658447,-0.2273494005203247
1700944546523518000,0.14651806640625,-0.03643989562988281,-0.605064868927002,-0.2975194454193115
1700944546540508400,0.16350830078125,-0.10649299621582031,-0.6042323112487793,-0.5669190883636475
1700944546557503500,0.18050341796875,-0.45244693756103516,-0.5535802841186523,-0.5273497104644775
1700944546574495000,0.197494873046875,-1.142655372619629,-0.9191415309906006,-0.8891375064849854
1700944546591485700,0.214485595703125,-1.6015844345092773,-1.950059175491333,-0.30887603759765625
1700944546608482000,0.23148193359375,-1.082688808441162,-0.015884876251220703,-0.7247732877731323
1700944546625472000,0.248471923828125,-0.8682880401611328,-1.4647324085235596,-0.1858065128326416
1700944546642456600,0.26545654296875,-0.5025596618652344,-1.579695463180542,-0.8975093364715576
1700944546659453700,0.28245361328125,-0.26934194564819336,-2.1042847633361816,-2.1004390716552734
1700944546676450000,0.299449951171875,-1.019618034362793,-2.639962673187256,-2.932748317718506
1700944546693446700,0.31644677734375,-2.9246063232421875,-2.746610641479492,-3.000999689102173
1700944546710446800,0.33344677734375,-4.881135940551758,-2.7464025020599365,-2.57301926612854
1700944546727433700,0.350433837890625,-5.251969337463379,-2.661228656768799,-1.7845773696899414
1700944546744423200,0.367423095703125,-3.429955005645752,-2.6942667961120605,-1.7619991302490234
1700944546761417700,0.384417724609375,-1.4346668720245361,-3.142063856124878,-1.8380122184753418
1700944546778412500,0.40141259765625,0.17067766189575195,-3.642509937286377,-2.466296672821045
1700944546795401500,0.4184013671875,0.36654186248779297,-4.087460517883301,-3.1298699378967285
1700944546812386000,0.435385986328125,-0.8146640062332153,-4.173830032348633,-2.933073043823242
1700944546829391600,0.4523916015625,-2.355684280395508,-4.068926811218262,-1.9351630210876465
1700944546846380300,0.46938037109375,-2.7922892570495605,-3.7016308307647705,-1.3577666282653809
1700944546863377000,0.486376953125,-1.6460946798324585,-3.506394386291504,-1.2732667922973633
1700944546880368600,0.50336865234375,-0.001950085163116455,-3.4453556537628174,-0.6665773391723633
1700944546897363700,0.52036376953125,1.476040005683899,-3.3787505626678467,0.26159191131591797
1700944546914352400,0.537352294921875,1.8242379426956177,-3.3373992443084717,0.8258028030395508
1700944546931346200,0.55434619140625,1.144810438156128,-2.926071882247925,0.9978723526000977
1700944546948344000,0.571343994140625,0.1937965452671051,-2.7277066707611084,1.3392810821533203
1700944546965329000,0.588328857421875,-0.7724932432174683,-3.006664276123047,2.326247215270996
1700944546982329900,0.605329833984375,-0.5253143310546875,-3.027230739593506,4.429616928100586
1700944546999324700,0.62232470703125,-0.06615933775901794,-2.7615456581115723,5.144292831420898
1700944547016304600,0.6393046875,0.10119272768497467,-2.311772108078003,4.676173210144043
1700944547033308700,0.65630859375,0.5053786039352417,-1.8444859981536865,4.284302711486816
1700944547050297000,0.673297119140625,1.1358773708343506,-1.5165832042694092,4.827302932739258
1700944547067320600,0.690320556640625,2.2136311531066895,-1.1306047439575195,5.9318389892578125
1700944547084291600,0.70729150390625,2.8493056297302246,-0.6934115886688232,6.885825157165527
1700944547101277200,0.724277099609375,3.040548324584961,-0.2731752395629883,7.409341812133789
1700944547118276900,0.74127685546875,2.748528480529785,0.581820011138916,6.849387168884277
1700944547135269600,0.75826953125,2.038311243057251,1.3684067726135254,6.198448181152344
1700944547152254200,0.775254150390625,1.3659518957138062,1.8621876239776611,6.008201599121094
1700944547169248800,0.792248779296875,0.9124765992164612,2.3100264072418213,5.9106550216674805
1700944547186234400,0.809234375,0.23115214705467224,2.628293037414551,5.593992710113525
1700944547203235000,0.826235107421875,-0.38934028148651123,2.928663730621338,5.213768482208252
1700944547220231200,0.843231201171875,-0.8445923328399658,3.1649527549743652,4.606901168823242
1700944547237221000,0.86022119140625,-1.2138252258300781,3.460947275161743,3.801443576812744
1700944547254216200,0.87721630859375,-1.3705589771270752,3.951388359069824,3.3331856727600098
1700944547271208000,0.8942080078125,-1.6342825889587402,4.356823921203613,3.0236244201660156
1700944547288202500,0.911202392578125,-1.562680721282959,4.813468933105469,2.1681294441223145
1700944547305191400,0.92819140625,-1.514512538909912,4.938631057739258,1.3767657279968262
1700944547322196500,0.945196533203125,-1.5409317016601562,5.1373372077941895,0.7506895065307617
1700944547339179300,0.96217919921875,-1.9585862159729004,5.259212017059326,0.001255035400390625
1700944547356174000,0.979174072265625,-2.249929189682007,5.253497123718262,-0.6488347053527832
1700944547373165300,0.996165283203125,-1.8078707456588745,5.317002773284912,-1.208608627319336
1700944547390156800,1.01315673828125,-1.156233787536621,5.261771202087402,-1.6678133010864258
1700944547407143000,1.030142822265625,-0.662060022354126,5.1455278396606445,-1.898815631866455
1700944547424148000,1.04714794921875,-0.30769115686416626,5.022524833679199,-2.138720989227295
1700944547441139500,1.064139404296875,-0.22951602935791016,4.7000627517700195,-2.5313897132873535
1700944547458130700,1.081130615234375,-0.3394709527492523,4.0226216316223145,-2.8551135063171387
1700944547475121700,1.09812158203125,-0.38323402404785156,3.222198486328125,-2.877767562866211
1700944547492116500,1.115116455078125,-0.33289778232574463,2.5478439331054688,-2.6086254119873047
1700944547509111600,1.132111572265625,0.1906396448612213,2.3372573852539062,-1.5917315483093262
1700944547526096600,1.1490966796875,0.0777268037199974,2.227735996246338,-1.0917730331420898
1700944547543097300,1.166097412109375,-0.6136571168899536,1.9991954565048218,-1.066838264465332
1700944547560088600,1.183088623046875,-1.0795952081680298,2.0718467235565186,-0.5506124496459961
1700944547577080000,1.200080078125,-0.7483803629875183,1.095973253250122,-2.1612377166748047
1700944547594075600,1.21707568359375,-0.7281516194343567,1.1906036138534546,0.1287555694580078
1700944547611057700,1.2340576171875,0.08443224430084229,-0.31641268730163574,2.306570053100586
1700944547628062500,1.2510625,0.2887204885482788,-1.1246325969696045,3.430853843688965
1700944547645051600,1.2680517578125,0.8013675212860107,-1.551681399345398,4.68813419342041
1700944547662046700,1.285046630859375,1.0466399192810059,-3.3786184787750244,8.068077087402344
1700944547679034400,1.302034423828125,0.6999256014823914,-5.9309892654418945,11.27993392944336
1700944547696032500,1.319032470703125,1.5957452058792114,-5.165902137756348,11.771805763244629
1700944547713023700,1.336023681640625,2.8261449337005615,-3.889786958694458,12.249866485595703
1700944547730020000,1.35302001953125,2.3965930938720703,-3.406787872314453,12.536492347717285
1700944547747009500,1.370009521484375,1.3507167100906372,-3.705519914627075,12.399434089660645
1700944547764005400,1.38700537109375,0.7118916511535645,-4.292163372039795,10.342288970947266
1700944547780998400,1.403998291015625,0.6251223087310791,-4.788238525390625,6.797830581665039
1700944547797989000,1.420989013671875,1.0409071445465088,-4.745593070983887,2.467479705810547
1700944547814989300,1.4379892578125,1.4985418319702148,-4.254678249359131,-1.5008783340454102
1700944547831977700,1.454977783203125,1.587690830230713,-3.7549920082092285,-4.4340739250183105
1700944547848971300,1.47197119140625,1.6339871883392334,-3.5637283325195312,-6.069650650024414
1700944547865960700,1.488960693359375,1.6449933052062988,-3.281071186065674,-6.96503210067749
1700944547882956000,1.5059560546875,1.4811735153198242,-3.0090675354003906,-7.259033203125
1700944547899950000,1.5229501953125,1.2384305000305176,-2.7251601219177246,-7.651174068450928
1700944547916932600,1.5399326171875,0.7571728825569153,-2.551334857940674,-8.410210609436035
1700944547933937000,1.55693701171875,0.15594357252120972,-2.5038182735443115,-9.22575569152832
1700944547950926800,1.5739267578125,-0.44158458709716797,-2.610846757888794,-9.8178071975708
1700944547967922400,1.59092236328125,-1.0047298669815063,-2.9083194732666016,-9.847118377685547
1700944547984911600,1.60791162109375,-1.369333028793335,-3.10672664642334,-9.698894500732422
1700944548001896700,1.624896728515625,-1.823211669921875,-3.374098300933838,-9.496125221252441
1700944548018902000,1.641902099609375,-1.9577089548110962,-3.6018686294555664,-9.153331756591797
1700944548035890200,1.65889013671875,-1.9114680290222168,-3.9487929344177246,-8.620691299438477
1700944548052875500,1.67587548828125,-1.550116777420044,-4.126202583312988,-8.080867767333984
1700944548069880600,1.692880615234375,-1.0396720170974731,-4.606278419494629,-7.061151504516602
1700944548086869800,1.709869873046875,0.2553938031196594,-5.474266052246094,-4.9956865310668945
1700944548103865600,1.726865478515625,0.8093723058700562,-5.814430236816406,-3.868410587310791
1700944548120858000,1.743858154296875,1.6180744171142578,-6.333606243133545,-1.9723892211914062
1700944548137852400,1.760852294921875,2.5877206325531006,-7.271571159362793,1.634298324584961
1700944548154841900,1.777841796875,2.1726932525634766,-8.093114852905273,3.0988407135009766
1700944548171836700,1.794836669921875,-0.5515892505645752,-8.662814140319824,4.169693946838379
1700944548188831700,1.811831787109375,-3.7293879985809326,-8.694694519042969,9.575576782226562
1700944548205811000,1.82881103515625,-3.0768349170684814,-9.169212341308594,17.569093704223633
1700944548222818800,1.84581884765625,1.529543399810791,-6.97292423248291,20.3909912109375
1700944548239810300,1.862810302734375,3.6856887340545654,-3.3194143772125244,17.41036605834961
1700944548256799700,1.8797998046875,1.2707109451293945,-0.4297831058502197,11.069086074829102
1700944548273795800,1.8967958984375,-2.806206226348877,1.4457955360412598,5.481513977050781
1700944548290788400,1.913788330078125,-4.6496453285217285,2.7128615379333496,2.8881969451904297
1700944548307782400,1.930782470703125,-3.8833611011505127,3.382380485534668,2.4148807525634766
1700944548324771600,1.947771484375,-2.093634843826294,3.805413246154785,4.240414619445801
1700944548341767000,1.964766845703125,0.023618396371603012,5.260549545288086,4.586958408355713
1700944548358764300,1.981764404296875,0.3568463921546936,6.422613620758057,2.932000160217285
1700944548375748400,1.998748291015625,-0.6230347156524658,6.917684555053711,0.8808450698852539
1700944548392746200,2.015746337890625,-1.9305589199066162,7.2707719802856445,-0.3392000198364258
1700944548409730300,2.032730224609375,-2.210547924041748,7.7137932777404785,-0.8443756103515625
1700944548426722800,2.049722900390625,-2.154376745223999,7.871128559112549,-0.904749870300293
1700944548443723300,2.06672314453125,-1.7778630256652832,7.8387017250061035,-0.5549507141113281
1700944548460720400,2.083720458984375,-0.8504347801208496,7.872854709625244,0.36875057220458984
1700944548477704000,2.100703857421875,-0.573102593421936,7.692982196807861,0.4998908042907715
1700944548494701800,2.117701904296875,-1.101474642753601,7.43984317779541,-0.041448116302490234
1700944548511697000,2.13469677734375,-1.2812652587890625,7.228879928588867,-0.07826471328735352
1700944548528691700,2.151691650390625,-1.0017989873886108,7.0110602378845215,0.8946328163146973
1700944548545681000,2.168680908203125,-0.4318477213382721,5.749560832977295,3.8283491134643555
1700944548562676200,2.18567626953125,0.334905743598938,4.656647682189941,6.02632474899292
1700944548579663600,2.20266357421875,0.7048958539962769,3.120117664337158,7.90254545211792
1700944548596662800,2.219662841796875,1.0316619873046875,-0.45153379440307617,11.00954818725586
1700944548613658400,2.236658447265625,2.796649932861328,-2.7456774711608887,14.575183868408203
1700944548630648600,2.253648681640625,3.957991123199463,-2.2943572998046875,17.07620620727539
1700944548647642600,2.270642578125,3.702633857727051,-2.1568822860717773,19.650028228759766
1700944548664630300,2.28763037109375,1.8575888872146606,-1.1689715385437012,18.430953979492188
1700944548681627100,2.304627197265625,0.1559758484363556,-3.6466832160949707,16.444976806640625
1700944548698622000,2.3216220703125,0.7340975999832153,-6.66925048828125,14.35661792755127
1700944548715610600,2.338610595703125,2.506042242050171,-8.52879524230957,11.729384422302246
1700944548732606200,2.355606201171875,3.2942261695861816,-9.084467887878418,7.887081146240234
1700944548749600800,2.372600830078125,4.474713325500488,-8.801593780517578,2.6746206283569336
1700944548766590000,2.38958984375,6.049771785736084,-7.646535396575928,-1.9836926460266113
1700944548783586000,2.4065859375,5.63856840133667,-7.052341461181641,-4.5076985359191895
1700944548800581600,2.42358154296875,3.956118106842041,-6.980821132659912,-5.362350940704346
1700944548817583400,2.440583251953125,2.1657497882843018,-6.996508598327637,-5.7608466148376465
1700944548834571300,2.4575712890625,1.1116232872009277,-6.912959575653076,-5.763083457946777
1700944548851543800,2.474543701171875,0.6441668272018433,-7.152376174926758,-5.80335807800293
1700944548868551700,2.4915517578125,0.7644869685173035,-7.613414764404297,-6.285138130187988
1700944548885544700,2.508544677734375,1.7731330394744873,-7.786515712738037,-7.143073081970215
1700944548902540800,2.525540771484375,2.1644039154052734,-7.900466442108154,-7.6784586906433105
1700944548919531500,2.542531494140625,1.754328966140747,-8.393508911132812,-7.345607757568359
1700944548936520000,2.55952001953125,1.5244903564453125,-8.805028915405273,-7.070577621459961
1700944548953516000,2.57651611328125,2.0107271671295166,-8.966695785522461,-7.091402053833008
1700944548970508500,2.593508544921875,1.9447903633117676,-9.311187744140625,-6.818268775939941
1700944548987502800,2.6105029296875,1.0061904191970825,-9.627857208251953,-6.804665565490723
1700944549004491800,2.62749169921875,-0.3046882152557373,-9.35030460357666,-7.648107528686523
1700944549021482800,2.644482666015625,-1.4134547710418701,-8.963233947753906,-8.61763858795166
1700944549038482000,2.66148193359375,-1.4594109058380127,-9.275211334228516,-8.406817436218262
1700944549055470800,2.678470947265625,-0.3650696277618408,-8.898589134216309,-7.424215316772461
1700944549072466400,2.695466552734375,-0.012849569320678711,-9.102363586425781,-3.728346824645996
1700944549089461200,2.712461181640625,0.22275829315185547,-10.193395614624023,1.828019142150879
1700944549106447600,2.729447509765625,1.365012764930725,-10.533736228942871,7.099091529846191
1700944549123448600,2.746448486328125,2.5228140354156494,-9.398368835449219,8.345439910888672
1700944549140438500,2.7634384765625,2.3123044967651367,-8.734776496887207,7.012113571166992
1700944549157433000,2.78043310546875,1.3289520740509033,-8.521162986755371,5.544593811035156
1700944549174423300,2.79742333984375,0.308715283870697,-8.2083101272583,6.002663612365723
1700944549191417900,2.81441796875,0.1032213568687439,-6.97152042388916,8.281474113464355
1700944549208408600,2.83140869140625,-0.06640505790710449,-4.676870346069336,10.422504425048828
1700944549225399000,2.84839892578125,-0.4264962673187256,-1.2157049179077148,9.929769515991211
1700944549242395000,2.865394775390625,-0.8187949061393738,1.620610237121582,7.548789978027344
1700944549259392300,2.882392333984375,-0.39562082290649414,3.420259714126587,5.220973968505859
1700944549276380000,2.8993798828125,0.3527059257030487,4.172688007354736,4.142441749572754
1700944549293376300,2.916376220703125,1.4725396633148193,5.1364922523498535,3.1101040840148926
1700944549310358300,2.933358154296875,2.4841461181640625,5.817719459533691,2.445155620574951
1700944549327362800,2.95036279296875,2.902407646179199,6.015405654907227,2.2335457801818848
1700944549344352300,2.967352294921875,2.5649924278259277,6.1761155128479,0.812279224395752
1700944549361345500,2.984345458984375,1.6405051946640015,6.024715423583984,-0.626305103302002
1700944549378342400,3.00134228515625,0.876757025718689,5.590976238250732,-0.9834251403808594
1700944549395330800,3.018330810546875,1.0983458757400513,5.7447733879089355,-1.1173319816589355
1700944549412326700,3.03532666015625,1.1414026021957397,5.791790962219238,-0.1202540397644043
1700944549429324500,3.052324462890625,0.9877421855926514,5.413337230682373,2.125181198120117
1700944549446304500,3.069304443359375,0.49769914150238037,4.0433759689331055,4.34636926651001
1700944549463307800,3.086307861328125,-0.2315332442522049,2.724611759185791,6.090119361877441
1700944549480299500,3.103299560546875,-0.49944430589675903,2.3697285652160645,7.539715766906738
1700944549497322800,3.12032275390625,-0.32885968685150146,-0.6792984008789062,12.529397010803223
1700944549514283000,3.137282958984375,0.2612265944480896,-2.0240578651428223,16.071697235107422
1700944549531280000,3.15427978515625,1.571311354637146,-0.7305169105529785,17.007770538330078
1700944549548271600,3.171271728515625,1.6223249435424805,0.5393285751342773,16.989295959472656
1700944549565264600,3.1882646484375,1.8411771059036255,0.5825991630554199,16.39202308654785
1700944549582257700,3.205257568359375,2.5472028255462646,-1.440537929534912,15.95244026184082
1700944549599250400,3.22225048828125,3.001877784729004,-3.53165864944458,14.372095108032227
1700944549616241000,3.239240966796875,2.7887778282165527,-4.6407856941223145,11.213715553283691
1700944549633227300,3.256227294921875,2.1141531467437744,-4.66782283782959,7.45877742767334
1700944549650222800,3.273222900390625,1.3648864030838013,-4.226565361022949,3.8091440200805664
1700944549667222000,3.290221923828125,0.8348199129104614,-3.90480899810791,1.1602449417114258
1700944549684215600,3.307215576171875,0.473872572183609,-3.9172940254211426,-0.6896734237670898
1700944549701208600,3.32420849609375,0.029798835515975952,-3.9107675552368164,-2.3732223510742188
1700944549718201900,3.341201904296875,-0.12208661437034607,-3.9237351417541504,-3.7230262756347656
1700944549735194400,3.3581943359375,-0.156886488199234,-4.460450649261475,-4.268034934997559
1700944549752187600,3.375187744140625,-0.07806840538978577,-4.9226837158203125,-4.4019575119018555
1700944549769180400,3.392180419921875,0.6443741321563721,-5.4079484939575195,-3.4326534271240234
1700944549786174000,3.409174072265625,0.822527289390564,-6.003146171569824,-3.9084367752075195
1700944549803166200,3.426166259765625,-0.17879045009613037,-6.727190971374512,-5.398521423339844
1700944549820159500,3.443159423828125,-1.0213124752044678,-7.155566215515137,-7.029821395874023
1700944549837142000,3.46014208984375,-1.0748391151428223,-7.543938636779785,-7.954449653625488
1700944549854143700,3.477143798828125,-0.5616090297698975,-7.8685808181762695,-8.040145874023438
1700944549871140600,3.494140625,0.2655695676803589,-8.316314697265625,-7.3642897605896
1700944549888131600,3.511131591796875,1.4752317667007446,-8.673955917358398,-6.529573440551758
1700944549905124600,3.52812451171875,2.522624969482422,-8.325265884399414,-6.589520454406738
1700944549922113000,3.545113037109375,2.8570799827575684,-8.040889739990234,-6.717517375946045
1700944549939110400,3.5621103515625,2.893563747406006,-7.8834662437438965,-6.811734199523926
1700944549956101000,3.57910107421875,2.596522569656372,-7.685879707336426,-6.914727210998535
1700944549973099500,3.596099609375,1.7648744583129883,-7.404613971710205,-6.1115264892578125
1700944549990087400,3.61308740234375,0.9818897843360901,-7.139261245727539,-4.291618824005127
1700944550007087400,3.63008740234375,0.13529789447784424,-6.833806037902832,-1.657701015472412
1700944550024073200,3.6470732421875,-0.9149224758148193,-6.3049468994140625,-0.6806273460388184
1700944550041066200,3.664066162109375,-1.266263484954834,-7.4836249351501465,0.8419189453125
1700944550058048300,3.68104833984375,0.23161602020263672,-7.992748260498047,2.6680259704589844
1700944550075054600,3.6980546875,2.398488759994507,-7.97774600982666,5.8986921310424805
1700944550092047600,3.715047607421875,3.04948091506958,-8.282554626464844,9.617868423461914
1700944550109030100,3.732030029296875,3.04372501373291,-7.565081596374512,10.39779281616211
1700944550126033200,3.749033203125,1.6625782251358032,-6.439064979553223,8.459269523620605
1700944550143027200,3.766027099609375,-0.6074084043502808,-5.162445068359375,5.828061103820801
1700944550160020000,3.78302001953125,-2.7807631492614746,-3.563077688217163,3.9404563903808594
1700944550177013000,3.800012939453125,-3.9225118160247803,-2.075601577758789,4.37938117980957
1700944550194006000,3.817006103515625,-4.103133201599121,-0.3507418632507324,6.156984329223633
1700944550210996000,3.833995849609375,-3.5511629581451416,1.7371513843536377,6.305675506591797
1700944550227994600,3.85099462890625,-2.490459442138672,3.759498119354248,5.088541030883789
1700944550244974600,3.867974609375,-1.2297093868255615,5.274606704711914,2.854694366455078
1700944550261978400,3.884978271484375,-0.07397758960723877,5.962396144866943,1.1409354209899902
1700944550278970600,3.901970703125,0.5835816264152527,5.847980976104736,1.9334602355957031
1700944550295953200,3.918953125,1.1731665134429932,6.2965006828308105,2.5985240936279297
1700944550312953300,3.935953369140625,1.2371561527252197,6.879314422607422,2.2718148231506348
1700944550329953800,3.952953857421875,0.24490836262702942,6.91232967376709,1.5492496490478516
1700944550346939400,3.969939453125,-0.6095931529998779,6.891396522521973,1.0739755630493164
1700944550363939300,3.986939208984375,-1.2112021446228027,6.608699798583984,1.5453853607177734
1700944550380918500,4.00391845703125,-1.6268492937088013,6.5418314933776855,3.1822643280029297
1700944550397922000,4.020922119140625,-2.385261058807373,6.633646488189697,4.460040092468262
1700944550414914800,4.037914794921875,-3.426485061645508,6.316197395324707,4.9466071128845215
1700944550431908000,4.054908203125,-4.332376003265381,5.078556060791016,5.2840776443481445
1700944550448901000,4.071901123046875,-4.017757892608643,4.608799934387207,5.205646991729736
1700944550465894100,4.08889404296875,-2.6633384227752686,2.8419179916381836,7.9231486320495605
1700944550482883600,4.105883544921875,-0.7150862216949463,-1.2570371627807617,13.262248992919922
1700944550499880000,4.1228798828125,0.8128114938735962,-3.811903476715088,17.14346694946289
1700944550516873000,4.139873046875,1.1651231050491333,-1.9924883842468262,16.261632919311523
1700944550533855200,4.156855224609375,1.550244927406311,0.43419361114501953,14.012054443359375
1700944550550857500,4.173857421875,2.893829345703125,0.8527688980102539,12.735950469970703
1700944550567853300,4.190853271484375,4.337809085845947,-1.9078373908996582,12.620073318481445
1700944550584845300,4.20784521484375,4.542136192321777,-4.595975399017334,11.739134788513184
1700944550601838300,4.22483837890625,3.886165142059326,-6.073217868804932,9.433642387390137
1700944550618830800,4.241830810546875,2.9617667198181152,-5.956404685974121,5.946022987365723
1700944550635824400,4.258824462890625,2.0857880115509033,-5.096302032470703,2.6277847290039062
1700944550652817200,4.275817138671875,1.2120620012283325,-4.325777053833008,0.1416797637939453
1700944550669810200,4.29281005859375,0.4399319291114807,-3.8501713275909424,-1.505040168762207
1700944550686803000,4.309802978515625,-0.22519457340240479,-3.7045950889587402,-2.837552547454834
1700944550703796000,4.3267958984375,-0.5378316640853882,-3.558509349822998,-4.158435821533203
1700944550720774000,4.34377392578125,-0.35338282585144043,-3.7264950275421143,-4.79975700378418
1700944550737780200,4.3607802734375,0.16189813613891602,-4.008419513702393,-5.134646892547607
1700944550754777000,4.377777099609375,0.7425971031188965,-4.240512847900391,-5.671173572540283
1700944550771768000,4.39476806640625,1.2891134023666382,-4.929508686065674,-5.9108781814575195
1700944550788761000,4.411760986328125,2.0753886699676514,-5.868978023529053,-6.284482002258301
1700944550805742600,4.42874267578125,3.9697933197021484,-6.614681243896484,-6.8963942527771
1700944550822749700,4.445749755859375,5.300065994262695,-6.945374011993408,-7.442131996154785
1700944550839740400,4.462740478515625,4.621239185333252,-7.546076774597168,-7.2610979080200195
1700944550856733400,4.4797333984375,3.421286106109619,-7.918943881988525,-6.930848598480225
1700944550873726500,4.4967265625,2.9144253730773926,-8.52199649810791,-6.4506988525390625
1700944550890719000,4.513718994140625,3.080615520477295,-9.010480880737305,-6.398549556732178
1700944550907712300,4.530712158203125,3.7591915130615234,-9.039108276367188,-6.510913372039795
1700944550924705000,4.547705078125,4.170516490936279,-9.279569625854492,-5.890281677246094
1700944550941711600,4.564711669921875,3.254798650741577,-10.031633377075195,-5.544071197509766
1700944550958691000,4.581691162109375,0.9879558086395264,-10.450743675231934,-6.059267044067383
1700944550975684400,4.598684326171875,-1.7112843990325928,-9.75846004486084,-6.425345420837402
1700944550992666600,4.61566650390625,-3.3354313373565674,-9.025726318359375,-3.8860387802124023
1700944551009670000,4.632669921875,-2.0217747688293457,-8.944258689880371,2.078423500061035
1700944551026653700,4.64965380859375,1.0251333713531494,-9.433332443237305,9.828904151916504
1700944551043656400,4.666656494140625,3.2414603233337402,-8.898207664489746,13.858541488647461
1700944551060649200,4.683649169921875,3.0160751342773438,-7.370415210723877,11.995345115661621
1700944551077642500,4.700642578125,1.546513557434082,-6.376260757446289,9.40767765045166
1700944551094635300,4.71763525390625,-0.5869491100311279,-5.148223400115967,9.675591468811035
1700944551111628500,4.734628662109375,-2.7561118602752686,-2.6226937770843506,10.919290542602539
1700944551128621300,4.751621337890625,-4.128879547119141,0.6382730007171631,10.551440238952637
1700944551145612500,4.768612548828125,-4.170036315917969,3.070350408554077,8.597331047058105
1700944551162609400,4.785609375,-2.9213242530822754,4.8494062423706055,5.897126197814941
1700944551179610400,4.8026103515625,-1.9633593559265137,6.018202304840088,3.483332633972168
1700944551196580400,4.819580322265625,-1.142035722732544,6.461334705352783,2.233022689819336
1700944551213589500,4.836589599609375,0.22448599338531494,6.3351359367370605,2.9247889518737793
1700944551230568700,4.853568603515625,2.398250102996826,6.24200963973999,4.466767311096191
1700944551247576000,4.870576171875,4.068761825561523,6.8016204833984375,3.0764899253845215
1700944551264568300,4.887568359375,3.454318046569824,7.1169633865356445,0.9118428230285645
1700944551281559000,4.90455908203125,2.2025413513183594,7.197553634643555,-0.6139955520629883
1700944551298554000,4.92155419921875,1.2974631786346436,7.205478191375732,-0.9208674430847168
1700944551315542000,4.9385419921875,1.0300472974777222,6.7416768074035645,0.7267417907714844
1700944551332537600,4.95553759765625,1.6842782497406006,6.512486457824707,3.321857452392578
1700944551349532400,4.972532470703125,1.7053873538970947,6.651558876037598,3.4753670692443848
1700944551366511000,4.989510986328125,0.5891165733337402,5.798110008239746,3.38472318649292
1700944551383516700,5.0065166015625,0.0750436782836914,5.172055244445801,3.374729633331299
1700944551400509700,5.023509765625,0.46407294273376465,4.737496852874756,4.401224136352539
1700944551417492700,5.04049267578125,1.738124132156372,3.3041441440582275,7.561142444610596
1700944551434495500,5.05749560546875,3.03316593170166,0.37913990020751953,11.41038703918457
1700944551451488800,5.07448876953125,3.4979429244995117,-1.9216675758361816,14.200765609741211
1700944551468481800,5.091481689453125,3.2494680881500244,-1.5847792625427246,14.568136215209961
1700944551485475000,5.10847509765625,2.9788284301757812,-0.7725639343261719,14.437435150146484
1700944551502467300,5.12546728515625,2.458500862121582,0.000156402587890625,13.152824401855469
1700944551519451100,5.142451171875,2.9727563858032227,-0.7900638580322266,11.839991569519043
1700944551536452900,5.159452880859375,3.4262595176696777,-1.9449596405029297,10.030362129211426
1700944551553447000,5.176447021484375,3.3138718605041504,-3.0420684814453125,7.887180328369141
1700944551570439000,5.19343896484375,2.7270119190216064,-3.4556949138641357,5.210968017578125
1700944551587419100,5.210419189453125,1.7067182064056396,-3.4866318702697754,2.739800453186035
1700944551604437200,5.227437255859375,0.6246500611305237,-3.418921709060669,0.6260557174682617
1700944551621418500,5.24441845703125,-0.4210578203201294,-3.3199877738952637,-1.1677579879760742
1700944551638412000,5.261412109375,-0.880125880241394,-3.2249021530151367,-2.699687957763672
1700944551655405000,5.278405029296875,-1.0231844186782837,-3.3332884311676025,-3.9740185737609863
1700944551672398000,5.295398193359375,-1.0234827995300293,-3.709428310394287,-4.7594895362854
1700944551689381000,5.312381103515625,-0.6623538732528687,-4.077687740325928,-5.249105453491211
1700944551706381800,5.3293818359375,-0.35446619987487793,-4.584654808044434,-5.426107406616211
1700944551723378700,5.346378662109375,-0.10998281836509705,-5.168732643127441,-5.528831481933594
1700944551740370000,5.363369873046875,-0.16595357656478882,-5.746443748474121,-5.8780717849731445
1700944551757363200,5.38036328125,-0.4001206159591675,-6.040853500366211,-6.588220596313477
1700944551774355500,5.39735546875,-0.6953015327453613,-6.206851005554199,-7.311568737030029
1700944551791349000,5.414348876953125,-0.7613682746887207,-6.336690902709961,-7.748800277709961
1700944551808342000,5.431342041015625,-0.2699558734893799,-6.576568603515625,-7.735440254211426
1700944551825335000,5.4483349609375,0.4013936519622803,-6.997694492340088,-7.334444046020508
1700944551842313700,5.465313720703125,0.8447064757347107,-7.935497283935547,-6.600909233093262
1700944551859321000,5.482321044921875,1.0567971467971802,-8.280792236328125,-6.603856563568115
1700944551876314000,5.499314208984375,1.0669748783111572,-7.957001209259033,-7.24452543258667
1700944551893307100,5.51630712890625,0.36238813400268555,-7.73914909362793,-7.248838424682617
1700944551910289200,5.5332890625,-0.9735662937164307,-7.0285258293151855,-6.591525077819824
1700944551927293000,5.55029296875,-2.436772346496582,-7.053271770477295,-4.400487422943115
1700944551944286000,5.567285888671875,-1.742509126663208,-7.489743232727051,-0.6249713897705078
1700944551961279200,5.584279296875,0.8765338659286499,-7.861823081970215,4.382113456726074
1700944551978271700,5.601271728515625,2.137272834777832,-7.383429527282715,7.8380584716796875
1700944551995265300,5.618265380859375,1.9354721307754517,-6.439983367919922,8.753174781799316
1700944552012255700,5.635255859375,1.4035577774047852,-6.1638007164001465,9.685755729675293
1700944552029254000,5.65225390625,0.05924302339553833,-5.614151954650879,9.751001358032227
1700944552046253800,5.66925390625,-1.0382847785949707,-4.420896530151367,9.799201965332031
1700944552063237400,5.6862373046875,-1.5757066011428833,-2.2447316646575928,8.976184844970703
1700944552080230100,5.703230224609375,-1.6309916973114014,0.18343257904052734,6.800752639770508
1700944552097213000,5.720212890625,-1.0377017259597778,1.7830870151519775,4.432744026184082
1700944552114216000,5.7372158203125,0.22140845656394958,2.5298662185668945,3.4332046508789062
1700944552131209200,5.754209228515625,1.549242615699768,2.880666494369507,2.7011728286743164
1700944552148202200,5.7712021484375,2.1213629245758057,3.056828022003174,2.1379613876342773
1700944552165195500,5.788195556640625,2.8756659030914307,3.4656622409820557,1.6201200485229492
1700944552182188300,5.805188232421875,3.109757423400879,4.039750576019287,0.9065613746643066
1700944552199181300,5.822181396484375,2.174328565597534,4.463981628417969,-0.3959083557128906
1700944552216174300,5.83917431640625,1.0911414623260498,4.704632759094238,-1.3127546310424805
1700944552233167600,5.856167724609375,0.19381684064865112,4.300885200500488,-1.219071865081787
1700944552250160000,5.87316015625,0.03104311227798462,4.3483452796936035,-0.7159228324890137
1700944552267153200,5.890153076171875,0.43728864192962646,4.634952545166016,-0.16040897369384766
1700944552284146200,5.907146240234375,0.591962993144989,4.892274379730225,0.11125755310058594
1700944552301139000,5.924138916015625,-0.18769007921218872,4.740760326385498,0.46898794174194336
1700944552318134000,5.941134033203125,-1.2649099826812744,4.256149768829346,0.915626049041748
1700944552335124200,5.958124267578125,-1.9506075382232666,2.7704992294311523,1.6971855163574219
1700944552352123600,5.97512353515625,-2.0584118366241455,1.5763230323791504,2.14974308013916
1700944552369111800,5.99211181640625,-0.8509575724601746,0.3343539237976074,3.599274158477783
1700944552386104000,6.00910400390625,0.6422852277755737,-3.712965488433838,8.06976318359375
1700944552403097600,6.02609765625,1.784894585609436,-6.251718044281006,10.03777027130127
1700944552420090600,6.043090576171875,3.136151075363159,-4.457610130310059,9.150365829467773
1700944552437083600,6.060083740234375,3.923548698425293,-2.5470590591430664,9.861711502075195
1700944552454069800,6.07706982421875,3.375786304473877,-0.3317275047302246,10.436166763305664
1700944552471072300,6.094072265625,3.885171413421631,0.07879304885864258,10.951568603515625
1700944552488059600,6.1110595703125,4.750003337860107,-1.1597094535827637,11.164297103881836
1700944552505056000,6.128055908203125,4.621035099029541,-2.0524849891662598,9.444456100463867
1700944552522048300,6.14504833984375,3.4288313388824463,-1.7995166778564453,6.3114471435546875
1700944552539041500,6.16204150390625,1.9893113374710083,-0.41868066787719727,3.377549171447754
1700944552556032000,6.179031982421875,0.5215252637863159,0.6715612411499023,1.5136022567749023
1700944552573030700,6.19603076171875,-0.5682040452957153,1.4158456325531006,0.10448551177978516
1700944552590020400,6.213020263671875,-1.268033504486084,1.5515618324279785,-1.0341906547546387
1700944552607011000,6.230010986328125,-1.9078365564346313,1.3313863277435303,-2.7728586196899414
1700944552624009200,6.24700927734375,-1.6476805210113525,1.236936330795288,-4.596464157104492
1700944552641000000,6.264,-0.7460711002349854,1.2955677509307861,-5.812007904052734
1700944552657992400,6.280992431640625,-0.3714902102947235,1.0561280250549316,-6.254166603088379
1700944552674985700,6.29798583984375,0.11619237065315247,1.0223603248596191,-6.213910102844238
1700944552691971300,6.314971435546875,0.6062721014022827,1.1480897665023804,-6.158546447753906
1700944552708972000,6.331971923828125,0.6995095014572144,1.0303665399551392,-6.08363151550293
1700944552725964300,6.34896435546875,0.4922056794166565,0.9156032800674438,-6.152920722961426
1700944552742960400,6.36596044921875,-0.1328345239162445,0.7565714120864868,-6.362155914306641
1700944552759951400,6.382951416015625,-0.8899078965187073,0.45973682403564453,-6.407005310058594
1700944552776947200,6.399947265625,-1.5381762981414795,0.2514687776565552,-6.239158630371094
1700944552793936400,6.416936279296875,-1.9051836729049683,-0.1222383975982666,-5.963405609130859
1700944552810930000,6.433929931640625,-2.234010934829712,-0.47505342960357666,-5.687727928161621
1700944552827917000,6.4509169921875,-2.0219333171844482,-1.172057867050171,-5.367599010467529
1700944552844918800,6.467918701171875,-1.4615224599838257,-2.047484874725342,-5.056668758392334
1700944552861898000,6.48489794921875,-0.5285477638244629,-3.5970308780670166,-3.455122947692871
1700944552878899200,6.501899169921875,-0.245627760887146,-4.7873663902282715,-2.2014856338500977
1700944552895897300,6.5188974609375,-0.893600583076477,-5.927797794342041,-1.0908098220825195
1700944552912888300,6.535888427734375,-2.60683536529541,-7.762241363525391,0.5469856262207031
1700944552929880800,6.552880859375,-2.659592866897583,-8.697794914245605,1.0932989120483398
1700944552946863000,6.569863037109375,-3.147624969482422,-8.604511260986328,2.316159248352051
1700944552963864300,6.5868642578125,0.7998937964439392,-8.049992561340332,6.453676223754883
1700944552980863200,6.60386328125,3.1807658672332764,-7.251895904541016,10.627083778381348
1700944552997852700,6.620852783203125,3.5717618465423584,-6.479313850402832,13.219385147094727
1700944553014846000,6.637845947265625,4.4853434562683105,-5.582691669464111,13.585175514221191
1700944553031839000,6.6548388671875,6.049449443817139,-3.2422568798065186,10.623873710632324
1700944553048822000,6.671822021484375,6.201660633087158,-0.2791941165924072,6.254156112670898
1700944553065824800,6.68882470703125,4.343213081359863,1.572474479675293,3.0184288024902344
1700944553082818000,6.705818115234375,1.635190725326538,2.3106191158294678,0.6811313629150391
1700944553099801300,6.72280126953125,-0.8460891842842102,2.3854899406433105,-1.2243003845214844
1700944553116804400,6.739804443359375,-2.4399986267089844,2.3835558891296387,-2.652249813079834
1700944553133796900,6.756796875,-2.4317517280578613,2.739124298095703,-3.6305603981018066
1700944553150779600,6.773779541015625,-1.1224981546401978,3.0206406116485596,-4.087834358215332
1700944553167783200,6.790783203125,0.05026915669441223,3.066547155380249,-4.192014217376709
1700944553184776400,6.8077763671875,0.6328102350234985,3.1278350353240967,-4.432971000671387
1700944553201769000,6.82476904296875,0.4750910699367523,3.0053443908691406,-4.034634113311768
1700944553218762500,6.841762451171875,0.023059934377670288,2.9261348247528076,-3.7298049926757812
1700944553235755000,6.858755126953125,-0.002833545207977295,2.9933114051818848,-3.6344451904296875
1700944553252748300,6.875748291015625,0.30388516187667847,2.70560884475708,-2.5933585166931152
1700944553269740800,6.89274072265625,0.6862668991088867,2.317282199859619,-1.0066051483154297
1700944553286734000,6.909734130859375,0.7536901235580444,1.8955793380737305,0.904170036315918
1700944553303727000,6.92672705078125,0.14800970256328583,0.4598560333251953,3.7534961700439453
1700944553320720600,6.943720703125,-0.7941411733627319,-1.6743412017822266,6.474905967712402
1700944553337718000,6.960718017578125,-1.077728033065796,-2.6632795333862305,8.09912395477295
1700944553354695700,6.97769580078125,-0.9840527772903442,-1.6660518646240234,9.836194038391113
1700944553371699200,6.99469921875,-0.7668073773384094,-0.5389924049377441,11.895167350769043
1700944553388692500,7.0116923828125,-0.2648860216140747,0.16947579383850098,12.050771713256836
1700944553405684000,7.02868408203125,0.3270736634731293,-0.9284725189208984,11.508355140686035
1700944553422679600,7.045679443359375,0.5127108693122864,-2.5434863567352295,10.08326244354248
1700944553439671300,7.06267138671875,0.6604846119880676,-3.1598784923553467,7.210381507873535
1700944553456663000,7.0796630859375,0.16866791248321533,-3.3194096088409424,4.358013153076172
1700944553473658600,7.09665869140625,-0.5747308135032654,-3.3117637634277344,2.090372085571289
1700944553490650400,7.113650390625,-0.8151459097862244,-3.0799965858459473,0.4734926223754883
1700944553507643600,7.1306435546875,-0.8967403769493103,-2.8312971591949463,-0.6752195358276367
1700944553524636700,7.14763671875,-0.592543363571167,-2.567751884460449,-1.8009014129638672
1700944553541625300,7.164625244140625,-0.48318976163864136,-2.588679790496826,-2.73451566696167
1700944553558619100,7.181619140625,-0.48911792039871216,-2.811389207839966,-3.344430923461914
1700944553575618600,7.19861865234375,-0.3548065423965454,-2.941188097000122,-3.9636473655700684
1700944553592608800,7.21560888671875,-0.3153238892555237,-3.0677077770233154,-4.492199420928955
1700944553609601300,7.232601318359375,-0.14040285348892212,-3.0056731700897217,-5.167360782623291
1700944553626594300,7.24959423828125,0.1845056414604187,-2.895083427429199,-5.928469657897949
1700944553643584800,7.266584716796875,0.4658035635948181,-2.8551414012908936,-6.499021053314209
1700944553660583200,7.283583251953125,0.7175449132919312,-2.87431001663208,-6.774975776672363
1700944553677573400,7.300573486328125,1.028517723083496,-2.8679027557373047,-7.179185390472412
1700944553694564600,7.317564697265625,1.1426458358764648,-2.9170444011688232,-7.6325764656066895
1700944553711559700,7.3345595703125,1.519838571548462,-3.057274341583252,-7.530308723449707
1700944553728552700,7.351552734375,1.838212251663208,-3.2257330417633057,-7.149860858917236
1700944553745534700,7.36853466796875,1.9526917934417725,-3.4042019844055176,-6.680466651916504
1700944553762538800,7.385538818359375,2.031839370727539,-3.8197860717773438,-6.124335289001465
1700944553779531500,7.402531494140625,2.1118075847625732,-4.183018684387207,-4.969579219818115
1700944553796514000,7.41951416015625,1.8831558227539062,-4.422183990478516,-3.7054214477539062
1700944553813514800,7.4365146484375,1.5504236221313477,-4.542649745941162,-2.1846437454223633
1700944553830513200,7.45351318359375,0.9357941150665283,-4.971543312072754,-0.21868133544921875
1700944553847503600,7.470503662109375,0.19780993461608887,-5.823309898376465,1.5246505737304688
1700944553864497200,7.4874970703125,-0.4574005603790283,-7.443851947784424,3.390284538269043
1700944553881489700,7.50448974609375,-0.6739683151245117,-8.5347318649292,4.259847640991211
1700944553898482700,7.521482666015625,-0.12665224075317383,-9.032814025878906,5.394675254821777
1700944553915479000,7.53847900390625,1.2066853046417236,-8.030807495117188,6.147019386291504
1700944553932466000,7.5554658203125,2.622701644897461,-6.010498523712158,6.902173042297363
1700944553949461500,7.57246142578125,3.520159959793091,-4.2169342041015625,7.1729736328125
1700944553966457900,7.589457763671875,4.197425842285156,-3.0032339096069336,6.24308967590332
1700944553983444700,7.60644482421875,4.120898246765137,-2.1199533939361572,3.963592529296875
1700944554000451800,7.623451904296875,3.4769275188446045,-1.1488862037658691,1.3726158142089844
1700944554017431000,7.64043115234375,1.9189907312393188,-0.1078794002532959,-1.0692520141601562
1700944554034429400,7.657429443359375,0.18970084190368652,0.4702460765838623,-2.5667757987976074
1700944554051420200,7.674420166015625,-0.8894917964935303,0.39124584197998047,-2.77255916595459
1700944554068413200,7.6914130859375,-0.6955790519714355,0.3083217144012451,-2.409506320953369
1700944554085405400,7.708405517578125,0.36592918634414673,0.23532366752624512,-2.047452926635742
1700944554102399000,7.72539892578125,1.345557689666748,0.060272932052612305,-1.3875508308410645
1700944554119391700,7.742391845703125,1.9570708274841309,0.23853349685668945,-1.614187240600586
1700944554136374500,7.75937451171875,1.7033133506774902,0.26317524909973145,-2.0814218521118164
1700944554153377500,7.77637744140625,1.1198066473007202,0.1337287425994873,-2.2520222663879395
1700944554170370800,7.793370849609375,0.9138387441635132,0.09721255302429199,-1.8800501823425293
1700944554187373300,7.810373291015625,1.2498399019241333,0.037652015686035156,-1.5455803871154785
1700944554204360000,7.82735986328125,1.9600379467010498,-0.18170404434204102,-0.787846565246582
1700944554221337300,7.84433740234375,2.730588912963867,-0.13378143310546875,-0.157012939453125
1700944554238343200,7.86134326171875,2.960707426071167,0.250962495803833,-0.0696706771850586
1700944554255336200,7.878336181640625,2.5401017665863037,0.6712250709533691,0.17393112182617188
1700944554272329000,7.895328857421875,1.9704358577728271,0.9849667549133301,0.5921459197998047
1700944554289321700,7.91232177734375,1.3478155136108398,1.3065526485443115,1.2521419525146484
1700944554306315000,7.92931494140625,0.8096706867218018,1.4949564933776855,1.8424367904663086
1700944554323308300,7.946308349609375,0.8538070917129517,1.8831450939178467,2.2479372024536133
1700944554340300300,7.96330029296875,0.6403133869171143,2.620013475418091,2.418498992919922
1700944554357295000,7.980295166015625,0.10991790890693665,3.0947420597076416,2.7075796127319336
1700944554374294000,7.9972939453125,-0.8778440952301025,3.4579126834869385,3.2044119834899902
1700944554391280400,8.0142802734375,-1.604356050491333,3.66129994392395,4.056140422821045
1700944554408273400,8.0312734375,-2.0328383445739746,3.775941848754883,4.587475299835205
1700944554425265700,8.048265625,-1.9419366121292114,4.2671308517456055,4.462882041931152
1700944554442259200,8.06525927734375,-1.8638769388198853,4.938794136047363,4.50051212310791
1700944554459241700,8.08224169921875,-1.997856855392456,5.39901065826416,4.805247783660889
1700944554476243000,8.099242919921876,-2.6879312992095947,5.2322258949279785,5.296506881713867
1700944554493240600,8.116240478515625,-3.2934677600860596,4.7447428703308105,5.927309036254883
1700944554510230300,8.133230224609376,-3.2725963592529297,3.7261240482330322,6.5873122215271
1700944554527225600,8.1502255859375,-2.908989429473877,2.8033978939056396,7.255744934082031
1700944554544217300,8.16721728515625,-2.070060968399048,2.7908432483673096,7.64182710647583
1700944554561209900,8.1842099609375,-1.496463656425476,3.666743278503418,7.588521957397461
1700944554578203100,8.201203125,-1.1410284042358398,4.473018646240234,7.150545597076416
1700944554595196200,8.218196044921875,-0.5960716009140015,4.049262046813965,6.871604919433594
1700944554612189400,8.235189453125,-0.019299276173114777,2.367319107055664,6.6682233810424805
1700944554629182200,8.25218212890625,0.5369608998298645,0.007869720458984375,6.784050941467285
1700944554646164700,8.269164794921876,0.709700882434845,-1.907637596130371,6.350419044494629
1700944554663168500,8.28616845703125,0.7324183583259583,-3.1296043395996094,5.102919578552246
1700944554680161500,8.30316162109375,1.1576720476150513,-3.871321678161621,4.610433578491211
1700944554697154000,8.320154052734376,1.6922481060028076,-4.1609649658203125,4.10443115234375
1700944554714147600,8.337147705078126,1.7569947242736816,-4.684728145599365,3.151963233947754
1700944554731140400,8.354140380859375,1.41648530960083,-5.281167030334473,1.7376213073730469
1700944554748135400,8.371135498046876,0.8780702948570251,-5.60203218460083,0.6622161865234375
1700944554765124600,8.38812451171875,1.0029311180114746,-5.824750900268555,0.3226814270019531
1700944554782119700,8.40511962890625,1.7390879392623901,-6.123517036437988,0.111724853515625
1700944554799112700,8.42211279296875,2.3974366188049316,-5.930253028869629,-0.8864364624023438
1700944554816105700,8.439105712890624,2.9767680168151855,-5.730864524841309,-2.2245497703552246
1700944554833087500,8.45608740234375,3.166017532348633,-5.476607799530029,-3.8180646896362305
1700944554850091500,8.473091552734376,3.087019443511963,-5.583340167999268,-4.960754871368408
1700944554867082000,8.49008203125,2.4739737510681152,-6.137906551361084,-5.348232269287109
1700944554884080600,8.50708056640625,2.436052083969116,-6.117578029632568,-5.72844934463501
1700944554901067800,8.52406787109375,2.888425827026367,-5.8139824867248535,-6.171839714050293
1700944554918066200,8.541066162109376,3.126307964324951,-5.5426130294799805,-6.742134094238281
1700944554935056600,8.558056640625,3.070115089416504,-5.6673736572265625,-6.842446327209473
1700944554952049700,8.575049560546875,2.1860146522521973,-6.228458404541016,-6.7294111251831055
1700944554969042400,8.59204248046875,1.4096287488937378,-6.156617641448975,-7.334394454956055
1700944554986036000,8.609035888671874,0.7404332160949707,-5.8976898193359375,-7.675614356994629
1700944555003028700,8.62602880859375,0.38064345717430115,-5.642460823059082,-7.474377632141113
1700944555020022000,8.64302197265625,0.16202503442764282,-5.4355669021606445,-7.1696624755859375
1700944555037013000,8.660012939453125,0.02014923095703125,-5.374234676361084,-6.924939155578613
1700944555054007600,8.677007568359375,-0.38746094703674316,-5.337099075317383,-7.43520975112915
1700944555071000600,8.69400048828125,-0.8740183115005493,-5.552070617675781,-8.257741928100586
1700944555087991300,8.7109912109375,-0.8504637479782104,-5.2861175537109375,-8.517111778259277
1700944555104989200,8.7279892578125,-0.6071889400482178,-5.044425964355469,-7.519021511077881
1700944555121980000,8.74497998046875,-0.11979997158050537,-4.847984790802002,-5.960148334503174
1700944555138972700,8.76197265625,0.6601227521896362,-4.2988600730896,-4.194994926452637
1700944555155966200,8.77896630859375,0.14768117666244507,-4.75182580947876,-2.2550158500671387
1700944555172958700,8.795958740234376,-1.3221983909606934,-4.702409744262695,-2.536590099334717
1700944555189951700,8.81295166015625,-2.057215929031372,-5.073094844818115,-2.0525522232055664
1700944555206943200,8.829943115234375,-2.3584227561950684,-6.366539001464844,1.027475357055664
1700944555223939800,8.84693994140625,-1.9770612716674805,-7.495593070983887,4.902711868286133
1700944555240920000,8.863920166015625,-0.8780801296234131,-7.92835807800293,6.668440818786621
1700944555257924000,8.880924072265625,1.6007059812545776,-7.358932971954346,7.285759925842285
1700944555274916900,8.897916748046875,4.476558685302734,-6.102107524871826,8.414697647094727
1700944555291907600,8.914907470703126,6.083688735961914,-5.058649063110352,9.35935115814209
1700944555308895000,8.93189501953125,6.569062232971191,-4.031271934509277,10.512475967407227
1700944555325885400,8.948885498046875,4.984899997711182,-2.8229055404663086,10.748208045959473
1700944555342888700,8.965888671875,0.9383823871612549,-1.3073627948760986,9.716731071472168
1700944555359882500,8.982882568359376,-3.3640379905700684,0.8277924060821533,8.45230484008789
1700944555376875000,8.999875,-5.818933486938477,3.3676295280456543,7.062658309936523
1700944555393868000,9.016867919921875,-6.295509338378906,4.954717636108398,5.75410270690918
1700944555410861000,9.033861083984375,-4.601021766662598,5.839175224304199,4.066068172454834
1700944555427854300,9.050854248046875,-2.075709104537964,6.126115322113037,2.5819244384765625
1700944555444855800,9.067855712890625,-0.1401471197605133,6.266654968261719,1.3746705055236816
1700944555461842400,9.084842529296875,0.9279026985168457,6.040817737579346,1.011887550354004
1700944555478833000,9.1018330078125,1.2470791339874268,5.794644355773926,1.3192052841186523
1700944555495826200,9.118826171875,1.5643270015716553,6.230358123779297,0.4706230163574219
1700944555512818400,9.135818359375,1.170662760734558,6.6354570388793945,-0.6461954116821289
1700944555529810200,9.15281005859375,0.1492576003074646,6.122495651245117,-0.8723058700561523
1700944555546807600,9.1698076171875,-0.5696367621421814,6.343367099761963,-1.3684158325195312
1700944555563798500,9.186798583984375,-0.8522244691848755,6.106137752532959,-0.8548593521118164
1700944555580791000,9.203791015625,-0.47337400913238525,5.512956619262695,0.7448310852050781
1700944555597784000,9.2207841796875,0.3149369955062866,5.272879600524902,1.9026427268981934
1700944555614777000,9.237777099609374,0.5846280455589294,4.68245267868042,3.447971820831299
1700944555631770600,9.2547705078125,0.3658754825592041,3.0267457962036133,5.718259334564209
1700944555648763000,9.271762939453126,0.5427995324134827,1.928548812866211,7.0154242515563965
1700944555665756200,9.288756103515626,0.9610762000083923,0.7555274963378906,8.604232788085938
1700944555682749200,9.305749267578125,1.2090964317321777,-1.9102373123168945,12.186092376708984
1700944555699742700,9.32274267578125,1.7969062328338623,-4.867204189300537,14.523015975952148
1700944555716731100,9.339731201171874,3.1187238693237305,-6.514684200286865,14.65625
1700944555733731800,9.35673193359375,5.166258811950684,-5.6261749267578125,13.872520446777344
1700944555750721300,9.37372119140625,6.279191493988037,-4.867919921875,13.682454109191895
1700944555767711200,9.390711181640626,5.968823432922363,-4.9286322593688965,12.678228378295898
1700944555784710400,9.40771044921875,4.501550197601318,-5.999157905578613,10.873006820678711
1700944555801700400,9.424700439453124,2.9910824298858643,-6.866198539733887,8.235441207885742
1700944555818693400,9.441693359375,2.1268532276153564,-6.88045072555542,4.775003433227539
1700944555835682000,9.45868212890625,1.7464749813079834,-6.102179050445557,1.4042072296142578
1700944555852679200,9.47567919921875,1.8694759607315063,-5.227142810821533,-0.8682413101196289
1700944555869672400,9.49267236328125,1.6613962650299072,-4.483016490936279,-2.4376773834228516
1700944555886665500,9.50966552734375,1.1555291414260864,-4.093416213989258,-3.750303268432617
1700944555903658500,9.526658447265625,0.5808504819869995,-3.867180585861206,-5.103119373321533
1700944555920651300,9.5436513671875,0.4016871750354767,-3.665473222732544,-6.330319404602051
1700944555937644500,9.56064453125,0.15747815370559692,-3.576040267944336,-7.623287677764893
1700944555954635000,9.577635009765626,-0.018209338188171387,-3.45463490486145,-8.971344947814941
1700944555971633200,9.594633056640625,-0.12861955165863037,-3.5840601921081543,-9.571535110473633
1700944555988623000,9.611623046875,0.10034060478210449,-3.8982014656066895,-9.440321922302246
1700944556005603600,9.628603515625,0.47791504859924316,-3.88845157623291,-9.191122055053711
1700944556022604300,9.645604248046874,0.35191118717193604,-3.835627555847168,-9.391718864440918
1700944556039602400,9.6626025390625,-0.46373069286346436,-3.802922487258911,-10.05263614654541
1700944556056593000,9.679593017578124,-1.434915542602539,-3.9504690170288086,-10.46921157836914
1700944556073591000,9.696591064453125,-1.9329524040222168,-4.230322360992432,-10.649269104003906
1700944556090581500,9.71358154296875,-1.5697375535964966,-4.704291820526123,-10.338156700134277
1700944556107573800,9.73057373046875,-0.621669352054596,-5.075212001800537,-9.794755935668945
1700944556124567600,9.747567626953124,0.06833231449127197,-5.798518180847168,-8.808956146240234
1700944556141548000,9.764548095703125,-0.24307489395141602,-6.467392444610596,-7.823902606964111
1700944556158553600,9.7815537109375,-1.648057460784912,-6.892516613006592,-6.780230522155762
1700944556175549200,9.798549072265626,-3.0570056438446045,-7.754073143005371,-4.910940647125244
1700944556192539400,9.815539306640625,-3.643183708190918,-8.641044616699219,-2.7123093605041504
1700944556209532700,9.83253271484375,-4.227100372314453,-9.410653114318848,-1.1245756149291992
1700944556226525700,9.849525634765625,-2.6133999824523926,-11.699396133422852,1.8927736282348633
1700944556243519000,9.86651904296875,2.0367791652679443,-13.495439529418945,4.888607025146484
1700944556260511500,9.883511474609374,7.417241096496582,-12.291008949279785,6.648924827575684
1700944556277504800,9.9005048828125,8.738059043884277,-9.803376197814941,7.4382219314575195
1700944556294497800,9.917497802734376,6.045332431793213,-7.832264423370361,7.584597587585449
1700944556311480600,9.93448046875,2.5655388832092285,-6.163856506347656,7.563587188720703
1700944556328483300,9.9514833984375,0.15809261798858643,-4.047640800476074,7.823149681091309
1700944556345476900,9.968476806640625,-1.1275005340576172,-2.0828800201416016,8.229340553283691
1700944556362469600,9.9854697265625,-1.4197909832000732,-0.4546527862548828,9.103100776672363
1700944556379463000,10.002462890625,-0.6116483211517334,1.484907627105713,9.122819900512695
1700944556396455400,10.019455322265625,0.5158547759056091,3.245640993118286,7.98155403137207
1700944556413449000,10.036448974609375,1.7714471817016602,4.739757061004639,5.761959552764893
1700944556430442000,10.05344189453125,2.4079933166503906,5.57585334777832,4.042677402496338
1700944556447435300,10.070435302734374,2.578968048095703,5.882018566131592,2.943848133087158
1700944556464426800,10.0874267578125,2.3746395111083984,6.084387302398682,1.9366693496704102
1700944556481421800,10.104421875,1.9840490818023682,6.106146812438965,1.3671808242797852
1700944556498413800,10.121413818359375,1.7594820261001587,6.313119411468506,0.7561330795288086
1700944556515407000,10.138406982421875,1.467673897743225,6.671206474304199,0.22116851806640625
1700944556532398800,10.15539892578125,0.8951649069786072,6.748500823974609,0.24515295028686523
1700944556549390300,10.172390380859374,0.4267723560333252,6.726621150970459,0.47525644302368164
1700944556566388700,10.189388671875,0.16121715307235718,6.387664318084717,1.323740005493164
1700944556583379500,10.20637939453125,0.363063246011734,6.31304407119751,2.3079323768615723
1700944556600372000,10.2233720703125,0.3523330092430115,6.474363327026367,3.312201976776123
1700944556617362400,10.240362548828125,-0.33608970046043396,6.7715067863464355,4.66348934173584
1700944556634360600,10.257360595703124,-0.8218086361885071,5.923821449279785,6.151797294616699
1700944556651351300,10.274351318359376,-0.37547948956489563,3.858210802078247,7.563359260559082
1700944556668343800,10.29134375,1.328558325767517,1.7372851371765137,8.660913467407227
1700944556685337300,10.30833740234375,3.2409067153930664,-2.0606532096862793,11.815185546875
1700944556702330000,10.325330078125,4.574674606323242,-6.060111045837402,15.35888671875
1700944556719323600,10.34232373046875,5.612259387969971,-5.511098384857178,15.133838653564453
1700944556736316000,10.35931591796875,6.140795707702637,-4.973555088043213,14.278078079223633
1700944556753307000,10.376306884765626,6.160228729248047,-3.3940138816833496,11.831069946289062
1700944556770286000,10.3932861328125,6.042869567871094,-4.730541229248047,10.49227523803711
1700944556787295500,10.41029541015625,6.092299938201904,-5.998309135437012,8.757952690124512
1700944556804285400,10.427285400390625,5.833143711090088,-6.8907294273376465,7.356830596923828
1700944556821283800,10.444283935546874,4.290038108825684,-7.064881324768066,5.865059852600098
1700944556838263600,10.461263671875,2.318582534790039,-6.478240966796875,3.7781362533569336
1700944556855265500,10.478265625,0.7181813716888428,-5.88460636138916,1.6518745422363281
1700944556872262000,10.495261962890625,-0.3840792775154114,-5.420087814331055,-0.216766357421875
1700944556889253000,10.512253173828125,-0.7623114585876465,-5.108898639678955,-1.8620657920837402
1700944556906245400,10.529245361328124,-0.8796433210372925,-4.882844924926758,-3.2369823455810547
1700944556923240200,10.546240234375,-0.8067922592163086,-4.761655807495117,-4.151426315307617
1700944556940232000,10.56323193359375,-0.9494480490684509,-4.7767014503479,-5.099656581878662
1700944556957225500,10.5802255859375,-1.267531394958496,-4.92020845413208,-5.926962852478027
1700944556974218500,10.597218505859376,-1.5052716732025146,-5.1596221923828125,-6.831604480743408
1700944556991211800,10.614211669921875,-1.6671816110610962,-5.3885650634765625,-7.424857139587402
1700944557008187100,10.631187255859375,-1.5316660404205322,-5.257272720336914,-8.002521514892578
1700944557025197000,10.648197021484375,-1.3123377561569214,-5.141439914703369,-8.39663028717041
1700944557042190300,10.6651904296875,-1.1694260835647583,-5.016695976257324,-8.746044158935547
1700944557059183600,10.68218359375,-0.9596730470657349,-5.0207648277282715,-9.000353813171387
1700944557076176100,10.699176025390624,-0.7467077374458313,-5.060671806335449,-9.136775970458984
1700944557093169400,10.71616943359375,-0.3431951701641083,-5.053657531738281,-9.209151268005371
1700944557110162400,10.733162353515626,0.04913514852523804,-4.892703056335449,-8.97875690460205
1700944557127157500,10.750157470703124,0.42206454277038574,-4.668609619140625,-8.124103546142578
1700944557144146400,10.767146484375,0.43837547302246094,-4.732507705688477,-7.0150322914123535
1700944557161141200,10.784141357421875,0.11609870195388794,-5.076544761657715,-6.0122575759887695
1700944557178134500,10.801134521484375,-0.23381280899047852,-5.364051342010498,-5.583505153656006
1700944557195125200,10.818125244140624,-0.2853406071662903,-5.462060928344727,-5.4098968505859375
1700944557212123000,10.835122802734375,-0.51645827293396,-6.306756973266602,-3.7558236122131348
1700944557229105000,10.85210498046875,-0.9806569814682007,-7.865962982177734,-1.659912109375
1700944557246104600,10.8691044921875,-1.2032315731048584,-9.013986587524414,-0.5958900451660156
1700944557263102000,10.88610205078125,0.3815908432006836,-10.341870307922363,1.3949403762817383
1700944557280081700,10.90308154296875,2.6418979167938232,-10.739640235900879,4.037021636962891
1700944557297085400,10.92008544921875,4.779189109802246,-10.461613655090332,6.8444414138793945
1700944557314078700,10.93707861328125,5.16616678237915,-9.33232593536377,8.422811508178711
1700944557331072000,10.954072021484375,3.530275821685791,-8.304409980773926,9.023536682128906
1700944557348064500,10.971064453125,2.1784276962280273,-6.603289604187012,8.92116928100586
1700944557365057800,10.988057861328125,0.7953763008117676,-4.585697174072266,8.577735900878906
1700944557382050600,11.005050537109375,-0.5051855444908142,-2.39208984375,8.267828941345215
1700944557399047400,11.02204736328125,-1.2052122354507446,-0.08285188674926758,8.129072189331055
1700944557416036400,11.039036376953124,-1.5419892072677612,2.0666658878326416,7.4711103439331055
1700944557433029600,11.056029541015626,-1.2946193218231201,3.620849370956421,6.114053726196289
1700944557450023000,11.07302294921875,-0.6829514503479004,4.568576812744141,5.839815139770508
1700944557467005700,11.090005615234375,0.39062580466270447,5.5397539138793945,5.013214111328125
1700944557484008700,11.1070087890625,0.45185962319374084,5.850457668304443,3.3688416481018066
1700944557501002000,11.124001953125,0.2838209867477417,5.5802435874938965,2.11576509475708
1700944557517995000,11.1409951171875,0.5581748485565186,5.2605695724487305,1.1477851867675781
1700944557534988000,11.157988037109375,0.896352231502533,5.042494297027588,0.6381120681762695
1700944557551980500,11.17498046875,1.2395415306091309,5.054387092590332,0.5223474502563477
1700944557568971300,11.19197119140625,1.4093165397644043,5.271512031555176,0.9573359489440918
1700944557585969400,11.208969482421875,1.2033979892730713,5.3632612228393555,1.0442638397216797
1700944557602960100,11.225960205078126,0.5910108089447021,5.341597557067871,1.1393327713012695
1700944557619953000,11.242952880859375,-0.08693614602088928,5.419893264770508,1.5646085739135742
1700944557636944100,11.259944091796875,-0.6409223079681396,5.505471229553223,2.459810256958008
1700944557653940700,11.276940673828125,-0.9216409921646118,5.590985298156738,3.041464328765869
1700944557670916600,11.29391650390625,-1.158605933189392,5.139076232910156,3.743177890777588
1700944557687924500,11.310924560546875,-1.0891056060791016,3.686720848083496,4.732121467590332
1700944557704914200,11.3279140625,-0.5561072826385498,1.9971957206726074,5.987239837646484
1700944557721900300,11.344900390625,0.21599744260311127,0.0765228271484375,7.799415588378906
1700944557738904600,11.361904541015624,0.7974367737770081,-3.367581844329834,11.283632278442383
1700944557755896800,11.378896728515626,1.0429925918579102,-6.220056056976318,13.141149520874023
1700944557772890000,11.39589013671875,2.014826774597168,-5.984464168548584,12.056897163391113
1700944557789883400,11.41288330078125,3.692387342453003,-3.5134153366088867,10.600308418273926
1700944557806876000,11.4298759765625,4.636613368988037,-1.6661772727966309,10.300756454467773
1700944557823869000,11.446868896484375,5.1670918464660645,-1.5835089683532715,10.119173049926758
1700944557840862200,11.4638623046875,4.072310924530029,-2.793510913848877,9.06290054321289
1700944557857853400,11.480853515625,2.701415538787842,-3.9461331367492676,6.903345584869385
1700944557874850300,11.497850341796875,1.5691845417022705,-4.571920871734619,4.232830047607422
1700944557891828200,11.514828125,1.205234408378601,-3.944629192352295,1.5247726440429688
1700944557908836600,11.531836669921875,1.157565951347351,-2.6686673164367676,-0.2031698226928711
1700944557925827000,11.5488271484375,0.747116208076477,-1.6049752235412598,-1.2722339630126953
1700944557942820400,11.5658203125,0.11789917945861816,-1.1537063121795654,-2.0936031341552734
1700944557959812900,11.582812744140625,-0.614570140838623,-1.0943822860717773,-2.922581195831299
1700944557976806400,11.599806396484375,-0.7850854396820068,-1.1384127140045166,-3.7014074325561523
1700944557993799200,11.616799072265625,-0.2726891040802002,-1.4128351211547852,-4.3796820640563965
1700944558010792400,11.63379248046875,0.572858452796936,-1.7120335102081299,-4.900640487670898
1700944558027785000,11.650784912109375,1.3608300685882568,-2.1134023666381836,-5.5383405685424805
1700944558044778500,11.667778564453124,1.6245115995407104,-2.4794886112213135,-6.484832763671875
1700944558061771500,11.684771484375,1.4945571422576904,-2.977560043334961,-7.453680992126465
1700944558078764500,11.7017646484375,0.9444835782051086,-3.006380081176758,-8.69499683380127
1700944558095746600,11.71874658203125,0.40841764211654663,-2.97261381149292,-9.6455659866333
1700944558112750300,11.735750244140625,0.34527692198753357,-2.9211080074310303,-10.189703941345215
1700944558129743600,11.75274365234375,0.875295102596283,-3.0520288944244385,-10.015325546264648
1700944558146736600,11.769736572265625,1.569565773010254,-3.237697124481201,-9.530250549316406
1700944558163729400,11.7867294921875,2.055284023284912,-3.3786721229553223,-9.146913528442383
1700944558180712000,11.8037119140625,1.8706140518188477,-3.7023675441741943,-8.559014320373535
1700944558197715700,11.8207158203125,0.6466606855392456,-4.172657012939453,-7.969758033752441
1700944558214709000,11.837708984375,-0.37502557039260864,-4.631674289703369,-7.1649885177612305
1700944558231701200,11.854701171875,-0.2657310962677002,-5.021055221557617,-5.839555740356445
1700944558248694500,11.871694580078126,0.31634223461151123,-6.016050815582275,-3.734968662261963
1700944558265687600,11.8886875,-0.010938286781311035,-7.669933319091797,-1.8585848808288574
1700944558282676200,11.90567626953125,-0.5839147567749023,-9.660173416137695,-0.11742973327636719
1700944558299673000,11.922673095703125,0.0264817476272583,-11.794607162475586,2.4328908920288086
1700944558316667100,11.939667236328125,2.061208724975586,-12.1412992477417,5.947378158569336
1700944558333659000,11.956658935546875,4.2915167808532715,-11.003392219543457,9.817952156066895
1700944558350653000,11.97365283203125,4.082477569580078,-8.65957260131836,11.746668815612793
1700944558367643000,11.990642822265626,1.3794283866882324,-6.247750282287598,10.289190292358398
1700944558384641000,12.00764111328125,-1.8265780210494995,-4.205653190612793,7.876737594604492
1700944558401631700,12.0246318359375,-3.5287797451019287,-2.3411788940429688,6.477284908294678
1700944558418625000,12.041625,-3.602660655975342,-0.029736995697021484,5.949617385864258
1700944558435617300,12.0586171875,-2.4784162044525146,2.213834762573242,5.940823078155518
1700944558452610600,12.075610595703125,-0.8210346698760986,3.955895185470581,5.675931930541992
1700944558469603600,12.092603515625,1.3407574892044067,4.73154354095459,5.4711079597473145
1700944558486587600,12.109587646484375,3.537613868713379,5.679867744445801,5.520866870880127
1700944558503589400,12.12658935546875,4.629183769226074,6.543132305145264,4.7650909423828125
1700944558520583000,12.1435830078125,4.214025020599365,6.851271152496338,4.043461322784424
1700944558537573400,12.160573486328126,2.9819915294647217,7.135654449462891,2.908991813659668
1700944558554571500,12.177571533203125,1.8773940801620483,7.055351257324219,1.8631806373596191
1700944558571551000,12.194551025390625,0.9762152433395386,6.958869457244873,1.0517621040344238
1700944558588555000,12.211554931640626,1.0531820058822632,6.803887844085693,0.8630118370056152
1700944558605547800,12.2285478515625,1.4265745878219604,6.394108772277832,1.3631300926208496
1700944558622541300,12.245541259765625,1.4379956722259521,5.911744117736816,2.100612163543701
1700944558639533600,12.262533447265625,0.8139700293540955,5.646595478057861,2.5565285682678223
1700944558656526800,12.27952685546875,-0.3071005940437317,5.506767272949219,2.941615104675293
1700944558673520000,12.29652001953125,-1.0522044897079468,5.519723415374756,3.3679943084716797
1700944558690513200,12.31351318359375,-1.5182695388793945,5.442006587982178,3.865142822265625
1700944558707505700,12.330505615234374,-1.3199429512023926,4.417497634887695,5.190334320068359
1700944558724499200,12.347499267578126,-0.5671804547309875,2.731505870819092,6.480820655822754
1700944558741476400,12.364476318359374,0.4136215150356293,1.111417293548584,7.3353590965271
1700944558758485200,12.3814853515625,1.2139544486999512,-0.8229494094848633,8.389106750488281
1700944558775477800,12.398477783203125,1.9658042192459106,-3.6581249237060547,10.4753999710083
1700944558792471000,12.415470947265625,3.040827512741089,-7.0036516189575195,12.496822357177734
1700944558809462800,12.432462890625,4.625504970550537,-8.419015884399414,13.074033737182617
1700944558826459000,12.449458984375,5.197386741638184,-7.077265739440918,12.487903594970703
1700944558843447300,12.466447265625,4.6283087730407715,-6.059976577758789,12.302919387817383
1700944558860446000,12.483446044921875,4.333319187164307,-6.075006008148193,11.606669425964355
1700944558877429000,12.500428955078124,4.18841552734375,-6.99791145324707,10.575173377990723
1700944558894429400,12.517429443359376,3.7111270427703857,-7.832997798919678,8.390408515930176
1700944558911411500,12.534411376953125,2.7069106101989746,-8.137140274047852,5.036746025085449
1700944558928415000,12.5514150390625,1.9494297504425049,-6.515779972076416,1.2825660705566406
1700944558945408500,12.568408447265625,1.2448835372924805,-4.779258728027344,-1.083688735961914
1700944558962401500,12.585401611328125,0.596558690071106,-3.660881757736206,-2.4894089698791504
1700944558979377200,12.602377197265625,-0.11083436012268066,-3.334562301635742,-3.2742629051208496
1700944558996387000,12.619386962890625,-0.767244279384613,-3.3008944988250732,-4.288851261138916
1700944559013380400,12.63638037109375,-1.0663893222808838,-3.2696781158447266,-5.738826751708984
1700944559030374000,12.653373779296874,-0.754789412021637,-3.31658935546875,-6.863851547241211
1700944559047366100,12.6703662109375,-0.27861925959587097,-3.419713020324707,-7.55190372467041
1700944559064359200,12.687359130859376,-0.16293269395828247,-3.633392572402954,-8.208955764770508
1700944559081352400,12.7043525390625,-0.2858366370201111,-3.836350202560425,-8.965085983276367
1700944559098343000,12.721343017578125,-0.37184473872184753,-3.9157204627990723,-9.824129104614258
1700944559115342600,12.738342529296874,-0.7432605028152466,-4.091571807861328,-10.40335750579834
1700944559132329700,12.755329833984375,-1.0622456073760986,-4.179642200469971,-10.929862976074219
1700944559149324300,12.77232421875,-0.8463571071624756,-4.187930107116699,-11.109322547912598
1700944559166314500,12.789314453125,-0.022393405437469482,-4.055469512939453,-10.841421127319336
1700944559183311000,12.80631103515625,0.9792807698249817,-3.803971767425537,-10.171137809753418
1700944559200305400,12.823305419921875,1.370613694190979,-3.7904233932495117,-9.139766693115234
1700944559217297400,12.84029736328125,0.8866127729415894,-3.6858158111572266,-7.484036445617676
1700944559234289700,12.85728955078125,-0.8524804711341858,-4.137526512145996,-6.181589126586914
1700944559251282200,12.8742822265625,-2.613464832305908,-4.565340042114258,-6.10888671875
1700944559268275700,12.891275634765625,-1.9205286502838135,-3.8968091011047363,-6.039607048034668
1700944559285268700,12.908268798828125,-0.08217798173427582,-4.150478839874268,-3.3396568298339844
1700944559302261800,12.92526171875,1.3506619930267334,-5.130791664123535,0.23575496673583984
1700944559319254500,12.942254638671875,0.8855505585670471,-5.98600435256958,1.5007362365722656
1700944559336247600,12.95924755859375,-1.0081175565719604,-8.007962226867676,1.567840576171875
1700944559353240600,12.976240478515624,-1.3663904666900635,-9.414077758789062,1.1568174362182617
1700944559370234000,12.993234130859374,1.4946510791778564,-9.274165153503418,2.587800979614258
1700944559387226400,13.010226318359376,4.368251323699951,-9.178617477416992,6.580937385559082
1700944559404217000,13.027217041015625,5.378117561340332,-8.42785930633545,9.87614631652832
1700944559421215200,13.04421533203125,3.652419090270996,-7.130010604858398,10.566823959350586
1700944559438206200,13.061206298828125,0.7467137575149536,-5.577142238616943,9.705348014831543
1700944559455198500,13.078198486328125,-1.1810922622680664,-3.607023239135742,8.622817039489746
1700944559472191700,13.095191650390625,-2.062368392944336,-1.2938838005065918,7.71571683883667
1700944559489185000,13.11218505859375,-2.447432279586792,0.9889621734619141,7.953685760498047
1700944559506178300,13.12917822265625,-1.691131353378296,3.333744525909424,7.663369655609131
1700944559523160300,13.146160400390626,-0.9974291324615479,4.837472915649414,7.194886684417725
1700944559540163800,13.163163818359376,-0.31806308031082153,5.883543968200684,6.27126407623291
1700944559557160400,13.180160400390625,0.13560810685157776,6.567426681518555,4.776500701904297
1700944559574146800,13.197146728515625,-0.13428953289985657,6.585690498352051,3.6214160919189453
1700944559591142400,13.214142333984375,-0.5344917178153992,6.565690517425537,2.4362173080444336
1700944559608136200,13.23113623046875,-0.5144994258880615,6.645529747009277,1.301619529724121
1700944559625128700,13.248128662109375,-0.3169171214103699,6.297314643859863,0.7979378700256348
1700944559642107000,13.26510693359375,0.09837448596954346,5.791461944580078,0.7608728408813477
1700944559659114000,13.282114013671874,0.7252326011657715,5.2934417724609375,1.1040263175964355
1700944559676108500,13.299108642578124,1.0873372554779053,4.997476577758789,1.9024076461791992
1700944559693101000,13.31610107421875,0.6655731201171875,4.929111480712891,2.813965320587158
1700944559710083800,13.333083740234375,-0.20929580926895142,5.17539644241333,3.8151588439941406
1700944559727084000,13.350083984375,-1.4280329942703247,4.877865791320801,5.205472469329834
1700944559744082700,13.367082763671876,-2.4637930393218994,4.293860912322998,6.108274459838867
1700944559761073000,13.384072998046875,-2.392841339111328,3.355905055999756,7.120865821838379
1700944559778066200,13.401066162109375,-1.476169228553772,1.8848881721496582,9.165882110595703
1700944559795059000,13.418058837890625,-0.3554155230522156,-1.5210752487182617,12.61228084564209
1700944559812052000,13.435052001953125,0.2468615174293518,-5.7202253341674805,14.808708190917969
1700944559829045200,13.452045166015624,1.1963369846343994,-7.938788414001465,14.274555206298828
1700944559846036200,13.4690361328125,2.7194201946258545,-5.076295852661133,11.061983108520508
1700944559863033300,13.486033447265624,4.115627288818359,-2.4706411361694336,9.777212142944336
1700944559880024600,13.503024658203126,5.163721561431885,-0.9596848487854004,8.67711067199707
1700944559897017300,13.520017333984375,4.925553798675537,-1.742236614227295,7.639161586761475
1700944559914000100,13.537000244140625,3.206456184387207,-3.023189067840576,5.693650245666504
1700944559931003100,13.554003173828125,1.8862216472625732,-3.6263909339904785,3.112905502319336
1700944559947996200,13.57099609375,1.0324934720993042,-3.243913173675537,0.06800174713134766
1700944559964989400,13.587989501953125,1.1496952772140503,-2.0018911361694336,-2.2573885917663574
1700944559981972000,13.604971923828124,1.0570623874664307,-1.1708827018737793,-3.393217086791992
1700944559998975000,13.62197509765625,0.8637043833732605,-0.5459156036376953,-4.291051387786865
1700944560015968300,13.63896826171875,0.4061761498451233,-0.514948844909668,-4.830575942993164
1700944560032961300,13.655961181640626,-0.31649619340896606,-0.933917760848999,-5.303860664367676
1700944560049954800,13.672954833984376,-0.7927323579788208,-1.1590220928192139,-5.879728317260742
1700944560066950000,13.689949951171876,-0.7042370438575745,-1.3103716373443604,-6.468521595001221
1700944560083937800,13.706937744140625,-0.5200840830802917,-1.8586347103118896,-6.5891432762146
1700944560100933600,13.72393359375,-0.03683483600616455,-2.236619472503662,-6.823907852172852
1700944560117924400,13.74092431640625,0.18238648772239685,-2.890103816986084,-6.83659553527832
1700944560134921700,13.757921630859375,0.14138565957546234,-3.2816805839538574,-7.000656604766846
1700944560151912700,13.77491259765625,-0.1625162810087204,-3.7263078689575195,-7.537027359008789
1700944560168905500,13.791905517578124,-0.48090338706970215,-4.3593645095825195,-7.776192665100098
1700944560185898800,13.808898681640626,-0.5109632015228271,-5.136167049407959,-7.661595344543457
1700944560202876200,13.825876220703124,-0.14727555215358734,-5.855350017547607,-7.1392974853515625
1700944560219884500,13.842884521484375,0.6285377144813538,-6.20128870010376,-5.987400054931641
1700944560236875500,13.85987548828125,0.5761296153068542,-6.15075159072876,-5.015430927276611
1700944560253873000,13.876872802734376,-1.2391098737716675,-6.846461296081543,-4.101726531982422
1700944560270863400,13.89386328125,-3.3502883911132812,-7.390530586242676,-3.751084327697754
1700944560287857000,13.91085693359375,-2.3110265731811523,-7.694836616516113,-1.6159992218017578
1700944560304839200,13.927839111328124,1.1378610134124756,-7.453821182250977,0.43848419189453125
1700944560321843200,13.94484326171875,3.357384443283081,-6.257965087890625,2.6551923751831055
1700944560338835500,13.96183544921875,4.331170082092285,-4.861523628234863,3.154926300048828
1700944560355829000,13.9788291015625,4.327129364013672,-3.5076656341552734,2.665863037109375
1700944560372822000,13.995822021484376,3.6486809253692627,-2.7937488555908203,2.511702537536621
1700944560389815000,14.01281494140625,2.4456968307495117,-2.487802743911743,2.532475471496582
1700944560406807800,14.029807861328125,1.2686090469360352,-1.8326270580291748,2.4809303283691406
1700944560423800800,14.04680078125,0.3756128251552582,-0.6722109317779541,2.321906089782715
1700944560440785000,14.063784912109375,-0.23162415623664856,0.2998948097229004,2.7494497299194336
1700944560457787400,14.080787353515625,-0.21106357872486115,1.2567250728607178,4.042415618896484
1700944560474779600,14.097779541015624,0.08759093284606934,2.6958675384521484,4.326249122619629
1700944560491773000,14.11477294921875,0.015275999903678894,3.770843982696533,3.3410720825195312
1700944560508769000,14.13176904296875,-0.4090912640094757,4.301941871643066,2.0888566970825195
1700944560525756200,14.148756103515625,-0.8670433759689331,4.354274749755859,1.4788665771484375
1700944560542751700,14.165751708984375,-1.1020381450653076,4.25968074798584,1.8864378929138184
1700944560559745000,14.1827451171875,-0.6175529956817627,4.277727127075195,3.1933093070983887
1700944560576738300,14.19973828125,0.06226758658885956,4.603859901428223,3.7695655822753906
1700944560593731300,14.2167314453125,0.2625274062156677,4.541455268859863,3.75335693359375
1700944560610717700,14.2337177734375,-0.014175564050674438,2.5576257705688477,4.679815292358398
1700944560627708200,14.250708251953125,0.4084078073501587,1.8204307556152344,5.4294328689575195
1700944560644705800,14.267705810546875,0.7303357124328613,-1.5681428909301758,9.92430591583252
1700944560661707800,14.284707763671875,0.7310547828674316,-5.335137367248535,15.797962188720703
1700944560678695700,14.30169580078125,0.9694183468818665,-4.0134406089782715,16.413124084472656
1700944560695688000,14.31868798828125,0.6854650974273682,0.6416335105895996,13.424445152282715
1700944560712683300,14.335683349609376,0.4725207984447479,2.155095100402832,12.210742950439453
1700944560729675300,14.35267529296875,1.4265854358673096,1.3850984573364258,10.475922584533691
1700944560746668000,14.36966796875,2.3743298053741455,-0.8451781272888184,9.447969436645508
1700944560763661300,14.386661376953125,2.2520861625671387,-2.010073661804199,8.017216682434082
1700944560780654300,14.403654296875,0.704992413520813,-2.2424302101135254,6.4689226150512695
1700944560797654000,14.420654052734376,-0.8800667524337769,-1.6187548637390137,4.733834266662598
1700944560814640000,14.43764013671875,-1.730954647064209,-1.0776746273040771,3.4637889862060547
1700944560831633400,14.45463330078125,-2.106297492980957,-1.0435633659362793,2.116558074951172
1700944560848626200,14.471626220703126,-2.5468106269836426,-1.1801466941833496,0.22581100463867188
1700944560865620000,14.488619873046876,-2.6811330318450928,-1.7410075664520264,-1.2712364196777344
1700944560882609700,14.505609619140625,-2.036555290222168,-2.210986375808716,-2.663424015045166
1700944560899608000,14.522608154296876,-1.2638789415359497,-2.5588133335113525,-3.98121976852417
1700944560916598500,14.5395986328125,-0.6311289072036743,-2.8087832927703857,-5.07283878326416
1700944560933592000,14.556592041015625,0.0024530887603759766,-3.1649270057678223,-5.609829425811768
1700944560950584300,14.573584228515625,0.4403364658355713,-3.5048673152923584,-5.663691997528076
1700944560967577900,14.590577880859374,0.8939774632453918,-3.505249261856079,-5.405010223388672
1700944560984570600,14.607570556640624,1.2389941215515137,-3.3183016777038574,-5.139644145965576
1700944561001563600,14.624563720703126,1.205201506614685,-3.2299466133117676,-5.286465167999268
1700944561018549200,14.64154931640625,0.9305567145347595,-3.6878340244293213,-5.701458930969238
1700944561035549700,14.6585498046875,1.369112253189087,-4.2053375244140625,-6.043957710266113
1700944561052538000,14.6755380859375,1.6518235206604004,-4.57222843170166,-6.33339262008667
1700944561069540600,14.69254052734375,1.5412182807922363,-4.78228759765625,-6.216414451599121
1700944561086528800,14.70952880859375,1.527768850326538,-4.803534030914307,-5.6249494552612305
1700944561103520800,14.726520751953124,1.3699740171432495,-5.343218803405762,-4.996371269226074
1700944561120515800,14.743515869140625,0.9540920257568359,-6.665462970733643,-4.375426292419434
1700944561137508000,14.760508056640624,0.21305465698242188,-8.318933486938477,-4.2030534744262695
1700944561154500600,14.77750048828125,0.24579286575317383,-9.135212898254395,-4.215215682983398
1700944561171493600,14.79449365234375,1.6728750467300415,-9.562352180480957,-2.9402589797973633
1700944561188486700,14.811486572265625,3.336134672164917,-9.447870254516602,0.008566856384277344
1700944561205477400,14.828477294921875,4.149983882904053,-8.621851921081543,3.953791618347168
1700944561222475500,14.8454755859375,2.85308575630188,-8.410235404968262,8.008077621459961
1700944561239466000,14.862466064453125,1.6655997037887573,-8.111040115356445,9.322690963745117
1700944561256459000,14.879458984375,2.222214937210083,-7.54851770401001,8.01339340209961
1700944561273452300,14.896452392578125,3.1466457843780518,-6.691206932067871,5.282108306884766
1700944561290444500,14.913444580078124,3.8731842041015625,-5.394657611846924,2.5807714462280273
1700944561307437800,14.930437744140624,4.20304012298584,-4.195344924926758,1.2779979705810547
1700944561324431000,14.94743115234375,4.161385536193848,-3.0968308448791504,1.9947376251220703
1700944561341424000,14.964424072265626,3.879828691482544,-1.223052740097046,1.8838977813720703
1700944561358416600,14.981416748046875,2.7125535011291504,-0.012271642684936523,0.6910333633422852
1700944561375410000,14.998409912109375,1.5407477617263794,0.5645043849945068,-0.6333255767822266
1700944561392403200,15.0154033203125,1.0030674934387207,0.9508035182952881,-1.791666030883789
1700944561409396500,15.032396484375,0.9261849522590637,0.9130871295928955,-2.2235641479492188
1700944561426389000,15.049388916015625,1.3944425582885742,0.7284715175628662,-1.7130460739135742
1700944561443379200,15.066379150390626,2.1771395206451416,0.8603706359863281,-0.8634343147277832
1700944561460377600,15.083377685546875,2.7914185523986816,1.0769922733306885,-0.10704994201660156
1700944561477359000,15.100359130859376,2.9740262031555176,1.0982589721679688,0.46337032318115234
1700944561494358500,15.117358642578125,3.088747501373291,1.307016372680664,0.9144935607910156
1700944561511346200,15.13434619140625,3.4268651008605957,1.4387197494506836,2.467376708984375
1700944561528350200,15.15135009765625,3.48928165435791,2.080470561981201,3.661452293395996
1700944561545336300,15.16833642578125,3.159785270690918,2.6461679935455322,4.03038215637207
1700944561562337300,15.185337158203126,2.7590479850769043,3.4547126293182373,3.607191562652588
1700944561579326200,15.202326171875,2.431248188018799,3.9829649925231934,3.8224854469299316
1700944561596319200,15.2193193359375,2.3050222396850586,4.600982666015625,4.748650550842285
1700944561613312800,15.236312744140625,1.4953789710998535,5.297623157501221,4.870492935180664
1700944561630305300,15.25330517578125,0.6619190573692322,5.520326137542725,4.052334785461426
1700944561647298600,15.270298583984374,0.4704568386077881,4.354788303375244,4.062047004699707
1700944561664291300,15.287291259765626,0.9392433762550354,2.7925498485565186,4.73992919921875
1700944561681284900,15.304284912109376,1.8534765243530273,2.383174419403076,4.856927871704102
1700944561698282800,15.32128271484375,2.403963088989258,2.60597562789917,5.504818916320801
1700944561715270700,15.338270751953125,1.9025698900222778,3.388371467590332,5.104310989379883
1700944561732263400,15.355263427734375,1.2208881378173828,3.5123062133789062,4.210166931152344
1700944561749256700,15.372256591796875,1.1109137535095215,2.9558258056640625,3.4861526489257812
1700944561766246700,15.38924658203125,1.8171532154083252,2.0273773670196533,3.2312803268432617
1700944561783234800,15.40623486328125,2.0593762397766113,1.1057634353637695,4.08526611328125
1700944561800233700,15.423233642578126,0.7723312973976135,-0.011156082153320312,5.303979873657227
1700944561817231000,15.440231201171875,-1.417810082435608,-0.7682545185089111,5.685635566711426
1700944561834221600,15.4572216796875,-3.086865186691284,-1.4921338558197021,5.332187652587891
1700944561851214800,15.47421484375,-3.331035852432251,-1.899796724319458,4.24169921875
1700944561868192000,15.49119189453125,-2.5959925651550293,-2.197201728820801,3.2519845962524414
1700944561885201000,15.508200927734375,-2.0568413734436035,-2.720876932144165,2.614041328430176
1700944561902193400,15.525193359375,-2.0120420455932617,-3.31289005279541,2.1104488372802734
1700944561919182800,15.542182861328126,-2.2362074851989746,-3.5927724838256836,1.1698036193847656
1700944561936180000,15.559179931640625,-2.6156909465789795,-3.85664701461792,0.05947303771972656
1700944561953173000,15.576173095703124,-2.56215763092041,-4.09337854385376,-0.941655158996582
1700944561970165500,15.59316552734375,-2.117182493209839,-4.339580059051514,-1.7524967193603516
1700944561987158800,15.61015869140625,-1.4654502868652344,-4.772221565246582,-1.9168062210083008
1700944562004151800,15.62715185546875,-1.5091980695724487,-4.948040962219238,-2.426525115966797
1700944562021145000,15.64414501953125,-1.683545708656311,-4.830912113189697,-3.1174750328063965
1700944562038137600,15.6611376953125,-1.95475172996521,-4.701330661773682,-3.8212203979492188
1700944562055128600,15.678128662109375,-2.103602170944214,-4.678699493408203,-4.363214492797852
1700944562072126200,15.695126220703125,-2.0771546363830566,-4.81885290145874,-4.664825439453125
1700944562089117200,15.7121171875,-1.8833903074264526,-4.968629837036133,-5.026118755340576
1700944562106107100,15.729107177734376,-1.2815810441970825,-4.952082633972168,-5.252922058105469
1700944562123106000,15.74610595703125,-0.7889012098312378,-5.03107213973999,-5.113163948059082
1700944562140095700,15.763095703125,-0.1734129786491394,-5.124162197113037,-4.794328212738037
1700944562157075200,15.7800751953125,0.50237637758255,-5.207120418548584,-4.187932014465332
1700944562174082000,15.79708203125,0.6559860110282898,-5.397246837615967,-3.493950843811035
1700944562191072300,15.814072265625,0.46803170442581177,-5.499247074127197,-2.8111724853515625
1700944562208070700,15.831070556640626,-0.22779209911823273,-5.963223934173584,-2.027449131011963
1700944562225061400,15.848061279296875,-0.7585572004318237,-6.712045669555664,-1.3605756759643555
1700944562242054000,15.865053955078125,-0.5007789731025696,-6.585205078125,-1.2249584197998047
1700944562259047200,15.882047119140625,0.591191291809082,-6.028768539428711,-0.6493749618530273
1700944562276040200,15.899040283203124,1.8109681606292725,-5.236721038818359,0.9859790802001953
1700944562293033500,15.916033447265624,2.208712577819824,-4.496724605560303,2.4251508712768555
1700944562310015700,15.933015625,1.4893419742584229,-4.359646797180176,2.658966064453125
1700944562327019300,15.950019287109376,1.276041030883789,-4.282526969909668,1.9519062042236328
1700944562344009700,15.967009765625,2.427751302719116,-3.95627498626709,1.401510238647461
1700944562361008000,15.984008056640626,3.5692296028137207,-3.2925403118133545,1.4845008850097656
1700944562377986300,16.000986328125,3.9748525619506836,-2.532360553741455,2.130915641784668
1700944562394987500,16.017987548828124,3.500317335128784,-1.2881441116333008,2.5659523010253906
1700944562411984400,16.034984375,2.1110141277313232,0.16442227363586426,2.199814796447754
1700944562428977700,16.051977783203125,0.8696703910827637,1.480736494064331,1.4950532913208008
1700944562445970200,16.06897021484375,0.4652211666107178,2.7124900817871094,0.6315069198608398
1700944562462963700,16.085963623046876,0.5632047653198242,3.5560927391052246,0.11347103118896484
1700944562479956500,16.10295654296875,0.7121506333351135,4.165365219116211,-0.03139209747314453
1700944562496949800,16.11994970703125,0.5545148253440857,4.719207763671875,-0.14068889617919922
1700944562513939000,16.13693896484375,0.05168925225734711,5.363082408905029,-0.3146219253540039
1700944562530939000,16.15393896484375,-0.7042527794837952,5.851513385772705,-0.8763222694396973
1700944562547926300,16.17092626953125,-1.3059426546096802,6.129894256591797,-1.4954643249511719
1700944562564919300,16.187919189453126,-1.568493366241455,6.063809871673584,-1.878492832183838
1700944562581913000,16.2049130859375,-1.4491976499557495,5.816735744476318,-1.9520883560180664
1700944562598911500,16.221911376953123,-1.0328174829483032,5.633916854858398,-1.7993402481079102
1700944562615900700,16.238900634765624,-0.8846397995948792,5.303290843963623,-1.368936538696289
1700944562632894000,16.25589404296875,-0.9588937759399414,5.03194522857666,-1.2636213302612305
1700944562649886500,16.272886474609376,-1.0392091274261475,4.743896484375,-0.9318132400512695
1700944562666877700,16.289877685546877,-1.2825679779052734,4.510909080505371,-0.14575910568237305
1700944562683874800,16.306874755859376,-1.5802422761917114,4.452854633331299,0.8780746459960938
1700944562700866300,16.3238662109375,-1.6916636228561401,3.737867832183838,2.395030975341797
1700944562717858600,16.340858642578127,-1.605248212814331,2.3051462173461914,3.6053762435913086
1700944562734850000,16.35785009765625,-0.5652303695678711,1.6504981517791748,4.669705390930176
1700944562751846700,16.3748466796875,-0.27131691575050354,0.1747422218322754,7.53291130065918
1700944562768838100,16.391838134765624,-1.1196067333221436,-3.359445571899414,12.0359468460083
1700944562785831000,16.408830810546874,-1.0140042304992676,-4.649202346801758,13.192127227783203
1700944562802824000,16.425823974609376,0.4071276783943176,-3.9891891479492188,12.671392440795898
1700944562819817000,16.44281689453125,1.1053807735443115,-3.482658863067627,12.091530799865723
1700944562836810200,16.459810302734375,1.9467360973358154,-3.2122888565063477,11.006049156188965
1700944562853802800,16.476802734375,2.686476469039917,-4.198034286499023,10.356633186340332
1700944562870795800,16.493795654296875,3.342864990234375,-5.167238235473633,9.369255065917969
1700944562887789000,16.5107890625,3.3347392082214355,-5.28916072845459,7.305887222290039
1700944562904782300,16.5277822265625,3.006890296936035,-4.263718605041504,4.124514579772949
1700944562921774800,16.54477490234375,2.631809711456299,-3.2634897232055664,1.206254005432129
1700944562938768100,16.56176806640625,2.022447347640991,-2.9294800758361816,-1.0248289108276367
1700944562955757000,16.578757080078127,1.579756498336792,-2.901754856109619,-2.727644920349121
1700944562972758800,16.5957587890625,1.3701910972595215,-3.0231778621673584,-4.040224552154541
1700944562989740500,16.612740478515626,1.5382442474365234,-3.02166748046875,-5.101058483123779
1700944563006740200,16.629740234375,1.654919147491455,-3.0055034160614014,-5.881577491760254
1700944563023733000,16.64673291015625,1.6309123039245605,-3.212181329727173,-6.015878200531006
1700944563040718800,16.66371875,1.60092294216156,-3.3643808364868164,-6.101473331451416
1700944563057718800,16.68071875,1.4955170154571533,-3.5698978900909424,-6.4606523513793945
1700944563074712300,16.69771240234375,1.2045527696609497,-3.929996967315674,-6.996511936187744
1700944563091705300,16.714705322265626,1.1062097549438477,-4.400393486022949,-7.5930047035217285
1700944563108698600,16.73169873046875,1.0030022859573364,-4.623380661010742,-8.270134925842285
1700944563125691100,16.748691162109374,0.9529712796211243,-5.0069661140441895,-8.516692161560059
1700944563142684400,16.765684326171876,0.9111399054527283,-5.476049423217773,-8.332659721374512
1700944563159674000,16.782674072265625,1.0072989463806152,-6.012639045715332,-7.998663902282715
1700944563176671000,16.7996708984375,1.276416540145874,-6.389618396759033,-7.768614768981934
1700944563193666600,16.81666650390625,1.3532335758209229,-6.715762138366699,-7.2507829666137695
1700944563210653400,16.8336533203125,-0.0007165670394897461,-6.269498825073242,-6.754460334777832
1700944563227646500,16.850646484375,-1.072594165802002,-6.47597599029541,-4.21584415435791
1700944563244642600,16.867642578125,-0.3883928060531616,-7.336761951446533,-0.47097110748291016
1700944563261635600,16.884635498046876,-0.039854466915130615,-8.120896339416504,1.281620979309082
1700944563278628600,16.901628662109374,-0.40918678045272827,-7.547601699829102,0.32065486907958984
1700944563295621400,16.918621337890624,0.5303683280944824,-7.603499412536621,1.2395524978637695
1700944563312604400,16.9356044921875,2.277028799057007,-7.7914533615112305,4.42534065246582
1700944563329607400,16.952607421875,2.754056453704834,-7.66563606262207,8.088940620422363
1700944563346600700,16.9696005859375,1.8176863193511963,-7.266313552856445,9.574831008911133
1700944563363593700,16.98659375,-0.2390339970588684,-6.449892997741699,8.418057441711426
1700944563380587000,17.0035869140625,-1.9248055219650269,-5.353889465332031,6.62873649597168
1700944563397579300,17.020579345703126,-3.366366386413574,-3.654776096343994,4.959383964538574
1700944563414571000,17.037571044921876,-4.053277969360352,-1.8516178131103516,3.7373647689819336
1700944563431555000,17.05455517578125,-3.699516773223877,-0.31593966484069824,3.269834518432617
1700944563448558800,17.071558837890624,-2.7951929569244385,1.0767393112182617,3.3969202041625977
1700944563465551600,17.088551513671874,-2.1565756797790527,2.3878939151763916,3.0412893295288086
1700944563482545000,17.105544921875,-1.9871389865875244,3.208839178085327,2.2478199005126953
1700944563499538000,17.122537841796873,-1.8433825969696045,3.6611812114715576,1.6210885047912598
1700944563516531200,17.13953125,-1.3899266719818115,3.9662790298461914,1.320892333984375
1700944563533523500,17.1565234375,-0.6499966382980347,4.368465423583984,0.6428499221801758
1700944563550517000,17.17351708984375,0.24340084195137024,4.406761169433594,-0.2327122688293457
1700944563567510000,17.190510009765624,0.7756506204605103,3.978543758392334,-1.0180673599243164
1700944563584503300,17.20750341796875,1.070534586906433,4.172695636749268,-2.2414655685424805
1700944563601498400,17.224498291015625,0.9763581156730652,4.130270004272461,-2.635985851287842
1700944563618486800,17.24148681640625,0.818928599357605,3.884005546569824,-2.258547306060791
1700944563635471600,17.2584716796875,1.2669023275375366,3.767224073410034,-1.731102466583252
1700944563652475600,17.2754755859375,1.9214650392532349,3.558525323867798,-1.2374687194824219
1700944563669468000,17.292468017578123,2.4660770893096924,3.117492914199829,-0.47923898696899414
1700944563686461000,17.3094609375,2.4655346870422363,3.2866382598876953,0.011469841003417969
1700944563703454200,17.3264541015625,1.2526092529296875,3.2919843196868896,0.6651768684387207
1700944563720443100,17.343443115234376,-0.07867381721735,3.554563522338867,1.7616276741027832
1700944563737440000,17.36043994140625,-0.7446687817573547,2.7288272380828857,3.612337112426758
1700944563754433300,17.377433349609376,-0.10588239133358002,1.8136162757873535,5.149381637573242
1700944563771426300,17.39442626953125,1.6201584339141846,1.0583438873291016,6.996914863586426
1700944563788419600,17.411419677734376,2.603001594543457,-1.8484158515930176,10.836078643798828
1700944563805405700,17.42840576171875,2.6679298877716064,-4.007625579833984,13.055702209472656
1700944563822388700,17.445388671875,3.3046247959136963,-2.9775338172912598,12.706964492797852
1700944563839399700,17.462399658203125,3.055757999420166,-1.7833552360534668,12.348454475402832
1700944563856390700,17.479390625,2.5716235637664795,-1.9866456985473633,11.262709617614746
1700944563873384200,17.49638427734375,2.474250316619873,-3.6561636924743652,9.952425956726074
1700944563890377700,17.513377685546875,2.564432382583618,-5.049004077911377,8.458175659179688
1700944563907370500,17.53037060546875,2.0365307331085205,-4.961162090301514,5.987225532531738
1700944563924363800,17.54736376953125,0.9153330326080322,-3.8267476558685303,3.0289154052734375
1700944563941356000,17.56435595703125,0.2841351628303528,-2.144380569458008,0.6554241180419922
1700944563958349600,17.581349609375,-0.3102959394454956,-1.1737408638000488,-0.8734054565429688
1700944563975342600,17.598342529296875,-1.0047171115875244,-0.8856041431427002,-2.535616874694824
1700944563992336000,17.6153359375,-1.0675033330917358,-0.9130527973175049,-3.738206386566162
1700944564009328400,17.632328369140627,-0.4975619316101074,-0.9989166259765625,-4.254917144775391
1700944564026322000,17.649322021484377,0.3654446005821228,-1.08720862865448,-4.562614917755127
1700944564043310800,17.666310791015626,1.0282127857208252,-1.1394397020339966,-5.071569919586182
1700944564060308200,17.68330810546875,1.3653244972229004,-1.0978670120239258,-5.831712245941162
1700944564077300700,17.70030078125,1.0351353883743286,-1.1946237087249756,-6.366845607757568
1700944564094290400,17.71729052734375,0.4905017912387848,-1.242171287536621,-6.683969974517822
1700944564111286500,17.73428662109375,0.01645749807357788,-1.090034008026123,-7.125133037567139
1700944564128279800,17.75127978515625,-0.2799219489097595,-1.2007708549499512,-7.612094879150391
1700944564145272600,17.7682724609375,-0.5947700142860413,-1.6327120065689087,-8.10242748260498
1700944564162267600,17.785267578125,-0.6937411427497864,-2.4420552253723145,-8.378289222717285
1700944564179257300,17.80225732421875,-0.15574181079864502,-2.9301323890686035,-8.564218521118164
1700944564196252200,17.819252197265627,0.5437860488891602,-3.44974422454834,-8.25599193572998
1700944564213244700,17.83624462890625,1.3210091590881348,-3.896339178085327,-7.417300701141357
1700944564230238000,17.853238037109374,1.8493850231170654,-4.401549816131592,-6.089457035064697
1700944564247231000,17.87023095703125,2.3323981761932373,-5.471623420715332,-4.148507595062256
1700944564264224000,17.88722412109375,1.7212400436401367,-6.133913993835449,-2.6395797729492188
1700944564281216800,17.904216796875,0.8529939651489258,-6.297608852386475,-2.337223529815674
1700944564298210000,17.9212099609375,0.13775229454040527,-7.452934741973877,-0.5911235809326172
1700944564315203600,17.93820361328125,-0.16706395149230957,-9.577668190002441,2.7452526092529297
1700944564332195600,17.955195556640625,0.917204737663269,-10.053600311279297,4.366338729858398
1700944564349178600,17.9721787109375,2.42875337600708,-10.409031867980957,5.030185699462891
1700944564366182100,17.98918212890625,4.03309440612793,-9.102933883666992,4.304479598999023
1700944564383175000,18.0061748046875,5.364185333251953,-7.172745704650879,4.018326759338379
1700944564400168400,18.02316845703125,5.296476364135742,-6.413265228271484,5.9024200439453125
1700944564417161000,18.040160888671874,3.6575984954833984,-5.900969505310059,7.207592010498047
1700944564434154000,18.057154052734376,1.1735998392105103,-4.926512241363525,7.538860321044922
1700944564451141400,18.074141357421876,-1.4573602676391602,-3.0026726722717285,6.490114212036133
1700944564468140300,18.091140380859375,-3.405806303024292,-0.4550909996032715,4.945494651794434
1700944564485133000,18.108133056640625,-4.278320789337158,1.3826751708984375,3.6794605255126953
1700944564502126000,18.1251259765625,-3.6639039516448975,2.538529396057129,3.2538585662841797
1700944564519119400,18.142119384765625,-2.0958824157714844,3.2796170711517334,3.470989227294922
1700944564536110300,18.1591103515625,-0.49622291326522827,3.925257444381714,3.8716683387756348
1700944564553107500,18.176107421875,0.17953866720199585,4.556870460510254,3.2816524505615234
1700944564570098400,18.193098388671874,0.259790301322937,4.705257415771484,2.517366409301758
1700944564587091200,18.21009130859375,0.09781533479690552,4.796730995178223,1.160508155822754
1700944564604084500,18.22708447265625,-0.16098111867904663,4.9780592918396,0.023625850677490234
1700944564621077500,18.244077392578124,-0.289689838886261,4.919946670532227,-0.5314126014709473
1700944564638070500,18.261070556640625,0.03913724422454834,4.750661849975586,-0.3730916976928711
1700944564655063300,18.278063232421875,0.6021484136581421,4.537799835205078,0.32908058166503906
1700944564672056600,18.295056640625,0.7491868734359741,4.5270891189575195,1.0470452308654785
1700944564689049300,18.31204931640625,0.028750896453857422,4.2791290283203125,1.5768141746520996
1700944564706039800,18.329039794921876,-0.9289880990982056,3.8280978202819824,2.006765842437744
1700944564723038200,18.3460380859375,-1.1738935708999634,3.788217544555664,2.431530475616455
1700944564740029000,18.36302880859375,-0.9407178163528442,3.8910698890686035,3.410386085510254
1700944564757021200,18.380021240234374,-0.6438459753990173,4.34324312210083,4.368699073791504
1700944564774014700,18.3970146484375,-0.8687219619750977,4.655566692352295,5.0083909034729
1700944564791009800,18.414009765625,-1.4751613140106201,4.715142726898193,5.182162284851074
1700944564807999000,18.4309990234375,-1.9444791078567505,4.306800842285156,5.062679290771484
1700944564824993300,18.4479931640625,-1.6677205562591553,3.1781320571899414,5.452751636505127
1700944564841986800,18.46498681640625,-0.7620002031326294,1.6261186599731445,6.032934665679932
1700944564858979600,18.4819794921875,0.23229074478149414,-0.3483576774597168,7.191223621368408
1700944564875973000,18.49897314453125,0.4577542543411255,-2.993069648742676,8.985031127929688
1700944564892965400,18.51596533203125,0.43202757835388184,-7.62848424911499,11.583871841430664
1700944564909946400,18.5329462890625,0.8751133680343628,-10.873621940612793,11.926326751708984
1700944564926954800,18.549954833984376,2.4346225261688232,-9.447132110595703,9.093070983886719
1700944564943942000,18.56694189453125,4.421226978302002,-6.802488327026367,6.963433265686035
1700944564960937700,18.583937744140623,5.54594087600708,-5.382478713989258,5.6190643310546875
1700944564977931000,18.600930908203125,5.8210673332214355,-5.994270324707031,4.930376052856445
1700944564994923800,18.617923828125,4.675346851348877,-7.449747085571289,3.936823844909668
1700944565011917300,18.634917236328125,3.122725009918213,-7.816197395324707,0.6775484085083008
1700944565028911400,18.651911376953127,2.5365073680877686,-5.615413665771484,-3.4392809867858887
1700944565045901300,18.6689013671875,2.401906967163086,-3.3387222290039062,-5.316715717315674
1700944565062896400,18.685896484375,1.8771570920944214,-1.7155752182006836,-5.976495265960693
1700944565079889400,18.702889404296876,1.0301563739776611,-0.9267846345901489,-6.2303314208984375
1700944565096885000,18.719885009765626,-0.11705416440963745,-0.7694395780563354,-6.155609130859375
1700944565113872000,18.736871826171875,-1.1974239349365234,-0.6992985010147095,-6.399741172790527
1700944565130868200,18.7538681640625,-1.876735806465149,-0.6893337965011597,-7.1065778732299805
1700944565147859000,18.77085888671875,-2.1460659503936768,-0.7908957004547119,-7.799976825714111
1700944565164856600,18.787856689453125,-1.9844400882720947,-0.9045919179916382,-7.8047990798950195
1700944565181844500,18.804844482421874,-1.2126154899597168,-0.4685385227203369,-7.851010799407959
1700944565198843000,18.8218427734375,-0.7423447370529175,-0.27351629734039307,-7.846872329711914
1700944565215833300,18.838833251953126,-0.8603927493095398,-0.45565199851989746,-7.625673294067383
1700944565232825900,18.855825927734376,-1.4072933197021484,-0.6239117980003357,-7.7122626304626465
1700944565249819100,18.872819091796874,-1.9046587944030762,-0.8537665605545044,-7.76017951965332
1700944565266812200,18.889812255859376,-2.13791561126709,-0.894280195236206,-7.844813823699951
1700944565283811000,18.90681103515625,-1.650102972984314,-1.3945608139038086,-7.517878532409668
1700944565300798200,18.923798095703123,-0.7968569993972778,-2.3764233589172363,-6.360997676849365
1700944565317791500,18.94079150390625,0.48123276233673096,-3.816950559616089,-4.817187309265137
1700944565334781400,18.957781494140626,0.549290120601654,-4.925393581390381,-4.268253803253174
1700944565351777800,18.97477783203125,-0.07646334171295166,-5.4141974449157715,-4.464740753173828
1700944565368770000,18.99177001953125,-0.9883267283439636,-6.32373571395874,-2.336691379547119
1700944565385763300,19.008763427734376,-3.1867852210998535,-8.59864330291748,1.367990493774414
1700944565402756600,19.025756591796874,-3.173741102218628,-10.976187705993652,4.046612739562988
1700944565419750000,19.04275,0.13899192214012146,-12.529873847961426,6.006081581115723
1700944565436742400,19.059742431640625,4.446983337402344,-12.101414680480957,7.529613494873047
1700944565453735700,19.076735595703123,8.27192497253418,-9.492256164550781,9.378385543823242
1700944565470728700,19.093728759765625,8.809089660644531,-6.380927085876465,11.351969718933105
1700944565487719200,19.11071923828125,7.733315467834473,-3.5339624881744385,11.927908897399902
1700944565504716800,19.127716796875,4.098930835723877,-1.581202507019043,10.322063446044922
1700944565521707800,19.144707763671875,-0.052208311855793,0.4899168014526367,6.659428596496582
1700944565538697700,19.16169775390625,-2.3383779525756836,2.2056021690368652,3.7398529052734375
1700944565555697200,19.178697265625,-3.553192615509033,3.5345115661621094,1.5906000137329102
1700944565572677000,19.195677001953126,-3.039012908935547,4.082027912139893,0.6474008560180664
1700944565589676800,19.2126767578125,-1.2538343667984009,4.249533653259277,1.5279674530029297
1700944565606675200,19.22967529296875,0.6136993765830994,4.993268013000488,1.4985861778259277
1700944565623666200,19.246666259765625,0.7629469037055969,5.69866418838501,0.20632505416870117
1700944565640658700,19.26365869140625,-0.4390549659729004,5.95098876953125,-1.273200511932373
1700944565657651700,19.280651611328125,-1.7147791385650635,6.03207540512085,-2.4259963035583496
1700944565674645000,19.29764501953125,-2.110684394836426,5.942893028259277,-2.6075282096862793
1700944565691638300,19.31463818359375,-1.6210741996765137,5.784498691558838,-2.2669553756713867
1700944565708630800,19.331630859375,-0.633836030960083,5.698070526123047,-1.5241951942443848
1700944565725613300,19.34861328125,0.033293187618255615,6.032377243041992,-1.6489720344543457
1700944565742616800,19.365616943359374,-0.5249751210212708,5.895291328430176,-1.8134655952453613
1700944565759610000,19.382610107421876,-1.5514017343521118,5.63517951965332,-1.6403169631958008
1700944565776592400,19.39959228515625,-2.479785919189453,5.181231498718262,-0.9068970680236816
1700944565793596200,19.41659619140625,-2.5505213737487793,4.517573356628418,0.4696478843688965
1700944565810589200,19.433589111328125,-2.3724465370178223,4.08009147644043,1.9298906326293945
1700944565827582200,19.450582275390627,-1.7577526569366455,2.70712947845459,3.742046356201172
1700944565844575000,19.467574951171876,-1.2528412342071533,0.43968677520751953,5.009602069854736
1700944565861568300,19.484568359375,0.3941248059272766,-1.7516708374023438,7.347538471221924
1700944565878561300,19.501561279296876,0.9612711668014526,-5.186822891235352,11.98250675201416
1700944565895552500,19.518552490234374,0.3494722843170166,-7.346005439758301,14.21076774597168
1700944565912548900,19.535548828125,1.3158082962036133,-6.30686616897583,13.995603561401367
1700944565929540000,19.5525400390625,3.7851874828338623,-4.0619330406188965,13.450790405273438
1700944565946533400,19.569533447265623,6.563728332519531,-3.129127025604248,13.506795883178711
1700944565963526700,19.586526611328125,8.02121639251709,-4.442809104919434,12.875044822692871
1700944565980519000,19.603518798828127,7.018863677978516,-5.811467170715332,10.347907066345215
1700944565997512200,19.62051220703125,4.680368900299072,-6.274697780609131,6.8618574142456055
1700944566014505500,19.63750537109375,2.4928128719329834,-5.484646320343018,2.9025678634643555
1700944566031505700,19.654505615234374,1.2175216674804688,-4.395254135131836,-0.15752792358398438
1700944566048491300,19.6714912109375,0.6092477440834045,-3.46219539642334,-2.115422248840332
1700944566065484300,19.688484375,0.40529364347457886,-2.783642292022705,-3.850956439971924
1700944566082477300,19.705477294921874,0.3095009922981262,-2.3363490104675293,-5.122110843658447
1700944566099470600,19.722470703125,0.2314862608909607,-2.161489963531494,-5.688338756561279
1700944566116453000,19.739453125,0.25991034507751465,-1.978362798690796,-6.162285804748535
1700944566133458200,19.756458251953124,0.37486734986305237,-1.9411325454711914,-6.601702690124512
1700944566150447600,19.773447509765624,0.3769533038139343,-1.9396370649337769,-7.178414344787598
1700944566167443000,19.79044287109375,0.15289953351020813,-2.109039545059204,-7.859825134277344
1700944566184432600,19.8074326171875,-0.34141141176223755,-2.3520896434783936,-8.491044044494629
1700944566201431300,19.824431396484375,-1.0655103921890259,-2.7159273624420166,-8.757630348205566
1700944566218418200,19.841418212890623,-1.2636475563049316,-3.0340161323547363,-8.872920036315918
1700944566235415000,19.8584150390625,-1.128922939300537,-3.249465227127075,-9.13524055480957
1700944566252407600,19.875407470703124,-0.8559361100196838,-3.7090492248535156,-9.225244522094727
1700944566269400600,19.892400634765625,0.1257234662771225,-3.9515132904052734,-9.225236892700195
1700944566286393600,19.9093935546875,1.3684920072555542,-4.175037860870361,-8.684951782226562
1700944566303387100,19.92638720703125,1.9568414688110352,-4.437486171722412,-7.856220245361328
1700944566320379400,19.94337939453125,2.0347254276275635,-4.305722713470459,-6.521557807922363
1700944566337372400,19.960372314453124,1.5426898002624512,-4.950334072113037,-4.358969688415527
1700944566354366200,19.9773662109375,0.5487107038497925,-5.652325630187988,-3.1683168411254883
1700944566371359000,19.99435888671875,0.0003184974193572998,-5.2003397941589355,-2.9108967781066895
1700944566388351500,20.0113515625,-1.0656605958938599,-5.784791469573975,-2.31827974319458
1700944566405344800,20.0283447265625,-2.040741205215454,-7.728981971740723,-0.8723297119140625
1700944566422325200,20.0453251953125,-1.534253716468811,-9.405866622924805,0.2864675521850586
1700944566439333000,20.0623330078125,0.562566876411438,-10.998156547546387,2.638840675354004
1700944566456323800,20.07932373046875,3.028024673461914,-10.482893943786621,4.958620071411133
1700944566473316900,20.09631689453125,4.9767303466796875,-9.244643211364746,8.034473419189453
1700944566490310000,20.113309814453125,6.098272800445557,-7.532464027404785,11.132526397705078
1700944566507303400,20.130303466796875,4.912506103515625,-5.9032392501831055,12.589191436767578
1700944566524295700,20.147295654296876,1.2793920040130615,-4.034885883331299,12.303593635559082
1700944566541289000,20.1642890625,-2.5605556964874268,-1.700087070465088,10.14256763458252
1700944566558282000,20.181281982421876,-5.379339694976807,0.6895046234130859,8.101890563964844
1700944566575275500,20.198275634765626,-5.418498516082764,2.535766839981079,7.169247627258301
1700944566592267800,20.215267822265623,-3.0245838165283203,3.8946902751922607,7.960376262664795
1700944566609261000,20.232260986328125,-0.5640637874603271,5.431785583496094,6.8890581130981445
1700944566626251500,20.24925146484375,-0.11143091320991516,6.261284351348877,4.635982990264893
1700944566643250000,20.26625,-0.6633280515670776,6.383149147033691,2.594557762145996
1700944566660229600,20.283229736328124,-1.1058995723724365,6.413191318511963,0.9172663688659668
1700944566677233400,20.3002333984375,-1.389326810836792,6.340708255767822,-0.19196462631225586
1700944566694216400,20.317216552734376,-1.105112910270691,6.344726085662842,-0.7813472747802734
1700944566711230500,20.33423046875,-0.6125285625457764,6.296574115753174,-1.1288032531738281
1700944566728209400,20.35120947265625,-0.31190648674964905,6.333880424499512,-1.4313387870788574
1700944566745207600,20.36820751953125,-0.10089978575706482,6.088602542877197,-1.0907678604125977
1700944566762196200,20.3851962890625,-0.13626423478126526,5.793123245239258,-0.5131063461303711
1700944566779196400,20.402196533203124,-0.5324286818504333,5.628611087799072,-0.18464374542236328
1700944566796184000,20.41918408203125,-0.7339352965354919,5.498528003692627,0.13346338272094727
1700944566813167900,20.43616796875,-0.6986900568008423,5.2862935066223145,0.4235682487487793
1700944566830180000,20.45318017578125,-0.2291063517332077,4.761979103088379,1.386479377746582
1700944566847164000,20.470163818359374,0.7473315000534058,3.927155017852783,3.534578323364258
1700944566864156400,20.487156494140624,1.014880657196045,2.1603035926818848,6.317976951599121
1700944566881149400,20.5041494140625,0.1391438990831375,1.4075393676757812,7.027956485748291
1700944566898142700,20.521142822265624,-0.3311547040939331,0.29343080520629883,7.929593086242676
1700944566915136000,20.538135986328125,-0.33907413482666016,-3.6561527252197266,11.322635650634766
1700944566932128300,20.555128173828123,0.48265597224235535,-7.149972438812256,13.64684009552002
1700944566949117400,20.572117431640624,1.7247965335845947,-8.104378700256348,13.912757873535156
1700944566966118700,20.58911865234375,2.757676601409912,-5.676185607910156,11.712801933288574
1700944566983108000,20.606108154296876,3.110576629638672,-4.416930675506592,9.775758743286133
1700944567000100600,20.6231005859375,3.8032801151275635,-4.64018440246582,8.098223686218262
1700944567017093600,20.64009375,3.610729932785034,-6.0522918701171875,6.322806358337402
1700944567034086700,20.657086669921874,3.2117526531219482,-6.920989036560059,3.78627872467041
1700944567051080000,20.674079833984376,2.55842924118042,-6.215020179748535,0.40456104278564453
1700944567068069600,20.691069580078125,1.7933456897735596,-4.51792049407959,-2.4996724128723145
1700944567085068500,20.708068603515624,1.3561501502990723,-2.852825164794922,-4.318732261657715
1700944567102058800,20.725058837890625,0.9241379499435425,-1.5803942680358887,-5.489095211029053
1700944567119052300,20.74205224609375,0.4080067276954651,-1.0623213052749634,-5.89155387878418
1700944567136041700,20.759041748046876,0.052554309368133545,-0.7376980781555176,-6.232393741607666
1700944567153040600,20.77604052734375,-0.10566174983978271,-0.7844198942184448,-6.353246688842773
1700944567170031000,20.793031005859376,-0.28814375400543213,-1.0499175786972046,-6.318260192871094
1700944567187024100,20.810024169921874,-0.5038120150566101,-1.0836219787597656,-6.64858865737915
1700944567204022300,20.827022216796873,-0.8223394155502319,-1.2426871061325073,-7.077361106872559
1700944567221010000,20.844010009765626,-1.0061110258102417,-1.3503894805908203,-7.512988567352295
1700944567238003200,20.861003173828124,-0.8186666369438171,-1.5038516521453857,-7.898862361907959
1700944567254986000,20.877986083984375,-0.5556455254554749,-1.8806345462799072,-8.391655921936035
1700944567271978200,20.894978271484376,-0.5063220858573914,-2.3868331909179688,-8.917388916015625
1700944567288982000,20.91198193359375,-0.41010940074920654,-2.6000325679779053,-9.704239845275879
1700944567305975000,20.92897509765625,-0.39421743154525757,-2.6628856658935547,-10.355863571166992
1700944567322968300,20.94596826171875,-0.403978168964386,-3.0835490226745605,-10.367188453674316
1700944567339961000,20.962961181640626,-0.26544225215911865,-4.162145614624023,-9.68553638458252
1700944567356954000,20.9799541015625,0.831312894821167,-5.105281352996826,-8.288498878479004
1700944567373947100,20.996947021484374,1.9039580821990967,-6.122364044189453,-6.175075531005859
1700944567390940700,21.013940673828124,2.667900562286377,-6.896320343017578,-3.738640785217285
1700944567407933200,21.03093310546875,1.7307908535003662,-8.542643547058105,0.0922861099243164
1700944567424926200,21.04792626953125,-0.03541278839111328,-10.233716011047363,3.134587287902832
1700944567441919200,21.064919189453125,-0.6249212026596069,-11.68555736541748,5.947609901428223
1700944567458912500,21.08191259765625,1.4764294624328613,-12.46132755279541,10.118605613708496
1700944567475905000,21.098905029296876,4.643062591552734,-10.786005973815918,13.950672149658203
1700944567492898300,21.115898193359374,6.6107659339904785,-7.613224029541016,15.927943229675293
1700944567509897700,21.132897705078125,6.491507053375244,-3.6019914150238037,14.095149993896484
1700944567526888000,21.149887939453127,3.2958178520202637,-1.1301674842834473,11.670492172241211
1700944567543876600,21.166876708984375,-0.7881070375442505,1.1807301044464111,8.32198715209961
1700944567560870400,21.183870361328125,-3.6366639137268066,2.8994951248168945,6.369698524475098
1700944567577863400,21.200863525390623,-3.9350807666778564,4.167775630950928,5.300215721130371
1700944567594856700,21.217856689453125,-2.8145992755889893,4.850521087646484,3.7201385498046875
1700944567611849200,21.23484912109375,-1.1157604455947876,4.98349142074585,1.853703498840332
1700944567628842500,21.251842529296876,0.6705600023269653,4.930027961730957,0.4422464370727539
1700944567645830700,21.26883056640625,1.8490924835205078,4.899808406829834,-0.3411221504211426
1700944567662829000,21.2858291015625,1.9622552394866943,4.983043670654297,-1.6186151504516602
1700944567679824600,21.30282470703125,0.9204571843147278,4.8294782638549805,-2.927198886871338
1700944567696811500,21.3198115234375,0.0838283896446228,4.54589319229126,-3.538802146911621
1700944567713806300,21.336806396484373,-0.0032445192337036133,4.225689888000488,-3.79779052734375
1700944567730802200,21.35380224609375,0.535912275314331,4.024989128112793,-3.423828125
1700944567747793700,21.370793701171873,0.7320658564567566,4.092726230621338,-2.58705472946167
1700944567764786700,21.38778662109375,0.9284229874610901,4.389133930206299,-1.4165053367614746
1700944567781779700,21.40477978515625,0.4174044728279114,4.614835739135742,-0.839655876159668
1700944567798773200,21.421773193359375,-0.13738277554512024,4.721025466918945,-0.13696765899658203
1700944567815765500,21.438765625,-0.2960173487663269,4.82089376449585,1.0801219940185547
1700944567832758800,21.4557587890625,-0.20964324474334717,4.814420223236084,2.25679349899292
1700944567849752000,21.472751953125,0.11473412811756134,3.8230409622192383,3.571847915649414
1700944567866745300,21.489745361328126,1.165501356124878,2.893869638442993,4.037656307220459
1700944567883727400,21.506727294921873,2.5125949382781982,2.0485973358154297,4.448002338409424
1700944567900731000,21.52373095703125,3.4749345779418945,0.3896613121032715,6.235836505889893
1700944567917723600,21.5407236328125,3.8770833015441895,-1.9378323554992676,9.279997825622559
1700944567934717200,21.55771728515625,3.3540658950805664,-3.9044289588928223,11.453972816467285
1700944567951712800,21.574712646484375,2.4289190769195557,-3.6417293548583984,10.991661071777344
1700944567968699600,21.59169970703125,2.0633835792541504,-2.248180866241455,9.342270851135254
1700944567985703700,21.60870361328125,2.302626132965088,-1.291795253753662,7.524620056152344
1700944568002689300,21.625689208984376,3.080594539642334,-1.5866718292236328,6.0817766189575195
1700944568019681800,21.642681884765626,3.4026436805725098,-2.7754454612731934,5.362176895141602
