time,seconds_elapsed,z,y,x
1700944695765091600,0.108091552734375,-1.7281651496887207,-1.4645166397094727,-0.39548587799072266
1700944695782088000,0.125087890625,-1.6450719833374023,-1.6572389602661133,0.3340611457824707
1700944695799080400,0.14208056640625,-1.4930386543273926,-1.684227466583252,1.1469855308532715
1700944695816072000,0.159072021484375,-0.6860723495483398,-2.0777130126953125,1.290736436843872
1700944695833057000,0.17605712890625,0.48299360275268555,-2.5627150535583496,0.795428991317749
1700944695850060000,0.19306005859375,1.3233551979064941,-2.788055419921875,0.09513998031616211
1700944695867054800,0.210054931640625,-0.3358139991760254,-3.2547993659973145,0.07355451583862305
1700944695884043800,0.227043701171875,-2.1382153034210205,-3.9146735668182373,0.061867713928222656
1700944695901039600,0.24403955078125,-2.4451138973236084,-4.423879623413086,-0.19439935684204102
1700944695918034200,0.2610341796875,-1.680037498474121,-5.186366558074951,-0.49754762649536133
1700944695935023400,0.2780234375,-0.5750219821929932,-5.991092205047607,-1.5849428176879883
1700944695952031500,0.295031494140625,0.3610656261444092,-6.763340950012207,-2.920772075653076
1700944695969013200,0.31201318359375,0.14019465446472168,-7.073209285736084,-3.3247036933898926
1700944695986002400,0.32900244140625,-1.4569168090820312,-7.488025188446045,-2.4509716033935547
1700944696002999300,0.345999267578125,-1.6679929494857788,-7.569048881530762,-1.5411429405212402
1700944696019992300,0.362992431640625,-0.7667288780212402,-7.075428009033203,-1.5813093185424805
1700944696036985900,0.37998583984375,0.3922300338745117,-6.515282154083252,-1.2317829132080078
1700944696053976300,0.396976318359375,1.4713044166564941,-5.719525337219238,-0.011096000671386719
1700944696070972000,0.413971923828125,1.4867984056472778,-4.860137939453125,1.9367265701293945
1700944696087966000,0.430966064453125,-0.12137532234191895,-3.5751993656158447,4.073258399963379
1700944696104955100,0.447955078125,-2.4138436317443848,-2.4333767890930176,5.346383094787598
1700944696121950500,0.464950439453125,-3.493992328643799,-1.7291646003723145,5.088332176208496
1700944696138945800,0.48194580078125,-2.2847824096679688,-1.2594940662384033,4.224813461303711
1700944696155932200,0.49893212890625,-0.10806012153625488,-0.7917593717575073,3.3158884048461914
1700944696172933600,0.51593359375,1.3593206405639648,-0.8594797253608704,2.847902297973633
1700944696189909500,0.532909423828125,2.5351524353027344,-0.912143349647522,2.9054126739501953
1700944696206932000,0.549931884765625,3.067683696746826,-1.0005581378936768,3.929774284362793
1700944696223908900,0.566908935546875,2.7298483848571777,-0.519848108291626,4.5594329833984375
1700944696240912100,0.583912109375,1.6732594966888428,0.06141948699951172,4.618555068969727
1700944696257895400,0.6008955078125,0.5820679068565369,0.38176774978637695,4.597499847412109
1700944696274889500,0.617889404296875,0.3635271191596985,0.4457077980041504,5.077165603637695
1700944696291882500,0.634882568359375,0.8427755236625671,0.8985919952392578,5.573417663574219
1700944696308880400,0.65188037109375,1.2263038158416748,1.3498048782348633,6.803365707397461
1700944696325864000,0.668864013671875,1.4258570671081543,2.571634292602539,7.363638877868652
1700944696342862800,0.68586279296875,0.8973085880279541,3.602766990661621,7.33689022064209
1700944696359855400,0.70285546875,0.32749319076538086,4.151404857635498,6.825129508972168
1700944696376850200,0.71985009765625,0.06285148859024048,4.172059535980225,6.102991104125977
1700944696393839400,0.73683935546875,0.01336602121591568,3.809098720550537,5.69443416595459
1700944696410835000,0.7538349609375,-0.1432277262210846,3.5686838626861572,5.544666290283203
1700944696427827200,0.7708271484375,-0.4409171938896179,3.4594004154205322,5.4248762130737305
1700944696444821000,0.787821044921875,-0.9904844760894775,3.313453435897827,5.110934257507324
1700944696461814500,0.804814453125,-1.3957616090774536,3.079831123352051,4.3253912925720215
1700944696478809300,0.821809326171875,-1.6941956281661987,2.5517241954803467,3.67529296875
1700944696495798500,0.838798583984375,-1.5915707349777222,1.9417023658752441,3.4256391525268555
1700944696512795000,0.855794921875,-1.419610857963562,1.3346796035766602,3.4922099113464355
1700944696529787100,0.872787109375,-1.126381516456604,0.8024978637695312,4.002356052398682
1700944696546782000,0.889781982421875,-0.4661738872528076,0.4357261657714844,4.262845039367676
1700944696563771100,0.906771240234375,0.015994936227798462,0.1245427131652832,4.013486862182617
1700944696580766700,0.9237666015625,0.3396836519241333,-0.1521162986755371,3.2874927520751953
1700944696597761300,0.94076123046875,0.768977165222168,-0.43360090255737305,2.414851188659668
1700944696614750700,0.957750732421875,1.2056313753128052,-0.694007396697998,1.5287532806396484
1700944696631743200,0.9747431640625,1.6046303510665894,-0.926353931427002,0.9206752777099609
1700944696648744000,0.991743896484375,2.262655019760132,-1.027400255203247,-0.12292098999023438
1700944696665730000,1.00872998046875,2.8596434593200684,-1.1275544166564941,-1.262425422668457
1700944696682724000,1.02572412109375,3.31839656829834,-1.0598571300506592,-2.446600914001465
1700944696699721700,1.0427216796875,3.4817452430725098,-1.2082459926605225,-3.2997684478759766
1700944696716713700,1.059713623046875,3.189378261566162,-1.595719575881958,-3.979708671569824
1700944696733703000,1.076702880859375,2.613973379135132,-2.03542160987854,-4.391702175140381
1700944696750698500,1.093698486328125,2.0579190254211426,-2.383270025253296,-4.737466335296631
1700944696767693600,1.110693603515625,1.4450199604034424,-2.747570037841797,-5.174133777618408
1700944696784682200,1.12768212890625,1.1175425052642822,-3.283620834350586,-5.5941691398620605
1700944696801674200,1.14467431640625,1.0397815704345703,-3.6987602710723877,-6.135715484619141
1700944696818676700,1.1616767578125,1.0432928800582886,-4.166427135467529,-6.71868896484375
1700944696835660300,1.178660400390625,1.089855432510376,-4.60307502746582,-6.990567207336426
1700944696852658400,1.195658447265625,1.25478994846344,-4.916024684906006,-6.821700096130371
1700944696869650700,1.212650634765625,1.6042332649230957,-5.0942792892456055,-6.283714294433594
1700944696886636500,1.229636474609375,1.8627886772155762,-5.535649299621582,-5.460322380065918
1700944696903634700,1.246634765625,1.6488149166107178,-6.596301078796387,-4.838648319244385
1700944696920631000,1.263631103515625,2.007399082183838,-7.0296711921691895,-4.9375176429748535
1700944696937624300,1.280624267578125,2.3772459030151367,-7.281219959259033,-4.273532867431641
1700944696954614300,1.2976142578125,1.4359936714172363,-8.097613334655762,-1.9840621948242188
1700944696971609600,1.314609619140625,-1.500422477722168,-9.296260833740234,0.7902431488037109
1700944696988595000,1.331594970703125,-4.459410667419434,-9.788118362426758,1.4782037734985352
1700944697005593900,1.34859375,-4.452732086181641,-9.062235832214355,2.24853515625
1700944697022590200,1.365590087890625,-1.3851453065872192,-7.660301208496094,3.884237289428711
1700944697039582500,1.38258251953125,1.72885000705719,-6.553208827972412,6.037005424499512
1700944697056577300,1.399577392578125,3.26478910446167,-5.8659892082214355,7.692514419555664
1700944697073568300,1.416568359375,2.706132411956787,-5.549327373504639,7.522448539733887
1700944697090572300,1.433572265625,1.2386362552642822,-4.677678108215332,5.270798683166504
1700944697107549000,1.450548828125,-0.4089937210083008,-3.1097326278686523,2.668548583984375
1700944697124543500,1.46754345703125,-1.5736229419708252,-1.1006431579589844,1.0534391403198242
1700944697141541600,1.484541748046875,-2.0961666107177734,0.5240821838378906,1.0449228286743164
1700944697158541300,1.501541259765625,-1.8184212446212769,1.8395617008209229,2.0191774368286133
1700944697175529000,1.518529052734375,-1.1247097253799438,3.068066120147705,2.594485282897949
1700944697192522500,1.5355224609375,-0.3693688213825226,3.793637990951538,3.2792482376098633
1700944697209514500,1.552514404296875,0.4215530753135681,4.974281311035156,2.744596481323242
1700944697226509300,1.56950927734375,0.1537064164876938,5.76231050491333,0.8932404518127441
1700944697243495700,1.58649560546875,-0.7241494655609131,5.972224712371826,-0.41533756256103516
1700944697260496400,1.603496337890625,-1.2856338024139404,6.138768196105957,-1.1515426635742188
1700944697277489000,1.620489013671875,-1.1977193355560303,6.072541236877441,-1.226003646850586
1700944697294475000,1.63747509765625,-0.9498089551925659,5.829224586486816,-0.8188629150390625
1700944697311464000,1.6544638671875,-0.4970696270465851,5.624072551727295,-0.06106424331665039
1700944697328470300,1.67147021484375,-0.4565306305885315,5.5278639793396,0.2276477813720703
1700944697345457400,1.68845751953125,-0.9009166359901428,5.342111110687256,0.3748655319213867
1700944697362450200,1.7054501953125,-1.444258451461792,5.237307071685791,0.6253147125244141
1700944697379446300,1.7224462890625,-1.6714283227920532,4.861716270446777,1.3164372444152832
1700944697396441000,1.739441162109375,-1.4696341753005981,3.5734169483184814,2.727708339691162
1700944697413432000,1.75643212890625,-0.9155393242835999,2.25657320022583,4.057361125946045
1700944697430423800,1.773423828125,-0.22087928652763367,0.9947285652160645,5.709624290466309
1700944697447422500,1.79042236328125,0.1809767484664917,-2.483640670776367,9.809028625488281
1700944697464409600,1.80740966796875,-0.06606405973434448,-7.585932731628418,13.815911293029785
1700944697481405400,1.824405517578125,0.20775175094604492,-7.134817123413086,13.130254745483398
1700944697498400000,1.84139990234375,1.255801796913147,-3.6916112899780273,12.252601623535156
1700944697515389400,1.858389404296875,2.102264881134033,-2.4478983879089355,13.285104751586914
1700944697532385500,1.875385498046875,3.4267475605010986,-2.9562201499938965,14.022455215454102
1700944697549378000,1.8923779296875,3.567972183227539,-5.586870193481445,13.342100143432617
1700944697566372900,1.909372802734375,3.017247200012207,-6.856374263763428,10.009243965148926
1700944697583355000,1.92635498046875,2.5956928730010986,-5.93558406829834,5.283779144287109
1700944697600357600,1.943357666015625,2.7569727897644043,-4.188798904418945,1.7293663024902344
1700944697617352400,1.9603525390625,2.9927778244018555,-3.177604913711548,-0.2635955810546875
1700944697634341600,1.977341552734375,2.9446072578430176,-2.9744021892547607,-1.5664358139038086
1700944697651337200,1.994337158203125,2.5273661613464355,-3.306938409805298,-2.861905574798584
1700944697668329500,2.01132958984375,1.8482177257537842,-3.7304749488830566,-4.141851425170898
1700944697685324000,2.028323974609375,1.3063520193099976,-3.9028732776641846,-5.692314624786377
1700944697702322700,2.04532275390625,1.1205999851226807,-3.717315435409546,-7.116180896759033
1700944697719310000,2.06231005859375,0.9321353435516357,-3.7100143432617188,-8.005059242248535
1700944697736310800,2.079310791015625,0.7263528108596802,-4.040695667266846,-7.9104766845703125
1700944697753315300,2.0963154296875,0.9506491422653198,-4.15409517288208,-7.800986289978027
1700944697770289000,2.113288818359375,1.2627723217010498,-4.287658214569092,-7.783746242523193
1700944697787286500,2.13028662109375,1.3881787061691284,-4.699482440948486,-7.79403829574585
1700944697804273400,2.1472734375,1.303456425666809,-5.274438858032227,-7.7818708419799805
1700944697821266700,2.1642666015625,1.3118436336517334,-5.912688732147217,-7.899560928344727
1700944697838263300,2.18126318359375,1.4384400844573975,-6.518506050109863,-7.524269104003906
1700944697855254300,2.198254150390625,1.4873701333999634,-7.030990123748779,-7.032713413238525
1700944697872246800,2.215246826171875,1.4706552028656006,-7.995180130004883,-6.1002397537231445
1700944697889238800,2.23223876953125,1.4098570346832275,-8.799407005310059,-5.486073017120361
1700944697906226700,2.249226806640625,1.569249153137207,-9.104196548461914,-5.09648323059082
1700944697923229200,2.266229248046875,2.339946746826172,-9.425629615783691,-3.8127408027648926
1700944697940224500,2.283224609375,2.2022087574005127,-9.586421966552734,-0.9871358871459961
1700944697957216800,2.300216796875,-2.0656118392944336,-9.24074649810791,1.9108800888061523
1700944697974207200,2.317207275390625,-7.361767768859863,-9.63765811920166,3.546285629272461
1700944697991198700,2.33419873046875,-7.394682884216309,-10.35076904296875,3.688373565673828
1700944698008195600,2.351195556640625,-2.133347988128662,-11.094795227050781,3.6324167251586914
1700944698025184800,2.368184814453125,3.589533805847168,-10.72415542602539,3.577786445617676
1700944698042181000,2.38518115234375,7.452552318572998,-8.727863311767578,4.320523262023926
1700944698059174100,2.402174072265625,7.676085948944092,-7.1760454177856445,6.259002685546875
1700944698076164600,2.41916455078125,6.068085670471191,-6.193324089050293,7.303227424621582
1700944698093159700,2.43615966796875,3.3962044715881348,-4.360620498657227,6.417482376098633
1700944698110143500,2.4531435546875,0.6598386168479919,-2.4751877784729004,5.361016273498535
1700944698127147800,2.470147705078125,-1.0437166690826416,-0.4743368625640869,3.6330137252807617
1700944698144137200,2.48713720703125,-1.6279361248016357,0.9305083751678467,2.2827796936035156
1700944698161130500,2.504130615234375,-2.484102249145508,1.138983964920044,3.487180709838867
1700944698178120400,2.521120361328125,-1.733372449874878,2.500859260559082,4.411685943603516
1700944698195114800,2.53811474609375,-0.6943434476852417,4.159536361694336,3.001622200012207
1700944698212115000,2.555114990234375,-0.3196583390235901,4.628201484680176,1.406266212463379
1700944698229105400,2.57210546875,0.27096518874168396,4.6914448738098145,0.02704334259033203
1700944698246094300,2.58909423828125,0.6179438829421997,4.46474027633667,-0.6825375556945801
1700944698263095300,2.60609521484375,0.4573076367378235,4.215476036071777,-0.2967867851257324
1700944698280084700,2.623084716796875,0.7389166355133057,4.769222259521484,0.2732081413269043
1700944698297079800,2.640079833984375,0.5108029842376709,5.364253997802734,0.37178850173950195
1700944698314070300,2.6570703125,-0.2612003684043884,5.209390163421631,0.7508926391601562
1700944698331063000,2.67406298828125,-0.7524571418762207,5.000410079956055,1.2527194023132324
1700944698348059400,2.691059326171875,-1.3393306732177734,4.83646297454834,1.8971076011657715
1700944698365046000,2.7080458984375,-2.0111703872680664,4.43011474609375,3.1583356857299805
1700944698382052900,2.725052978515625,-1.8228874206542969,3.71751070022583,4.834690570831299
1700944698399022000,2.74202197265625,-1.5614542961120605,2.7477340698242188,6.465089797973633
1700944698416028400,2.7590283203125,-1.4107054471969604,1.8737115859985352,8.09878158569336
1700944698433024300,2.776024169921875,-1.7403604984283447,-0.5887665748596191,11.29410171508789
1700944698450016800,2.793016845703125,-2.362443208694458,-4.910721778869629,13.766530990600586
1700944698467011300,2.81001123046875,-2.1643683910369873,-5.680965900421143,12.297050476074219
1700944698484002800,2.8270029296875,-0.17075186967849731,-3.6988778114318848,11.464850425720215
1700944698500995300,2.843995361328125,1.695863127708435,-2.347771644592285,12.573902130126953
1700944698517988600,2.860988525390625,3.229090929031372,-2.299891471862793,12.977485656738281
1700944698534980400,2.87798046875,3.2504379749298096,-3.5353078842163086,11.575461387634277
1700944698551966500,2.894966552734375,2.8485817909240723,-4.341002464294434,8.58607006072998
1700944698568963300,2.91196337890625,3.007963180541992,-3.920241355895996,5.659640312194824
1700944698585960000,2.9289599609375,3.0977554321289062,-3.3920276165008545,3.650385856628418
1700944698602956300,2.945956298828125,3.0339207649230957,-3.298842191696167,2.103342056274414
1700944698619960000,2.9629599609375,2.414942979812622,-3.3582332134246826,0.23500442504882812
1700944698636941000,2.979941162109375,1.6838473081588745,-3.4371800422668457,-1.8919811248779297
1700944698653935000,2.99693505859375,1.0466959476470947,-3.43031644821167,-3.94622802734375
1700944698670928100,3.01392822265625,0.9346095323562622,-3.060793876647949,-5.58665132522583
1700944698687921200,3.030921142578125,0.9276689887046814,-2.87007474899292,-6.764047622680664
1700944698704914200,3.0479140625,0.9753264784812927,-3.0885934829711914,-6.995397567749023
1700944698721908000,3.064907958984375,0.8785369992256165,-3.3886754512786865,-6.763528823852539
1700944698738902500,3.081902587890625,1.141103744506836,-3.5271096229553223,-6.592667579650879
1700944698755891700,3.0988916015625,1.345761775970459,-3.7269136905670166,-6.730295658111572
1700944698772888000,3.11588818359375,1.0643646717071533,-4.2729268074035645,-7.218199253082275
1700944698789881600,3.132881591796875,0.5063233971595764,-4.992131233215332,-7.7731404304504395
1700944698806874600,3.14987451171875,0.27815330028533936,-5.551784992218018,-8.035238265991211
1700944698823868000,3.166867919921875,0.702158510684967,-5.77610969543457,-8.142621994018555
1700944698840861000,3.18386083984375,1.1977932453155518,-6.125414848327637,-8.075190544128418
1700944698857852000,3.200851806640625,1.1969836950302124,-6.9779558181762695,-7.5162506103515625
1700944698874850000,3.21785009765625,1.3182812929153442,-8.110913276672363,-6.474584102630615
1700944698891840500,3.234840576171875,1.2910714149475098,-8.597453117370605,-6.30134391784668
1700944698908821500,3.251821533203125,0.7433859705924988,-8.68325424194336,-5.622812271118164
1700944698925819000,3.26881884765625,-0.4153064489364624,-8.985382080078125,-2.743584156036377
1700944698942802200,3.28580224609375,-1.0691430568695068,-9.3692045211792,0.6461668014526367
1700944698959813400,3.3028134765625,-2.015716552734375,-9.290074348449707,2.190000534057617
1700944698976806400,3.319806396484375,-2.212177038192749,-9.170143127441406,2.201962471008301
1700944698993800000,3.336800048828125,-2.049804449081421,-8.86440658569336,3.1851558685302734
1700944699010793000,3.35379296875,-1.7774301767349243,-8.872798919677734,5.428786277770996
1700944699027775700,3.370775634765625,-0.7540310621261597,-8.770374298095703,7.10230827331543
1700944699044779000,3.387779052734375,0.18366384506225586,-8.335679054260254,8.070820808410645
1700944699061772500,3.4047724609375,0.4739651381969452,-6.598727226257324,7.98922061920166
1700944699078765800,3.421765869140625,0.5170599222183228,-4.228151321411133,6.888623237609863
1700944699095758800,3.4387587890625,0.32323992252349854,-2.0315637588500977,5.576720237731934
1700944699112748800,3.455748779296875,0.4867405891418457,-0.21874356269836426,4.615291595458984
1700944699129745400,3.472745361328125,0.7434942722320557,1.3744874000549316,3.5052881240844727
1700944699146738400,3.489738525390625,1.1055620908737183,2.574388265609741,2.3685712814331055
1700944699163731700,3.506731689453125,1.0752277374267578,3.519876480102539,1.082529067993164
1700944699180714200,3.52371435546875,0.812430739402771,4.130967140197754,-0.062186241149902344
1700944699197717800,3.5407177734375,0.6344293355941772,4.486397743225098,-0.8595805168151855
1700944699214711300,3.557711181640625,0.47526293992996216,4.500504016876221,-1.1576480865478516
1700944699231695000,3.574695068359375,0.6069519519805908,4.572684288024902,-0.928980827331543
1700944699248697600,3.591697509765625,1.145221471786499,4.894016265869141,-0.4740328788757324
1700944699265691000,3.60869091796875,1.110561728477478,5.255043029785156,-0.38968801498413086
1700944699282684000,3.625683837890625,0.625072717666626,5.362465858459473,-0.4791598320007324
1700944699299677200,3.64267724609375,0.2867124676704407,5.5831122398376465,-0.6411633491516113
1700944699316670200,3.659670166015625,0.1443254053592682,5.3840789794921875,0.15651559829711914
1700944699333648400,3.6766484375,0.2450108826160431,5.291660308837891,1.3645915985107422
1700944699350656800,3.69365673828125,0.12028995156288147,5.32905912399292,2.5185775756835938
1700944699367649800,3.71064990234375,-0.40581896901130676,5.380121231079102,3.731332302093506
1700944699384643000,3.72764306640625,-1.4606825113296509,4.558406829833984,5.156957626342773
1700944699401636400,3.74463623046875,-2.1138243675231934,3.345944881439209,6.760308265686035
1700944699418629400,3.76162939453125,-1.860228419303894,2.2538676261901855,8.66976547241211
1700944699435618600,3.77861865234375,-1.1479053497314453,-1.4489355087280273,13.224983215332031
1700944699452615700,3.79561572265625,0.06775075197219849,-5.727006912231445,17.479433059692383
1700944699469609200,3.812609130859375,1.20528244972229,-5.271059513092041,16.097217559814453
1700944699486602000,3.82960205078125,1.8696603775024414,-2.1390938758850098,12.956296920776367
1700944699503595500,3.846595458984375,1.5746252536773682,-0.8904285430908203,11.592809677124023
1700944699520588500,3.863588623046875,1.2703216075897217,-2.3635168075561523,11.0765380859375
1700944699537581800,3.880581787109375,1.3618630170822144,-4.477168083190918,9.402164459228516
1700944699554575000,3.8975751953125,2.142371416091919,-6.4132561683654785,7.869673728942871
1700944699571567900,3.91456787109375,2.8748652935028076,-6.963100910186768,5.910151481628418
1700944699588561200,3.93156103515625,3.504546642303467,-5.917542934417725,3.239826202392578
1700944699605551900,3.9485517578125,3.694387674331665,-4.8731231689453125,0.99822998046875
1700944699622550300,3.96555029296875,3.3408854007720947,-4.476500988006592,-0.5469570159912109
1700944699639540700,3.982540771484375,2.459995985031128,-4.419510841369629,-1.8834962844848633
1700944699656534300,3.9995341796875,1.5102033615112305,-4.385150909423828,-2.7804665565490723
1700944699673524700,4.016524658203125,0.485544890165329,-4.381872177124023,-3.6133522987365723
1700944699690523000,4.03352294921875,-0.2655731737613678,-4.433034896850586,-4.348226547241211
1700944699707513300,4.050513427734375,-0.9796649217605591,-4.632558345794678,-4.882443904876709
1700944699724507100,4.067507080078125,-1.260928988456726,-4.774425506591797,-5.735848426818848
1700944699741494500,4.08449462890625,-0.9507973194122314,-4.8623433113098145,-6.665787220001221
1700944699758493200,4.1014931640625,-0.042062342166900635,-4.970075607299805,-7.516967296600342
1700944699775486500,4.118486572265625,1.0386953353881836,-5.179132461547852,-8.10825252532959
1700944699792479700,4.135479736328125,2.4216203689575195,-5.536569595336914,-8.439257621765137
1700944699809472800,4.15247265625,4.302074909210205,-5.327695846557617,-9.256669998168945
1700944699826472700,4.16947265625,4.92302131652832,-5.004449844360352,-9.770195007324219
1700944699843459000,4.186458984375,3.927093505859375,-5.02734375,-9.65610408782959
1700944699860452000,4.2034521484375,2.488647222518921,-5.02506160736084,-9.47921085357666
1700944699877445400,4.2204453125,1.6050955057144165,-5.0728654861450195,-8.701889038085938
1700944699894428200,4.23742822265625,1.549375057220459,-4.984947204589844,-7.165472984313965
1700944699911421200,4.254421142578125,1.6804996728897095,-4.953790664672852,-5.991932392120361
1700944699928425200,4.27142529296875,2.031613349914551,-5.253053665161133,-4.800327301025391
1700944699945418500,4.28841845703125,2.202455520629883,-5.887815952301025,-2.7906484603881836
1700944699962411500,4.30541162109375,1.0929698944091797,-6.76947546005249,-1.763293743133545
1700944699979404800,4.32240478515625,-0.6634395122528076,-7.694426536560059,-2.126084327697754
1700944699996395800,4.339395751953125,-0.9855139255523682,-8.611998558044434,-1.3223047256469727
1700944700013393400,4.356393310546875,0.9631760120391846,-9.42072868347168,1.3569002151489258
1700944700030384000,4.373384033203125,3.28477144241333,-9.67159652709961,4.729820251464844
1700944700047377400,4.39037744140625,3.8724923133850098,-9.546916961669922,6.7289018630981445
1700944700064370400,4.407370361328125,2.665038585662842,-9.209004402160645,7.634572982788086
1700944700081364200,4.4243642578125,1.343253493309021,-8.843866348266602,8.068843841552734
1700944700098354200,4.441354248046875,0.870895266532898,-7.466061592102051,7.835576057434082
1700944700115352800,4.458352783203125,0.762911856174469,-5.464770317077637,8.10989761352539
1700944700132343300,4.47534326171875,0.431114137172699,-2.5577545166015625,7.778926849365234
1700944700149336600,4.492336669921875,-0.2982497215270996,0.31842470169067383,6.8459014892578125
1700944700166329900,4.509329833984375,-0.8938347697257996,2.2675907611846924,6.211580276489258
1700944700183323100,4.5263232421875,-0.8191440105438232,3.8164141178131104,5.064767837524414
1700944700200316400,4.54331640625,-0.7940186858177185,4.953007698059082,3.37600040435791
1700944700217309200,4.56030908203125,-0.7422497868537903,5.700150012969971,2.176568031311035
1700944700234302500,4.577302490234375,-0.29046398401260376,6.257145404815674,1.220229148864746
1700944700251295700,4.594295654296875,0.14984849095344543,6.3544535636901855,1.070427417755127
1700944700268288800,4.611288818359375,0.6354809999465942,6.533512592315674,0.7003979682922363
1700944700285282300,4.6282822265625,0.6010227203369141,6.464635848999023,-0.16717004776000977
1700944700302267100,4.64526708984375,0.2903291583061218,6.128654479980469,-0.6198945045471191
1700944700319268000,4.66226806640625,-0.12915253639221191,5.868548393249512,-0.8043651580810547
1700944700336261600,4.67926171875,-0.4836459159851074,5.647725582122803,-0.1864485740661621
1700944700353254700,4.696254638671875,-0.7840486168861389,5.425360679626465,1.3231754302978516
1700944700370248000,4.713248046875,-1.2220046520233154,5.453362464904785,2.393411159515381
1700944700387241500,4.730241455078125,-1.9965192079544067,5.1663103103637695,3.4395742416381836
1700944700404234500,4.747234375,-2.5357863903045654,3.8392114639282227,5.023315906524658
1700944700421227500,4.7642275390625,-2.6038804054260254,3.136533737182617,6.223336219787598
1700944700438221000,4.781220947265625,-2.024423599243164,1.4472575187683105,9.503274917602539
1700944700455214000,4.798214111328125,-1.6790072917938232,-0.9956412315368652,13.185689926147461
1700944700472207000,4.81520703125,-1.5301718711853027,-3.2614736557006836,14.822526931762695
1700944700489200600,4.83220068359375,-0.4315640926361084,-4.175148010253906,14.21994400024414
1700944700506191000,4.849191162109375,1.6128615140914917,-4.348869323730469,13.350068092346191
1700944700523187200,4.866187255859375,3.320749521255493,-4.594690322875977,12.753206253051758
1700944700540182300,4.883182373046875,3.7369775772094727,-5.608314514160156,12.267068862915039
1700944700557173000,4.900173095703125,3.3061437606811523,-6.391377925872803,11.230428695678711
1700944700574156000,4.917156005859375,2.6491098403930664,-6.5693840980529785,9.424821853637695
1700944700591159600,4.93415966796875,2.305119514465332,-5.850058078765869,6.971905708312988
1700944700608150000,4.95114990234375,2.162792205810547,-5.1265997886657715,4.58323860168457
1700944700625148400,4.9681484375,2.029933452606201,-4.587372303009033,2.1748952865600586
1700944700642139100,4.98513916015625,1.7881104946136475,-4.512773513793945,0.08944129943847656
1700944700659132200,5.002132080078125,1.3795132637023926,-4.5325517654418945,-2.037764072418213
1700944700676125700,5.019125732421875,1.2006372213363647,-4.432888031005859,-4.042080879211426
1700944700693116200,5.0361162109375,1.1834849119186401,-4.126641750335693,-5.530167102813721
1700944700710101500,5.0531015625,1.2669262886047363,-3.8716535568237305,-6.541394233703613
1700944700727097000,5.07009716796875,1.243171215057373,-3.7666573524475098,-7.189195156097412
1700944700744098000,5.08709814453125,1.1285866498947144,-3.9862728118896484,-7.48360538482666
1700944700761091300,5.10409130859375,1.0479116439819336,-4.359470844268799,-7.766345024108887
1700944700778084900,5.1210849609375,0.7752538919448853,-4.644853591918945,-8.30257797241211
1700944700795078000,5.138077880859375,0.5905735492706299,-4.858686447143555,-8.775505065917969
1700944700812071000,5.15507080078125,0.3221569061279297,-5.066601753234863,-9.031715393066406
1700944700829064200,5.172064208984375,-0.10691121220588684,-5.308108806610107,-9.090102195739746
1700944700846057500,5.189057373046875,-0.4535616338253021,-5.611205577850342,-8.835054397583008
1700944700863050500,5.206050537109375,-0.5819278359413147,-5.703487396240234,-8.488426208496094
1700944700880043500,5.22304345703125,-0.5277364253997803,-5.985768795013428,-8.11665153503418
1700944700897034200,5.2400341796875,-0.22179242968559265,-5.957463264465332,-8.225395202636719
1700944700914036200,5.2570361328125,0.5305545330047607,-6.1624298095703125,-7.92494010925293
1700944700931020300,5.274020263671875,0.9487548470497131,-6.728629112243652,-6.556894302368164
1700944700948016400,5.291016357421875,1.127329707145691,-7.161065101623535,-4.616031169891357
1700944700965010000,5.308010009765625,0.781764566898346,-7.132289409637451,-3.244994640350342
1700944700982003200,5.325003173828125,-0.30295419692993164,-6.884954452514648,-2.41408634185791
1700944700998996000,5.341995849609375,-1.5039161443710327,-7.058030128479004,-0.9229154586791992
1700944701015989200,5.3589892578125,-2.2464635372161865,-7.941547870635986,0.4763317108154297
1700944701032982500,5.375982421875,-1.4055389165878296,-9.055344581604004,2.0226783752441406
1700944701049980400,5.39298046875,1.0308748483657837,-10.285032272338867,4.653623580932617
1700944701066972200,5.40997216796875,3.2000322341918945,-10.026968002319336,6.775230407714844
1700944701083961900,5.4269619140625,4.220370292663574,-8.4200439453125,8.026810646057129
1700944701100955600,5.44395556640625,4.019721031188965,-6.7441630363464355,9.608455657958984
1700944701117948400,5.460948486328125,2.404632568359375,-5.016695499420166,11.155237197875977
1700944701134945500,5.477945556640625,0.16466349363327026,-2.7105283737182617,12.040326118469238
1700944701151934700,5.494934814453125,-1.9981670379638672,-0.09947633743286133,11.406558990478516
1700944701168929800,5.5119296875,-3.2917122840881348,2.4969067573547363,8.729948043823242
1700944701185919500,5.52891943359375,-3.558753490447998,4.2623090744018555,5.6095757484436035
1700944701202914600,5.54591455078125,-2.926638126373291,5.142022132873535,3.661695957183838
1700944701219897300,5.5628974609375,-2.0525643825531006,5.521386623382568,3.4236326217651367
1700944701236900900,5.57990087890625,-1.178775429725647,6.1354217529296875,3.553821086883545
1700944701253894000,5.596893798828125,-0.15465620160102844,6.918721675872803,3.4940314292907715
1700944701270877000,5.613876953125,-0.01698903739452362,7.343220233917236,2.1465091705322266
1700944701287880400,5.63088037109375,-0.6575076580047607,7.068790912628174,0.5013327598571777
1700944701304873700,5.647873779296875,-1.22051203250885,6.679247856140137,-0.7426166534423828
1700944701321866800,5.66486669921875,-1.9061229228973389,6.117725849151611,-0.9316339492797852
1700944701338850300,5.681850341796875,-1.8331629037857056,5.951916217803955,-0.1278858184814453
1700944701355853300,5.698853271484375,-0.858328104019165,6.14566707611084,0.48804569244384766
1700944701372846000,5.71584619140625,-0.5472829341888428,5.4897308349609375,1.3099279403686523
1700944701389839600,5.732839599609375,-0.4740672707557678,3.9279282093048096,3.3642048835754395
1700944701406832600,5.74983251953125,-0.6820431351661682,2.223923683166504,5.153230667114258
1700944701423826200,5.766826171875,-0.3602580428123474,1.5849037170410156,6.1099982261657715
1700944701440819200,5.783819091796875,0.40588849782943726,0.4015827178955078,8.492202758789062
1700944701457812500,5.8008125,1.2162091732025146,-2.313046455383301,13.035687446594238
1700944701474805500,5.817805419921875,2.072723150253296,-3.5054373741149902,15.490177154541016
1700944701491798800,5.834798828125,1.6803538799285889,-3.466722011566162,14.86879825592041
1700944701508792000,5.8517919921875,0.4823097586631775,-3.4597697257995605,13.493544578552246
1700944701525785000,5.86878515625,0.060799598693847656,-3.4937868118286133,11.643448829650879
1700944701542778000,5.885778076171875,0.8242381811141968,-4.372864723205566,10.426047325134277
1700944701559770600,5.9027705078125,2.0245580673217773,-4.941538333892822,8.879124641418457
1700944701576765700,5.919765625,2.7620420455932617,-5.088602066040039,6.473606109619141
1700944701593758000,5.936758056640625,2.7728939056396484,-4.709962844848633,3.5116615295410156
1700944701610751000,5.9537509765625,2.248988389968872,-4.193981647491455,0.8187589645385742
1700944701627744300,5.970744140625,1.688084363937378,-3.518374443054199,-1.341301441192627
1700944701644737300,5.9877373046875,1.1631357669830322,-2.88862943649292,-2.887173652648926
1700944701661730600,6.00473046875,0.7236143350601196,-2.517824172973633,-3.7089004516601562
1700944701678722300,6.021722412109375,0.5094631910324097,-2.1776411533355713,-4.372231960296631
1700944701695714300,6.03871435546875,0.33213990926742554,-1.9944405555725098,-5.092201232910156
1700944701712713000,6.055712890625,0.21507954597473145,-2.0732059478759766,-5.704195976257324
1700944701729703400,6.072703369140625,0.1110466718673706,-2.300088882446289,-6.390987396240234
1700944701746696700,6.08969677734375,-0.09753340482711792,-2.719764232635498,-6.8857197761535645
1700944701763689700,6.106689697265625,-0.1710447072982788,-3.3542239665985107,-6.608412742614746
1700944701780682800,6.123682861328125,0.03262287378311157,-3.755618095397949,-5.952544212341309
1700944701797673500,6.140673583984375,-0.3553485870361328,-4.227136135101318,-5.986345291137695
1700944701814672000,6.157671875,-1.3387415409088135,-4.912838935852051,-7.47022819519043
1700944701831662300,6.174662353515625,-1.873373031616211,-5.205512523651123,-9.307905197143555
1700944701848655600,6.191655517578125,-1.223463535308838,-5.7093186378479,-9.852639198303223
1700944701865649200,6.208649169921875,0.11748576164245605,-6.60476016998291,-8.866279602050781
1700944701882642200,6.22564208984375,1.6179511547088623,-7.29853630065918,-7.019106864929199
1700944701899635500,6.242635498046875,2.630028486251831,-7.160260200500488,-5.978178024291992
1700944701916617000,6.259616943359375,1.7387731075286865,-6.671616554260254,-6.267824172973633
1700944701933611300,6.276611328125,-0.4173872470855713,-7.384627819061279,-6.1321563720703125
1700944701950614800,6.29361474609375,-1.8368126153945923,-8.379932403564453,-5.93122673034668
1700944701967608300,6.3106083984375,-2.0871171951293945,-8.99878978729248,-5.560795783996582
1700944701984601300,6.327601318359375,-0.9128583669662476,-9.080280303955078,-4.027884483337402
1700944702001594400,6.344594482421875,0.7412973642349243,-8.725356101989746,-1.1613759994506836
1700944702018588000,6.361587890625,2.0035934448242188,-7.644594669342041,1.8722248077392578
1700944702035581000,6.378580810546875,2.0524864196777344,-7.193839073181152,4.756479263305664
1700944702052574000,6.395573974609375,2.113490104675293,-6.64232873916626,6.523748397827148
1700944702069567500,6.4125673828125,2.0879459381103516,-5.81410026550293,7.653307914733887
1700944702086560300,6.429560302734375,1.684766173362732,-4.715686321258545,7.570318222045898
1700944702103540700,6.446540771484375,1.34831702709198,-2.986030340194702,6.241196632385254
1700944702120553200,6.46355322265625,1.323549509048462,-1.4841923713684082,5.737756729125977
1700944702137540000,6.4805400390625,1.6596108675003052,0.05623006820678711,6.150557518005371
1700944702154533400,6.497533447265625,1.6900887489318848,1.2596840858459473,7.82037353515625
1700944702171526400,6.5145263671875,1.2024791240692139,3.0851211547851562,8.920377731323242
1700944702188519400,6.53151953125,0.19256430864334106,4.7039923667907715,7.8801374435424805
1700944702205515300,6.548515380859375,-1.2075449228286743,5.418223857879639,6.01082706451416
1700944702222503200,6.565503173828125,-1.5990325212478638,5.556822776794434,4.7602314949035645
1700944702239499300,6.582499267578125,-1.1956062316894531,5.595170974731445,4.314538478851318
1700944702256492300,6.5994921875,-0.8091414570808411,4.81041145324707,4.811033248901367
1700944702273485600,6.616485595703125,-1.2945204973220825,3.6621017456054688,5.4145355224609375
1700944702290478600,6.633478515625,-1.8244824409484863,2.780212640762329,5.718175411224365
1700944702307472000,6.650471923828125,-1.9206480979919434,0.784062385559082,7.385214328765869
1700944702324454400,6.667454345703125,-1.6650376319885254,-1.2024221420288086,9.63007640838623
1700944702341447700,6.68444775390625,-0.8259429335594177,-1.2350835800170898,10.219066619873047
1700944702358451700,6.70145166015625,-0.11721646785736084,-0.33805227279663086,10.598913192749023
1700944702375444700,6.71844482421875,0.5096333622932434,0.23596954345703125,11.28042221069336
1700944702392438000,6.73543798828125,0.4806022047996521,0.1757960319519043,11.624086380004883
1700944702409431300,6.752431396484375,-0.07977163791656494,-0.7533912658691406,11.582235336303711
1700944702426424000,6.769424072265625,-0.7763373851776123,-1.6915955543518066,11.214031219482422
1700944702443417600,6.78641748046875,-1.4574968814849854,-1.9852771759033203,9.657904624938965
1700944702460413200,6.8034130859375,-1.8029448986053467,-1.8284058570861816,7.183314323425293
1700944702477404200,6.820404052734375,-1.5397955179214478,-1.6921215057373047,4.443149566650391
1700944702494397200,6.837397216796875,-0.7003083825111389,-1.6848607063293457,1.9663772583007812
1700944702511379700,6.854379638671875,0.15192466974258423,-2.091979503631592,0.04624462127685547
1700944702528383500,6.871383544921875,0.7153942584991455,-2.5746989250183105,-1.392364501953125
1700944702545376800,6.888376708984375,0.994305431842804,-2.9192826747894287,-2.5270495414733887
1700944702562370000,6.9053701171875,1.0219752788543701,-3.083801746368408,-3.514526844024658
1700944702579363000,6.922363037109375,0.9436801671981812,-3.092142105102539,-4.56372594833374
1700944702596353800,6.939353759765625,0.8253355026245117,-3.154162645339966,-5.383681774139404
1700944702613352200,6.956352294921875,0.38218623399734497,-3.406064748764038,-5.922163963317871
1700944702630340900,6.9733408203125,0.13005536794662476,-3.6176977157592773,-6.364067077636719
1700944702647339000,6.990339111328125,-0.18647313117980957,-3.844870090484619,-6.605819225311279
1700944702664325400,7.007325439453125,-0.31907808780670166,-4.324625492095947,-6.562759876251221
1700944702681313300,7.024313232421875,-0.2236020565032959,-4.6941986083984375,-6.7217254638671875
1700944702698322000,7.041322021484375,-0.11588180065155029,-5.21859884262085,-6.926856517791748
1700944702715302400,7.058302490234375,0.07285642623901367,-5.586612701416016,-7.199959754943848
1700944702732304400,7.075304443359375,0.2725546360015869,-5.947896480560303,-7.241954803466797
1700944702749295000,7.092295166015625,0.562186598777771,-6.551347255706787,-6.6115922927856445
1700944702766288100,7.1092880859375,0.5888925194740295,-7.528180122375488,-5.031275272369385
1700944702783281200,7.12628125,0.45228660106658936,-8.537699699401855,-3.3784193992614746
1700944702800274400,7.1432744140625,0.03782618045806885,-9.480080604553223,-2.2602996826171875
1700944702817267700,7.160267822265625,-0.02642655372619629,-10.15982437133789,-1.250157356262207
1700944702834264000,7.17726416015625,0.33451318740844727,-10.164928436279297,0.25105953216552734
1700944702851250700,7.194250732421875,0.4542659521102905,-9.638263702392578,2.5815343856811523
1700944702868247300,7.211247314453125,0.4892350435256958,-9.004240036010742,4.6346540451049805
1700944702885240800,7.22824072265625,0.5025111436843872,-8.619807243347168,6.085370063781738
1700944702902231300,7.245231201171875,1.1060537099838257,-7.876971244812012,5.583654403686523
1700944702919229400,7.2622294921875,1.8296246528625488,-7.034290313720703,3.8307180404663086
1700944702936220200,7.27922021484375,2.082475423812866,-6.166143894195557,2.08797550201416
1700944702953213400,7.29621337890625,1.8727566003799438,-5.050214767456055,0.7727060317993164
1700944702970187800,7.313187744140625,1.3898050785064697,-4.176042556762695,0.44552040100097656
1700944702987199700,7.33019970703125,1.3804097175598145,-3.290982723236084,0.7422657012939453
1700944703004193000,7.347193115234375,1.699821949005127,-2.4244213104248047,0.8287849426269531
1700944703021186300,7.364186279296875,2.255718231201172,-1.6261332035064697,0.7036523818969727
1700944703038176800,7.3811767578125,2.7746148109436035,-0.9561455249786377,0.43820953369140625
1700944703055175000,7.3981748046875,3.146789073944092,-0.47650623321533203,0.12602996826171875
1700944703072159700,7.41515966796875,3.4013278484344482,-0.1647801399230957,0.2760601043701172
1700944703089159000,7.432158935546875,3.591627597808838,0.18117380142211914,0.44864940643310547
1700944703106150100,7.449150146484375,3.8109936714172363,0.42519712448120117,0.4301891326904297
1700944703123146800,7.466146728515625,4.018918991088867,0.620084285736084,0.3872852325439453
1700944703140138500,7.483138427734375,4.31309700012207,0.8998117446899414,0.6096115112304688
1700944703157131800,7.5001318359375,4.3909993171691895,1.292985200881958,0.8130264282226562
1700944703174124800,7.517124755859375,4.097889423370361,1.6779468059539795,0.8007173538208008
1700944703191118000,7.5341181640625,3.9663314819335938,1.9301419258117676,0.9568567276000977
1700944703208111000,7.551111083984375,3.801077127456665,1.985779047012329,1.5967683792114258
1700944703225104400,7.5681044921875,3.810002088546753,2.2261853218078613,2.1056551933288574
1700944703242097700,7.58509765625,3.5550050735473633,2.419917345046997,2.1136984825134277
1700944703259090700,7.602090576171875,3.3141908645629883,2.6192915439605713,2.1131796836853027
1700944703276084000,7.619083984375,2.862957239151001,2.8263628482818604,2.489725112915039
1700944703293077000,7.636076904296875,2.5435099601745605,2.8058128356933594,3.50860595703125
1700944703310059800,7.653059814453125,2.050797939300537,3.060119390487671,4.1668925285339355
1700944703327063600,7.6700634765625,1.695318341255188,2.8809216022491455,4.754775524139404
1700944703344056600,7.687056640625,1.326269268989563,2.312330484390259,5.522236347198486
1700944703361049900,7.7040498046875,0.7254758477210999,1.612185001373291,6.973145961761475
1700944703378043100,7.721043212890625,-0.71645587682724,1.8608121871948242,7.82362174987793
1700944703395036200,7.7380361328125,-2.190993309020996,3.132448434829712,7.485844135284424
1700944703412029400,7.755029541015625,-3.1287288665771484,3.9741058349609375,6.975202560424805
1700944703429023000,7.77202294921875,-2.9131827354431152,3.549616813659668,6.2862467765808105
1700944703446016000,7.78901611328125,-1.9853821992874146,1.7134482860565186,6.282218933105469
1700944703463009000,7.806009033203125,-1.0115070343017578,-0.3334050178527832,6.155585289001465
1700944703480003300,7.82300341796875,-0.6369100213050842,-1.8604512214660645,5.850986480712891
1700944703496994300,7.839994384765625,-0.7517940998077393,-2.5249338150024414,5.195710182189941
1700944703513984300,7.856984375,-1.3371375799179077,-2.6586344242095947,4.183161735534668
1700944703530982000,7.87398193359375,-1.997503399848938,-3.110992431640625,3.1376209259033203
1700944703547975000,7.890974853515625,-2.623854398727417,-3.575537919998169,1.6912860870361328
1700944703564968400,7.907968505859375,-3.033562660217285,-4.085391044616699,0.23472213745117188
1700944703581962500,7.92496240234375,-3.1210577487945557,-4.366579532623291,-1.2221288681030273
1700944703598954000,7.9419541015625,-2.7976181507110596,-4.557792663574219,-2.461179733276367
1700944703615947800,7.95894775390625,-2.1400444507598877,-5.344992637634277,-2.8469977378845215
1700944703632941300,7.97594140625,-1.8958364725112915,-5.742616653442383,-3.5160861015319824
1700944703649934000,7.99293408203125,-1.7206546068191528,-5.6880106925964355,-4.406241416931152
1700944703666927600,8.009927734375,-1.6427282094955444,-5.349764347076416,-5.286993503570557
1700944703683918300,8.02691845703125,-1.4433666467666626,-5.026113510131836,-6.087889671325684
1700944703700916200,8.043916259765625,-0.9844348430633545,-4.981313705444336,-6.625971794128418
1700944703717906700,8.06090673828125,-0.47560036182403564,-5.275141716003418,-6.772292137145996
1700944703734900200,8.077900146484374,0.0242307186126709,-5.316458225250244,-6.831148147583008
1700944703751893500,8.0948935546875,0.25536516308784485,-5.024314880371094,-6.769364356994629
1700944703768887000,8.111886962890624,0.17767615616321564,-4.631099700927734,-6.492809295654297
1700944703785866800,8.12886669921875,0.1075768768787384,-4.066441059112549,-6.5322699546813965
1700944703802872800,8.145872802734376,-0.07172498106956482,-3.8532204627990723,-6.73110294342041
1700944703819866000,8.1628662109375,-0.04508635401725769,-3.7687811851501465,-6.748666763305664
1700944703836860000,8.17985986328125,0.026976987719535828,-3.8846914768218994,-6.207999229431152
1700944703853852400,8.196852294921875,0.13772743940353394,-4.062903881072998,-5.242410659790039
1700944703870845700,8.213845703125,0.14782211184501648,-4.174412250518799,-3.748751163482666
1700944703887839500,8.230839599609375,0.11045539379119873,-4.0778303146362305,-1.912890911102295
1700944703904832300,8.247832275390625,-0.5337618589401245,-3.901430606842041,-0.75830078125
1700944703921825500,8.264825439453125,-1.0454059839248657,-3.833364963531494,0.2356395721435547
1700944703938809900,8.281809814453124,-0.9392804503440857,-3.9914262294769287,2.0757246017456055
1700944703955812000,8.29881201171875,-0.828661322593689,-4.768527030944824,5.464583396911621
1700944703972804900,8.315804931640624,-0.8107181191444397,-5.191750526428223,8.440045356750488
1700944703989798100,8.332798095703126,-0.5965795516967773,-4.8138837814331055,9.43376636505127
1700944704006791200,8.349791259765626,-0.34898877143859863,-4.463709831237793,9.632296562194824
1700944704023784400,8.366784423828125,0.10498332977294922,-4.199692726135254,9.871145248413086
1700944704040778000,8.383778076171875,0.9771990776062012,-3.4158968925476074,9.362152099609375
1700944704057771000,8.40077099609375,1.969214677810669,-2.2665929794311523,8.062236785888672
1700944704074764000,8.417763916015625,3.4796152114868164,-1.017582893371582,7.003475666046143
1700944704091757300,8.43475732421875,4.954162120819092,0.2653522491455078,5.311891555786133
1700944704108750600,8.45175048828125,5.6005940437316895,1.2900285720825195,3.1884822845458984
1700944704125741000,8.468740966796876,5.503293037414551,2.2401938438415527,0.9920229911804199
1700944704142739500,8.485739501953125,4.8482255935668945,3.1059350967407227,-0.709538459777832
1700944704159730000,8.50272998046875,3.7133407592773438,3.7385103702545166,-1.6670756340026855
1700944704176723500,8.519723388671874,2.3065316677093506,4.281159400939941,-2.1289258003234863
1700944704193716000,8.536716064453126,0.7993642687797546,4.404300689697266,-2.132615089416504
1700944704210710300,8.553710205078126,-0.40406563878059387,4.400990962982178,-1.8985953330993652
1700944704227702800,8.570702880859375,-1.198075294494629,4.205547332763672,-1.603475570678711
1700944704244697000,8.587697021484376,-1.9986947774887085,3.981755495071411,-1.835810661315918
1700944704261688300,8.604688232421875,-2.561678647994995,3.9734554290771484,-2.2178173065185547
1700944704278672000,8.621671875,-2.7978851795196533,4.081515789031982,-2.3630990982055664
1700944704295675600,8.638675537109375,-2.6319992542266846,4.092036247253418,-1.8399381637573242
1700944704312658400,8.655658447265624,-2.266585111618042,4.100921630859375,-0.6470584869384766
1700944704329662000,8.672661865234375,-1.6702022552490234,4.323583602905273,-0.1934680938720703
1700944704346652700,8.689652587890626,-1.5055960416793823,4.5571794509887695,-0.9512286186218262
1700944704363650800,8.70665087890625,-1.3018698692321777,4.787397861480713,-1.8049941062927246
1700944704380641500,8.7236416015625,-0.8115203380584717,4.645561218261719,-1.9407000541687012
1700944704397634800,8.740634765625,-0.3784661889076233,4.4695844650268555,-1.6458964347839355
1700944704414628000,8.757628173828126,-0.4139109253883362,4.185556411743164,-0.8495388031005859
1700944704431611400,8.774611328125,-1.0646631717681885,3.7926831245422363,-0.48656463623046875
1700944704448614400,8.791614501953125,-2.131795644760132,3.186873197555542,-0.7654438018798828
1700944704465607700,8.808607666015625,-2.689119815826416,2.2571659088134766,-0.5568628311157227
1700944704482600700,8.8256005859375,-3.015822172164917,1.838918924331665,-0.34575843811035156
1700944704499601400,8.842601318359375,-3.005397319793701,1.4918084144592285,0.15128135681152344
1700944704516587000,8.8595869140625,-2.8065357208251953,1.1596736907958984,0.7357816696166992
1700944704533580300,8.876580322265625,-2.509138584136963,0.4535684585571289,1.82452392578125
1700944704550573800,8.89357373046875,-2.410407781600952,-1.1126070022583008,3.341829299926758
1700944704567566800,8.91056689453125,-1.6760096549987793,-2.019503593444824,4.003531455993652
1700944704584550000,8.9275498046875,-0.3153538107872009,-3.9348793029785156,5.746075630187988
1700944704601553200,8.94455322265625,1.4982661008834839,-7.311695098876953,9.051624298095703
1700944704618546200,8.961546142578126,2.3480284214019775,-11.695486068725586,11.690465927124023
1700944704635534800,8.978534912109374,2.883179187774658,-13.061910629272461,10.285021781921387
1700944704652532700,8.99553271484375,4.056056976318359,-8.990050315856934,7.395895004272461
1700944704669515300,9.012515380859375,3.889920234680176,-5.864776134490967,7.178694725036621
1700944704686508800,9.0295087890625,2.8130922317504883,-3.325101137161255,6.438343048095703
1700944704703512800,9.046512939453125,0.9312852621078491,-2.7526726722717285,5.785811424255371
1700944704720505300,9.06350537109375,0.042725324630737305,-3.383955478668213,4.5911865234375
1700944704737499000,9.080498779296875,0.4258180856704712,-3.665170907974243,2.1473989486694336
1700944704754489900,9.09748974609375,0.8934569954872131,-3.1874375343322754,-1.1645784378051758
1700944704771487000,9.114487060546875,0.7021840214729309,-2.0719056129455566,-4.077199459075928
1700944704788478200,9.131478271484376,1.0595835447311401,-0.916035532951355,-6.08519172668457
1700944704805471500,9.148471435546876,0.8483015894889832,-0.1957261562347412,-7.4932861328125
1700944704822464500,9.165464599609376,0.5065968036651611,0.021705329418182373,-8.363662719726562
1700944704839448800,9.18244873046875,0.13504725694656372,0.023951858282089233,-8.897644996643066
1700944704856451000,9.199451171875,-0.050528645515441895,-0.10595431923866272,-9.351785659790039
1700944704873444000,9.216444091796875,-0.258675217628479,-0.22362451255321503,-9.75277042388916
1700944704890433000,9.23343310546875,-0.4734295606613159,-0.2595057487487793,-9.955955505371094
1700944704907431000,9.250430908203125,-0.24118876457214355,-0.21214748919010162,-10.184731483459473
1700944704924423700,9.267423583984375,0.34636473655700684,-0.2129204273223877,-10.262683868408203
1700944704941417000,9.2844169921875,1.3862996101379395,-0.5502164363861084,-9.343212127685547
1700944704958410000,9.301409912109374,2.6775240898132324,-0.635338544845581,-8.072342872619629
1700944704975403500,9.318403564453124,3.2496337890625,-0.8862380385398865,-7.046015739440918
1700944704992396800,9.335396728515626,2.6174979209899902,-1.8190090656280518,-5.971915245056152
1700944705009389800,9.352389892578126,1.451233983039856,-2.8968307971954346,-5.099854946136475
1700944705026382800,9.3693828125,0.6735281944274902,-3.7532591819763184,-3.622127056121826
1700944705043376000,9.386376220703125,0.3137936592102051,-4.673864364624023,-0.742701530456543
1700944705060356000,9.403356201171874,-1.3854546546936035,-5.812526226043701,2.2332887649536133
1700944705077362700,9.42036279296875,-3.256570339202881,-6.57503604888916,4.033268928527832
1700944705094353400,9.437353515625,-3.6739046573638916,-7.416230201721191,4.422987937927246
1700944705111349000,9.454348876953125,-1.5445349216461182,-8.221477508544922,4.464163780212402
1700944705128342000,9.471342041015625,1.215746283531189,-8.26343822479248,4.864296913146973
1700944705145335300,9.488335205078124,3.3356199264526367,-7.333416938781738,4.7968597412109375
1700944705162328600,9.50532861328125,4.112283706665039,-6.390308380126953,5.02016544342041
1700944705179321600,9.522321533203124,3.6357975006103516,-4.791479110717773,4.594594955444336
1700944705196315100,9.539315185546876,2.336770534515381,-2.9015564918518066,3.8852529525756836
1700944705213308200,9.55630810546875,0.320669949054718,-1.1304373741149902,3.3926353454589844
1700944705230301400,9.573301513671876,-1.399778127670288,0.5418105125427246,3.078004837036133
1700944705247294500,9.59029443359375,-2.2772488594055176,2.012296676635742,3.1163883209228516
1700944705264287700,9.607287841796875,-2.409304618835449,3.4802398681640625,2.4459757804870605
1700944705281269200,9.624269287109374,-2.1970112323760986,4.585672855377197,1.5330204963684082
1700944705298267600,9.641267578125,-1.6833781003952026,5.207442283630371,0.4914717674255371
1700944705315267300,9.658267333984375,-1.2054938077926636,5.4395294189453125,-0.1748981475830078
1700944705332260600,9.675260498046875,-0.4584832191467285,5.811532020568848,-0.9262127876281738
1700944705349253600,9.692253662109374,-0.03557967022061348,5.923460483551025,-1.5098223686218262
1700944705366247000,9.709246826171874,0.2755485773086548,5.68966007232666,-1.504655361175537
1700944705383240400,9.726240478515624,0.5152594447135925,5.39802360534668,-1.4968442916870117
1700944705400233200,9.743233154296876,0.43322867155075073,4.964414119720459,-1.618727207183838
1700944705417226500,9.7602265625,0.7158508896827698,4.588042736053467,-0.8129267692565918
1700944705434219800,9.7772197265625,0.6765093207359314,3.8359479904174805,1.3724689483642578
1700944705451213000,9.794213134765625,-0.07829934358596802,2.558332920074463,4.171198844909668
1700944705468205800,9.811205810546875,-1.5838298797607422,2.3557052612304688,5.219581604003906
1700944705485199000,9.82819921875,-2.5152595043182373,1.1696033477783203,6.791915416717529
1700944705502183200,9.84518310546875,-2.246255397796631,-1.7972917556762695,10.16673469543457
1700944705519185700,9.862185546875,-0.912245512008667,-5.38273811340332,13.802035331726074
1700944705536179000,9.879178955078125,1.542872428894043,-5.79082727432251,14.9674072265625
1700944705553171700,9.896171630859374,3.2530221939086914,-3.59318208694458,15.16272258758545
1700944705570165000,9.9131650390625,3.1364529132843018,-1.0955157279968262,14.477435111999512
1700944705587158500,9.930158447265624,2.3032283782958984,-0.16674041748046875,13.009260177612305
1700944705604151800,9.94715185546875,1.7052061557769775,-1.4720940589904785,11.005273818969727
1700944705621144600,9.96414453125,1.3374996185302734,-2.9657506942749023,8.318094253540039
1700944705638137900,9.981137939453125,1.0244075059890747,-3.595974922180176,4.926459312438965
1700944705655131100,9.998131103515625,1.0061225891113281,-2.9874958992004395,1.5063896179199219
1700944705672124400,10.01512451171875,1.371418833732605,-2.0690646171569824,-0.9262771606445312
1700944705689117400,10.032117431640625,1.4179068803787231,-1.4212563037872314,-2.438101291656494
1700944705706112000,10.049112060546875,1.281360149383545,-1.0413570404052734,-3.4800314903259277
1700944705723102500,10.0661025390625,1.0885932445526123,-1.094245433807373,-4.027154922485352
1700944705740079400,10.083079345703124,0.9077982902526855,-1.7153592109680176,-4.252094268798828
1700944705757090300,10.10009033203125,0.4392217695713043,-2.196855306625366,-4.850615501403809
1700944705774083600,10.11708349609375,-0.2586618661880493,-2.641850471496582,-5.416048049926758
1700944705791076900,10.134076904296874,-0.7399275302886963,-3.3188226222991943,-5.504513740539551
1700944705808070100,10.151070068359376,-0.5583540201187134,-3.8204870223999023,-5.61224365234375
1700944705825063200,10.168063232421876,-0.3341876268386841,-4.4341840744018555,-5.828396797180176
1700944705842056400,10.185056396484375,-0.41087818145751953,-5.492462158203125,-5.765705108642578
1700944705859049500,10.202049560546875,-0.8432457447052002,-6.1736345291137695,-6.147359848022461
1700944705876044500,10.21904443359375,-1.4080240726470947,-6.582596302032471,-6.87009334564209
1700944705893033500,10.236033447265624,-2.1769728660583496,-7.387670040130615,-7.110147476196289
1700944705910014700,10.2530146484375,-2.8250203132629395,-8.445021629333496,-7.568320274353027
1700944705927022300,10.270022216796875,-1.7648447751998901,-8.548660278320312,-8.080004692077637
1700944705944015400,10.287015380859375,0.9469633102416992,-8.152982711791992,-7.917435646057129
1700944705961005300,10.30400537109375,4.146657943725586,-8.260316848754883,-6.0232014656066895
1700944705978005200,10.321005126953125,5.91071081161499,-7.947033882141113,-3.7442240715026855
1700944705994995200,10.3379951171875,5.81134557723999,-7.95723819732666,-1.6947741508483887
1700944706011988200,10.35498828125,4.497575759887695,-8.277261734008789,-0.09400558471679688
1700944706028982300,10.371982177734376,2.9890594482421875,-8.516168594360352,-0.08704090118408203
1700944706045974000,10.38897412109375,2.842759370803833,-8.355854034423828,0.05783367156982422
1700944706062967800,10.4059677734375,3.6451010704040527,-8.254616737365723,1.5457572937011719
1700944706079960800,10.4229609375,3.370898962020874,-7.911726474761963,2.585618019104004
1700944706096954000,10.4399541015625,2.5071473121643066,-7.643486022949219,2.828230857849121
1700944706113947400,10.456947509765625,1.741262435913086,-7.2952070236206055,3.086179733276367
1700944706130940700,10.473940673828125,1.8164509534835815,-5.88097620010376,4.039941787719727
1700944706147934000,10.490933837890625,0.9931801557540894,-4.00588846206665,5.665773391723633
1700944706164927200,10.50792724609375,-0.1987607479095459,-1.63362455368042,6.940863609313965
1700944706181920300,10.524920166015624,-1.283141851425171,1.0846962928771973,6.529183387756348
1700944706198913300,10.541913330078126,-2.3496012687683105,2.8216731548309326,5.580077171325684
1700944706215906800,10.55890673828125,-2.5630602836608887,3.7705705165863037,4.533195972442627
1700944706232899800,10.57589990234375,-1.9433895349502563,4.163328170776367,3.760345935821533
1700944706249893000,10.59289306640625,-1.0641192197799683,4.467034339904785,2.9500675201416016
1700944706266886400,10.609886474609375,-0.5667015910148621,4.607789039611816,2.442013740539551
1700944706283879400,10.62687939453125,-0.15913808345794678,4.990670204162598,2.550851345062256
1700944706300872700,10.643872802734375,-0.13176876306533813,5.595259189605713,1.9175457954406738
1700944706317865700,10.66086572265625,-0.8714376091957092,5.438590049743652,1.8371033668518066
1700944706334858800,10.677858642578125,-2.0171210765838623,5.3342180252075195,1.8789849281311035
1700944706351853600,10.694853515625,-3.0252304077148438,4.970634460449219,2.18428897857666
1700944706368856800,10.71185693359375,-3.4831650257110596,4.652713298797607,2.80427885055542
1700944706385838600,10.728838623046874,-3.0234217643737793,3.9278011322021484,4.377917289733887
1700944706402832000,10.745831787109376,-2.8053407669067383,3.081897258758545,5.714693546295166
1700944706419822300,10.762822265625,-2.735351800918579,2.591912269592285,6.458269119262695
1700944706436820500,10.779820556640624,-3.0358219146728516,2.149238109588623,7.673470497131348
1700944706453811500,10.7968115234375,-3.209106922149658,0.09092283248901367,10.124021530151367
1700944706470804500,10.813804443359375,-2.971470832824707,-3.666959762573242,12.913348197937012
1700944706487797800,10.8307978515625,-1.5644868612289429,-5.897917747497559,13.960892677307129
1700944706504791000,10.847791015625,-0.13827219605445862,-4.765496253967285,12.844982147216797
1700944706521784000,10.8647841796875,1.2357338666915894,-2.5968546867370605,11.896591186523438
1700944706538777000,10.881777099609375,1.476698875427246,-1.2991704940795898,10.849300384521484
1700944706555770600,10.8987705078125,1.359656810760498,-1.9325227737426758,9.691886901855469
1700944706572763600,10.915763671875,0.8721051216125488,-3.2739572525024414,7.532854080200195
1700944706589756700,10.932756591796876,0.41625532507896423,-4.201216220855713,4.297014236450195
1700944706606750000,10.94975,0.7114695906639099,-3.825674057006836,0.7637720108032227
1700944706623743200,10.9667431640625,1.4299273490905762,-3.0516107082366943,-1.6827960014343262
1700944706640732400,10.983732421875,1.992584466934204,-2.3407974243164062,-3.2305192947387695
1700944706657733600,11.000733642578124,2.3417673110961914,-1.7887227535247803,-4.358337879180908
1700944706674722800,11.017722900390625,2.259216070175171,-1.5786969661712646,-5.307624340057373
1700944706691716000,11.034716064453125,1.8422999382019043,-1.7515534162521362,-6.138781547546387
1700944706708709000,11.051709228515625,1.426950454711914,-1.8947447538375854,-6.8627495765686035
1700944706725702400,11.068702392578125,1.1506811380386353,-2.095449209213257,-7.241452217102051
1700944706742695400,11.0856953125,1.2460485696792603,-2.134706735610962,-7.396821975708008
1700944706759688700,11.102688720703124,2.046786308288574,-2.073577880859375,-7.0015668869018555
1700944706776684800,11.119684814453125,2.7780284881591797,-2.3131980895996094,-5.97575569152832
1700944706793675300,11.13667529296875,3.2735066413879395,-2.6046524047851562,-5.594786167144775
1700944706810668300,11.153668212890626,3.1702873706817627,-3.222311019897461,-5.900762557983398
1700944706827661600,11.17066162109375,2.5543198585510254,-3.768388032913208,-6.627592086791992
1700944706844654600,11.187654541015625,2.177393674850464,-4.4578471183776855,-6.853509426116943
1700944706861648000,11.20464794921875,2.4370648860931396,-4.9808430671691895,-6.6083455085754395
1700944706878641000,11.221640869140625,2.8442609310150146,-5.47852087020874,-5.67677116394043
1700944706895634400,11.238634521484375,2.543205976486206,-6.404764175415039,-4.95220947265625
1700944706912627500,11.25562744140625,1.401667594909668,-7.341230392456055,-4.585604190826416
1700944706929620500,11.272620361328125,-1.003307819366455,-8.777681350708008,-5.145204544067383
1700944706946614000,11.289614013671875,-1.9820892810821533,-9.522077560424805,-5.822501182556152
1700944706963607300,11.306607177734374,-1.1482547521591187,-9.67453670501709,-5.301418304443359
1700944706980600300,11.323600341796874,0.4667937159538269,-10.005594253540039,-1.8028831481933594
1700944706997593300,11.34059326171875,1.9632432460784912,-10.502029418945312,2.910524368286133
1700944707014586600,11.357586669921876,2.91317081451416,-9.664389610290527,6.583461761474609
1700944707031580000,11.374579833984376,1.8872591257095337,-8.36002254486084,8.292098999023438
1700944707048573200,11.3915732421875,-0.17725181579589844,-6.520447254180908,7.9906721115112305
1700944707065566500,11.40856640625,-1.7160899639129639,-4.6512451171875,7.141287803649902
1700944707082559500,11.4255595703125,-1.8676166534423828,-2.794870376586914,6.339632987976074
1700944707099552800,11.442552734375,-1.3427627086639404,-1.0251736640930176,5.91982364654541
1700944707116545800,11.4595458984375,-1.0357674360275269,0.8627824783325195,5.627118110656738
1700944707133538800,11.476538818359375,-1.263110637664795,2.6547138690948486,5.070711612701416
1700944707150523000,11.49352294921875,-1.812442421913147,3.8860156536102295,4.956233501434326
1700944707167525600,11.510525634765624,-2.2430267333984375,5.014040470123291,4.546285629272461
1700944707184520000,11.52752001953125,-2.3586745262145996,5.7154741287231445,3.6012611389160156
1700944707201512000,11.544511962890626,-2.1638481616973877,5.950981140136719,2.471275806427002
1700944707218504700,11.561504638671876,-1.4860888719558716,5.854100704193115,1.3418269157409668
1700944707235498000,11.578498046875,-0.9254541397094727,5.513260364532471,0.6079449653625488
1700944707252491300,11.5954912109375,-0.19158631563186646,5.2046027183532715,0.16014671325683594
1700944707269484800,11.61248486328125,0.36938387155532837,4.969791889190674,0.19686269760131836
1700944707286477800,11.629477783203125,0.9336376190185547,4.865550994873047,0.5197443962097168
1700944707303455700,11.646455810546875,0.4896426796913147,4.864702224731445,1.3441567420959473
1700944707320464100,11.663464111328125,-1.0244230031967163,4.383137226104736,3.2354159355163574
1700944707337457400,11.68045751953125,-3.010162353515625,3.24892520904541,5.385515213012695
1700944707354450700,11.69745068359375,-3.985037326812744,2.6179327964782715,6.147933006286621
1700944707371443700,11.714443603515624,-3.4850621223449707,1.6542730331420898,7.383058071136475
1700944707388436700,11.731436767578124,-2.9811277389526367,-0.5727057456970215,11.513622283935547
1700944707405429200,11.74842919921875,-2.1368026733398438,-2.770577907562256,14.757844924926758
1700944707422424000,11.765424072265626,-0.7945185899734497,-2.919520854949951,14.389139175415039
1700944707439416600,11.78241650390625,0.32001346349716187,-2.449375629425049,13.374385833740234
1700944707456409600,11.79940966796875,1.629073977470398,-2.053588390350342,12.677921295166016
1700944707473403000,11.81640283203125,2.893066883087158,-1.774627685546875,11.371381759643555
1700944707490396200,11.833396240234375,3.7626991271972656,-2.289487361907959,9.740888595581055
1700944707507389200,11.85038916015625,3.882246971130371,-3.2472996711730957,8.565851211547852
1700944707524382200,11.86738232421875,3.6613152027130127,-3.3941807746887207,6.495638370513916
1700944707541375700,11.884375732421875,3.293030261993408,-3.107578754425049,4.226924896240234
1700944707558369000,11.901369140625,2.9467861652374268,-2.5895071029663086,1.976663589477539
1700944707575362300,11.9183623046875,2.7083587646484375,-2.2392144203186035,0.06319618225097656
1700944707592355000,11.93535498046875,2.268209934234619,-2.1702120304107666,-1.6702275276184082
1700944707609348400,11.952348388671876,2.059882879257202,-2.2994320392608643,-3.1590447425842285
1700944707626331100,11.9693310546875,1.8228402137756348,-2.5757040977478027,-4.333493709564209
1700944707643332400,11.986332275390625,1.5203454494476318,-2.8716323375701904,-5.3382697105407715
1700944707660321300,12.0033212890625,1.3653331995010376,-3.3357834815979004,-5.943962574005127
1700944707677321200,12.0203212890625,1.169203519821167,-3.5232808589935303,-6.59010124206543
1700944707694314500,12.037314453125,1.1721444129943848,-3.7353203296661377,-7.078510284423828
1700944707711297800,12.0542978515625,1.4578936100006104,-3.823235034942627,-7.4483489990234375
1700944707728300500,12.071300537109375,1.9977291822433472,-3.8402132987976074,-7.67455530166626
1700944707745293800,12.0882939453125,2.309993267059326,-3.9691638946533203,-7.6643781661987305
1700944707762287000,12.105287109375,2.3845534324645996,-4.145740032196045,-7.609401702880859
1700944707779280100,12.122280029296874,2.0929512977600098,-4.526215553283691,-7.472010612487793
1700944707796273400,12.1392734375,1.4655673503875732,-5.6605401039123535,-6.858022689819336
1700944707813266700,12.1562666015625,0.6443675756454468,-6.155403137207031,-6.664274215698242
1700944707830247200,12.1732470703125,0.6346404552459717,-6.0027923583984375,-6.5629730224609375
1700944707847255600,12.190255615234374,0.7000845670700073,-6.308923721313477,-5.743319034576416
1700944707864246000,12.20724609375,0.17648112773895264,-7.366048812866211,-4.216794490814209
1700944707881237000,12.224237060546875,-0.5713298320770264,-8.466602325439453,-3.394918441772461
1700944707898225200,12.24122509765625,-0.291790246963501,-9.90788459777832,-2.8641252517700195
1700944707915225900,12.258225830078125,1.3689544200897217,-10.563197135925293,-1.2795429229736328
1700944707932219100,12.27521923828125,3.111952781677246,-10.138875961303711,0.9059486389160156
1700944707949212200,12.292212158203125,3.7607998847961426,-9.091800689697266,3.1017818450927734
1700944707966205400,12.309205322265624,3.2953453063964844,-8.154203414916992,4.723544120788574
1700944707983199000,12.326198974609374,1.9568266868591309,-7.037076950073242,5.761497497558594
1700944708000192000,12.34319189453125,0.42961856722831726,-5.441712379455566,6.165329933166504
1700944708017185000,12.36018505859375,-0.5853138566017151,-3.679969310760498,6.000690460205078
1700944708034178300,12.37717822265625,-0.9635530710220337,-1.8542823791503906,6.18660831451416
1700944708051160800,12.394160888671875,-0.8061423897743225,0.32830333709716797,7.063965797424316
1700944708068149800,12.411149658203126,-0.48308026790618896,3.0491137504577637,6.018533706665039
1700944708085155800,12.42815576171875,-0.6639754772186279,4.753655910491943,4.1632161140441895
1700944708102148600,12.445148681640624,-1.1846983432769775,5.4560394287109375,2.5125412940979004
1700944708119148300,12.462148193359376,-1.341313123703003,5.629079818725586,1.3528175354003906
1700944708136137500,12.479137451171875,-1.339643955230713,5.232245445251465,1.422976016998291
1700944708153130800,12.496130859375,-1.0601530075073242,5.091793060302734,2.213197708129883
1700944708170123500,12.51312353515625,-0.5289733409881592,5.417428016662598,2.314706802368164
1700944708187117000,12.530116943359374,-0.5626756548881531,5.726922512054443,1.7978644371032715
1700944708204110000,12.547110107421876,-1.2923002243041992,5.535778999328613,1.5261826515197754
1700944708221103400,12.564103271484376,-2.017287254333496,5.332585334777832,1.5289320945739746
1700944708238096600,12.5810966796875,-2.5585014820098877,5.058064937591553,2.858658790588379
1700944708255090000,12.59808984375,-3.808856964111328,3.5902185440063477,5.505845546722412
1700944708272082700,12.615082763671875,-5.666254043579102,2.6556472778320312,6.890122413635254
1700944708289076000,12.632075927734375,-5.496596336364746,1.9966669082641602,7.104824066162109
1700944708306066700,12.649066650390624,-3.4141488075256348,-0.16806602478027344,9.135298728942871
1700944708323065000,12.666065185546875,-0.5407164692878723,-3.478708267211914,11.973057746887207
1700944708340055600,12.6830556640625,2.3852272033691406,-5.414013862609863,13.86781120300293
1700944708357049000,12.700049072265625,4.0031890869140625,-3.9295778274536133,13.873063087463379
1700944708374045700,12.717045654296875,4.318264007568359,-1.564232349395752,13.667497634887695
1700944708391032000,12.734031982421875,4.885648250579834,-0.2630190849304199,13.298677444458008
1700944708408025600,12.751025634765625,5.301706314086914,-0.8589096069335938,12.504712104797363
1700944708425024000,12.76802392578125,4.3587260246276855,-2.137021541595459,10.360809326171875
1700944708442013400,12.785013427734375,2.754612684249878,-2.6797585487365723,6.872259616851807
1700944708459008000,12.802008056640625,1.354752540588379,-2.493781566619873,3.4934873580932617
1700944708476001500,12.81900146484375,0.7061260938644409,-2.081801414489746,1.0748510360717773
1700944708492996900,12.835996826171876,0.5898474454879761,-1.7623863220214844,-0.5567641258239746
1700944708509971700,12.8529716796875,1.117863655090332,-1.5318779945373535,-2.038309097290039
1700944708526980900,12.86998095703125,1.8021494150161743,-1.4935965538024902,-3.342517375946045
1700944708543974000,12.886973876953125,2.036796808242798,-1.7911970615386963,-4.327151775360107
1700944708560967200,12.90396728515625,1.9064314365386963,-2.23791766166687,-4.959136962890625
1700944708577958000,12.9209580078125,1.438326120376587,-2.5385425090789795,-5.590325832366943
1700944708594956300,12.937956298828125,0.7942154407501221,-2.8891093730926514,-6.032217979431152
1700944708611946800,12.95494677734375,0.29300642013549805,-3.3997488021850586,-6.372398376464844
1700944708628940000,12.97193994140625,0.09209567308425903,-3.9280762672424316,-6.4851975440979
1700944708645933300,12.988933349609376,0.5084905028343201,-4.29909610748291,-6.757153511047363
1700944708662926300,13.00592626953125,1.273217797279358,-4.592747211456299,-6.958014011383057
1700944708679919400,13.02291943359375,1.8109803199768066,-5.212092399597168,-6.842679500579834
1700944708696912600,13.03991259765625,1.9394631385803223,-5.898969650268555,-6.737490653991699
1700944708713906000,13.056906005859375,1.6964812278747559,-6.316634178161621,-6.852957248687744
1700944708730898400,13.0738984375,1.245133638381958,-6.410706996917725,-6.916299819946289
1700944708747892700,13.090892822265625,0.42021048069000244,-6.774613380432129,-6.686665058135986
1700944708764883000,13.107883056640626,-0.7768267393112183,-7.399383544921875,-7.083827018737793
1700944708781881600,13.124881591796875,-1.3899996280670166,-7.814849853515625,-7.265837669372559
1700944708798872000,13.1418720703125,-0.7474937438964844,-8.345161437988281,-6.486011505126953
1700944708815865000,13.158864990234376,0.988109827041626,-8.647416114807129,-4.176477909088135
1700944708832858000,13.175858154296876,2.8680131435394287,-8.404617309570312,-1.3879222869873047
1700944708849851600,13.1928515625,3.743480920791626,-7.763426780700684,1.2184648513793945
1700944708866845000,13.209844970703125,2.8178586959838867,-8.07183837890625,3.978146553039551
1700944708883838000,13.226837890625,1.2479665279388428,-7.96378231048584,5.644081115722656
1700944708900831000,13.2438310546875,-0.013690710067749023,-7.319120407104492,6.881138801574707
1700944708917824300,13.26082421875,-0.5615469813346863,-5.6757283210754395,7.819396018981934
1700944708934817300,13.2778173828125,-0.4767339825630188,-3.6098380088806152,8.452857971191406
1700944708951800600,13.294800537109374,-0.24223101139068604,-1.4307479858398438,8.502676010131836
1700944708968815600,13.311815673828125,0.24095389246940613,0.37213897705078125,8.988189697265625
1700944708985797000,13.328797119140624,-0.37233662605285645,2.185854434967041,8.678354263305664
1700944709002790400,13.345790283203126,-1.944500207901001,3.189316749572754,6.995393753051758
1700944709019783700,13.36278369140625,-3.488271951675415,3.4192252159118652,5.054640293121338
1700944709036776400,13.3797763671875,-3.8280344009399414,3.535703182220459,3.640896797180176
1700944709053769700,13.396769775390625,-3.4013876914978027,3.9633190631866455,2.8771772384643555
1700944709070763000,13.413762939453125,-2.133375883102417,4.657401084899902,2.745011806488037
1700944709087756300,13.43075634765625,-1.45025634765625,5.595043182373047,2.689176082611084
1700944709104749300,13.447749267578125,-1.3943073749542236,6.468295097351074,2.213592052459717
1700944709121742600,13.46474267578125,-1.9574453830718994,7.098841190338135,1.5610408782958984
1700944709138735900,13.48173583984375,-2.6791834831237793,7.492246627807617,0.780214786529541
1700944709155729700,13.498729736328125,-3.3846442699432373,7.4257965087890625,0.3822808265686035
1700944709172718800,13.51571875,-3.4150943756103516,6.838578224182129,0.6505594253540039
1700944709189718000,13.532718017578125,-2.3195881843566895,6.347448348999023,1.221360683441162
1700944709206708500,13.54970849609375,-1.382267951965332,5.214497089385986,2.6638717651367188
1700944709223701500,13.566701416015626,-1.621953010559082,2.8261570930480957,4.574854373931885
1700944709240695000,13.583695068359376,-2.5334534645080566,0.332547664642334,5.599626064300537
1700944709257687800,13.600687744140625,-2.4499802589416504,-1.9612140655517578,6.990614891052246
1700944709274681300,13.617681396484375,-1.323150634765625,-1.849522590637207,7.082128047943115
1700944709291674400,13.63467431640625,0.5447574257850647,-0.2862100601196289,7.897403717041016
1700944709308667600,13.651667724609375,1.5988723039627075,1.4108576774597168,9.286365509033203
1700944709325661000,13.668660888671875,1.9550652503967285,1.836613655090332,9.148301124572754
1700944709342654200,13.685654296875,2.317915201187134,0.5417866706848145,7.569689750671387
1700944709359647500,13.7026474609375,3.5568277835845947,-0.9291515350341797,5.422540664672852
1700944709376640300,13.71964013671875,3.727663516998291,-0.8269791603088379,3.2473268508911133
1700944709393633500,13.736633544921874,2.3041300773620605,-0.2573423385620117,1.3631534576416016
1700944709410620400,13.753620361328124,0.696342945098877,0.49175357818603516,-0.8795161247253418
1700944709427620000,13.7706201171875,-0.5954619646072388,0.4168391227722168,-2.1871232986450195
1700944709444613000,13.787613037109375,-1.0011903047561646,0.0330357551574707,-3.4136910438537598
1700944709461606400,13.8046064453125,-0.67353355884552,-0.05698871612548828,-3.428738594055176
1700944709478599400,13.821599365234375,-0.3951036334037781,0.028548240661621094,-2.9001617431640625
1700944709495593000,13.838593017578125,-0.3985555171966553,0.353640079498291,-2.3223280906677246
1700944709512586000,13.8555859375,-0.8129224181175232,0.25371551513671875,-1.3325915336608887
1700944709529579000,13.8725791015625,-1.6962851285934448,-1.5185933113098145,-0.029850006103515625
1700944709546572500,13.889572509765625,-2.3882534503936768,-2.7801475524902344,-0.08588314056396484
1700944709563573000,13.906572998046874,-2.485135555267334,-4.975295066833496,0.9155731201171875
1700944709580543500,13.92354345703125,-2.4390971660614014,-7.658431529998779,2.0383033752441406
1700944709597533700,13.94053369140625,-1.37129807472229,-8.20242691040039,1.5656375885009766
1700944709614547500,13.95754736328125,1.292371392250061,-7.630669593811035,1.9412908554077148
1700944709631535900,13.974535888671875,3.4949355125427246,-6.6934709548950195,3.597844123840332
1700944709648534000,13.991533935546874,3.7750113010406494,-5.671170711517334,4.5987043380737305
1700944709665524700,14.008524658203125,2.1373627185821533,-4.766969203948975,3.9711227416992188
1700944709682518000,14.02551806640625,-0.27420592308044434,-4.606460094451904,3.1800537109375
1700944709699511000,14.042510986328125,-2.0451788902282715,-4.004144191741943,1.7168169021606445
1700944709716504000,14.059504150390625,-2.851687431335449,-2.738375186920166,-0.03994560241699219
1700944709733497300,14.076497314453125,-2.857818603515625,-1.6199851036071777,-1.160818099975586
1700944709750491000,14.093490966796875,-2.1340460777282715,-0.43863916397094727,-2.0002188682556152
1700944709767484000,14.11048388671875,-1.354427456855774,0.3382742404937744,-2.583066463470459
1700944709784477200,14.127477294921874,-0.84196937084198,0.8570091724395752,-3.0683088302612305
1700944709801470500,14.144470458984374,-0.45446091890335083,1.0780730247497559,-3.4861550331115723
1700944709818463200,14.161463134765626,-0.5210831761360168,1.1476428508758545,-3.857083320617676
1700944709835456500,14.17845654296875,-0.7276003360748291,1.1362252235412598,-4.010447978973389
1700944709852449800,14.19544970703125,-0.9183810949325562,1.2800605297088623,-4.053555488586426
1700944709869443000,14.212443115234375,-1.216504693031311,1.422614336013794,-4.056827545166016
1700944709886436400,14.229436279296875,-1.5388011932373047,1.4520914554595947,-3.8625478744506836
1700944709903419000,14.2464189453125,-1.6070222854614258,1.3805274963378906,-3.5893354415893555
1700944709920422700,14.263422607421875,-1.440908432006836,1.1591479778289795,-2.8447303771972656
1700944709937415700,14.280415771484375,-1.0986484289169312,0.7452425956726074,-2.0105161666870117
1700944709954409200,14.2974091796875,-0.5124354362487793,0.4835517406463623,-1.0094752311706543
1700944709971402500,14.314402587890624,-0.24396169185638428,0.5026488304138184,-0.3289661407470703
1700944709988395300,14.331395263671874,-0.20638954639434814,0.35035133361816406,0.46134376525878906
1700944710005378000,14.3483779296875,-0.18157720565795898,-0.8610000610351562,2.1157684326171875
1700944710022381600,14.365381591796876,-0.21210110187530518,-2.8179421424865723,4.134305000305176
1700944710039374800,14.382374755859376,0.2333490252494812,-4.844400882720947,6.468987464904785
1700944710056368000,14.3993681640625,0.2714148759841919,-3.573794364929199,6.643153190612793
1700944710073363500,14.416363525390626,-0.13576745986938477,-0.7253193855285645,7.089598655700684
1700944710090352400,14.433352294921875,-0.9244248270988464,1.2090835571289062,8.08864974975586
1700944710107348200,14.45034814453125,-1.559180736541748,1.050605297088623,8.93691635131836
1700944710124340700,14.4673408203125,-2.4776172637939453,-1.1321306228637695,9.375992774963379
1700944710141334300,14.484334228515625,-3.419304847717285,-3.1518263816833496,8.226632118225098
1700944710158327300,14.501327392578125,-4.101320743560791,-3.644756317138672,5.384299278259277
1700944710175320600,14.518320556640624,-3.5777955055236816,-3.2906394004821777,2.850900650024414
1700944710192313600,14.535313720703124,-2.0900070667266846,-2.6908979415893555,1.0883798599243164
1700944710209307000,14.552306884765626,-0.28698307275772095,-2.5481724739074707,0.21615982055664062
1700944710226296300,14.56929638671875,1.0094937086105347,-2.713798761367798,-0.08114910125732422
1700944710243297000,14.586297119140625,1.5541216135025024,-2.5840184688568115,-1.1792173385620117
1700944710260286200,14.6032861328125,1.5256742238998413,-2.4515347480773926,-2.620560646057129
1700944710277279700,14.62027978515625,1.3187134265899658,-2.3705615997314453,-3.9801268577575684
1700944710294269000,14.63726904296875,1.3465945720672607,-2.2400147914886475,-5.0906171798706055
1700944710311270100,14.654270263671876,1.0762765407562256,-2.4979562759399414,-5.729992866516113
1700944710328259000,14.671259033203125,1.1576730012893677,-2.5556459426879883,-6.275254249572754
1700944710345252400,14.68825244140625,1.3405346870422363,-2.3866348266601562,-6.6878156661987305
1700944710362245400,14.705245361328124,1.4847602844238281,-2.1844940185546875,-6.874177932739258
1700944710379238700,14.72223876953125,1.5214533805847168,-2.19757080078125,-6.630529880523682
1700944710396222000,14.739221923828126,1.4273930788040161,-2.219148635864258,-6.291988372802734
1700944710413225200,14.75622509765625,1.3762943744659424,-2.339383602142334,-5.859320640563965
1700944710430218500,14.773218505859376,1.2686012983322144,-2.353411912918091,-5.452932834625244
1700944710447211500,14.79021142578125,1.3600407838821411,-2.360107183456421,-5.176013946533203
1700944710464204800,14.807204833984375,1.5122265815734863,-2.4700753688812256,-4.692647933959961
1700944710481198000,14.824197998046875,1.4036058187484741,-2.586289644241333,-4.4929118156433105
1700944710498191000,14.841191162109375,1.174740195274353,-2.519899606704712,-4.604538917541504
1700944710515182000,14.85818212890625,1.1305185556411743,-2.490391254425049,-4.4415130615234375
1700944710532179700,14.8751796875,1.4180059432983398,-2.685110092163086,-3.4488015174865723
1700944710549160200,14.89216015625,1.9703564643859863,-2.7957348823547363,-1.6744256019592285
1700944710566164000,14.9091640625,2.170424699783325,-2.715614080429077,-0.16629981994628906
1700944710583157000,14.926156982421874,1.695369839668274,-3.0716044902801514,0.8925886154174805
1700944710600150300,14.943150390625,0.9267868995666504,-3.5318355560302734,1.652644157409668
1700944710617143300,14.960143310546876,0.6950618624687195,-4.467833042144775,2.830524444580078
1700944710634137000,14.97713720703125,1.2450307607650757,-5.544711589813232,4.349184036254883
1700944710651119400,14.994119384765625,2.36895489692688,-5.733818531036377,5.299592018127441
1700944710668123100,15.011123046875,3.973224401473999,-4.587125301361084,5.703770637512207
1700944710685116200,15.0281162109375,5.482009410858154,-2.7865538597106934,6.091850280761719
1700944710702109200,15.045109130859375,5.810612678527832,-1.3455076217651367,6.24467134475708
1700944710719102500,15.0621025390625,5.153779983520508,-0.5453324317932129,5.518416404724121
1700944710736099300,15.079099365234375,3.95599102973938,0.09241962432861328,3.692497730255127
1700944710753085700,15.096085693359376,2.6498770713806152,1.137014389038086,1.4929075241088867
1700944710770082000,15.11308203125,1.1768832206726074,2.3376922607421875,-0.2882232666015625
1700944710787063600,15.1300634765625,-0.19590887427330017,3.241154909133911,-1.2419333457946777
1700944710804068600,15.147068603515624,-0.9861869812011719,3.800813913345337,-1.473928451538086
1700944710821062000,15.164061767578126,-1.2839854955673218,3.9554121494293213,-1.3458480834960938
1700944710838055200,15.18105517578125,-1.4157066345214844,3.92061185836792,-1.224682331085205
1700944710855048200,15.198048095703125,-1.5351476669311523,3.750258445739746,-1.235567569732666
1700944710872044300,15.215044189453126,-1.7524640560150146,3.7574830055236816,-1.492645263671875
1700944710889030400,15.232030517578124,-1.7767608165740967,3.492623805999756,-1.2489018440246582
1700944710906029000,15.249029052734375,-1.6987431049346924,3.297175645828247,-0.4834327697753906
1700944710923020800,15.266020751953125,-1.6086335182189941,3.3181188106536865,0.32507991790771484
1700944710940013800,15.283013916015625,-1.6299927234649658,3.243504047393799,1.1734356880187988
1700944710957007400,15.30000732421875,-1.5948591232299805,3.3716378211975098,1.6402864456176758
1700944710973996000,15.31699609375,-1.3505423069000244,3.5668394565582275,2.2236194610595703
1700944710990993700,15.33399365234375,-1.2697079181671143,3.608508825302124,3.3847742080688477
1700944711007987000,15.350987060546874,-1.6499347686767578,3.4392306804656982,4.956982135772705
1700944711024980000,15.36797998046875,-2.2705278396606445,2.821864604949951,6.285224914550781
1700944711041973200,15.38497314453125,-2.865821361541748,1.074014663696289,7.62572717666626
1700944711058966500,15.401966552734375,-2.8394856452941895,-0.14581966400146484,7.784550666809082
1700944711075960000,15.4189599609375,-2.3805863857269287,-0.1912078857421875,7.4180684089660645
1700944711092950000,15.435949951171875,-2.304612398147583,0.624394416809082,6.831667423248291
1700944711109932300,15.452932373046876,-2.2061798572540283,1.2450361251831055,6.0897603034973145
1700944711126939100,15.469939208984375,-1.803460717201233,0.5760092735290527,5.864109039306641
1700944711143932400,15.486932373046875,-1.2706503868103027,-1.0261435508728027,5.802684307098389
1700944711160925400,15.503925537109374,-0.6855229139328003,-2.641331195831299,5.393218040466309
1700944711177918700,15.520918701171874,-0.2767173647880554,-4.033866882324219,4.958802223205566
1700944711194912300,15.537912353515624,0.09759008884429932,-4.575909614562988,4.169036865234375
1700944711211905300,15.5549052734375,0.7316913604736328,-4.4698615074157715,3.1272497177124023
1700944711228898300,15.571898193359376,1.2775205373764038,-4.258634567260742,1.9843854904174805
1700944711245891800,15.588891845703126,1.9971840381622314,-4.156477928161621,0.9666595458984375
1700944711262884900,15.605884765625,2.486867904663086,-4.646738052368164,0.8621978759765625
1700944711279878000,15.6228779296875,2.4974231719970703,-5.672265529632568,0.8056402206420898
1700944711296871000,15.639870849609375,2.469299793243408,-5.935969829559326,-0.3589353561401367
1700944711313853700,15.656853759765625,2.670415163040161,-5.943160057067871,-1.8169384002685547
1700944711330857500,15.673857421875,2.80085825920105,-5.600179195404053,-3.5007171630859375
1700944711347843800,15.69084375,2.8947718143463135,-5.0349860191345215,-5.039055347442627
1700944711364847400,15.707847412109375,2.6557393074035645,-4.6743950843811035,-6.090803146362305
1700944711381826600,15.72482666015625,2.071784019470215,-4.688193321228027,-6.655187606811523
1700944711398830000,15.741830078125,1.537559151649475,-4.69830322265625,-7.301900863647461
1700944711415820800,15.75882080078125,1.2928980588912964,-4.402379512786865,-7.83247184753418
1700944711432819200,15.775819091796874,1.3250638246536255,-4.169985771179199,-7.622734069824219
1700944711449809700,15.7928095703125,1.2428423166275024,-4.041229248046875,-7.324310302734375
1700944711466803000,15.809802978515625,0.750124454498291,-4.425140380859375,-6.898693084716797
1700944711483796200,15.826796142578125,-0.07686828076839447,-4.8296074867248535,-6.966235160827637
1700944711500789500,15.84378955078125,-0.7823978066444397,-5.126813888549805,-7.320481300354004
1700944711517782800,15.86078271484375,-1.3181216716766357,-5.195462226867676,-7.993865489959717
1700944711534775600,15.877775634765625,-1.2053091526031494,-4.939889430999756,-8.190661430358887
1700944711551768800,15.894768798828125,-0.9149232506752014,-4.722094535827637,-7.793168067932129
1700944711568758500,15.911758544921875,-0.5857074856758118,-4.529290676116943,-7.238036632537842
1700944711585757400,15.92875732421875,-0.5133688449859619,-4.472811698913574,-6.739426612854004
1700944711602748700,15.945748779296874,-0.38146424293518066,-4.302628040313721,-6.246828556060791
1700944711619742000,15.962741943359376,-0.09612774848937988,-3.966533660888672,-4.617697238922119
1700944711636735000,15.97973486328125,-0.3454636335372925,-3.932183027267456,-1.759070873260498
1700944711653715700,15.9967158203125,-0.6900923252105713,-3.850733757019043,0.34780406951904297
1700944711670716700,16.013716552734376,-0.6572502851486206,-3.566075325012207,0.9441347122192383
1700944711687714300,16.03071435546875,-0.43176889419555664,-4.227804660797119,1.4614334106445312
1700944711704708000,16.0477080078125,-0.5041704177856445,-6.453308582305908,3.5759687423706055
1700944711721700600,16.06470068359375,-1.1552650928497314,-8.7155122756958,5.972503662109375
1700944711738694100,16.081694091796876,-1.515566110610962,-9.634363174438477,8.411905288696289
1700944711755688400,16.0986884765625,-0.09273946285247803,-7.941412925720215,9.872451782226562
1700944711772679200,16.11567919921875,2.026704788208008,-5.416108131408691,10.71668815612793
1700944711789673500,16.132673583984374,3.8139829635620117,-3.347991943359375,11.112786293029785
1700944711806667000,16.1496669921875,4.751058578491211,-1.703852891921997,10.420722007751465
1700944711823660000,16.166659912109374,3.684422016143799,-0.7422351837158203,8.660170555114746
1700944711840653300,16.1836533203125,1.1842581033706665,0.44573259353637695,5.860337257385254
1700944711857646600,16.200646484375,-1.1646426916122437,2.18296217918396,3.232882499694824
1700944711874639400,16.217639404296875,-2.5804591178894043,3.696434497833252,2.451218605041504
1700944711891632600,16.234632568359373,-2.551203489303589,5.03079891204834,3.6909027099609375
1700944711908626200,16.251626220703123,-2.198507070541382,6.281533241271973,3.938793659210205
1700944711925619000,16.268618896484377,-1.9346911907196045,6.743313312530518,2.995957851409912
1700944711942613800,16.28561376953125,-2.0919337272644043,6.551224231719971,1.07257080078125
1700944711959604000,16.30260400390625,-2.3806138038635254,6.042781829833984,-0.7777299880981445
1700944711976598500,16.3195986328125,-1.1927613019943237,5.9088897705078125,-1.7975540161132812
1700944711993602000,16.33660205078125,0.3962080180644989,5.86893892288208,-1.8065447807312012
1700944712010585000,16.353585205078126,1.8045886754989624,5.761706352233887,-0.9000997543334961
1700944712027578000,16.370578125,2.7624855041503906,6.061230182647705,-0.5816116333007812
1700944712044571600,16.387571533203126,2.9621758460998535,5.9389238357543945,-0.681281566619873
1700944712061564700,16.404564697265624,2.6900830268859863,5.83506441116333,-0.848137378692627
1700944712078557700,16.4215576171875,2.4163966178894043,5.789238452911377,-0.625309944152832
1700944712095551200,16.43855126953125,1.9056921005249023,5.610663414001465,0.17643976211547852
1700944712112544300,16.455544189453125,1.6302847862243652,5.482343673706055,1.1881141662597656
1700944712129537500,16.47253759765625,1.1472547054290771,5.120632648468018,2.0492300987243652
1700944712146528000,16.489528076171876,0.7040647864341736,3.487119197845459,3.6552329063415527
1700944712163526700,16.506526611328123,0.42916640639305115,2.1819677352905273,4.828906536102295
1700944712180517000,16.52351708984375,0.04948920011520386,1.1888461112976074,5.664297103881836
1700944712197510100,16.54051025390625,-0.09988981485366821,-0.5997557640075684,7.451371669769287
1700944712214500600,16.55750048828125,0.14212137460708618,-2.736443519592285,9.219269752502441
1700944712231497000,16.5744970703125,1.9209544658660889,-5.472553253173828,12.029864311218262
1700944712248481800,16.591481689453126,2.922220230102539,-5.504286289215088,13.193093299865723
1700944712265483000,16.60848291015625,2.9120078086853027,-4.520376682281494,13.50749683380127
1700944712282476300,16.625476318359375,2.042823076248169,-4.1806793212890625,13.084993362426758
1700944712299469300,16.64246923828125,2.016606330871582,-4.912171840667725,11.78267765045166
1700944712316462300,16.65946240234375,2.534268379211426,-6.745297431945801,10.691758155822754
1700944712333455600,16.67645556640625,2.7703258991241455,-7.2230706214904785,7.892495155334473
1700944712350449200,16.69344921875,2.6667826175689697,-6.410168647766113,4.349837303161621
1700944712367442200,16.710442138671876,2.1436259746551514,-5.20548677444458,1.3082199096679688
1700944712384430800,16.727430908203125,1.3643358945846558,-4.541625499725342,-0.8405513763427734
1700944712401432800,16.744432861328125,0.5064901113510132,-4.082202434539795,-2.567811965942383
1700944712418421800,16.761421875,-0.15449637174606323,-3.677004814147949,-4.051082611083984
1700944712435423200,16.77842333984375,-0.2961479723453522,-3.3562510013580322,-5.127501964569092
1700944712452408000,16.795407958984374,-0.09215199947357178,-3.149575710296631,-5.96784782409668
1700944712469401000,16.812401123046875,0.22556746006011963,-3.023167371749878,-6.706304550170898
1700944712486394600,16.82939453125,0.44329917430877686,-2.9539735317230225,-7.4159393310546875
1700944712503387600,16.8463876953125,-0.1313837766647339,-2.9678421020507812,-8.209821701049805
1700944712520381000,16.863380859375,-0.29087573289871216,-3.0940616130828857,-8.660150527954102
1700944712537369600,16.88036962890625,-0.3545761704444885,-3.386798858642578,-8.686429977416992
1700944712554371800,16.897371826171874,-0.015385866165161133,-3.6233749389648438,-8.655410766601562
1700944712571360300,16.9143603515625,0.7223448753356934,-3.7022805213928223,-8.534897804260254
1700944712588353800,16.931353759765624,1.2123202085494995,-3.890158176422119,-8.618871688842773
1700944712605346800,16.948346923828126,1.5686190128326416,-4.2559919357299805,-8.543023109436035
1700944712622340000,16.965340087890624,1.7399953603744507,-4.584131240844727,-8.401246070861816
1700944712639333000,16.9823330078125,1.7632968425750732,-5.001014709472656,-7.997876167297363
1700944712656326100,16.999326171875,1.9928933382034302,-5.1581315994262695,-7.1025285720825195
1700944712673320000,17.01631982421875,1.9164150953292847,-5.665073871612549,-5.472572326660156
1700944712690312700,17.033312744140623,1.0795263051986694,-6.364285469055176,-4.50464391708374
1700944712707303200,17.05030322265625,0.47466540336608887,-6.657952785491943,-4.148888111114502
1700944712724301800,17.0673017578125,0.5535050630569458,-6.899219989776611,-3.643535614013672
1700944712741292500,17.08429248046875,0.9523111581802368,-7.8940863609313965,-1.409602165222168
1700944712758285600,17.10128564453125,1.075515627861023,-8.834321022033691,1.1269798278808594
1700944712775278600,17.118278564453124,0.6231063604354858,-9.205604553222656,3.137763023376465
1700944712792268800,17.135268798828125,0.9840670228004456,-9.302261352539062,4.548165321350098
1700944712809268200,17.152268310546877,2.3633618354797363,-8.907679557800293,5.707180023193359
1700944712826247700,17.16924755859375,3.795186996459961,-8.308599472045898,7.10978889465332
1700944712843251500,17.18625146484375,4.757777214050293,-7.64611291885376,8.156835556030273
1700944712860244500,17.203244384765625,4.764208793640137,-6.661149024963379,8.487133979797363
1700944712877228800,17.220228759765625,3.7991909980773926,-5.278478145599365,8.525324821472168
1700944712894231000,17.23723095703125,2.0433859825134277,-3.393293857574463,8.297411918640137
1700944712911224300,17.254224365234375,0.020572185516357422,-1.2056975364685059,7.964371681213379
1700944712928217600,17.271217529296877,-1.5111870765686035,0.8778519630432129,7.100306987762451
1700944712945210600,17.288210693359375,-1.9889050722122192,2.415714979171753,6.09031343460083
1700944712962203600,17.30520361328125,-1.845985770225525,3.240530014038086,5.826582908630371
1700944712979186400,17.3221865234375,-1.0444161891937256,4.1104278564453125,5.243222236633301
1700944712996190700,17.339190673828124,-0.2923136353492737,4.7056121826171875,4.2392706871032715
1700944713013173800,17.356173828125,0.02025046944618225,5.116297721862793,3.8005266189575195
1700944713030168300,17.373168212890626,0.2921297252178192,5.7758097648620605,3.033505439758301
1700944713047177500,17.390177490234375,0.21864217519760132,6.311983108520508,2.015613555908203
1700944713064163000,17.4071630859375,-0.13582175970077515,6.465016841888428,1.2238435745239258
1700944713081151500,17.4241513671875,-0.38974282145500183,6.695082187652588,0.6063957214355469
1700944713098153700,17.44115380859375,-0.616928219795227,6.230679512023926,0.5821466445922852
1700944713115142400,17.458142333984377,-0.7559600472450256,6.147342681884766,0.5242757797241211
1700944713132136000,17.475135986328127,-0.9586793184280396,5.993782997131348,1.2285208702087402
1700944713149129000,17.49212890625,-1.5370699167251587,5.855829238891602,2.065296173095703
1700944713166122200,17.509122314453126,-2.083287239074707,5.797226905822754,2.721010684967041
1700944713183111200,17.526111083984375,-2.830888509750366,5.37445068359375,3.2213611602783203
1700944713200112600,17.543112548828127,-3.6752138137817383,5.076657295227051,3.6958413124084473
1700944713217101800,17.560101806640624,-3.990251064300537,3.763852596282959,5.32785701751709
1700944713234094800,17.5770947265625,-4.116586208343506,2.306997776031494,6.670180797576904
1700944713251088100,17.594088134765624,-3.7158145904541016,0.7056288719177246,7.957629203796387
1700944713268081400,17.611081298828125,-2.758751153945923,-1.284571647644043,9.769266128540039
1700944713285078000,17.628078125,-1.4488685131072998,-4.124335289001465,11.865364074707031
1700944713302064400,17.645064453125,0.10707861185073853,-5.825148582458496,12.20267391204834
1700944713319061000,17.66206103515625,2.184448003768921,-6.372030258178711,11.709310531616211
1700944713336054000,17.679053955078125,3.9887545108795166,-6.553114891052246,11.38824462890625
1700944713353043700,17.696043701171874,5.268544673919678,-6.716252326965332,10.921252250671387
1700944713370032000,17.7130322265625,5.661550521850586,-6.973415374755859,9.935718536376953
1700944713387023000,17.730023193359376,5.558073997497559,-6.8587870597839355,8.490837097167969
1700944713404026600,17.747026611328124,4.94301176071167,-6.114123344421387,6.071873188018799
1700944713421020000,17.76402001953125,4.351779460906982,-4.691013336181641,3.1914710998535156
1700944713438013000,17.781012939453124,3.5399246215820312,-3.3097519874572754,0.7717981338500977
1700944713455006500,17.79800634765625,2.8365859985351562,-2.3025803565979004,-1.2611322402954102
1700944713471999500,17.81499951171875,2.1494312286376953,-1.7013955116271973,-2.924060821533203
1700944713488992800,17.83199267578125,1.5570192337036133,-1.4695141315460205,-4.102573871612549
1700944713505985800,17.84898583984375,1.3478620052337646,-1.417313575744629,-5.07008171081543
1700944713522979000,17.86597900390625,1.2528260946273804,-1.3971052169799805,-6.091076850891113
1700944713539972400,17.882972412109375,1.4919713735580444,-1.249992847442627,-6.9942426681518555
1700944713556965600,17.899965576171876,1.409242033958435,-1.1985487937927246,-7.579775810241699
1700944713573958700,17.916958740234374,1.0911341905593872,-1.333949327468872,-7.861806869506836
1700944713590949600,17.93394970703125,0.6775529980659485,-1.5949326753616333,-8.053256034851074
1700944713607947500,17.950947509765626,0.2929992079734802,-2.1239418983459473,-8.356437683105469
1700944713624938000,17.96793798828125,0.337259978055954,-2.5008950233459473,-8.593755722045898
1700944713641931300,17.98493115234375,0.8118852376937866,-2.6302785873413086,-8.438827514648438
1700944713658924500,18.001924560546875,1.2438586950302124,-2.7616684436798096,-7.920424938201904
1700944713675917800,18.018917724609373,1.5132638216018677,-3.1728971004486084,-6.860556602478027
1700944713692901000,18.035901123046877,1.6074084043502808,-3.5086252689361572,-5.886259078979492
1700944713709904100,18.052904052734377,1.6613938808441162,-4.084176540374756,-5.1654253005981445
1700944713726897200,18.069897216796875,2.061044692993164,-4.221189022064209,-5.115522384643555
1700944713743890400,18.086890380859376,1.4835470914840698,-4.666265964508057,-4.465825080871582
1700944713760883700,18.1038837890625,0.26364052295684814,-5.285590171813965,-2.9951624870300293
1700944713777867800,18.12086767578125,-0.7448575496673584,-5.387966632843018,-2.097400665283203
1700944713794870000,18.1378701171875,-1.5411326885223389,-5.476467609405518,-1.6592555046081543
1700944713811863300,18.15486328125,-1.6902068853378296,-6.185634136199951,-0.8598461151123047
1700944713828856600,18.171856689453126,-1.150998592376709,-7.6027140617370605,0.12289142608642578
1700944713845834200,18.188834228515624,-0.0143280029296875,-8.602252960205078,0.5764923095703125
1700944713862832400,18.205832275390627,1.5402028560638428,-9.306884765625,1.9768142700195312
1700944713879836000,18.2228359375,3.740504026412964,-8.452117919921875,3.5580902099609375
1700944713896819200,18.239819091796875,4.830348968505859,-6.461474418640137,5.234214782714844
1700944713913812000,18.25681201171875,4.194745063781738,-5.042148590087891,6.495630264282227
1700944713930815500,18.2738154296875,2.522247791290283,-3.8040173053741455,6.526858329772949
1700944713947807200,18.29080712890625,0.8253370523452759,-2.811459541320801,6.3359880447387695
1700944713964802000,18.307802001953124,-0.3989526033401489,-1.683535099029541,5.783379554748535
1700944713981796600,18.324796630859375,-1.2843635082244873,-0.31682395935058594,5.241437911987305
1700944713998788600,18.34178857421875,-1.6075116395950317,1.3572258949279785,5.144824504852295
1700944714015778800,18.35877880859375,-0.9896314144134521,3.1786770820617676,6.22913122177124
1700944714032777200,18.375777099609376,-0.26623278856277466,5.615377902984619,5.839313507080078
1700944714049768200,18.392768310546874,-0.881155788898468,6.780405521392822,4.1381731033325195
1700944714066761200,18.40976123046875,-1.8704173564910889,6.910545825958252,2.3638410568237305
1700944714083754500,18.42675439453125,-1.9280543327331543,6.584862232208252,1.2634029388427734
1700944714100745000,18.443744873046874,-1.1357885599136353,6.257613658905029,1.218580722808838
1700944714117741800,18.460741943359373,0.013856858015060425,6.265546798706055,1.4315319061279297
1700944714134733000,18.477733154296875,0.45105674862861633,5.928464889526367,1.0076632499694824
1700944714151730000,18.49472998046875,0.37738949060440063,5.475729942321777,-0.5304017066955566
1700944714168717600,18.511717529296874,0.1934587061405182,5.000161647796631,-1.913297176361084
1700944714185713700,18.528713623046876,0.2666308879852295,4.966065406799316,-2.531125068664551
1700944714202708700,18.545708740234375,0.7819994688034058,4.726122856140137,-1.2235217094421387
1700944714219698000,18.562697998046875,0.4022192060947418,4.501959800720215,1.3212127685546875
1700944714236693200,18.579693359375,-0.819818913936615,4.257718086242676,3.668882369995117
1700944714253686000,18.59668603515625,-3.0059525966644287,3.7814342975616455,5.03080415725708
1700944714270679300,18.61367919921875,-4.18353271484375,3.4380640983581543,5.698404312133789
1700944714287672600,18.630672607421875,-3.881716251373291,2.3865966796875,6.938539505004883
1700944714304665900,18.647665771484377,-2.447971820831299,0.3756752014160156,9.181791305541992
1700944714321659000,18.664658935546875,-0.9451348781585693,-3.109032154083252,12.825126647949219
1700944714338649600,18.681649658203124,0.5884437561035156,-4.949676513671875,14.162252426147461
1700944714355637200,18.69863720703125,1.5315043926239014,-4.190219402313232,12.871626853942871
1700944714372638700,18.715638671875,1.662733793258667,-2.3845901489257812,11.151824951171875
1700944714389632000,18.732632080078126,1.9937891960144043,-1.0542984008789062,9.451717376708984
1700944714406625000,18.749625,2.2501845359802246,-1.8319401741027832,8.674516677856445
1700944714423618300,18.766618408203126,2.4962308406829834,-3.195594310760498,7.552184104919434
1700944714440611300,18.783611328125,2.223865509033203,-4.172392845153809,5.105058670043945
1700944714457604600,18.8006044921875,1.8774454593658447,-4.191102981567383,1.8954658508300781
1700944714474598000,18.817597900390624,1.9256157875061035,-3.249436855316162,-0.9572329521179199
1700944714491588400,18.83458837890625,2.0312790870666504,-2.150196075439453,-2.8427696228027344
1700944714508586800,18.851586669921875,1.9244279861450195,-1.3294548988342285,-4.06729793548584
1700944714525577200,18.8685771484375,1.6551750898361206,-1.0496978759765625,-4.489866733551025
1700944714542570200,18.8855703125,1.5645759105682373,-0.9975614547729492,-4.661722660064697
1700944714559563500,18.9025634765625,1.3009555339813232,-1.241182565689087,-4.839461326599121
1700944714576557000,18.91955712890625,1.040255069732666,-1.4560449123382568,-5.536913871765137
1700944714593549800,18.9365498046875,0.9549413919448853,-1.7224555015563965,-6.413470268249512
1700944714610543000,18.953543212890626,0.7871264219284058,-2.31664776802063,-6.82717227935791
1700944714627526700,18.970526611328125,0.665274977684021,-2.9204087257385254,-7.039322376251221
1700944714644529700,18.98752978515625,0.966398298740387,-3.298917293548584,-7.175055503845215
1700944714661522700,19.004522705078124,1.475524663925171,-3.677140712738037,-7.323524475097656
1700944714678516000,19.021515869140625,2.1638901233673096,-4.03993558883667,-7.475886344909668
1700944714695509000,19.038509033203123,2.583639621734619,-4.518890380859375,-7.299637794494629
1700944714712489000,19.055489013671874,2.2459306716918945,-5.323866367340088,-6.767245292663574
1700944714729495600,19.07249560546875,1.3225972652435303,-5.898453712463379,-6.077826976776123
1700944714746488800,19.08948876953125,0.7629672288894653,-6.408760070800781,-5.218850135803223
1700944714763481900,19.10648193359375,0.7523845434188843,-6.988715648651123,-4.185328960418701
1700944714780475000,19.123474853515624,0.40493226051330566,-7.552570343017578,-3.6100716590881348
1700944714797468200,19.14046826171875,-0.002368330955505371,-7.950002670288086,-3.8303136825561523
1700944714814460700,19.157460693359376,0.9857954978942871,-8.183812141418457,-2.8119468688964844
1700944714831454700,19.174454833984374,3.1580893993377686,-8.091901779174805,0.6888551712036133
1700944714848444700,19.191444580078127,5.150211811065674,-8.090922355651855,6.374914169311523
1700944714865443600,19.208443603515626,5.761420726776123,-7.263167381286621,9.857368469238281
1700944714882440700,19.225440673828125,3.8830506801605225,-6.0478363037109375,9.911744117736816
1700944714899426600,19.242426513671877,0.23228216171264648,-4.252724647521973,7.75947380065918
1700944714916420900,19.2594208984375,-2.879887580871582,-2.2641351222991943,5.345211982727051
1700944714933413600,19.27641357421875,-4.467695236206055,-0.8148260116577148,4.360618591308594
1700944714950408200,19.293408203125,-3.9925241470336914,0.557039737701416,4.642597198486328
1700944714967399200,19.310399169921876,-2.3749120235443115,2.017524242401123,6.062618255615234
1700944714984393500,19.3273935546875,-1.168979525566101,4.016556262969971,5.433753967285156
1700944715001386500,19.344386474609376,-1.437990427017212,5.118357181549072,3.6055731773376465
1700944715018379800,19.3613798828125,-2.1413094997406006,5.480210304260254,1.6955952644348145
1700944715035358500,19.3783583984375,-2.340794563293457,5.321599960327148,0.4824404716491699
1700944715052363500,19.395363525390625,-2.1194472312927246,5.119786262512207,-0.05520343780517578
1700944715069362200,19.412362060546876,-1.214524745941162,4.904549598693848,-0.3126521110534668
1700944715086352600,19.4293525390625,-0.5661622881889343,4.572002410888672,-0.357119083404541
1700944715103345700,19.446345703125,-0.08725535869598389,4.3363142013549805,-0.7473297119140625
1700944715120339200,19.463339111328125,-0.21492068469524384,4.33780574798584,-0.9305295944213867
1700944715137321700,19.48032177734375,-0.8010998964309692,4.297076225280762,-0.7945303916931152
1700944715154325200,19.4973251953125,-1.5680285692214966,4.115281105041504,-0.31204938888549805
1700944715171308000,19.51430810546875,-2.102215051651001,3.900662422180176,0.5583171844482422
1700944715188311800,19.531311767578124,-2.4681971073150635,2.776651620864868,1.877730369567871
1700944715205305900,19.548305908203126,-2.1657609939575195,1.3680672645568848,3.234355926513672
1700944715222297900,19.5652978515625,-1.2141560316085815,0.5738515853881836,4.240842819213867
1700944715239291400,19.58229150390625,-0.6204549670219421,-0.20753717422485352,6.009108066558838
1700944715256284200,19.5992841796875,-0.38495442271232605,-2.1335372924804688,9.122736930847168
1700944715273277700,19.616277587890625,-0.24631306529045105,-3.9891042709350586,11.105790138244629
1700944715290270700,19.633270751953123,0.37517058849334717,-5.033830165863037,12.2742919921875
1700944715307261200,19.65026123046875,1.2926417589187622,-3.947084426879883,11.956416130065918
1700944715324259600,19.667259521484375,1.7294865846633911,-2.583348274230957,11.576360702514648
1700944715341255000,19.6842548828125,1.885286569595337,-1.954233169555664,11.117559432983398
1700944715358243600,19.70124365234375,1.7440906763076782,-2.3912105560302734,10.087812423706055
1700944715375236900,19.71823681640625,1.2379488945007324,-2.8646607398986816,7.613500118255615
1700944715392230000,19.73522998046875,0.784541130065918,-2.7036447525024414,4.21238899230957
1700944715409223000,19.752222900390624,0.7039095163345337,-1.741241455078125,0.8419981002807617
1700944715426216200,19.76921630859375,0.8848655223846436,-0.4953789710998535,-1.535280704498291
1700944715443209200,19.786209228515624,0.9147171378135681,0.33819580078125,-2.9775476455688477
1700944715460202500,19.803202392578125,0.7677130103111267,0.7607488632202148,-4.016853332519531
1700944715477195800,19.82019580078125,0.5473552942276001,0.7655856609344482,-4.740692615509033
1700944715494189300,19.837189208984373,0.31002169847488403,0.48112916946411133,-5.567159175872803
1700944715511171800,19.854171875,-0.0736846923828125,0.29416894912719727,-6.573145866394043
1700944715528175600,19.871175537109377,-0.016453981399536133,0.1214900016784668,-7.595405578613281
1700944715545168600,19.888168701171875,0.06463247537612915,-0.359637975692749,-8.5512056350708
1700944715562151400,19.9051513671875,1.380291223526001,-0.6991075277328491,-9.557452201843262
1700944715579155200,19.9221552734375,2.345813751220703,-0.5614179372787476,-10.220836639404297
1700944715596148000,19.93914794921875,2.1892261505126953,-0.981848955154419,-10.396905899047852
1700944715613141200,19.956141357421874,1.5531529188156128,-1.1493936777114868,-10.84712028503418
1700944715630134800,19.973134765625,1.2378798723220825,-1.311630129814148,-10.764925956726074
1700944715647127600,19.99012744140625,1.3664788007736206,-1.764416217803955,-9.71730899810791
1700944715664120800,20.007120849609375,2.390028715133667,-2.343867540359497,-7.337210655212402
1700944715681114000,20.024114013671873,3.2009966373443604,-3.1868913173675537,-4.508160591125488
1700944715698089500,20.04108935546875,3.502063751220703,-3.5523195266723633,-2.7825937271118164
1700944715715100400,20.058100341796877,2.548682928085327,-3.9545421600341797,-1.0290498733520508
1700944715732082200,20.075082275390624,-0.7164719104766846,-4.638535022735596,0.5339622497558594
1700944715749087700,20.092087646484377,-3.850816249847412,-6.643167972564697,2.076165199279785
1700944715766077400,20.109077392578126,-2.9300119876861572,-8.601468086242676,3.0313405990600586
1700944715783075800,20.126075927734377,1.5909744501113892,-9.345626831054688,4.072786331176758
1700944715800066600,20.143066650390626,6.4414825439453125,-7.642992973327637,6.147798538208008
1700944715817059800,20.160059814453124,7.7544755935668945,-5.585432052612305,8.972046852111816
1700944715834052600,20.177052490234374,5.676301002502441,-3.883711338043213,10.058879852294922
1700944715851046000,20.1940458984375,1.7804884910583496,-2.2529187202453613,9.52576732635498
1700944715868039400,20.211039306640625,-2.2836923599243164,-0.9929041862487793,7.812738418579102
1700944715885032400,20.228032470703123,-4.501861572265625,0.3082857131958008,5.9109673500061035
1700944715902025700,20.245025634765625,-4.820494651794434,1.4302806854248047,4.0864715576171875
1700944715919018800,20.262018798828127,-4.720157623291016,2.3609933853149414,2.757327079772949
1700944715936012000,20.279011962890625,-3.437562942504883,3.0314977169036865,3.015835762023926
1700944715953005000,20.296005126953126,-2.048703908920288,4.009031295776367,2.7613730430603027
1700944715969998000,20.312998046875,-1.135205626487732,5.0110979080200195,2.213189125061035
1700944715987001900,20.330001953125,-1.3688371181488037,5.585773468017578,1.206972599029541
1700944716003978200,20.346978271484375,-2.3175113201141357,5.669431686401367,-0.24535465240478516
1700944716020978000,20.36397802734375,-2.763500213623047,5.454914093017578,-1.478078842163086
1700944716037971200,20.38097119140625,-2.8719890117645264,4.906396865844727,-1.7167911529541016
1700944716054964500,20.397964599609374,-1.6425635814666748,4.477075576782227,-1.8290362358093262
1700944716071957800,20.414957763671875,-0.8844699859619141,4.053203582763672,-1.8410043716430664
1700944716088950500,20.431950439453125,-0.5150460600852966,3.3737072944641113,-1.683870792388916
1700944716105945600,20.448945556640624,-0.6142170429229736,2.2608819007873535,-1.4298391342163086
1700944716122927900,20.465927978515627,-0.5946133136749268,1.4369935989379883,-1.2864141464233398
1700944716139930400,20.482930419921875,-0.35706478357315063,1.158895492553711,-0.8134965896606445
1700944716156923600,20.499923583984376,0.15700113773345947,0.5900578498840332,1.2622241973876953
1700944716173916700,20.516916748046874,0.17183387279510498,-0.010441303253173828,2.972395896911621
1700944716190910000,20.533909912109376,-0.2871336340904236,-0.06681966781616211,3.311509132385254
1700944716207903200,20.5509033203125,-0.26200997829437256,-0.6910452842712402,4.318920612335205
1700944716224896000,20.56789599609375,-0.08025437593460083,-2.5283827781677246,6.7803850173950195
1700944716241889300,20.58488916015625,0.06805408000946045,-4.905427932739258,8.747926712036133
1700944716258882300,20.60188232421875,0.5311168432235718,-6.518669128417969,8.758435249328613
1700944716275875800,20.618875732421873,1.8021800518035889,-6.650457859039307,7.869879245758057
1700944716292868900,20.635868896484375,3.3204994201660156,-5.159853458404541,6.350914001464844
1700944716309862100,20.652862060546877,3.770286798477173,-3.6961898803710938,5.429188251495361
1700944716326855200,20.669855224609375,3.2280077934265137,-2.7663393020629883,4.641806602478027
1700944716343848400,20.686848388671876,1.8752156496047974,-1.8179221153259277,3.448023796081543
1700944716360841500,20.703841552734374,0.42165499925613403,-0.7107930183410645,1.5816450119018555
1700944716377834800,20.720834716796876,-0.39047253131866455,0.7325406074523926,-0.579291820526123
1700944716394828300,20.737828369140626,-0.5735206604003906,1.9189820289611816,-1.5563898086547852
1700944716411811000,20.75481103515625,-0.6528221964836121,2.814483642578125,-2.137636184692383
1700944716428814600,20.771814697265626,-0.8739724159240723,3.241183042526245,-2.6252193450927734
1700944716445807900,20.788807861328124,-1.0917752981185913,3.528057336807251,-3.2227630615234375
1700944716462801000,20.80580078125,-1.19906485080719,3.6124887466430664,-4.359317779541016
1700944716479794000,20.8227939453125,-1.1397819519042969,3.667787551879883,-5.392784118652344
1700944716496787000,20.839786865234377,-0.9548424482345581,3.611135959625244,-6.055028915405273
1700944716513766700,20.8567666015625,-0.7154133319854736,3.4562697410583496,-6.446774482727051
1700944716530773200,20.873773193359376,-0.7154569029808044,3.3189609050750732,-6.662054538726807
1700944716547767000,20.89076708984375,-1.0459692478179932,2.990889072418213,-6.641347885131836
1700944716564759300,20.90775927734375,-0.8806033134460449,2.651989221572876,-6.854798316955566
1700944716581753600,20.924753662109374,-0.36057358980178833,2.330575466156006,-6.96596097946167
1700944716598736000,20.94173583984375,0.2564987540245056,1.8726613521575928,-6.703188419342041
1700944716615739600,20.95873974609375,1.2770788669586182,1.462963581085205,-5.435525894165039
1700944716632732400,20.975732421875,2.1717474460601807,0.1448516845703125,-3.467050075531006
1700944716649726000,20.992725830078125,2.659787654876709,-1.3985810279846191,-2.1135811805725098
1700944716666719000,21.009718994140623,3.4389736652374268,-2.541163444519043,-1.1281075477600098
1700944716683709700,21.026709716796876,4.280920505523682,-4.306082725524902,0.6400594711303711
1700944716700707800,21.043707763671875,4.463764190673828,-5.74153470993042,2.5045690536499023
1700944716717696300,21.0606962890625,3.4272303581237793,-6.812323570251465,3.873291015625
1700944716734691800,21.07769189453125,2.8534700870513916,-7.1027512550354,5.207969665527344
1700944716751687700,21.094687744140625,2.998100996017456,-6.690910339355469,6.3628363609313965
1700944716768678000,21.111677978515626,2.997720956802368,-5.415928363800049,7.309136390686035
1700944716785671400,21.12867138671875,1.1478924751281738,-4.177204608917236,7.587837219238281
1700944716802664700,21.145664794921874,-2.048656463623047,-2.8467564582824707,6.881370544433594
1700944716819639300,21.162639404296876,-5.324013710021973,-1.6249032020568848,5.676715850830078
1700944716836640500,21.179640625,-7.371423721313477,-0.5775623321533203,4.267615795135498
1700944716853644300,21.196644287109375,-7.243745803833008,0.5150079727172852,2.8981733322143555
1700944716870637300,21.21363720703125,-5.5894904136657715,1.3683791160583496,1.8375740051269531
1700944716887630300,21.23063037109375,-3.9491584300994873,2.055142879486084,0.6851382255554199
1700944716904623900,21.247623779296877,-2.355591058731079,2.6044416427612305,-0.2135171890258789
1700944716921616600,21.26461669921875,-1.0398063659667969,3.018733501434326,-0.933232307434082
1700944716938610200,21.281610107421876,-0.6810982823371887,3.20408034324646,-1.508871078491211
1700944716955603500,21.298603515625,-1.2776132822036743,3.352320671081543,-2.1095223426818848
1700944716972596500,21.315596435546876,-1.745679259300232,3.4431633949279785,-2.685793876647949
1700944716989592300,21.33259228515625,-1.4425767660140991,3.326232433319092,-2.587973117828369
1700944717006580200,21.349580322265624,-0.7741678953170776,3.246018409729004,-2.15879487991333
1700944717023565600,21.366565673828124,-0.4732004404067993,2.9957962036132812,-1.318739414215088
1700944717040569300,21.3835693359375,-1.3643569946289062,2.562255859375,-0.5914955139160156
1700944717057562600,21.400562744140625,-3.0947377681732178,2.0198307037353516,-0.706484317779541
1700944717074555600,21.4175556640625,-4.113847255706787,1.601935863494873,-0.826319694519043
1700944717091548700,21.434548583984373,-4.309121131896973,1.2718005180358887,-0.8029241561889648
1700944717108542200,21.451542236328127,-3.2186801433563232,1.218388557434082,-0.4394102096557617
1700944717125535200,21.46853515625,-1.7703050374984741,1.2728815078735352,0.40100622177124023
1700944717142528300,21.4855283203125,-1.0479238033294678,0.5040650367736816,0.8655672073364258
1700944717159521500,21.502521484375,-0.8103610873222351,-0.28172731399536133,1.040079116821289
1700944717176514600,21.5195146484375,-1.2251214981079102,-1.326550006866455,1.8945436477661133
1700944717193507800,21.5365078125,-1.0126116275787354,-2.409938335418701,4.693634033203125
1700944717210506000,21.553506103515623,-0.6407932639122009,-5.119219779968262,8.868088722229004
1700944717227494100,21.570494140625,0.5949052572250366,-6.915841102600098,10.464539527893066
1700944717244485000,21.587485107421877,2.36033034324646,-7.06642484664917,10.307502746582031
1700944717261483000,21.60448291015625,4.391632080078125,-4.970239162445068,10.053911209106445
1700944717278473700,21.6214736328125,4.816903114318848,-3.3071823120117188,10.665193557739258
