time,seconds_elapsed,z,y,x
1701104415973018400,0.163018310546875,-6.042141914367676,-3.2454757690429688,-1.1718909740447998
1701104415990003700,0.180003662109375,-5.658640384674072,-4.448647499084473,-1.7421646118164062
1701104416007003600,0.197003662109375,-5.471901893615723,-5.565746784210205,-2.658686637878418
1701104416023994400,0.213994384765625,-5.640075206756592,-6.172354698181152,-3.3963770866394043
1701104416040982800,0.230982666015625,-7.274651527404785,-6.405012130737305,-3.1636533737182617
1701104416057977000,0.24797705078125,-8.591567993164062,-7.194553375244141,-1.748164176940918
1701104416074968800,0.26496875,-7.2417402267456055,-6.917730808258057,-0.4217090606689453
1701104416091961300,0.28196142578125,-5.0127058029174805,-5.847593307495117,-0.48007774353027344
1701104416108954600,0.29895458984375,-3.667295455932617,-5.055329322814941,-0.060482025146484375
1701104416125945600,0.315945556640625,-3.7229409217834473,-4.406248569488525,1.014164924621582
1701104416142929700,0.3329296875,-5.167470932006836,-4.177481651306152,2.48012638092041
1701104416159927600,0.349927490234375,-6.475282669067383,-3.777033567428589,3.364985466003418
1701104416176922600,0.366922607421875,-6.9774322509765625,-3.4632155895233154,3.122666358947754
1701104416193913300,0.383913330078125,-6.16232442855835,-2.9816129207611084,2.8718652725219727
1701104416210904300,0.400904296875,-5.184662818908691,-2.5603528022766113,2.267085075378418
1701104416227897600,0.417897705078125,-4.376862525939941,-2.4173052310943604,1.5557279586791992
1701104416244893700,0.434893798828125,-3.107642650604248,-2.42246675491333,1.859832763671875
1701104416261880300,0.45188037109375,-2.064399480819702,-2.339907646179199,3.3796167373657227
1701104416278876400,0.46887646484375,-1.4456214904785156,-1.8578238487243652,5.1663713455200195
1701104416295867100,0.4858671875,-0.9837286472320557,-0.581171989440918,5.929452896118164
1701104416312861400,0.502861328125,-0.8572745323181152,0.28168630599975586,6.366168022155762
1701104416329847800,0.519847900390625,-1.6023210287094116,0.3728938102722168,6.7945027351379395
1701104416346845000,0.536844970703125,-2.3195133209228516,0.14059114456176758,7.480342864990234
1701104416363827700,0.55382763671875,-2.640465259552002,-0.005374908447265625,8.060942649841309
1701104416380822300,0.570822265625,-2.776749849319458,-0.040062904357910156,9.223976135253906
1701104416397810700,0.587810791015625,-2.7229342460632324,0.48844337463378906,10.554378509521484
1701104416414816300,0.604816162109375,-3.1735334396362305,1.1360688209533691,10.856828689575195
1701104416431801900,0.6218017578125,-4.060365676879883,1.675269603729248,10.258968353271484
1701104416448798500,0.638798583984375,-4.860884189605713,2.207927703857422,9.145421981811523
1701104416465794800,0.655794921875,-5.377376556396484,2.8098907470703125,7.978824615478516
1701104416482801000,0.67280078125,-5.847338676452637,3.4404451847076416,7.169343948364258
1701104416499763200,0.68976318359375,-6.142569541931152,4.112176895141602,6.846200466156006
1701104416516765200,0.70676513671875,-6.099753379821777,4.860943794250488,6.3359375
1701104416533763800,0.723763916015625,-6.2075581550598145,5.353262901306152,5.233825206756592
1701104416550746400,0.740746337890625,-6.267612934112549,5.32444953918457,3.936765193939209
1701104416567742500,0.757742431640625,-6.393167972564697,5.187081813812256,2.596829891204834
1701104416584735700,0.77473583984375,-6.3602752685546875,5.096083641052246,1.4821381568908691
1701104416601716500,0.791716552734375,-6.211935043334961,4.986873626708984,0.8827352523803711
1701104416618719500,0.808719482421875,-5.935537815093994,4.882396697998047,0.6781706809997559
1701104416635699700,0.82569970703125,-5.600066184997559,4.731183052062988,0.7697887420654297
1701104416652704800,0.842704833984375,-5.311482906341553,4.211581230163574,0.9346356391906738
1701104416669692200,0.859692138671875,-4.990245819091797,3.5887560844421387,1.1941046714782715
1701104416686687000,0.87668701171875,-4.539647579193115,3.1837172508239746,1.3843274116516113
1701104416703680500,0.893680419921875,-4.2757039070129395,2.6352787017822266,1.502671718597412
1701104416720669200,0.910669189453125,-4.067738056182861,2.0621423721313477,1.6630363464355469
1701104416737663200,0.927663330078125,-3.684248447418213,1.296189785003662,2.3559160232543945
1701104416754657500,0.944657470703125,-3.050391912460327,0.3095402717590332,3.2699999809265137
1701104416771647200,0.961647216796875,-2.362166404724121,-0.8632464408874512,4.670583724975586
1701104416788641300,0.978641357421875,-2.239783763885498,-1.670769214630127,5.204096794128418
1701104416805631500,0.995631591796875,-3.0329794883728027,-2.5710721015930176,5.2738752365112305
1701104416822626000,1.0126259765625,-4.445369720458984,-3.994081497192383,5.555300712585449
1701104416839614000,1.029614013671875,-4.8164567947387695,-5.66316032409668,6.6424560546875
1701104416856609000,1.046609130859375,-4.119344234466553,-7.262739181518555,7.583867073059082
1701104416873602000,1.06360205078125,-2.657308340072632,-7.914167881011963,7.294475555419922
1701104416890590500,1.080590576171875,-0.8109945058822632,-7.59370231628418,6.3651227951049805
1701104416907584500,1.09758447265625,0.21814918518066406,-7.351162910461426,5.893842697143555
1701104416924578000,1.114578125,0.14327490329742432,-7.026336193084717,5.188225746154785
1701104416941564000,1.13156396484375,-0.6102746725082397,-6.418221473693848,3.7082605361938477
1701104416958554400,1.148554443359375,-1.5356863737106323,-5.349239349365234,1.4468441009521484
1701104416975549400,1.165549560546875,-2.4309611320495605,-3.889557361602783,-1.3315048217773438
1701104416992548000,1.182548095703125,-3.122467279434204,-2.6009225845336914,-4.000565528869629
1701104417009526800,1.19952685546875,-3.56085205078125,-1.8466274738311768,-6.133945941925049
1701104417026530300,1.2165302734375,-3.627051830291748,-1.7163293361663818,-7.562004089355469
1701104417043519700,1.233519775390625,-3.453209400177002,-1.7385151386260986,-8.503029823303223
1701104417060512800,1.2505126953125,-3.518678665161133,-1.6808030605316162,-9.131475448608398
1701104417077507600,1.267507568359375,-3.581090211868286,-1.5497123003005981,-9.119582176208496
1701104417094497500,1.28449755859375,-4.121846675872803,-1.3562991619110107,-8.962573051452637
1701104417111487700,1.30148779296875,-4.711880683898926,-0.9313877820968628,-8.991637229919434
1701104417128492800,1.318492919921875,-5.145269870758057,-0.4146139621734619,-9.092339515686035
1701104417145472300,1.33547216796875,-5.250279426574707,0.007926344871520996,-8.975822448730469
1701104417162468900,1.35246875,-4.741186618804932,0.13320505619049072,-8.473213195800781
1701104417179457000,1.36945703125,-4.079098701477051,0.017296195030212402,-7.682483196258545
1701104417196441300,1.38644140625,-3.772019386291504,-0.2564702033996582,-6.455900192260742
1701104417213449200,1.40344921875,-3.5525097846984863,-0.35330843925476074,-5.118162631988525
1701104417230433300,1.420433349609375,-3.65083646774292,-0.5031821727752686,-3.9459738731384277
1701104417247428400,1.437428466796875,-4.226046085357666,-0.8205606937408447,-2.855391502380371
1701104417264419600,1.454419677734375,-4.670797348022461,-2.0313799381256104,-1.2402229309082031
1701104417281412000,1.471412109375,-4.942008972167969,-3.3239989280700684,0.5791473388671875
1701104417298405600,1.488405517578125,-5.04576301574707,-4.570333480834961,2.281449317932129
1701104417315389400,1.505389404296875,-5.236148834228516,-6.907431125640869,4.548973083496094
1701104417332387000,1.522386962890625,-4.320814609527588,-8.282923698425293,6.7586212158203125
1701104417349381400,1.53938134765625,-2.2618937492370605,-7.681419372558594,9.534199714660645
1701104417366373400,1.556373291015625,-1.0823986530303955,-6.801626682281494,13.269996643066406
1701104417383364000,1.573364013671875,-1.5720144510269165,-6.409990310668945,16.487445831298828
1701104417400358000,1.59035791015625,-1.5174458026885986,-5.307666301727295,16.964662551879883
1701104417417349400,1.607349365234375,-0.9008877277374268,-3.28322696685791,14.737627029418945
1701104417434330400,1.624330322265625,-0.9794518947601318,-0.46326255798339844,11.08659553527832
1701104417451331600,1.64133154296875,-2.144456386566162,2.1698145866394043,7.462472438812256
1701104417468329700,1.658329833984375,-3.4210212230682373,3.553150177001953,4.852217674255371
1701104417485318000,1.67531787109375,-3.866635799407959,4.207942008972168,3.0700907707214355
1701104417502309000,1.69230908203125,-3.5952870845794678,4.881839752197266,1.5417094230651855
1701104417519303200,1.70930322265625,-3.1901438236236572,5.6337738037109375,-0.013803958892822266
1701104417536295200,1.726295166015625,-3.165536642074585,6.067636489868164,-1.3090095520019531
1701104417553288200,1.7432880859375,-3.2664153575897217,6.638274192810059,-2.435401201248169
1701104417570277400,1.76027734375,-3.5098624229431152,6.9629292488098145,-3.0594258308410645
1701104417587270700,1.777270751953125,-3.999265432357788,6.9069037437438965,-2.884655475616455
1701104417604262700,1.7942626953125,-4.539005279541016,6.752358436584473,-2.645400047302246
1701104417621255400,1.81125537109375,-4.932257652282715,6.62003231048584,-2.9274394512176514
1701104417638245000,1.8282451171875,-5.134383678436279,6.355289936065674,-3.4165568351745605
1701104417655246600,1.84524658203125,-4.976029396057129,5.889633655548096,-3.7659859657287598
1701104417672227800,1.862227783203125,-4.1788554191589355,5.685498237609863,-3.290858745574951
1701104417689222100,1.87922216796875,-3.4713985919952393,5.6614203453063965,-1.5023322105407715
1701104417706217700,1.8962177734375,-3.9358162879943848,4.613755226135254,1.800546646118164
1701104417723208700,1.913208740234375,-4.287469387054443,3.0977630615234375,5.054584503173828
1701104417740198700,1.93019873046875,-4.001707553863525,1.9133706092834473,6.556673526763916
1701104417757193500,1.947193359375,-4.139289379119873,0.3969864845275879,7.27567195892334
1701104417774185200,1.964185302734375,-5.057573318481445,-2.1653919219970703,8.679947853088379
1701104417791174400,1.98117431640625,-5.623368740081787,-3.761500835418701,10.256316184997559
1701104417808169500,1.99816943359375,-5.076662063598633,-4.215511322021484,13.365937232971191
1701104417825162500,2.01516259765625,-3.307631492614746,-3.5594019889831543,15.959794044494629
1701104417842153000,2.032153076171875,-1.0924384593963623,-2.2901225090026855,16.275978088378906
1701104417859144400,2.04914453125,0.41364002227783203,-1.5939464569091797,14.962358474731445
1701104417876138200,2.06613818359375,0.14021658897399902,-2.486903190612793,11.68002700805664
1701104417893131500,2.083131591796875,-1.7977626323699951,-3.164654016494751,6.334904670715332
1701104417910113000,2.100113037109375,-4.5315656661987305,-2.997514247894287,1.0847511291503906
1701104417927113700,2.11711376953125,-7.009795188903809,-2.4187698364257812,-2.8015713691711426
1701104417944108300,2.1341083984375,-8.297019958496094,-1.7682667970657349,-5.148736476898193
1701104417961096000,2.151095947265625,-7.883173942565918,-1.5753271579742432,-5.896285533905029
1701104417978091300,2.16809130859375,-6.327479839324951,-1.7885560989379883,-5.8665313720703125
1701104417995084300,2.185084228515625,-4.5308427810668945,-2.216054677963257,-5.899878025054932
1701104418012073000,2.202072998046875,-3.2454073429107666,-2.783054828643799,-5.9308247566223145
1701104418029066000,2.21906591796875,-2.4086484909057617,-3.2502787113189697,-5.757126808166504
1701104418046061600,2.2360615234375,-1.6680653095245361,-3.5821895599365234,-5.626679420471191
1701104418063052800,2.253052734375,-1.5121864080429077,-4.025851726531982,-5.655575275421143
1701104418080041500,2.27004150390625,-1.7270710468292236,-4.514328956604004,-5.91428804397583
1701104418097033700,2.28703369140625,-2.14882755279541,-5.04696798324585,-6.393195152282715
1701104418114027500,2.304027587890625,-2.157697916030884,-5.512162685394287,-7.004675388336182
1701104418131020000,2.32102001953125,-1.8848204612731934,-5.902450084686279,-7.496119976043701
1701104418148012500,2.338012451171875,-1.7400869131088257,-6.477719306945801,-7.450824737548828
1701104418165005800,2.355005859375,-1.670884370803833,-7.111904144287109,-6.701836585998535
1701104418181994500,2.371994384765625,-1.612562894821167,-6.930731773376465,-5.530362129211426
1701104418198989300,2.3889892578125,-2.6582274436950684,-6.769069671630859,-4.523566246032715
1701104418215981600,2.405981689453125,-3.8380630016326904,-7.8858489990234375,-2.572722911834717
1701104418232974300,2.422974365234375,-3.528637647628784,-8.706588745117188,-0.40906620025634766
1701104418249960400,2.43996044921875,-1.9998747110366821,-8.636317253112793,1.0561561584472656
1701104418266957300,2.456957275390625,-1.0775201320648193,-8.814925193786621,3.1737680435180664
1701104418283951400,2.473951416015625,-1.4043800830841064,-8.62228775024414,5.474747657775879
1701104418300934700,2.4909345703125,-3.0223946571350098,-7.779879093170166,6.577568054199219
1701104418317930800,2.5079306640625,-4.334623336791992,-6.285849571228027,6.990926742553711
1701104418334927600,2.524927734375,-4.65322208404541,-4.4805450439453125,7.0760345458984375
1701104418351916000,2.541916015625,-4.221443176269531,-2.439628839492798,6.162301063537598
1701104418368910800,2.558910888671875,-3.425391674041748,-0.609490156173706,4.836263656616211
1701104418385900800,2.57590087890625,-2.702256202697754,0.7184803485870361,3.4957408905029297
1701104418402898000,2.59289794921875,-2.279193162918091,1.5852341651916504,2.0883283615112305
1701104418419884800,2.609884765625,-2.1870639324188232,2.125518321990967,1.5340466499328613
1701104418436878800,2.62687890625,-2.429832935333252,2.8332619667053223,1.8187994956970215
1701104418453873200,2.643873046875,-2.5798075199127197,3.9140396118164062,1.600416660308838
1701104418470860500,2.660860595703125,-3.088709831237793,4.63191032409668,0.9621191024780273
1701104418487845600,2.677845703125,-3.9216880798339844,4.840230941772461,0.4742560386657715
1701104418504849200,2.69484912109375,-4.756882667541504,4.5991411209106445,0.33974123001098633
1701104418521837600,2.711837646484375,-5.355530738830566,4.142330169677734,0.8875184059143066
1701104418538832600,2.72883251953125,-5.276381492614746,4.205998420715332,2.0947279930114746
1701104418555814100,2.745814208984375,-5.122678756713867,4.7267656326293945,2.7281408309936523
1701104418572818000,2.76281787109375,-5.682587623596191,3.5664491653442383,3.7844109535217285
1701104418589806300,2.779806396484375,-5.865817070007324,2.022275447845459,4.803980350494385
1701104418606800400,2.79680029296875,-4.960934638977051,0.7981863021850586,6.701280117034912
1701104418623798800,2.813798828125,-3.9736320972442627,-1.4498639106750488,10.376276016235352
1701104418640788200,2.830788330078125,-3.2792630195617676,-2.546144485473633,13.352559089660645
1701104418657767400,2.847767333984375,-3.048819065093994,-1.9940571784973145,15.201940536499023
1701104418674769000,2.864768798828125,-4.039407730102539,-0.9272603988647461,16.872997283935547
1701104418691759900,2.881759765625,-5.356894016265869,0.4161829948425293,17.29387664794922
1701104418708758800,2.8987587890625,-4.688349723815918,1.3148813247680664,16.511962890625
1701104418725749800,2.915749755859375,-2.6620559692382812,1.7280406951904297,13.99895191192627
1701104418742740500,2.932740478515625,-1.4727132320404053,1.6310181617736816,9.946150779724121
1701104418759728000,2.94972802734375,-1.6226317882537842,1.425504207611084,5.420496463775635
1701104418776722200,2.96672216796875,-2.8584675788879395,1.0050406455993652,1.9798698425292969
1701104418793710300,2.98371044921875,-3.9780101776123047,0.5787367820739746,0.039241790771484375
1701104418810703600,3.00070361328125,-4.433112144470215,0.754265308380127,-1.3385415077209473
1701104418827699200,3.01769921875,-4.315646648406982,0.9940288066864014,-2.220142364501953
1701104418844692200,3.034692138671875,-3.978208303451538,0.9026303291320801,-2.686465263366699
1701104418861681000,3.051680908203125,-3.4752330780029297,0.43064022064208984,-2.9032039642333984
1701104418878676000,3.068676025390625,-2.9396772384643555,-0.18956470489501953,-3.2961063385009766
1701104418895651000,3.085651123046875,-2.7984230518341064,-0.9191124439239502,-3.767828941345215
1701104418912661000,3.102660888671875,-2.7256734371185303,-1.4392552375793457,-4.141033172607422
1701104418929651000,3.11965087890625,-2.457520008087158,-1.75722074508667,-4.60901403427124
1701104418946644500,3.13664453125,-2.3642578125,-2.3339951038360596,-4.942126274108887
1701104418963635000,3.153635009765625,-2.5980286598205566,-3.3216514587402344,-5.049765586853027
1701104418980631300,3.17063134765625,-2.8428380489349365,-4.006117820739746,-5.439974308013916
1701104418997621800,3.187621826171875,-2.8119401931762695,-4.435654163360596,-6.036351203918457
1701104419014613500,3.204613525390625,-2.4857945442199707,-4.678216934204102,-6.583714008331299
1701104419031604700,3.221604736328125,-2.073638677597046,-5.165514945983887,-6.404343128204346
1701104419048599000,3.23859912109375,-1.3730180263519287,-5.688836574554443,-5.273724555969238
1701104419065577500,3.255577392578125,-0.9924650192260742,-6.154693126678467,-3.7839479446411133
1701104419082576400,3.272576416015625,-1.5935611724853516,-6.010919094085693,-2.488335609436035
1701104419099574500,3.289574462890625,-2.8008832931518555,-6.272220611572266,-1.1583671569824219
1701104419116566300,3.306566162109375,-3.4537196159362793,-7.485294818878174,0.22531414031982422
1701104419133559000,3.32355908203125,-2.6237993240356445,-7.957122802734375,0.9090194702148438
1701104419150550500,3.340550537109375,-1.4968292713165283,-7.655782699584961,1.2906532287597656
1701104419167540700,3.357540771484375,-1.167834758758545,-7.218198299407959,2.2768707275390625
1701104419184534800,3.37453466796875,-1.7307716608047485,-6.675487518310547,3.585796356201172
1701104419201525000,3.39152490234375,-2.8475351333618164,-6.000851631164551,4.443534851074219
1701104419218521900,3.40852197265625,-3.5086419582366943,-5.095449447631836,4.290155410766602
1701104419235512000,3.425511962890625,-3.6454896926879883,-3.978398323059082,3.084972381591797
1701104419252503600,3.442503662109375,-3.1728885173797607,-2.6694374084472656,1.5918893814086914
1701104419269496300,3.459496337890625,-2.6117160320281982,-1.4988884925842285,0.3887319564819336
1701104419286488000,3.476488037109375,-2.314528226852417,-0.5981783866882324,-0.27783775329589844
1701104419303480600,3.49348046875,-2.332407236099243,0.23482227325439453,-0.48744869232177734
1701104419320472300,3.510472412109375,-2.5394287109375,1.0778777599334717,-0.6807718276977539
1701104419337464800,3.52746484375,-2.7950820922851562,1.9066648483276367,-0.8880281448364258
1701104419354452000,3.544451904296875,-2.913419485092163,2.7941672801971436,-1.2176861763000488
1701104419371445500,3.561445556640625,-3.030454635620117,3.480790853500366,-1.5897512435913086
1701104419388432400,3.578432373046875,-3.2452287673950195,3.7269434928894043,-1.804029941558838
1701104419405425400,3.59542529296875,-3.6461822986602783,3.602330446243286,-1.4590120315551758
1701104419422427400,3.612427490234375,-3.8347368240356445,3.5698676109313965,-0.7711348533630371
1701104419439418000,3.629418212890625,-3.873302459716797,3.471312999725342,-0.029146194458007812
1701104419456407000,3.646406982421875,-3.875605344772339,3.6592047214508057,0.0025959014892578125
1701104419473394200,3.663394287109375,-3.835894823074341,3.311856746673584,0.281160831451416
1701104419490393900,3.680393798828125,-3.4604713916778564,1.8916540145874023,1.8473434448242188
1701104419507386400,3.697386474609375,-2.729459047317505,0.7051763534545898,3.9512529373168945
1701104419524378000,3.714378173828125,-2.468031644821167,0.17753362655639648,6.168125152587891
1701104419541371000,3.731370849609375,-3.595458984375,-0.2339615821838379,7.751531600952148
1701104419558362600,3.748362548828125,-5.792695999145508,-0.6968708038330078,8.216699600219727
1701104419575357400,3.765357421875,-6.855429172515869,-1.3775811195373535,8.273102760314941
1701104419592344800,3.7823447265625,-5.132022857666016,-1.6195158958435059,9.326818466186523
1701104419609339400,3.79933935546875,-2.5135438442230225,-1.400825023651123,11.42160415649414
1701104419626331100,3.8163310546875,-0.5936161279678345,0.021205902099609375,12.990281105041504
1701104419643324200,3.83332421875,-0.48103129863739014,2.0053939819335938,13.336463928222656
1701104419660312800,3.850312744140625,-1.7550768852233887,2.990434169769287,12.178909301757812
1701104419677310700,3.867310791015625,-2.8841187953948975,3.595407485961914,9.059793472290039
1701104419694289700,3.88428955078125,-3.617001533508301,3.9167981147766113,5.2097697257995605
1701104419711293400,3.90129345703125,-3.9554519653320312,4.1352219581604,1.8492279052734375
1701104419728272400,3.9182724609375,-4.2896728515625,4.330926895141602,-0.5208396911621094
1701104419745265200,3.93526513671875,-4.339349269866943,4.2425312995910645,-1.843367576599121
1701104419762270700,3.952270751953125,-4.016792297363281,4.063307285308838,-2.2192282676696777
1701104419779261400,3.969261474609375,-3.679410934448242,3.790478229522705,-2.248830795288086
1701104419796252200,3.986252197265625,-3.3465728759765625,3.5104713439941406,-2.388357162475586
1701104419813246500,4.00324658203125,-3.1361849308013916,3.075392723083496,-2.5579299926757812
1701104419830237200,4.0202373046875,-3.004223346710205,2.465496301651001,-2.734586715698242
1701104419847230000,4.03722998046875,-3.045236825942993,1.840181589126587,-2.961467742919922
1701104419864217900,4.0542177734375,-3.255493402481079,1.0405049324035645,-3.0095582008361816
1701104419881208300,4.071208251953125,-3.4220645427703857,0.32804107666015625,-3.153104782104492
1701104419898198300,4.0881982421875,-3.524542808532715,-0.471451997756958,-3.2087602615356445
1701104419915188000,4.10518798828125,-3.4203479290008545,-1.1082894802093506,-3.0961599349975586
1701104419932182800,4.122182861328125,-3.073519706726074,-1.9677677154541016,-2.4243555068969727
1701104419949177600,4.139177490234375,-2.7586350440979004,-2.891326427459717,-1.3121004104614258
1701104419966169300,4.15616943359375,-2.610715627670288,-3.598491668701172,-0.018610000610351562
1701104419983157000,4.173156982421875,-2.9014434814453125,-4.617316246032715,1.2967777252197266
1701104420000151000,4.190151123046875,-3.509855270385742,-6.49084997177124,2.1786680221557617
1701104420017144300,4.207144287109375,-3.2789053916931152,-7.265453815460205,1.6124067306518555
1701104420034130700,4.224130615234375,-1.9401514530181885,-7.519233703613281,1.7419319152832031
1701104420051127800,4.2411279296875,-0.9328978061676025,-7.645510673522949,2.973402976989746
1701104420068119600,4.25811962890625,-0.9930354356765747,-7.559162139892578,4.442347526550293
1701104420085114000,4.275114013671875,-1.3956316709518433,-6.894781112670898,4.94378662109375
1701104420102104600,4.2921044921875,-1.7149977684020996,-5.526854038238525,4.341952323913574
1701104420119097000,4.30909716796875,-1.7614954710006714,-3.9414074420928955,2.9618968963623047
1701104420136087800,4.326087890625,-1.6924121379852295,-2.7250537872314453,1.1912164688110352
1701104420153088800,4.3430888671875,-1.8507916927337646,-1.9137980937957764,-0.7009487152099609
1701104420170077700,4.36007763671875,-1.9701464176177979,-1.2007408142089844,-2.24349308013916
1701104420187084800,4.377084716796875,-1.972717523574829,-0.3107187747955322,-3.3058977127075195
1701104420204064800,4.394064697265625,-1.9748778343200684,0.6114652156829834,-3.811863899230957
1701104420221057500,4.4110576171875,-1.999403715133667,1.6096439361572266,-4.141706466674805
1701104420238049300,4.42804931640625,-2.2690231800079346,2.4912166595458984,-4.406540870666504
1701104420255031600,4.445031494140625,-2.9266865253448486,2.9586007595062256,-4.604128837585449
1701104420272033300,4.462033203125,-3.648068904876709,3.3227334022521973,-5.0332536697387695
1701104420289008000,4.479008056640625,-4.208324909210205,3.652703285217285,-5.514900207519531
1701104420306007300,4.49600732421875,-4.6552414894104,3.4510538578033447,-5.352350234985352
1701104420323010600,4.513010498046875,-4.233205318450928,3.3268349170684814,-5.184701919555664
1701104420340002000,4.530001953125,-3.38883638381958,2.851384401321411,-4.677971839904785
1701104420356994800,4.546994873046875,-3.065798759460449,1.4166505336761475,-3.598071575164795
1701104420373976000,4.56397607421875,-2.6420469284057617,0.11809682846069336,-2.729952812194824
1701104420390979300,4.580979248046875,-1.933955192565918,-0.4624199867248535,-2.3977837562561035
1701104420407970800,4.597970703125,-1.1241681575775146,-1.4774065017700195,-0.6446681022644043
1701104420424963300,4.61496337890625,-1.5497950315475464,-3.2650647163391113,2.2996811866760254
1701104420441955000,4.631955078125,-3.6314547061920166,-3.9527759552001953,4.882178783416748
1701104420458947800,4.64894775390625,-5.698267936706543,-3.0448250770568848,6.197714328765869
1701104420475939600,4.665939697265625,-5.026935577392578,-0.7769150733947754,6.652034282684326
1701104420492928300,4.68292822265625,-2.2589752674102783,1.9842815399169922,6.906894207000732
1701104420509930500,4.699930419921875,0.4222118854522705,4.105884552001953,7.866326808929443
1701104420526913800,4.716913818359375,1.5543863773345947,5.214425086975098,8.695075988769531
1701104420543908000,4.733908203125,-0.018398046493530273,5.096482276916504,9.065826416015625
1701104420560900900,4.75090087890625,-2.308932304382324,5.074374198913574,8.097121238708496
1701104420577885200,4.76788525390625,-4.403872013092041,5.316655158996582,6.416672229766846
1701104420594885400,4.784885498046875,-6.137359619140625,5.376249313354492,5.148196220397949
1701104420611876900,4.801876953125,-7.091742515563965,5.152083396911621,4.855138778686523
1701104420628866800,4.81886669921875,-7.076326847076416,4.984387397766113,4.837276935577393
1701104420645863700,4.83586376953125,-6.319488048553467,4.490723609924316,4.938118934631348
1701104420662854000,4.85285400390625,-5.169213771820068,2.5208587646484375,6.311614036560059
1701104420679845400,4.869845458984375,-3.8544130325317383,-1.5278711318969727,9.409141540527344
1701104420696838100,4.886838134765625,-2.168774127960205,-3.6552467346191406,11.024211883544922
1701104420713830400,4.903830322265625,-1.0899595022201538,-2.9246535301208496,11.436300277709961
1701104420730822400,4.920822509765625,-1.6286828517913818,-1.6117043495178223,11.75338363647461
1701104420747814100,4.937814208984375,-2.3509933948516846,-0.6450963020324707,11.425043106079102
1701104420764806700,4.954806640625,-2.6480793952941895,-0.5185384750366211,10.212940216064453
1701104420781798700,4.971798583984375,-2.4070470333099365,-1.50555419921875,8.939234733581543
1701104420798791200,4.988791259765625,-1.5120961666107178,-2.370490074157715,6.640800476074219
1701104420815772400,5.0057724609375,-0.4188268184661865,-2.616093635559082,3.1527280807495117
1701104420832775400,5.022775390625,0.20310401916503906,-2.35414981842041,-0.2505645751953125
1701104420849767200,5.03976708984375,0.4650239944458008,-1.841827392578125,-2.8259077072143555
1701104420866760000,5.056760009765625,0.505375862121582,-1.1551461219787598,-4.489969253540039
1701104420883751400,5.07375146484375,0.2471146583557129,-0.9400961399078369,-5.196166038513184
1701104420900744200,5.090744140625,-0.23892605304718018,-0.9973428249359131,-5.605283737182617
1701104420917746000,5.107745849609375,-0.8908575773239136,-1.3554444313049316,-6.020166397094727
1701104420934728700,5.124728759765625,-1.3983957767486572,-1.5827555656433105,-6.5305633544921875
1701104420951720200,5.14172021484375,-1.7572870254516602,-2.0327038764953613,-6.619892120361328
1701104420968713000,5.158712890625,-2.049656629562378,-2.420766592025757,-6.74415397644043
1701104420985700400,5.175700439453125,-2.14565110206604,-2.8405027389526367,-6.775600910186768
1701104421002697500,5.192697509765625,-2.389357089996338,-4.061988830566406,-6.101363658905029
1701104421019685000,5.20968505859375,-2.6371731758117676,-5.455409526824951,-5.3670806884765625
1701104421036685600,5.226685546875,-2.4114723205566406,-5.958841800689697,-5.4110026359558105
1701104421053673200,5.243673095703125,-1.8387670516967773,-6.054449081420898,-4.979773044586182
1701104421070665700,5.260665771484375,-1.6202867031097412,-6.597394943237305,-3.3086013793945312
1701104421087670300,5.277670166015625,-1.9484905004501343,-7.684836387634277,-1.4514179229736328
1701104421104650200,5.294650146484375,-2.3003287315368652,-8.486991882324219,-0.3931007385253906
1701104421121642000,5.31164208984375,-2.022955894470215,-8.686492919921875,0.6349897384643555
1701104421138634800,5.328634765625,-1.4246770143508911,-8.128822326660156,1.4395809173583984
1701104421155607600,5.345607666015625,-0.9896950721740723,-6.5953216552734375,2.225292205810547
1701104421172616400,5.362616455078125,-0.9610530138015747,-4.906252384185791,3.3715925216674805
1701104421189613000,5.379613037109375,-1.394550085067749,-3.5051798820495605,3.9757823944091797
1701104421206593000,5.396593017578125,-1.9645965099334717,-2.306342601776123,3.7969160079956055
1701104421223594800,5.4135947265625,-2.618269443511963,-1.141653060913086,2.9319887161254883
1701104421240587500,5.43058740234375,-3.3240745067596436,0.06911993026733398,1.7796821594238281
1701104421257579500,5.44757958984375,-3.856835126876831,1.126471996307373,1.2658939361572266
1701104421274572000,5.464572021484375,-4.2384033203125,1.9657344818115234,1.6164679527282715
1701104421291561000,5.48156103515625,-4.403753757476807,2.7872772216796875,1.9567656517028809
1701104421308558800,5.498558837890625,-5.027159690856934,3.2815065383911133,2.1128416061401367
1701104421325547500,5.515547607421875,-5.486209392547607,3.7947397232055664,2.07157039642334
1701104421342539000,5.5325390625,-5.63077974319458,4.237393379211426,2.274020195007324
1701104421359534600,5.54953466796875,-5.635397911071777,4.520501136779785,2.9165430068969727
1701104421376514600,5.5665146484375,-5.3111162185668945,4.810128211975098,3.5322017669677734
1701104421393516500,5.5835166015625,-4.783735752105713,5.165610313415527,3.78354549407959
1701104421410509600,5.600509521484375,-4.311460018157959,5.315042495727539,3.9775400161743164
1701104421427500800,5.617500732421875,-4.085260391235352,5.398714542388916,4.3702192306518555
1701104421444493600,5.63449365234375,-3.7341525554656982,5.663404941558838,4.854252338409424
1701104421461485300,5.6514853515625,-3.6712634563446045,5.799651145935059,5.169677734375
1701104421478467300,5.66846728515625,-3.6365444660186768,5.802859783172607,5.359468460083008
1701104421495469800,5.6854697265625,-3.607137680053711,4.736968994140625,6.626999855041504
1701104421512462300,5.70246240234375,-3.5213630199432373,3.809443473815918,7.906480312347412
1701104421529454000,5.7194541015625,-3.4202232360839844,3.6716880798339844,9.169864654541016
1701104421546446800,5.73644677734375,-4.754491329193115,1.6989507675170898,11.436237335205078
1701104421563440600,5.753440673828125,-5.09730863571167,-2.340534210205078,14.913639068603516
1701104421580428800,5.7704287109375,-3.3812875747680664,-3.8089065551757812,16.55282974243164
1701104421597422800,5.7874228515625,-2.1832594871520996,-2.504812240600586,17.94264793395996
1701104421614415600,5.80441552734375,-2.6307783126831055,-1.5948266983032227,19.747722625732422
1701104421631404300,5.821404296875,-3.8745603561401367,-1.436671257019043,19.298044204711914
1701104421648402400,5.83840234375,-4.585324287414551,-2.4416003227233887,17.246145248413086
1701104421665391400,5.855391357421875,-4.9363250732421875,-4.127154350280762,14.245138168334961
1701104421682384400,5.87238427734375,-4.803381443023682,-5.0951409339904785,10.541492462158203
1701104421699375900,5.8893759765625,-4.27514123916626,-5.691241264343262,6.586576461791992
1701104421716368400,5.906368408203125,-3.6336464881896973,-5.187733173370361,1.8756260871887207
1701104421733358000,5.923358154296875,-3.1642775535583496,-4.452060699462891,-2.021749496459961
1701104421750355000,5.94035498046875,-2.6668639183044434,-4.066649913787842,-4.226953506469727
1701104421767334000,5.957333984375,-1.8596079349517822,-3.964583158493042,-5.180095195770264
1701104421784337000,5.9743369140625,-1.3602275848388672,-4.305327415466309,-5.608144283294678
1701104421801328600,5.99132861328125,-1.1725986003875732,-4.6475982666015625,-6.604094505310059
1701104421818321700,6.00832177734375,-1.3718160390853882,-4.869132041931152,-8.430996894836426
1701104421835313200,6.025313232421875,-2.001911163330078,-4.741549968719482,-10.40296745300293
1701104421852305700,6.0423056640625,-3.227181911468506,-4.497809886932373,-11.725852012634277
1701104421869292500,6.05929248046875,-3.8684473037719727,-4.297268867492676,-11.575577735900879
1701104421886290200,6.076290283203125,-3.650496006011963,-4.418585300445557,-10.261051177978516
1701104421903282000,6.093281982421875,-2.961700916290283,-4.732626914978027,-8.889896392822266
1701104421920274400,6.1102744140625,-2.098541021347046,-4.753258228302002,-8.301836013793945
1701104421937266200,6.12726611328125,-1.4559235572814941,-4.621572971343994,-8.39525318145752
1701104421954248200,6.144248291015625,-1.3228704929351807,-4.736982822418213,-8.652422904968262
1701104421971250400,6.16125048828125,-1.370344638824463,-5.438398361206055,-7.770606994628906
1701104421988243200,6.1782431640625,-1.6638195514678955,-6.749732971191406,-5.525452613830566
1701104422005234700,6.195234619140625,-2.2810544967651367,-7.568633079528809,-3.47310209274292
1701104422022217700,6.2122177734375,-3.1985647678375244,-7.979609966278076,-2.203000068664551
1701104422039218700,6.22921875,-3.083775758743286,-7.6744232177734375,-0.5640649795532227
1701104422056212500,6.24621240234375,-1.7078303098678589,-7.050542831420898,1.760106086730957
1701104422073203500,6.263203369140625,-0.32073450088500977,-6.6015825271606445,4.603654861450195
1701104422090196200,6.2801962890625,0.05110436677932739,-6.784384727478027,7.508173942565918
1701104422107187700,6.297187744140625,0.19657593965530396,-6.407855987548828,8.727627754211426
1701104422124180500,6.314180419921875,0.5668226480484009,-5.534483909606934,8.378677368164062
1701104422141172200,6.331172119140625,1.6680104732513428,-4.052824974060059,6.927263259887695
1701104422158153000,6.348153076171875,2.924769878387451,-2.208117961883545,5.3828582763671875
1701104422175153200,6.365153076171875,3.3594512939453125,-0.460050106048584,4.736167907714844
1701104422192151300,6.3821513671875,3.152200698852539,0.8777365684509277,4.890081405639648
1701104422209139700,6.3991396484375,2.9180493354797363,1.965256690979004,5.268801212310791
1701104422226125800,6.416125732421875,3.3183188438415527,2.8879873752593994,4.731461048126221
1701104422243125200,6.433125244140625,4.343232154846191,3.5675039291381836,3.314685344696045
1701104422260113200,6.450113037109375,5.084673881530762,3.863349437713623,1.9378657341003418
1701104422277112300,6.4671123046875,5.287428855895996,3.801283359527588,1.5470995903015137
1701104422294102300,6.484102294921875,5.296497344970703,3.8281266689300537,2.607553482055664
1701104422311094000,6.501093994140625,5.029016971588135,4.32843017578125,3.953887462615967
1701104422328086500,6.51808642578125,4.556544303894043,5.105990409851074,4.1104559898376465
1701104422345078300,6.535078369140625,3.7933671474456787,5.658174514770508,3.3265271186828613
1701104422362071300,6.5520712890625,3.3339500427246094,5.8534464836120605,2.6425185203552246
1701104422379062800,6.569062744140625,3.3584697246551514,5.588561058044434,2.6097240447998047
1701104422396055600,6.5860556640625,3.8965868949890137,5.086937427520752,3.861325740814209
1701104422413047000,6.603047119140625,4.2844743728637695,4.636054992675781,6.149305820465088
1701104422430037200,6.620037353515625,4.154519557952881,4.699978828430176,7.8926286697387695
1701104422447031300,6.63703125,3.3789336681365967,4.539721488952637,9.210187911987305
1701104422464026600,6.654026611328125,2.1647493839263916,3.631805419921875,9.73117733001709
1701104422481013000,6.671012939453125,1.4325844049453735,3.012296199798584,9.626510620117188
1701104422498011100,6.68801123046875,1.2188410758972168,3.371344566345215,9.504548072814941
1701104422515000300,6.705000244140625,0.5250725746154785,4.626261234283447,10.363997459411621
1701104422531992800,6.721992919921875,-0.9718360900878906,5.321349620819092,11.44783878326416
1701104422548984300,6.738984375,-2.3257646560668945,4.99392557144165,11.028532981872559
1701104422565977000,6.75597705078125,-2.5268728733062744,4.074548721313477,8.910524368286133
1701104422582968800,6.77296875,-2.1817870140075684,2.6043381690979004,6.95236349105835
1701104422599961600,6.789961669921875,-1.5731315612792969,1.3617782592773438,6.066709041595459
1701104422616953000,6.806953125,-1.394073486328125,0.31420421600341797,6.088496208190918
1701104422633945300,6.8239453125,-1.9099326133728027,-0.20537996292114258,5.738666534423828
1701104422650937600,6.8409375,-2.6144368648529053,-0.3196697235107422,4.481513023376465
1701104422667930000,6.85793017578125,-3.0382988452911377,-0.3561363220214844,2.2118325233459473
1701104422684921900,6.874921875,-3.0855321884155273,-0.9483132362365723,0.3626227378845215
1701104422701914600,6.89191455078125,-2.6565096378326416,-1.6425175666809082,-0.5834689140319824
1701104422718906400,6.90890625,-1.8020622730255127,-2.129180431365967,-0.7413425445556641
1701104422735888600,6.925888671875,-0.7937862873077393,-2.4658255577087402,-1.1411347389221191
1701104422752890400,6.942890380859375,0.28018879890441895,-2.6877970695495605,-2.181570529937744
1701104422769885200,6.95988525390625,1.4640092849731445,-3.365161657333374,-2.6864452362060547
1701104422786873000,6.976873046875,2.5284509658813477,-3.710545778274536,-2.993325710296631
1701104422803870700,6.99387060546875,3.292609930038452,-3.729979991912842,-3.1880884170532227
1701104422820856300,7.010856201171875,3.607638359069824,-3.5657968521118164,-3.5907821655273438
1701104422837841400,7.02784130859375,3.584001064300537,-3.335901975631714,-4.272584915161133
1701104422854833000,7.0448330078125,3.5655035972595215,-3.6185057163238525,-4.570431232452393
1701104422871828500,7.061828369140625,3.7245302200317383,-3.8298983573913574,-4.716009140014648
1701104422888819500,7.0788193359375,4.067996978759766,-3.607475996017456,-4.785339832305908
1701104422905822700,7.09582275390625,4.144606590270996,-3.436131477355957,-4.538598537445068
1701104422922812200,7.112812255859375,3.959657669067383,-3.572434902191162,-3.824314594268799
1701104422939802400,7.12980224609375,3.675734281539917,-4.200642108917236,-2.8071351051330566
1701104422956799200,7.14679931640625,3.5299487113952637,-4.706066131591797,-2.282454013824463
1701104422973785300,7.163785400390625,3.5973703861236572,-4.782641887664795,-2.3910865783691406
1701104422990770400,7.1807705078125,3.794985771179199,-4.774113655090332,-2.4469118118286133
1701104423007773700,7.197773681640625,3.8676295280456543,-4.868018627166748,-1.7991538047790527
1701104423024765200,7.21476513671875,3.787443161010742,-4.957133769989014,-0.5958080291748047
1701104423041758500,7.231758544921875,3.679370641708374,-5.1081342697143555,0.6558961868286133
1701104423058747100,7.2487470703125,3.450362205505371,-5.295731067657471,1.444697380065918
1701104423075734800,7.26573486328125,3.713691234588623,-4.858217716217041,1.3492841720581055
1701104423092715800,7.2827158203125,4.468122482299805,-3.4895830154418945,0.8450040817260742
1701104423109713700,7.299713623046875,4.625215530395508,-1.9364581108093262,0.7057952880859375
1701104423126724000,7.31672412109375,4.175355911254883,-0.355255126953125,0.7325868606567383
1701104423143708200,7.333708251953125,3.1759393215179443,0.9561424255371094,0.9386882781982422
1701104423160692200,7.350692138671875,2.159700870513916,2.0383942127227783,0.9831018447875977
1701104423177695500,7.367695556640625,1.4354453086853027,2.8917081356048584,0.5208301544189453
1701104423194687200,7.384687255859375,1.119691014289856,3.450225830078125,-0.26186037063598633
1701104423211679700,7.4016796875,0.9881407022476196,3.8127734661102295,-1.046572208404541
1701104423228669000,7.4186689453125,1.007337212562561,4.30036735534668,-1.4956049919128418
1701104423245661200,7.4356611328125,0.7470545768737793,4.638494491577148,-1.1245598793029785
1701104423262649000,7.452649169921875,0.380379319190979,4.9464569091796875,-0.5238418579101562
1701104423279648500,7.4696484375,0.02301025390625,5.247034072875977,-0.33298206329345703
1701104423296630000,7.486630126953125,-0.3348501920700073,5.344085693359375,-0.35788536071777344
1701104423313633000,7.503633056640625,-0.41434431076049805,5.3441619873046875,-0.3381180763244629
1701104423330624500,7.52062451171875,-0.432570219039917,5.268691062927246,-0.18775081634521484
1701104423347617500,7.537617431640625,-0.7360076308250427,4.9727349281311035,0.5013422966003418
1701104423364601000,7.55460107421875,-0.9761489033699036,4.470973014831543,1.5717988014221191
1701104423381593300,7.57159326171875,-1.0639619827270508,3.496652126312256,2.790475368499756
1701104423398585300,7.58858544921875,-0.8891621232032776,2.384460926055908,3.921011447906494
1701104423415575600,7.605575439453125,-0.4039238691329956,1.4047799110412598,5.4740118980407715
1701104423432571400,7.6225712890625,-0.32517874240875244,0.1899867057800293,7.508975982666016
1701104423449563600,7.639563720703125,-0.433132529258728,-1.221510410308838,9.599775314331055
1701104423466555400,7.656555419921875,0.12356209754943848,-2.356149673461914,11.004606246948242
1701104423483548200,7.673548095703125,1.2764637470245361,-3.325986385345459,11.976398468017578
1701104423500539600,7.69053955078125,2.7169761657714844,-3.957528591156006,12.826681137084961
1701104423517533400,7.707533447265625,3.9899814128875732,-4.101351737976074,13.13935661315918
1701104423534520800,7.724520751953125,4.113958358764648,-3.8857579231262207,12.497544288635254
1701104423551512600,7.7415126953125,3.3778529167175293,-3.3956704139709473,10.45614242553711
1701104423568507400,7.75850732421875,3.0065155029296875,-2.4665322303771973,7.301470756530762
1701104423585504300,7.775504150390625,3.0565083026885986,-1.5547847747802734,3.9416909217834473
1701104423602491600,7.79249169921875,3.377978801727295,-0.9434604644775391,1.0514583587646484
1701104423619481300,7.8094814453125,3.822427749633789,-0.6301407814025879,-1.2698774337768555
1701104423636476000,7.826475830078125,4.113757610321045,-0.6193280220031738,-2.8848581314086914
1701104423653476600,7.8434765625,4.232311248779297,-0.8897082805633545,-3.935340404510498
1701104423670468000,7.860468017578125,4.146681785583496,-1.2329506874084473,-4.766266345977783
1701104423687460600,7.877460693359375,3.718640089035034,-1.7136223316192627,-5.641172885894775
1701104423704452400,7.894452392578125,3.609020948410034,-1.971132755279541,-6.515525817871094
1701104423721445000,7.911445068359375,3.719881057739258,-2.1342263221740723,-7.249551296234131
1701104423738425000,7.928425048828125,3.56235671043396,-2.604321002960205,-7.475602149963379
1701104423755426800,7.9454267578125,3.307110071182251,-3.247631311416626,-7.313135147094727
1701104423772423700,7.962423583984375,3.174199342727661,-3.9626331329345703,-6.980205535888672
1701104423789414000,7.979413818359375,3.292850971221924,-4.3695526123046875,-6.857046127319336
1701104423806402800,7.99640283203125,3.74639892578125,-4.632297039031982,-6.913022994995117
1701104423823400700,8.013400634765626,4.253016948699951,-5.458271026611328,-6.163299560546875
1701104423840400000,8.03039990234375,4.385593891143799,-6.670938491821289,-4.890314102172852
1701104423857382700,8.047382568359374,3.8737354278564453,-7.126173973083496,-3.6779961585998535
1701104423874374400,8.06437451171875,2.373136281967163,-7.534542083740234,-2.359386920928955
1701104423891364600,8.081364501953125,0.9555261135101318,-8.93875789642334,-0.7583580017089844
1701104423908365000,8.098364990234375,0.609459400177002,-10.492962837219238,-0.21119022369384766
1701104423925351200,8.11535107421875,1.8904098272323608,-11.642793655395508,-0.13213634490966797
1701104423942343000,8.132343017578124,3.8104913234710693,-11.664603233337402,1.1952629089355469
1701104423959335700,8.149335693359374,4.931365013122559,-10.524529457092285,4.272198677062988
1701104423976327400,8.166327392578125,3.4657585620880127,-9.101693153381348,7.69901180267334
1701104423993320400,8.183320556640625,2.145705461502075,-6.969010829925537,9.596257209777832
1701104424010312200,8.200312255859375,1.7367019653320312,-4.14173698425293,8.79213809967041
1701104424027303700,8.2173037109375,1.6164474487304688,-1.5231261253356934,5.681727409362793
1701104424044296000,8.2342958984375,0.922937273979187,0.17236590385437012,1.9048337936401367
1701104424061288700,8.251288818359376,0.17390072345733643,1.0011591911315918,-0.698789119720459
1701104424078280400,8.268280517578125,-0.1023404598236084,1.1803030967712402,-0.7491765022277832
1701104424095273200,8.285273193359375,0.5737079381942749,1.932488203048706,0.3472256660461426
1701104424112264700,8.3022646484375,1.4036411046981812,3.0612547397613525,0.7962274551391602
1701104424129257500,8.319257568359374,1.5968440771102905,4.221824645996094,0.2834606170654297
1701104424146249200,8.336249267578125,1.2452341318130493,5.184279441833496,-0.4440631866455078
1701104424163241700,8.35324169921875,0.19418811798095703,5.8278913497924805,-0.9197969436645508
1701104424180231000,8.37023095703125,-0.8741188049316406,5.942691802978516,-0.5559396743774414
1701104424197228800,8.387228759765625,-1.0304902791976929,6.087063312530518,0.14433813095092773
1701104424214211000,8.404211181640624,-0.4592530131340027,6.218020439147949,0.5016899108886719
1701104424231210500,8.42121044921875,0.23195743560791016,6.0426788330078125,0.9044318199157715
1701104424248202000,8.438201904296875,0.5341349840164185,5.913288116455078,1.2951159477233887
1701104424265194800,8.45519482421875,0.20503205060958862,5.485662460327148,1.848550796508789
1701104424282186500,8.4721865234375,-0.27233850955963135,4.32791805267334,3.1402359008789062
1701104424299179300,8.48917919921875,-0.2847200632095337,2.8628759384155273,5.0965256690979
1701104424316171000,8.5061708984375,0.24651741981506348,1.9405579566955566,6.886043071746826
1701104424333153000,8.523153076171875,0.5569025278091431,0.6924076080322266,8.708569526672363
1701104424350155300,8.5401552734375,0.6854357719421387,-1.5502500534057617,11.071699142456055
1701104424367147800,8.557147705078124,1.6600425243377686,-2.8859944343566895,12.430299758911133
1701104424384139800,8.574139892578126,3.0260133743286133,-3.524601936340332,13.359312057495117
1701104424401132300,8.59113232421875,3.871652603149414,-3.4753851890563965,14.336480140686035
1701104424418124000,8.6081240234375,4.1366448402404785,-3.337632179260254,14.952789306640625
1701104424435116800,8.62511669921875,3.85490345954895,-3.3476433753967285,14.356618881225586
1701104424452105700,8.642105712890626,2.9998700618743896,-3.6659722328186035,12.739669799804688
1701104424469093000,8.659093017578124,2.300171136856079,-3.2567801475524902,9.865732192993164
1701104424486092500,8.676092529296875,2.1266744136810303,-2.6309585571289062,6.561692714691162
1701104424503085300,8.693085205078125,2.452441453933716,-2.220414161682129,3.6601052284240723
1701104424520077000,8.7100771484375,3.1183958053588867,-2.247199535369873,1.226245403289795
1701104424537069800,8.72706982421875,3.751387596130371,-2.4314818382263184,-0.8706321716308594
1701104424554061300,8.744061279296876,4.183830738067627,-2.742299795150757,-2.6350255012512207
1701104424571054000,8.76105419921875,4.416079521179199,-3.2263455390930176,-4.1234049797058105
1701104424588032800,8.77803271484375,4.56754732131958,-3.483452558517456,-5.358007907867432
1701104424605038600,8.79503857421875,4.639591217041016,-3.9223663806915283,-6.1173176765441895
1701104424622030000,8.812030029296874,4.507001876831055,-4.221692085266113,-6.743709564208984
1701104424639022800,8.82902294921875,4.2889885902404785,-4.5084614753723145,-7.037023544311523
1701104424656014600,8.8460146484375,3.844163179397583,-5.032991886138916,-6.929089069366455
1701104424673005000,8.863005126953125,3.3021931648254395,-5.516728401184082,-7.008401870727539
1701104424689998800,8.879998779296875,3.253692388534546,-5.913815498352051,-7.070252418518066
1701104424706994000,8.896993896484375,3.575458288192749,-6.218374252319336,-7.093719005584717
1701104424723983000,8.913983154296876,3.7944374084472656,-6.9622273445129395,-6.511012554168701
1701104424740975900,8.930975830078125,3.5015225410461426,-7.655416965484619,-5.935924053192139
1701104424757967600,8.947967529296875,2.9822494983673096,-7.905612945556641,-5.267638206481934
1701104424774950400,8.964950439453125,2.5496649742126465,-8.276366233825684,-4.414302349090576
1701104424791952000,8.981951904296874,2.180983781814575,-8.929224014282227,-4.071959972381592
1701104424808934400,8.998934326171875,2.0871264934539795,-9.893003463745117,-4.0410075187683105
1701104424825936400,9.015936279296875,2.538639545440674,-10.762301445007324,-3.0978646278381348
1701104424842926300,9.03292626953125,3.522895097732544,-11.257340431213379,-0.8858222961425781
1701104424859907300,9.0499072265625,4.623540878295898,-10.86137866973877,2.0163345336914062
1701104424876899300,9.0668994140625,4.50234842300415,-10.068374633789062,5.062084197998047
1701104424893905200,9.0839052734375,3.655355215072632,-8.807940483093262,7.4462127685546875
1701104424910897700,9.100897705078125,2.654290199279785,-6.869391918182373,8.48108196258545
1701104424927889400,9.117889404296875,1.8836898803710938,-4.342043876647949,7.979876518249512
1701104424944882200,9.134882080078125,1.4168105125427246,-1.8625810146331787,6.344317436218262
1701104424961873700,9.151873779296874,0.727109432220459,-0.12310218811035156,4.310477256774902
1701104424978866700,9.16886669921875,0.23383069038391113,0.8914399147033691,2.866246223449707
1701104424995855600,9.185855712890625,0.10448980331420898,1.7547361850738525,2.1876707077026367
1701104425012853500,9.202853515625,0.2777308225631714,2.436432361602783,2.4094810485839844
1701104425029839600,9.219839599609376,0.8488709926605225,3.5292840003967285,2.1400146484375
1701104425046838000,9.236838134765625,1.5011959075927734,4.436240196228027,1.1917777061462402
1701104425063827200,9.2538271484375,1.5575947761535645,4.806666851043701,0.10744619369506836
1701104425080819200,9.270819091796875,1.377541422843933,4.883415222167969,-0.7696175575256348
1701104425097811500,9.2878115234375,1.0133501291275024,4.703248500823975,-1.1151270866394043
1701104425114804200,9.30480419921875,0.4807450771331787,4.531428337097168,-0.906334400177002
1701104425131795500,9.32179541015625,0.13747936487197876,4.475728511810303,-0.2850770950317383
1701104425148788200,9.338788330078126,-0.014237642288208008,4.350892066955566,0.29469966888427734
1701104425165780000,9.355780029296875,0.01719456911087036,4.160160541534424,0.667304515838623
1701104425182772500,9.3727724609375,0.2271527647972107,3.327007293701172,1.8575057983398438
1701104425199764500,9.389764404296875,0.22144749760627747,2.2207913398742676,3.1985249519348145
1701104425216757000,9.406757080078124,-0.07675692439079285,1.2671518325805664,3.9624271392822266
1701104425233748700,9.423748779296876,-0.22409483790397644,0.4026765823364258,5.352806568145752
1701104425250741200,9.4407412109375,-0.4234906733036041,-1.8614354133605957,7.697841167449951
1701104425267733000,9.45773291015625,-0.34025484323501587,-4.628229141235352,9.397216796875
1701104425284726000,9.47472607421875,0.8159051537513733,-4.8090925216674805,10.12474250793457
1701104425301717200,9.49171728515625,1.7921521663665771,-3.8899245262145996,11.971944808959961
1701104425318710000,9.5087099609375,2.009575366973877,-2.798429489135742,13.84583854675293
1701104425335690000,9.52568994140625,1.9947237968444824,-1.546335220336914,14.163737297058105
1701104425352695800,9.54269580078125,2.225081443786621,-1.4398188591003418,13.194181442260742
1701104425369685800,9.559685791015625,2.6597952842712402,-1.3206286430358887,10.11890983581543
1701104425386679000,9.576678955078124,3.1822609901428223,-0.2692713737487793,5.343050956726074
1701104425403670500,9.59367041015625,3.664334774017334,0.8375234603881836,1.1887125968933105
1701104425420660700,9.61066064453125,3.798297166824341,1.8183650970458984,-1.4997491836547852
1701104425437644500,9.62764453125,3.51373553276062,2.3168177604675293,-2.9232869148254395
1701104425454640000,9.64464013671875,3.0425615310668945,2.2753939628601074,-3.684366226196289
1701104425471630800,9.661630859375,2.5833728313446045,1.7683706283569336,-4.190829277038574
1701104425488631800,9.6786318359375,2.2841787338256836,1.0605506896972656,-4.9444661140441895
1701104425505623600,9.69562353515625,2.399606227874756,0.5613858699798584,-5.696589469909668
1701104425522616300,9.7126162109375,2.6697356700897217,0.13145065307617188,-6.163522243499756
1701104425539608000,9.729608154296875,2.8881421089172363,-0.20483112335205078,-6.206216335296631
1701104425556590000,9.746590087890626,3.0671048164367676,-0.6370573043823242,-5.542338848114014
1701104425573592300,9.76359228515625,3.223390579223633,-1.4722707271575928,-4.6576642990112305
1701104425590585000,9.780585205078125,3.324640989303589,-2.5346624851226807,-4.138819694519043
1701104425607576600,9.79757666015625,3.3441691398620605,-3.1967315673828125,-3.9973483085632324
1701104425624569300,9.8145693359375,3.191523551940918,-4.153424263000488,-3.521059989929199
1701104425641550600,9.831550537109376,2.983170986175537,-4.817788124084473,-3.176020622253418
1701104425658553900,9.848553955078126,3.120738983154297,-5.3925018310546875,-2.463168144226074
1701104425675549700,9.8655498046875,3.2771193981170654,-6.014416694641113,-1.3722963333129883
1701104425692538000,9.8825380859375,3.2400660514831543,-6.393865585327148,-0.3973731994628906
1701104425709529600,9.899529541015625,2.484009265899658,-7.216156005859375,-0.1593017578125
1701104425726522400,9.9165224609375,2.1444196701049805,-8.127890586853027,-0.3484640121459961
1701104425743514000,9.93351416015625,2.774467945098877,-8.14517593383789,-0.4614849090576172
1701104425760507000,9.9505068359375,3.759704828262329,-7.394518852233887,0.027742385864257812
1701104425777499000,9.967498779296875,4.091671943664551,-6.608868598937988,1.565328598022461
1701104425794491400,9.984491455078125,3.6972131729125977,-5.502835273742676,2.5961008071899414
1701104425811480300,10.001480224609375,3.1103615760803223,-4.580204010009766,2.1803455352783203
1701104425828478500,10.018478515625,2.2922043800354004,-3.585200786590576,0.8043613433837891
1701104425845467100,10.035467041015625,1.4817860126495361,-2.587541341781616,-0.5055923461914062
1701104425862460000,10.0524599609375,0.7045333385467529,-1.5079755783081055,-1.8012051582336426
1701104425879451400,10.069451416015625,0.007588624954223633,-0.6407485008239746,-2.6936936378479004
1701104425896444200,10.086444091796874,-0.35205626487731934,0.11441469192504883,-3.025811195373535
1701104425913434600,10.1034345703125,-0.08391284942626953,0.793196439743042,-3.052121162414551
1701104425930430000,10.120429931640626,0.614647626876831,1.2824206352233887,-2.879887580871582
1701104425947420200,10.137420166015625,1.3361886739730835,1.5527000427246094,-2.4646377563476562
1701104425964413000,10.154412841796875,2.044144868850708,1.72794508934021,-1.658118724822998
1701104425981404700,10.17140478515625,2.2896533012390137,1.94545316696167,-0.42912817001342773
1701104425998397400,10.1883974609375,2.170942783355713,2.2052416801452637,0.606874942779541
1701104426015389200,10.20538916015625,1.803026795387268,2.281554937362671,1.4905595779418945
1701104426032382000,10.2223818359375,1.2246874570846558,1.7665042877197266,2.344019889831543
1701104426049373400,10.23937353515625,1.0750812292099,1.0076522827148438,3.064868927001953
1701104426066366000,10.256365966796874,1.2904038429260254,0.17680835723876953,4.084407329559326
1701104426083357700,10.273357666015626,1.2018213272094727,-1.9438743591308594,5.933195114135742
1701104426100350500,10.2903505859375,1.0501459836959839,-3.953176498413086,7.522107124328613
1701104426117342200,10.30734228515625,1.2543761730194092,-4.054725646972656,8.209242820739746
1701104426134324500,10.324324462890624,1.3832118511199951,-2.961900234222412,8.760211944580078
1701104426151323600,10.34132373046875,1.349053978919983,-1.630533218383789,9.60325813293457
1701104426168322300,10.358322265625,0.9984961152076721,-0.7216334342956543,10.004678726196289
1701104426185310700,10.375310791015625,0.8820216655731201,0.013143062591552734,9.338979721069336
1701104426202303500,10.392303466796875,1.244847297668457,0.6092591285705566,7.424249649047852
1701104426219295500,10.40929541015625,1.6777108907699585,1.5991730690002441,4.511894226074219
1701104426236288000,10.4262880859375,1.829679250717163,2.714217185974121,1.677037239074707
1701104426253279500,10.443279541015626,1.6130188703536987,3.687007427215576,-0.28515005111694336
1701104426270272300,10.460272216796875,1.3871006965637207,4.354984760284424,-1.4150872230529785
1701104426287255600,10.477255615234375,1.1718530654907227,4.590005874633789,-1.8371105194091797
1701104426304256800,10.4942568359375,0.7461898922920227,4.555048942565918,-2.0377697944641113
1701104426321238000,10.511238037109376,0.3228641748428345,4.3456878662109375,-2.2639236450195312
1701104426338233300,10.5282333984375,0.027858734130859375,4.015277862548828,-2.7435436248779297
1701104426355220700,10.545220703125,0.23433077335357666,3.6967291831970215,-3.061823844909668
1701104426372217000,10.562217041015625,0.6651631593704224,3.330162286758423,-2.7933096885681152
1701104426389209000,10.579208984375,1.0225130319595337,2.9500439167022705,-2.068131446838379
1701104426406209800,10.596209716796874,1.0942604541778564,2.3275442123413086,-1.1978273391723633
1701104426423201500,10.613201416015626,1.3002362251281738,1.360177993774414,-0.17852306365966797
1701104426440194300,10.6301943359375,1.3192975521087646,0.1467604637145996,0.44950294494628906
1701104426457185800,10.647185791015625,1.1814603805541992,-1.0178635120391846,0.6057014465332031
1701104426474184000,10.664183837890626,1.0501258373260498,-2.387925624847412,0.8288249969482422
1701104426491170800,10.6811708984375,0.8515739440917969,-4.567896842956543,1.8499298095703125
1701104426508162600,10.69816259765625,0.5677671432495117,-7.026601791381836,2.609848976135254
1701104426525154800,10.71515478515625,0.7757465839385986,-8.791290283203125,2.6318588256835938
1701104426542143500,10.7321435546875,1.5586588382720947,-8.497757911682129,2.385138511657715
1701104426559139000,10.74913916015625,2.8002254962921143,-6.029860496520996,2.540297508239746
1701104426576131800,10.7661318359375,3.5721938610076904,-3.657604217529297,2.511262893676758
1701104426593122300,10.783122314453125,4.0223894119262695,-2.296144723892212,2.099851608276367
1701104426610114300,10.8001142578125,3.405266523361206,-2.529237985610962,1.9193010330200195
1701104426627110400,10.8171103515625,1.8487486839294434,-2.8433027267456055,0.7364931106567383
1701104426644100400,10.834100341796875,-0.02777385711669922,-2.565498113632202,-1.923469066619873
1701104426661091800,10.851091796875,-1.422015905380249,-1.4936108589172363,-4.7842559814453125
1701104426678084900,10.8680849609375,-2.2095563411712646,-0.4901602268218994,-6.789986610412598
1701104426695076600,10.88507666015625,-1.7979071140289307,0.17118501663208008,-7.445234298706055
1701104426712069000,10.902069091796875,-0.5244882106781006,0.2870333194732666,-6.968973159790039
1701104426729058300,10.919058349609376,0.996371865272522,-0.014211893081665039,-5.967092514038086
1701104426746052600,10.936052490234376,2.382113218307495,-0.15489649772644043,-5.213857650756836
1701104426763036700,10.95303662109375,3.3844239711761475,0.05514383316040039,-5.111472129821777
1701104426780037600,10.97003759765625,3.7805724143981934,0.24135470390319824,-5.431998252868652
1701104426797021700,10.987021728515625,3.6739699840545654,0.0882723331451416,-5.505460739135742
1701104426814023400,11.0040234375,3.1300177574157715,-0.6604321002960205,-4.608819007873535
1701104426831012600,11.0210126953125,2.270218849182129,-1.6539397239685059,-3.235173225402832
1701104426848006700,11.038006591796876,1.5517311096191406,-2.725341558456421,-1.8899750709533691
1701104426864986000,11.054986083984375,1.6291950941085815,-4.126457214355469,-0.31691455841064453
1701104426881984300,11.071984375,1.8583828210830688,-6.710855484008789,2.099428176879883
1701104426898975000,11.08897509765625,2.4489166736602783,-8.876919746398926,3.5139102935791016
1701104426915964700,11.105964599609376,3.424502372741699,-9.025186538696289,4.052635192871094
1701104426932957200,11.122957275390625,3.805041790008545,-7.664765357971191,4.956725120544434
1701104426949966000,11.139966064453125,3.318441152572632,-6.0695295333862305,7.028919219970703
1701104426966943500,11.156943603515625,2.5375263690948486,-4.7624688148498535,8.599618911743164
1701104426983937000,11.17393701171875,2.442453622817993,-3.27793550491333,8.580154418945312
1701104427000928500,11.190928466796874,2.849703550338745,-1.4439678192138672,6.7926836013793945
1701104427017924000,11.207924072265625,2.9035377502441406,0.7634611129760742,3.711397171020508
1701104427034910000,11.224909912109375,2.184752941131592,3.1602835655212402,0.5670409202575684
1701104427051902500,11.24190234375,0.7187035083770752,4.999106407165527,-1.2881221771240234
1701104427068896000,11.25889599609375,-0.7957223653793335,6.291467666625977,-1.5956668853759766
1701104427085889500,11.2758896484375,-2.1420159339904785,7.158374786376953,-1.3341622352600098
1701104427102881500,11.292881591796874,-2.9351606369018555,7.811005592346191,-1.810762882232666
1701104427119875600,11.30987548828125,-2.9176087379455566,7.817483901977539,-2.6057915687561035
1701104427136866800,11.32686669921875,-2.5160133838653564,7.135234355926514,-3.235996723175049
1701104427153865700,11.34386572265625,-1.8814277648925781,6.227136135101318,-3.501396894454956
1701104427170842000,11.360842041015625,-1.5523526668548584,5.224842071533203,-3.12135910987854
1701104427187850200,11.377850341796876,-0.9189552664756775,4.966509819030762,-2.5280089378356934
1701104427204842000,11.394842041015625,-0.33511683344841003,4.8260650634765625,-1.7897982597351074
1701104427221833700,11.411833740234375,-0.05001324415206909,3.522935390472412,-0.16068506240844727
1701104427238827300,11.4288271484375,-0.0572013258934021,1.395340919494629,1.8378276824951172
1701104427255810600,11.445810546875,0.08513301610946655,-0.35185861587524414,3.3963732719421387
1701104427272810800,11.462810791015626,0.15425872802734375,-1.5824379920959473,4.359272003173828
1701104427289803300,11.47980322265625,0.816332221031189,-1.0391602516174316,5.420000076293945
1701104427306795300,11.496795166015625,1.087493658065796,0.4262852668762207,6.6627068519592285
1701104427323787800,11.513787841796875,1.4858993291854858,1.6477293968200684,6.369736671447754
1701104427340779300,11.530779296875,2.283154010772705,0.18724966049194336,5.547482490539551
1701104427357772300,11.547772216796876,4.1454973220825195,-1.1249980926513672,4.020017147064209
1701104427374763800,11.564763671875,5.4426422119140625,-2.5068507194519043,3.5403547286987305
1701104427391756500,11.581756591796875,4.484715461730957,-4.054246425628662,4.040097236633301
1701104427408748000,11.598748046875,2.2132930755615234,-5.769480228424072,5.556379318237305
1701104427425740800,11.61574072265625,0.06644165515899658,-6.500520706176758,6.839115142822266
1701104427442732500,11.632732666015626,-1.5235322713851929,-4.9893059730529785,6.482942581176758
1701104427459715000,11.649715087890625,-2.3580594062805176,-3.2859740257263184,5.969272613525391
1701104427476716800,11.666716796875,-2.2047500610351562,-2.416995048522949,5.3998003005981445
1701104427493709800,11.683709716796875,-1.1144301891326904,-2.0279765129089355,4.0360002517700195
1701104427510701000,11.700701171875,0.28031349182128906,-2.3108654022216797,2.327273368835449
1701104427527694000,11.717694091796876,1.3329468965530396,-2.840520143508911,0.28597068786621094
1701104427544683000,11.73468310546875,1.9316167831420898,-2.9489264488220215,-2.268012046813965
1701104427561681000,11.751680908203125,2.413322925567627,-2.312124013900757,-4.759341716766357
1701104427578661000,11.7686611328125,2.6164751052856445,-1.5539259910583496,-6.1572160720825195
1701104427595651300,11.7856513671875,2.320019245147705,-0.9005458354949951,-6.5997185707092285
1701104427612654300,11.802654296875,1.676588535308838,-0.7127845287322998,-6.3266143798828125
1701104427629636400,11.81963623046875,1.2423954010009766,-0.6635746955871582,-5.898956298828125
1701104427646638600,11.836638671875,1.084410548210144,-0.837744951248169,-5.555938243865967
1701104427663631600,11.853631591796875,1.3457539081573486,-0.8628619909286499,-5.7607293128967285
1701104427680623000,11.870623046875,1.651576280593872,-0.9473683834075928,-5.992805480957031
1701104427697616000,11.887615966796876,1.4024444818496704,-1.1230683326721191,-5.87916374206543
1701104427714607600,11.904607666015625,1.048807144165039,-1.8271262645721436,-5.2380194664001465
1701104427731600100,11.92160009765625,0.7366223335266113,-2.373896598815918,-4.757418155670166
1701104427748591000,11.938591064453124,0.43490296602249146,-2.9956307411193848,-4.382002830505371
1701104427765587000,11.9555869140625,-0.3205709457397461,-4.9158735275268555,-3.270930290222168
1701104427782574300,11.97257421875,-1.4567787647247314,-7.162453651428223,-2.6707305908203125
1701104427799569200,11.989569091796875,-1.4315178394317627,-8.990562438964844,-1.9353523254394531
1701104427816560600,12.006560546875,0.07789957523345947,-11.002080917358398,-0.2803668975830078
1701104427833553200,12.02355322265625,3.0528531074523926,-11.615660667419434,2.462794303894043
1701104427850545400,12.04054541015625,4.722456932067871,-11.128742218017578,5.2386674880981445
1701104427867537400,12.057537353515626,4.269186496734619,-10.162158966064453,7.17525577545166
1701104427884529200,12.074529052734375,3.0447139739990234,-9.029277801513672,7.722389221191406
1701104427901519400,12.091519287109374,2.7653133869171143,-7.469979286193848,6.911619186401367
1701104427918516200,12.10851611328125,3.44205379486084,-5.159861087799072,5.477010726928711
1701104427935506200,12.125506103515624,3.8390953540802,-2.475039005279541,4.20069694519043
1701104427952498000,12.142497802734376,3.2775282859802246,-0.42411041259765625,3.685214042663574
1701104427969490700,12.15949072265625,2.0780856609344482,1.082829475402832,3.3948535919189453
1701104427986482400,12.176482421875,0.3540520668029785,1.8346731662750244,2.283200263977051
1701104428003475200,12.19347509765625,-0.8773269653320312,2.268509864807129,0.39130687713623047
1701104428020466700,12.210466796875,-1.7488120794296265,2.7303338050842285,-1.6343684196472168
1701104428037459500,12.22745947265625,-2.229659080505371,3.166938543319702,-2.7798662185668945
1701104428054452200,12.2444521484375,-2.371009349822998,3.459606170654297,-2.862466335296631
1701104428071440400,12.2614404296875,-2.445237636566162,3.6203458309173584,-1.993657112121582
1701104428088438000,12.27843798828125,-2.5807273387908936,3.6677165031433105,-1.4515094757080078
1701104428105428200,12.29542822265625,-2.6171510219573975,3.3100736141204834,-1.687568187713623
1701104428122419700,12.312419677734376,-2.0895700454711914,2.7603759765625,-2.037862777709961
1701104428139412700,12.329412841796875,-1.512115716934204,2.278930187225342,-2.063415050506592
1701104428156404200,12.346404296875,-1.3744148015975952,2.087556838989258,-1.2892379760742188
1701104428173397000,12.36339697265625,-1.5902965068817139,1.703845500946045,0.22737979888916016
1701104428190388700,12.380388671875,-1.8561359643936157,1.2952146530151367,1.9807510375976562
1701104428207381200,12.39738134765625,-2.483938694000244,1.0571365356445312,3.685272216796875
1701104428224373000,12.414373046875,-3.6773629188537598,0.8248567581176758,4.4820146560668945
1701104428241365800,12.43136572265625,-4.789994716644287,-0.14482641220092773,4.573883056640625
1701104428258353000,12.448352783203125,-5.19954252243042,-2.377168655395508,5.115777015686035
1701104428275350300,12.465350341796874,-4.77635383605957,-4.669212341308594,6.852921485900879
1701104428292341500,12.482341552734376,-5.080235958099365,-4.86942195892334,8.484277725219727
1701104428309334800,12.499334716796875,-6.288274765014648,-3.9122352600097656,8.752296447753906
1701104428326315800,12.516315673828124,-6.022832870483398,-3.344460964202881,7.212519645690918
1701104428343318800,12.53331884765625,-3.8533735275268555,-4.339203357696533,5.702535629272461
1701104428360308000,12.550307861328125,-1.0601555109024048,-6.2861480712890625,4.927309036254883
1701104428377305900,12.567305908203124,1.3950917720794678,-6.956811904907227,4.320157051086426
1701104428394284300,12.5842841796875,1.2868393659591675,-6.866638660430908,3.4432106018066406
1701104428411291000,12.601290771484376,-0.5169529318809509,-6.5090837478637695,1.5403566360473633
1701104428428275000,12.61827490234375,-2.130713701248169,-5.979180812835693,-0.5110006332397461
1701104428445273000,12.635273193359374,-3.1529388427734375,-5.818979263305664,-2.0823144912719727
1701104428462253600,12.652253662109375,-2.6737043857574463,-5.704580307006836,-3.3648147583007812
1701104428479256300,12.66925634765625,-1.4791173934936523,-5.78445291519165,-4.199621200561523
1701104428496245500,12.68624560546875,-0.3425885736942291,-6.040653228759766,-4.533455848693848
1701104428513243100,12.7032431640625,0.7262446284294128,-6.091775417327881,-4.7979960441589355
1701104428530232300,12.720232421875,1.4809402227401733,-6.185460090637207,-4.868768215179443
1701104428547225000,12.73722509765625,1.5823768377304077,-6.084920406341553,-5.186837673187256
1701104428564216600,12.754216552734375,0.8326852321624756,-6.059133529663086,-5.544072151184082
1701104428581209600,12.771209716796875,-0.2298368513584137,-5.969525337219238,-6.165533542633057
1701104428598201000,12.788201171875,-0.8946416974067688,-5.697725296020508,-6.999080657958984
1701104428615193900,12.80519384765625,-0.8991395235061646,-5.306205749511719,-7.70673131942749
1701104428632172500,12.822172607421875,-0.647977888584137,-5.102027893066406,-8.033552169799805
1701104428649180700,12.8391806640625,-0.3758763074874878,-5.3121137619018555,-7.761021614074707
1701104428666169900,12.856169921875,-0.06065061688423157,-5.733963966369629,-6.833375930786133
1701104428683162600,12.87316259765625,0.18763306736946106,-5.908167362213135,-5.845129013061523
1701104428700154000,12.890154052734376,0.11299577355384827,-5.947640419006348,-4.799947261810303
1701104428717147000,12.90714697265625,0.15003430843353271,-5.666993141174316,-3.900585174560547
1701104428734139400,12.924139404296875,0.2923766076564789,-5.630430221557617,-2.879241466522217
1701104428751131100,12.941131103515625,0.26401808857917786,-6.172637462615967,-1.4019603729248047
1701104428768123000,12.958122802734374,-0.0826769471168518,-7.045714378356934,-0.16690349578857422
1701104428785115600,12.97511572265625,-0.6399515271186829,-8.10097599029541,0.5454320907592773
1701104428802107100,12.992107177734376,-0.784674346446991,-8.746955871582031,0.738856315612793
1701104428819097300,13.009097412109375,-0.29747748374938965,-8.8525390625,1.6021881103515625
1701104428836094500,13.026094482421875,0.6848495006561279,-8.386785507202148,2.949887275695801
1701104428853083400,13.04308349609375,1.7421730756759644,-7.6125898361206055,4.3697967529296875
1701104428870074400,13.060074462890626,2.6634275913238525,-6.559985160827637,4.978257179260254
1701104428887071200,13.0770712890625,3.659755229949951,-4.961575984954834,4.574443817138672
1701104428904060400,13.094060302734375,4.5510125160217285,-3.0179338455200195,3.807948112487793
1701104428921053000,13.111052978515625,4.551330089569092,-1.15452241897583,3.4690494537353516
1701104428938034200,13.1280341796875,3.5014257431030273,0.3805885314941406,3.341703414916992
1701104428955037700,13.14503759765625,1.6400452852249146,1.386030673980713,3.5668392181396484
1701104428972029200,13.162029296875,-0.17277641594409943,2.1201529502868652,3.398796558380127
1701104428989021700,13.179021728515625,-1.7682472467422485,2.6240968704223633,2.5872321128845215
1701104429006013400,13.196013427734375,-2.6544785499572754,3.0292346477508545,1.7290472984313965
1701104429023006500,13.21300634765625,-2.8389627933502197,3.4358675479888916,1.4630393981933594
1701104429039998000,13.229998046875,-2.6689932346343994,3.866715908050537,1.7111091613769531
1701104429056990700,13.24699072265625,-2.486576557159424,4.346253395080566,2.1092872619628906
1701104429073972000,13.263971923828125,-2.2369508743286133,4.732132434844971,2.39481258392334
1701104429090975200,13.280975341796875,-1.995875358581543,4.936496257781982,2.594787120819092
1701104429107966700,13.297966796875,-1.6715394258499146,4.9797258377075195,2.9765143394470215
1701104429124959200,13.314959228515624,-1.1163700819015503,4.911986827850342,3.7810325622558594
1701104429141948000,13.331947998046875,-0.464173287153244,5.1013569831848145,4.604433059692383
1701104429158943000,13.34894287109375,0.018549412488937378,4.9275665283203125,5.637385845184326
1701104429175939000,13.36593896484375,0.02506031095981598,3.6595237255096436,7.145571708679199
1701104429192928000,13.382927978515625,0.23343849182128906,3.0781826972961426,7.77568244934082
1701104429209917000,13.3999169921875,0.08874914050102234,3.2312517166137695,7.4513959884643555
1701104429226915000,13.4169150390625,-1.4680204391479492,3.3634819984436035,6.627685070037842
1701104429243904000,13.433904052734375,-3.508732795715332,2.9523491859436035,6.0104827880859375
1701104429260896800,13.450896728515625,-4.589402675628662,1.4822235107421875,6.165841102600098
1701104429277894100,13.46789404296875,-4.173247814178467,-0.33954572677612305,6.465683937072754
1701104429294881300,13.48488134765625,-3.0710599422454834,-1.8472213745117188,6.6189961433410645
1701104429311872800,13.501872802734376,-2.407904624938965,-2.060016632080078,6.0318684577941895
1701104429328865500,13.518865478515625,-2.4154365062713623,-1.6475400924682617,5.062379360198975
1701104429345854700,13.535854736328124,-3.1814467906951904,-1.488328456878662,3.5716238021850586
1701104429362853000,13.55285302734375,-4.090000152587891,-1.6569089889526367,1.5147981643676758
1701104429379841300,13.56984130859375,-4.388911724090576,-2.160841464996338,-0.5043926239013672
1701104429396818200,13.586818115234376,-3.865485191345215,-2.6991610527038574,-2.1641674041748047
1701104429413826000,13.603825927734375,-2.9021077156066895,-3.206223726272583,-3.2518210411071777
1701104429430818800,13.62081884765625,-1.9489247798919678,-3.386996269226074,-3.9630842208862305
1701104429447798000,13.637798095703126,-1.1203714609146118,-3.304615020751953,-4.645334243774414
1701104429464806700,13.654806640625,-0.5075502991676331,-3.09246563911438,-5.309337139129639
1701104429481794800,13.671794921875,-0.22179526090621948,-2.9117672443389893,-5.915306091308594
1701104429498787600,13.68878759765625,-0.0784076377749443,-3.120110511779785,-6.139745712280273
1701104429515768600,13.7057685546875,0.030874721705913544,-3.6192514896392822,-6.074357509613037
1701104429532771800,13.722771728515625,0.06879372149705887,-3.9661026000976562,-6.236051082611084
1701104429549763300,13.739763427734376,-0.053861793130636215,-4.18939733505249,-6.701838493347168
1701104429566756400,13.75675634765625,-0.26701629161834717,-4.342231750488281,-7.368607044219971
1701104429583747800,13.773747802734375,-0.42370331287384033,-4.677929878234863,-7.6370015144348145
1701104429600730000,13.790730224609375,-0.48530593514442444,-5.087941646575928,-7.515380382537842
1701104429617728500,13.807728515625,-0.41457080841064453,-5.332106113433838,-7.021493911743164
1701104429634724900,13.824724853515624,-0.5029443502426147,-5.245359420776367,-6.316197395324707
1701104429651714000,13.841714111328125,-0.9607737064361572,-5.842256546020508,-5.295900821685791
1701104429668710700,13.858710693359376,-1.2505780458450317,-6.652018070220947,-4.75018835067749
1701104429685700400,13.875700439453125,-0.551448404788971,-6.904903888702393,-4.356199741363525
1701104429702693600,13.892693603515625,-0.15160328149795532,-7.043581485748291,-3.310275077819824
1701104429719685400,13.909685302734376,-1.07529878616333,-7.944171905517578,-0.5859622955322266
1701104429736678100,13.92667822265625,-2.5155975818634033,-8.508515357971191,1.177703857421875
1701104429753669600,13.943669677734375,-2.904872417449951,-8.644529342651367,2.1321029663085938
1701104429770664200,13.960664306640625,-1.992465853691101,-8.152456283569336,2.6401596069335938
1701104429787652000,13.977652099609376,-0.6122829914093018,-7.141139030456543,3.53665828704834
1701104429804646700,13.994646728515624,0.8516104221343994,-5.5912556648254395,4.6355133056640625
1701104429821633800,14.0116337890625,1.6666585206985474,-4.10470724105835,5.3373260498046875
1701104429838623500,14.02862353515625,1.241938829421997,-2.6573398113250732,5.204780578613281
1701104429855612200,14.045612060546874,-0.11717165261507034,-1.1395936012268066,4.2879180908203125
1701104429872610600,14.062610595703125,-1.7367347478866577,0.3916177749633789,2.7869443893432617
1701104429889609500,14.079609375,-2.9766061305999756,1.7521405220031738,1.242323875427246
1701104429906600000,14.096599853515626,-3.422745704650879,2.9077420234680176,0.15425777435302734
1701104429923591700,14.113591796875,-3.081460952758789,3.626098394393921,-0.0013523101806640625
1701104429940584200,14.130584228515625,-2.3556342124938965,4.253485679626465,0.4791693687438965
1701104429957576000,14.147575927734374,-1.7125890254974365,4.712174415588379,1.0486478805541992
1701104429974568700,14.164568603515624,-1.2842684984207153,5.211637020111084,1.5376625061035156
1701104429991557600,14.1815576171875,-1.548416256904602,5.515836715698242,1.3029594421386719
1701104430008555500,14.198555419921876,-2.559009313583374,5.248054504394531,0.8332204818725586
1701104430025544400,14.21554443359375,-3.6873698234558105,4.815931797027588,0.5584449768066406
1701104430042537000,14.232536865234374,-4.457810401916504,4.439666748046875,0.7596530914306641
1701104430059529700,14.24952978515625,-4.4110236167907715,4.081246852874756,1.5378994941711426
1701104430076522000,14.26652197265625,-3.645676851272583,3.753849983215332,3.009049892425537
1701104430093513500,14.283513427734375,-3.2723426818847656,2.9204325675964355,5.23090934753418
1701104430110506000,14.300506103515625,-3.384399890899658,2.180509567260742,6.528784275054932
1701104430127497700,14.317497802734374,-3.4267592430114746,1.832066535949707,6.7957634925842285
1701104430144487200,14.334487060546875,-3.516707420349121,0.14834833145141602,8.432815551757812
1701104430161482200,14.351482177734376,-3.2652509212493896,-2.4388699531555176,10.817605972290039
1701104430178474800,14.368474853515625,-1.7302932739257812,-4.124800205230713,12.024147987365723
1701104430195466500,14.385466552734375,-0.0850115418434143,-4.318587779998779,12.251466751098633
1701104430212459300,14.402459228515625,0.36500030755996704,-3.3618016242980957,12.410496711730957
1701104430229440300,14.419440185546875,-0.2678402364253998,-2.8872480392456055,12.596442222595215
1701104430246432800,14.436432861328125,-0.7275645732879639,-2.7349772453308105,12.279722213745117
1701104430263425000,14.453425048828125,-0.8194804191589355,-2.818012237548828,10.96834945678711
1701104430280430300,14.470430419921875,-0.8255910873413086,-2.0552773475646973,8.321233749389648
1701104430297409300,14.4874091796875,-0.8823723793029785,-0.6884450912475586,4.977056980133057
1701104430314412300,14.504412353515624,-1.041877269744873,0.17417049407958984,2.184821128845215
1701104430331403300,14.5214033203125,-1.0657786130905151,0.20347929000854492,0.1666860580444336
1701104430348397000,14.53839697265625,-0.9671542644500732,-0.4125986099243164,-1.6045360565185547
1701104430365377000,14.555376953125,-0.5384657979011536,-1.2195460796356201,-3.2211875915527344
1701104430382374100,14.5723740234375,0.07666601985692978,-1.8781678676605225,-4.532285213470459
1701104430399364000,14.589364013671876,0.5799158215522766,-2.3870089054107666,-5.520389556884766
1701104430416358100,14.606358154296874,0.8997083902359009,-2.7181777954101562,-6.373470783233643
1701104430433346600,14.6233466796875,0.8030825853347778,-2.9370665550231934,-7.149209022521973
1701104430450339600,14.640339599609375,0.6077031493186951,-3.183647871017456,-7.835306644439697
1701104430467341000,14.657341064453124,0.4589412808418274,-3.420515775680542,-8.145073890686035
1701104430484328700,14.67432861328125,0.5512635111808777,-3.5532076358795166,-7.888808250427246
1701104430501318000,14.69131787109375,0.9487578272819519,-3.609614133834839,-7.416804313659668
1701104430518310700,14.708310546875,1.2918992042541504,-3.6960628032684326,-6.983894348144531
1701104430535299600,14.725299560546874,1.4192495346069336,-3.976299524307251,-6.492178440093994
1701104430552295000,14.742294921875,1.255018949508667,-4.425771236419678,-5.776239395141602
1701104430569285000,14.75928515625,0.881657063961029,-5.26922607421875,-4.540052890777588
1701104430586279700,14.77627978515625,0.18835794925689697,-5.593725204467773,-4.1185455322265625
1701104430603272400,14.7932724609375,-0.6873464584350586,-5.641255855560303,-4.469232082366943
1701104430620264400,14.810264404296875,-0.7747149467468262,-5.651782035827637,-4.525587558746338
1701104430637265400,14.827265380859375,-0.4284096956253052,-6.227792739868164,-3.219451904296875
1701104430654245600,14.84424560546875,-0.24294376373291016,-6.980846881866455,-1.3759403228759766
1701104430671248000,14.861247802734376,-0.28391873836517334,-7.754802227020264,0.27588939666748047
1701104430688240400,14.878240478515625,-0.48267441987991333,-8.160858154296875,1.084305763244629
1701104430705232100,14.895232177734375,-0.5331546664237976,-7.872554779052734,1.5883636474609375
1701104430722225000,14.912224853515625,-0.8590555191040039,-7.107173919677734,2.6019668579101562
1701104430739216400,14.92921630859375,-1.4017624855041504,-5.954623222351074,3.7380876541137695
1701104430756209200,14.946209228515626,-2.033626079559326,-4.426135063171387,4.058479309082031
1701104430773201000,14.963200927734375,-2.4020919799804688,-2.6491856575012207,3.4135360717773438
1701104430790193700,14.980193603515625,-2.417792797088623,-0.885901927947998,2.2214107513427734
1701104430807185000,14.997184814453124,-2.2914719581604004,0.360964298248291,1.0711641311645508
1701104430824178400,15.014178466796874,-2.0663652420043945,1.0878558158874512,0.4719200134277344
1701104430841158700,15.03115869140625,-1.8310915231704712,1.7101020812988281,0.8506946563720703
1701104430858162400,15.048162353515625,-1.3628350496292114,2.5128173828125,1.25709867477417
1701104430875154000,15.06515380859375,-0.913791298866272,3.1861929893493652,1.2152323722839355
1701104430892146700,15.082146728515625,-0.5873886942863464,3.635845184326172,0.8083467483520508
1701104430909138400,15.099138427734376,-0.39923524856567383,3.72552490234375,0.35514259338378906
1701104430926129000,15.11612890625,-0.4195215106010437,3.6943509578704834,-0.07558631896972656
1701104430943125200,15.133125244140626,-0.4345416724681854,3.5787806510925293,0.028456687927246094
1701104430960104700,15.150104736328124,-0.5056215524673462,3.389634609222412,0.7601413726806641
1701104430977107000,15.16710693359375,-0.6996995210647583,3.3838162422180176,1.5345163345336914
1701104430994097700,15.18409765625,-1.2101320028305054,3.1775240898132324,2.0166969299316406
1701104431011090400,15.20109033203125,-1.8670737743377686,2.996941089630127,2.2959065437316895
1701104431028084000,15.218083984375,-2.3819289207458496,2.4809727668762207,3.1295971870422363
1701104431045075700,15.23507568359375,-2.9901721477508545,1.7137179374694824,4.280740261077881
1701104431062069000,15.252069091796875,-3.2455263137817383,1.2040133476257324,5.041306018829346
1701104431079060500,15.269060546875,-3.0123560428619385,0.6184797286987305,6.051833629608154
1701104431096053000,15.286052978515626,-2.925342082977295,-1.5590057373046875,8.520133972167969
1701104431113044700,15.303044677734375,-2.749380111694336,-3.853822708129883,9.992286682128906
1701104431130034700,15.32003466796875,-1.4080801010131836,-4.073178768157959,9.462573051452637
1701104431147029800,15.33702978515625,0.32515692710876465,-3.377695083618164,9.258294105529785
1701104431164023300,15.354023193359374,1.6146538257598877,-2.6293792724609375,9.590787887573242
1701104431181008000,15.3710078125,2.2719218730926514,-2.253541946411133,9.947019577026367
1701104431198006300,15.38800634765625,1.9324135780334473,-2.0072836875915527,9.784730911254883
1701104431214997800,15.404997802734375,1.1086783409118652,-1.3600564002990723,8.255743026733398
1701104431231990300,15.421990234375,0.20858550071716309,0.02949047088623047,5.2097368240356445
1701104431248981800,15.438981689453126,-0.4777413606643677,1.4338493347167969,2.770355701446533
1701104431265974800,15.455974853515626,-1.0151395797729492,2.1836705207824707,1.1964216232299805
1701104431282966500,15.472966552734375,-1.3243303298950195,2.352792739868164,-0.21276617050170898
1701104431299957200,15.489957275390625,-1.3768887519836426,2.2757716178894043,-1.6144418716430664
1701104431316950300,15.5069501953125,-1.2118555307388306,2.0959277153015137,-2.8713150024414062
1701104431333947400,15.523947509765625,-0.8158766031265259,2.0238876342773438,-4.142457008361816
1701104431350933200,15.540933349609375,-0.39258477091789246,1.9785799980163574,-5.145267486572266
1701104431367930000,15.55793017578125,-0.22214668989181519,1.8318333625793457,-5.673828125
1701104431384919300,15.574919189453125,-0.1556134819984436,1.5045857429504395,-5.910012245178223
1701104431401912300,15.591912353515625,-0.05410313606262207,1.1604673862457275,-6.165968894958496
1701104431418904000,15.608904052734376,0.0645287036895752,0.7276706695556641,-6.479068756103516
1701104431435896600,15.625896484375,-0.018702685832977295,0.1887209415435791,-6.605354309082031
1701104431452888300,15.642888427734375,-0.2502487897872925,-0.4049654006958008,-6.575944900512695
1701104431469883400,15.65988330078125,-0.24628230929374695,-0.8106651306152344,-6.433755874633789
1701104431486870300,15.676870361328126,-0.18284571170806885,-1.2813420295715332,-5.819129467010498
1701104431503865300,15.693865234375,0.0862525999546051,-1.8689610958099365,-4.704847812652588
1701104431520857000,15.710857177734376,0.15316158533096313,-3.0967531204223633,-2.977911949157715
1701104431537839000,15.727839111328125,0.14502376317977905,-4.190488815307617,-1.8036537170410156
1701104431554841300,15.74484130859375,0.2615479528903961,-4.945252418518066,-1.393301010131836
1701104431571834000,15.761834228515625,0.3594568371772766,-5.614917755126953,-1.081268310546875
1701104431588825600,15.77882568359375,-0.12980777025222778,-6.797640800476074,-0.12648296356201172
1701104431605818400,15.795818359375,-0.2732732892036438,-7.6012372970581055,0.6313505172729492
1701104431622804200,15.81280419921875,0.4183310866355896,-8.269335746765137,1.4137992858886719
1701104431639803000,15.829802978515625,1.765094518661499,-7.939688682556152,2.481853485107422
1701104431656794600,15.846794677734374,2.2260143756866455,-6.804026126861572,4.0204973220825195
1701104431673787400,15.863787353515624,0.7676926851272583,-5.643714904785156,5.588600158691406
1701104431690779000,15.88077880859375,-1.1664941310882568,-4.239879608154297,5.935354232788086
1701104431707771400,15.897771484375,-2.7989301681518555,-2.47042179107666,4.524929046630859
1701104431724763100,15.91476318359375,-3.713304042816162,-0.6586599349975586,2.1945676803588867
1701104431741756000,15.931755859375,-3.860344886779785,0.8856353759765625,0.1877298355102539
1701104431758747600,15.94874755859375,-3.3203916549682617,2.005316734313965,-0.8134574890136719
1701104431775730000,15.96572998046875,-2.4709291458129883,2.8294358253479004,-0.5375633239746094
1701104431792732000,15.98273193359375,-1.4266477823257446,3.8678693771362305,0.20976495742797852
1701104431809711600,15.999711669921876,-0.9180867671966553,4.845202922821045,0.14944028854370117
1701104431826709800,16.016709716796875,-1.3730069398880005,5.352391242980957,-0.5079121589660645
1701104431843709000,16.033708984375,-2.256906509399414,5.545222282409668,-1.2786846160888672
1701104431860692700,16.050692626953126,-3.0536677837371826,5.620038986206055,-1.7355670928955078
1701104431877693700,16.067693603515625,-3.4653801918029785,5.754338264465332,-1.9276399612426758
1701104431894685200,16.084685302734375,-3.2693872451782227,5.584475517272949,-1.7144770622253418
1701104431911677700,16.101677734375,-2.273735523223877,5.339194297790527,-1.2999753952026367
1701104431928669400,16.11866943359375,-1.4209917783737183,4.637872695922852,-0.49899768829345703
1701104431945662200,16.135662109375,-0.9941061735153198,4.087191581726074,0.2248067855834961
1701104431962654000,16.152654052734373,-1.3679699897766113,3.5982348918914795,0.8041477203369141
1701104431979646700,16.169646728515627,-2.043186664581299,3.006619453430176,1.9529037475585938
1701104431996636700,16.18663671875,-2.648528575897217,2.1427249908447266,3.59269380569458
1701104432013633000,16.203633056640626,-2.6215016841888428,1.4135122299194336,5.105144500732422
1701104432030622500,16.22062255859375,-2.0865535736083984,0.8405303955078125,6.736881256103516
1701104432047615200,16.237615234375,-2.125544309616089,-1.2419929504394531,9.512096405029297
1701104432064607000,16.25460693359375,-1.9249882698059082,-3.5742340087890625,11.047927856445312
1701104432081599500,16.271599609375,-0.4022487998008728,-5.011669158935547,11.402424812316895
1701104432098591500,16.288591552734374,1.5444574356079102,-5.0096282958984375,11.272186279296875
1701104432115573200,16.3055732421875,2.625396490097046,-4.165036201477051,11.398038864135742
1701104432132576000,16.322575927734373,2.5866217613220215,-3.2594246864318848,11.129467964172363
1701104432149568500,16.339568603515627,2.125988483428955,-2.5861167907714844,9.953939437866211
1701104432166560000,16.35656005859375,1.4415515661239624,-2.198072910308838,7.990576267242432
1701104432183552800,16.373552734375,0.9357658624649048,-1.6022295951843262,5.149972438812256
1701104432200544300,16.390544189453124,0.578480064868927,-0.810429573059082,2.177199363708496
1701104432217537300,16.407537353515625,0.3656570017337799,-0.24133586883544922,-0.018033981323242188
1701104432234528800,16.42452880859375,0.23988519608974457,0.056130409240722656,-1.6375274658203125
1701104432251519200,16.441519287109376,0.27881181240081787,0.1442427635192871,-2.905390739440918
1701104432268513000,16.458512939453126,0.356766015291214,-0.023842573165893555,-3.898745536804199
1701104432285508400,16.47550830078125,0.5478099584579468,-0.49329543113708496,-4.656554222106934
1701104432302497500,16.49249755859375,0.6772060990333557,-0.9358875751495361,-5.619344711303711
1701104432319490600,16.509490478515627,0.651414155960083,-1.2667241096496582,-6.555407524108887
1701104432336482000,16.52648193359375,0.520251452922821,-1.5383000373840332,-7.249061584472656
1701104432353474800,16.543474853515626,0.28109294176101685,-1.7498865127563477,-7.700028419494629
1701104432370466600,16.560466552734376,0.12002617120742798,-1.9963856935501099,-7.813693523406982
1701104432387459000,16.577458984375,0.01301167905330658,-2.3657898902893066,-7.804886817932129
1701104432404450600,16.594450439453126,0.0690331757068634,-2.714488983154297,-7.996047019958496
1701104432421428200,16.61142822265625,0.43678659200668335,-3.345689296722412,-7.94582462310791
1701104432438435000,16.62843505859375,0.7518149614334106,-4.168914794921875,-7.537449836730957
1701104432455427800,16.645427734375,1.088864803314209,-4.636981010437012,-6.403591156005859
1701104432472419300,16.66241943359375,0.6589043140411377,-4.877528190612793,-4.708006381988525
1701104432489412400,16.679412353515627,-0.5097184181213379,-5.897650241851807,-2.8484110832214355
1701104432506404000,16.696404052734376,-1.327068567276001,-7.410241603851318,-1.6318206787109375
1701104432523396400,16.713396240234374,-1.040753722190857,-8.43326473236084,-1.6918621063232422
1701104432540377900,16.7303779296875,0.19223836064338684,-8.946673393249512,-1.1515932083129883
1701104432557380900,16.747380859375,1.5314912796020508,-8.467944145202637,0.9915351867675781
1701104432574372600,16.76437255859375,1.2645100355148315,-7.332156181335449,4.082178115844727
1701104432591362600,16.781362548828124,0.21820563077926636,-6.113275527954102,6.852392196655273
1701104432608359400,16.798359375,-0.19894804060459137,-4.613409996032715,7.965967178344727
1701104432625350700,16.8153505859375,-0.4378337264060974,-2.8936896324157715,7.070943832397461
1701104432642341000,16.832341064453125,-1.0432076454162598,-1.1242027282714844,4.722609519958496
1701104432659323400,16.849323486328124,-2.249300479888916,0.5335426330566406,1.9995193481445312
1701104432676325600,16.86632568359375,-3.1808974742889404,1.673861026763916,0.28788185119628906
1701104432693318400,16.883318359375,-3.2807705402374268,2.4135985374450684,0.6688528060913086
1701104432710310000,16.900309814453124,-2.3109045028686523,3.2585859298706055,1.551248550415039
1701104432727302700,16.917302734375,-1.2782524824142456,4.16438102722168,1.4887981414794922
1701104432744294400,16.93429443359375,-0.9127156734466553,4.558994770050049,0.8478236198425293
1701104432761287200,16.951287109375,-1.2029274702072144,4.6382646560668945,0.028969764709472656
1701104432778278700,16.968278564453126,-1.666090965270996,4.849050045013428,-0.7837915420532227
1701104432795271400,16.985271484375,-1.869002342224121,4.825160026550293,-1.0574679374694824
1701104432812263000,17.002262939453125,-1.7184667587280273,4.5609846115112305,-0.6804075241088867
1701104432829255700,17.019255615234375,-1.2575833797454834,4.013420104980469,0.13827848434448242
1701104432846242000,17.036241943359375,-1.0440030097961426,3.6529784202575684,1.0190129280090332
1701104432863240200,17.053240234375,-1.3821347951889038,3.4397664070129395,1.740309715270996
1701104432880232000,17.07023193359375,-1.9201240539550781,3.4952640533447266,2.2942891120910645
1701104432897224700,17.087224609375,-2.5035769939422607,3.075547695159912,3.349015712738037
1701104432914208300,17.104208251953125,-2.595735549926758,2.232639789581299,4.883951663970947
1701104432931206100,17.1212060546875,-2.273712158203125,1.6768455505371094,6.159201622009277
1701104432948200700,17.13820068359375,-2.326984405517578,0.7284135818481445,7.365838050842285
1701104432965193200,17.155193115234376,-2.5643811225891113,-1.696474552154541,9.530230522155762
1701104432982182400,17.172182373046876,-2.294342041015625,-4.55753231048584,10.744068145751953
1701104432999180300,17.18918017578125,-0.5957502126693726,-5.25284481048584,10.068551063537598
1701104433016169500,17.20616943359375,1.5778566598892212,-3.4005541801452637,9.842550277709961
1701104433033162000,17.223161865234374,2.243936538696289,-1.0612282752990723,10.476787567138672
1701104433050153500,17.240153564453124,1.5248417854309082,0.6858882904052734,10.632781982421875
1701104433067146200,17.257146240234373,0.14004021883010864,0.8200955390930176,9.714927673339844
1701104433084138000,17.274137939453126,-0.7134381532669067,0.032335758209228516,7.527267932891846
1701104433101128200,17.291128173828124,-1.0292422771453857,-0.9699501991271973,4.211328029632568
1701104433118125000,17.308125,-0.767181932926178,-0.7332983016967773,0.47629404067993164
1701104433135118000,17.3251181640625,-0.26322054862976074,0.28420305252075195,-2.115631103515625
1701104433152106800,17.342106689453125,0.23444372415542603,1.3074922561645508,-3.348592758178711
1701104433169099500,17.359099609375,0.3756270408630371,1.8485684394836426,-3.9887351989746094
1701104433186091000,17.376091064453124,0.34635770320892334,1.8305449485778809,-4.390591621398926
1701104433203083800,17.393083740234374,0.22997429966926575,1.1845707893371582,-4.569245338439941
1701104433220075500,17.410075439453124,0.1250879466533661,0.5361206531524658,-5.000829219818115
1701104433237068300,17.427068359375,-0.05499690771102905,-0.11224102973937988,-5.572798252105713
1701104433254059800,17.444059814453126,-0.27074795961380005,-0.6887326240539551,-6.19514274597168
1701104433271052500,17.461052490234376,-0.2999937832355499,-1.1175811290740967,-6.320283889770508
1701104433288044300,17.478044189453126,0.07157249748706818,-1.367633581161499,-6.003936767578125
1701104433305037000,17.495037109375,0.32924824953079224,-1.789766788482666,-5.64133882522583
1701104433322026000,17.51202587890625,0.2467331886291504,-2.806778907775879,-5.044703483581543
1701104433339016200,17.52901611328125,0.1739490032196045,-3.6462326049804688,-5.076985836029053
1701104433356002600,17.54600244140625,0.4285176992416382,-4.101829528808594,-5.382288932800293
1701104433373001200,17.563001220703125,0.5024964213371277,-4.806968688964844,-4.7619829177856445
1701104433389993500,17.579993408203126,-0.19152003526687622,-5.884683132171631,-2.85575532913208
1701104433406992600,17.59699267578125,-1.2098995447158813,-6.7911200523376465,-0.842402458190918
1701104433423981800,17.61398193359375,-1.5291147232055664,-7.427091598510742,0.20064449310302734
1701104433440974600,17.630974609375,-1.0995731353759766,-8.556181907653809,1.3039798736572266
1701104433457966300,17.64796630859375,0.06822466850280762,-8.75094985961914,2.0523719787597656
1701104433474958800,17.664958740234376,1.0652577877044678,-7.8725128173828125,2.3819055557250977
1701104433491950300,17.681950439453125,1.2042810916900635,-6.531876564025879,2.942150115966797
1701104433508943400,17.698943359375,0.30015498399734497,-5.147364616394043,3.558499336242676
1701104433525934800,17.715934814453124,-0.7682880163192749,-3.3610105514526367,2.9769535064697266
1701104433542927600,17.732927734375,-1.8548500537872314,-1.5728025436401367,1.1953840255737305
1701104433559919000,17.749919189453124,-2.5581231117248535,0.14452028274536133,-0.9558639526367188
1701104433576912000,17.766911865234373,-2.9156322479248047,1.2598109245300293,-2.369084358215332
1701104433593903600,17.783903564453126,-2.7512011528015137,1.8894472122192383,-2.8724164962768555
1701104433610896100,17.800896240234376,-2.3565521240234375,2.2861249446868896,-2.7374653816223145
1701104433627887900,17.817887939453126,-1.7856113910675049,2.667937994003296,-2.2616496086120605
1701104433644876300,17.834876220703126,-1.085155963897705,3.2605044841766357,-1.8519983291625977
1701104433661872400,17.851872314453125,-0.7092200517654419,3.780789375305176,-1.3621225357055664
1701104433678865000,17.868864990234375,-0.733521044254303,3.9894168376922607,-0.7944278717041016
1701104433695857000,17.88585693359375,-0.7661068439483643,3.767047882080078,0.09484338760375977
1701104433712849400,17.902849365234374,-0.8358997106552124,3.572946548461914,1.5461530685424805
1701104433729838300,17.91983837890625,-0.8834245800971985,3.447544574737549,3.5956287384033203
1701104433746824000,17.936823974609375,-0.9077934622764587,3.358741283416748,5.544307231903076
1701104433763818200,17.953818359375,-1.6305183172225952,2.612523078918457,6.698697566986084
1701104433780820500,17.970820556640625,-2.5341830253601074,1.7498421669006348,7.3285980224609375
1701104433797810000,17.987809814453126,-2.955897808074951,1.0373249053955078,7.690511703491211
1701104433814802700,18.004802734375,-3.0391464233398438,-0.0998687744140625,9.063762664794922
1701104433831783400,18.021783447265626,-2.8575246334075928,-2.282947540283203,10.924003601074219
1701104433848785700,18.03878564453125,-2.1867330074310303,-3.7620019912719727,11.616800308227539
1701104433865770200,18.055770263671874,-1.0865055322647095,-3.2592058181762695,11.278255462646484
1701104433882763000,18.072762939453124,-0.5860373973846436,-1.7843236923217773,11.103765487670898
1701104433899755300,18.08975537109375,-0.6618019342422485,-0.3930625915527344,10.860389709472656
1701104433916746000,18.10674609375,-0.8545446395874023,0.30396270751953125,10.002595901489258
1701104433933737500,18.123737548828124,-0.8233382701873779,0.07751178741455078,8.362281799316406
1701104433950731000,18.14073095703125,-0.5255140066146851,-0.5210714340209961,5.956368446350098
1701104433967722800,18.15772265625,0.013077259063720703,-0.5196137428283691,3.398049831390381
1701104433984714200,18.17471435546875,0.5512222647666931,0.13583850860595703,1.192152500152588
1701104434001709000,18.191708984375,0.8894805312156677,0.9653215408325195,-0.3143806457519531
1701104434018700300,18.2087001953125,0.8994056582450867,1.726043701171875,-1.216184139251709
1701104434035691000,18.22569091796875,0.5195944309234619,1.9458961486816406,-1.591627597808838
1701104434052685300,18.242685302734376,0.06112051010131836,1.6790504455566406,-2.0972976684570312
1701104434069680000,18.25968017578125,-0.17865288257598877,1.2044224739074707,-2.8760242462158203
1701104434086665700,18.276665771484375,-0.28791677951812744,0.621891975402832,-3.560502052307129
1701104434103660800,18.293660888671877,-0.21914759278297424,0.05979013442993164,-4.090754508972168
1701104434120654300,18.310654296875,-0.21020875871181488,-0.4874088764190674,-4.457502841949463
1701104434137656000,18.327656005859374,-0.15920928120613098,-1.378474235534668,-4.569005966186523
1701104434154646500,18.344646484375,-0.05275723338127136,-2.842043161392212,-4.230749607086182
1701104434171637800,18.3616376953125,0.15265175700187683,-3.9005706310272217,-4.311105251312256
1701104434188630800,18.378630859375,0.46698230504989624,-4.981961250305176,-4.448367118835449
1701104434205622300,18.395622314453124,0.5742205381393433,-6.3760528564453125,-4.13442325592041
1701104434222611200,18.412611083984373,0.08878189325332642,-8.093597412109375,-3.449631690979004
1701104434239605800,18.429605712890623,-1.049263596534729,-9.364938735961914,-3.572932243347168
1701104434256599000,18.44659912109375,-1.7893126010894775,-9.23160457611084,-4.451600074768066
1701104434273591300,18.46359130859375,-0.7343952655792236,-7.9708099365234375,-4.242082118988037
1701104434290583600,18.48058349609375,0.8376942873001099,-7.009481430053711,-2.4775266647338867
1701104434307575600,18.497575439453126,2.0811047554016113,-6.356038570404053,-0.44526195526123047
1701104434324568000,18.514568115234376,2.9574694633483887,-5.794027328491211,0.9773197174072266
1701104434341559600,18.5315595703125,2.727649211883545,-5.375016212463379,1.785801887512207
1701104434358552600,18.548552490234375,1.3660497665405273,-4.344996452331543,1.333369255065918
1701104434375549200,18.565549072265625,-0.988197386264801,-2.8650169372558594,-0.02037811279296875
1701104434392536800,18.582536865234374,-2.570279598236084,-1.1055259704589844,-1.164031982421875
1701104434409528600,18.599528564453124,-3.1691653728485107,0.5269641876220703,-1.5279483795166016
1701104434426521300,18.616521240234373,-2.6002626419067383,1.6809039115905762,-0.9164576530456543
1701104434443512800,18.633512939453126,-1.5230789184570312,2.3638486862182617,0.14995384216308594
1701104434460505600,18.650505615234376,-0.4840732216835022,2.849816083908081,1.317617416381836
1701104434477497300,18.667497314453126,0.059009015560150146,3.4257760047912598,2.075296401977539
1701104434494490000,18.684489990234376,-0.0256921648979187,4.128519058227539,1.7183570861816406
1701104434511479000,18.70147900390625,-0.8997505307197571,4.449704170227051,0.9270715713500977
1701104434528477000,18.718476806640624,-1.9993247985839844,4.591647148132324,0.30075645446777344
1701104434545466000,18.735466064453124,-2.6961731910705566,4.444527626037598,0.3354029655456543
1701104434562458600,18.752458740234374,-2.689188003540039,4.197658061981201,1.53428316116333
1701104434579450600,18.76945068359375,-2.5112292766571045,4.281511306762695,3.074493408203125
1701104434596443100,18.786443115234373,-2.5229249000549316,4.546253204345703,3.963804244995117
1701104434613434600,18.8034345703125,-2.8606958389282227,4.464325904846191,5.055035591125488
1701104434630424600,18.820424560546876,-3.3961164951324463,2.8954005241394043,7.094695568084717
1701104434647419100,18.837419189453126,-3.7319083213806152,1.3445954322814941,8.595711708068848
1701104434664412200,18.854412109375,-4.311631202697754,-1.074124813079834,11.250715255737305
1701104434681403400,18.8714033203125,-5.034189224243164,-4.624600887298584,13.912422180175781
1701104434698396400,18.888396484375,-4.690354347229004,-6.86911153793335,13.76920223236084
1701104434715388000,18.905387939453124,-2.566699504852295,-5.798335552215576,11.569517135620117
1701104434732380700,18.922380615234374,-0.9492032527923584,-4.583185195922852,11.074662208557129
1701104434749372200,18.9393720703125,-0.4055675268173218,-5.0479936599731445,11.919695854187012
1701104434766365000,18.956364990234373,-0.9771251082420349,-5.948528289794922,12.223697662353516
1701104434783354000,18.97335400390625,-1.941537857055664,-5.800233840942383,10.797368049621582
1701104434800349700,18.990349609375,-3.078561544418335,-5.105380535125732,7.889270305633545
1701104434817343500,19.007343505859374,-3.388589859008789,-4.195987224578857,4.652822494506836
1701104434834320600,19.024320556640625,-2.7364907264709473,-3.6942505836486816,2.25003719329834
1701104434851325200,19.0413251953125,-1.8664082288742065,-3.6515703201293945,0.519866943359375
1701104434868314400,19.058314453125,-0.9687807559967041,-3.913848400115967,-0.6774444580078125
1701104434885309700,19.075309814453124,0.01042252779006958,-3.7702524662017822,-1.888319969177246
1701104434902302200,19.09230224609375,0.785724401473999,-3.5311694145202637,-3.1880035400390625
1701104434919294200,19.109294189453124,1.1818870306015015,-3.2939860820770264,-4.481996536254883
1701104434936286700,19.12628662109375,1.327178955078125,-3.158212423324585,-5.707745552062988
1701104434953278500,19.143278564453126,1.4429049491882324,-3.0043373107910156,-6.6231794357299805
1701104434970271000,19.16027099609375,1.3236796855926514,-3.0628833770751953,-7.042361259460449
1701104434987264500,19.177264404296874,0.9693120718002319,-3.076925039291382,-7.3353047370910645
1701104435004244200,19.194244140625,0.7022652626037598,-3.070801258087158,-7.573915004730225
1701104435021249500,19.21124951171875,0.42476150393486023,-3.1878662109375,-7.82717227935791
1701104435038240000,19.228239990234375,0.21967273950576782,-3.4752426147460938,-8.01102066040039
1701104435055231700,19.245231689453124,0.05836975574493408,-3.6863365173339844,-8.244269371032715
1701104435072224300,19.262224365234374,-0.12418454885482788,-3.71140456199646,-8.544273376464844
1701104435089216000,19.279216064453124,-0.2687827944755554,-3.688239336013794,-8.571033477783203
1701104435106208500,19.29620849609375,-0.3992183208465576,-3.90851092338562,-8.043972969055176
1701104435123200300,19.3132001953125,-0.42089128494262695,-4.559783935546875,-6.98443603515625
1701104435140193000,19.330193115234376,-0.43727564811706543,-5.563430309295654,-5.567964553833008
1701104435157184800,19.347184814453126,-0.5028280019760132,-6.540022373199463,-4.547558307647705
1701104435174183400,19.364183349609377,-0.6695561408996582,-7.556787014007568,-3.5926976203918457
1701104435191167200,19.381167236328125,-0.38465332984924316,-8.400964736938477,-2.09898042678833
1701104435208163600,19.39816357421875,0.6777400970458984,-8.586607933044434,0.6099004745483398
1701104435225153300,19.4151533203125,1.4925779104232788,-7.961513996124268,4.174583435058594
1701104435242146300,19.432146240234374,1.224677562713623,-6.787820816040039,6.738677024841309
1701104435259137800,19.4491376953125,0.4474174976348877,-6.066348075866699,7.26247501373291
1701104435276130600,19.466130615234373,0.6142221093177795,-5.66939640045166,5.544966697692871
1701104435293122000,19.4831220703125,1.840742826461792,-5.010709762573242,3.123149871826172
1701104435310114300,19.5001142578125,2.8101491928100586,-3.776010513305664,1.3502311706542969
1701104435327106800,19.51710693359375,3.0288498401641846,-2.1668972969055176,0.4693765640258789
1701104435344099300,19.534099365234376,2.410224437713623,-0.8070540428161621,0.0988616943359375
1701104435361090800,19.5510908203125,1.5311498641967773,0.2172989845275879,0.040897369384765625
1701104435378083800,19.568083740234375,0.9678105115890503,0.9452915191650391,0.08089923858642578
1701104435395075300,19.585075439453124,0.991306483745575,1.4388043880462646,0.14516162872314453
1701104435412068000,19.602068115234374,1.5521769523620605,1.779679775238037,-0.11165857315063477
1701104435429059600,19.6190595703125,2.3523635864257812,2.13816499710083,-0.2630620002746582
1701104435446046500,19.63604638671875,2.884831190109253,2.456209897994995,0.17541027069091797
1701104435463043800,19.6530439453125,2.915825605392456,2.737952709197998,1.0861778259277344
1701104435480035300,19.670035400390624,2.418752431869507,2.824124813079834,1.8632569313049316
1701104435497030000,19.68702978515625,2.1277670860290527,3.0273828506469727,2.236206531524658
1701104435514021000,19.704021240234376,1.963883399963379,2.9856362342834473,2.516425132751465
1701104435531012900,19.721012939453125,2.101616621017456,2.9272994995117188,3.0542192459106445
1701104435548002800,19.7380029296875,2.4291365146636963,2.9395432472229004,3.994239330291748
1701104435564999700,19.754999755859377,2.4206840991973877,2.9794421195983887,5.259207248687744
1701104435581989600,19.77198974609375,2.312650203704834,3.209977149963379,6.257775783538818
1701104435598981600,19.788981689453124,2.130229949951172,3.319300651550293,6.547641277313232
1701104435615974400,19.805974365234373,1.9743472337722778,2.9748215675354004,6.69650411605835
1701104435632966000,19.8229658203125,1.443042516708374,2.034261703491211,7.366373538970947
1701104435649947100,19.839947021484374,0.5304490327835083,1.415555477142334,7.53954553604126
1701104435666951200,19.856951171875,0.07808136940002441,1.4116015434265137,7.032148838043213
1701104435683943200,19.873943115234376,0.4167773723602295,2.262178897857666,6.65657377243042
1701104435700934400,19.890934326171877,0.4940817356109619,3.1644911766052246,6.8972039222717285
1701104435717926000,19.90792578125,-0.2501397132873535,3.767659902572632,6.447121620178223
1701104435734920400,19.92492041015625,-0.9930431842803955,3.5903472900390625,5.345749855041504
1701104435751911700,19.94191162109375,-1.0761200189590454,2.806264877319336,4.415585517883301
1701104435768903200,19.958903076171875,-0.6248148679733276,1.559192180633545,4.380423069000244
1701104435785896000,19.97589599609375,-0.5007714033126831,0.2198500633239746,4.785284042358398
1701104435802888000,19.992887939453126,-0.9714194536209106,-0.5932612419128418,4.960432052612305
1701104435819880400,20.00988037109375,-1.7764891386032104,-0.8057074546813965,4.634268283843994
1701104435836872400,20.02687255859375,-2.5193612575531006,-0.9091653823852539,3.766110420227051
1701104435853864700,20.04386474609375,-2.9662585258483887,-1.4091129302978516,2.958268165588379
1701104435870856400,20.0608564453125,-2.953270435333252,-2.0702133178710938,2.4039363861083984
1701104435887849000,20.077848876953126,-2.760244846343994,-2.578011989593506,1.8278112411499023
1701104435904840700,20.0948408203125,-2.484109878540039,-2.8083314895629883,0.9107341766357422
1701104435921833500,20.11183349609375,-1.842383861541748,-2.8476104736328125,-0.38701629638671875
1701104435938825200,20.1288251953125,-0.7264394760131836,-3.0090408325195312,-1.4431219100952148
1701104435955807500,20.145807373046875,0.4135652780532837,-3.63924503326416,-1.8693122863769531
1701104435972807400,20.162807373046874,1.2541476488113403,-3.9020485877990723,-2.5264053344726562
1701104435989804300,20.17980419921875,1.4935554265975952,-3.6955924034118652,-3.539592742919922
1701104436006794000,20.1967939453125,1.2290672063827515,-3.3704617023468018,-4.407495975494385
1701104436023786800,20.213786865234376,0.8962714672088623,-3.095149040222168,-4.98130464553833
1701104436040777500,20.230777587890625,0.5739157199859619,-3.039294719696045,-5.299200534820557
1701104436057771000,20.24777099609375,0.45234668254852295,-2.9966635704040527,-5.4932541847229
1701104436074762800,20.2647626953125,0.38562941551208496,-3.0563406944274902,-5.620012283325195
1701104436091755300,20.28175537109375,0.40733957290649414,-3.123600482940674,-5.853195667266846
1701104436108747000,20.2987470703125,0.5529184341430664,-3.2893548011779785,-6.09019136428833
1701104436125739800,20.31573974609375,0.7075012922286987,-3.6146838665008545,-6.055423736572266
1701104436142731300,20.332731201171875,0.94073486328125,-3.832592725753784,-5.805832386016846
1701104436159723000,20.349722900390624,1.3091429471969604,-3.802464485168457,-5.133988857269287
1701104436176717000,20.366717041015626,1.1931204795837402,-4.071555137634277,-4.013481616973877
1701104436193705700,20.383705810546875,0.5965205430984497,-4.629236698150635,-3.283723831176758
1701104436210700500,20.400700439453125,0.16555309295654297,-5.600369930267334,-2.331608772277832
1701104436227692800,20.41769287109375,0.01945936679840088,-6.231801986694336,-2.21817684173584
1701104436244684500,20.4346845703125,0.20955801010131836,-6.40141487121582,-2.219789505004883
1701104436261677300,20.45167724609375,0.9353364706039429,-6.021014213562012,-0.9613533020019531
1701104436278669000,20.4686689453125,1.3975123167037964,-5.718237400054932,1.356414794921875
1701104436295650300,20.485650390625,1.7626111507415771,-5.570651054382324,3.5067901611328125
1701104436312650800,20.502650634765626,2.2190873622894287,-5.373432636260986,4.258828163146973
1701104436329646000,20.51964599609375,3.1710257530212402,-5.003138065338135,3.7585201263427734
1701104436346640100,20.53664013671875,4.191397666931152,-4.011602401733398,2.4939355850219727
1701104436363630800,20.553630859375,4.629571914672852,-2.5719799995422363,1.304743766784668
1701104436380621800,20.570621826171877,4.004958629608154,-1.2105774879455566,0.7608489990234375
1701104436397614800,20.58761474609375,2.953387498855591,0.008110523223876953,0.9029216766357422
1701104436414606600,20.604606689453124,1.935405969619751,1.095846176147461,0.9736757278442383
1701104436431599000,20.62159912109375,1.105249047279358,1.9355087280273438,0.7900371551513672
1701104436448590600,20.638590576171875,0.8485158681869507,2.9284300804138184,0.2385997772216797
1701104436465583400,20.655583251953125,0.7086408138275146,3.8160109519958496,-0.4707221984863281
1701104436482575000,20.6725751953125,0.44537389278411865,4.374932289123535,-0.8571124076843262
1701104436499568000,20.689568115234376,0.06615877151489258,4.654324054718018,-0.4494290351867676
1701104436516559600,20.7065595703125,-0.08428633213043213,5.233384132385254,0.029689788818359375
1701104436533552000,20.72355224609375,-0.29610753059387207,5.8350019454956055,-0.1562824249267578
1701104436550544000,20.7405439453125,-0.517842710018158,6.215270519256592,-0.7763657569885254
1701104436567520300,20.757520263671875,-0.620536208152771,6.295687198638916,-1.2273592948913574
1701104436584528100,20.774528076171876,-0.6051181554794312,6.014645576477051,-1.1590356826782227
1701104436601521000,20.79152099609375,-0.3270430564880371,5.758430004119873,-0.6441078186035156
1701104436618512600,20.8085126953125,0.022816836833953857,5.5008955001831055,0.24780702590942383
1701104436635503000,20.825503173828125,-0.12440431118011475,5.065347194671631,1.0051641464233398
1701104436652499200,20.842499267578123,-0.5749984383583069,4.8614044189453125,1.5210466384887695
1701104436669489700,20.85948974609375,-1.3812055587768555,4.5856828689575195,2.129387378692627
1701104436686481400,20.8764814453125,-2.1531293392181396,3.7511560916900635,2.9052743911743164
1701104436703474200,20.89347412109375,-2.456932544708252,2.468590259552002,4.141598701477051
1701104436720465700,20.910465576171877,-2.0842442512512207,1.7055459022521973,5.446744918823242
1701104436737458400,20.92745849609375,-1.639136552810669,0.3641648292541504,7.412415027618408
1701104436754450200,20.9444501953125,-1.687063217163086,-2.9751205444335938,10.368863105773926
1701104436771442000,20.96144189453125,-0.8915071487426758,-5.40037202835083,11.726860046386719
1701104436788435500,20.978435546875,0.48592329025268555,-5.248462677001953,11.82447338104248
1701104436805427200,20.99542724609375,0.64485764503479,-4.083949565887451,12.319940567016602
1701104436822406400,21.012406494140624,0.3125087022781372,-3.703007698059082,12.730648040771484
1701104436839402800,21.02940283203125,0.38991355895996094,-4.07264518737793,12.40153694152832
1701104436856392400,21.046392333984375,1.001849889755249,-4.817094802856445,11.176560401916504
1701104436873398500,21.0633984375,1.761629581451416,-4.820183753967285,8.659361839294434
1701104436890387700,21.0803876953125,2.3382391929626465,-3.83933162689209,5.185498237609863
1701104436907380500,21.09738037109375,2.561418056488037,-2.8185839653015137,2.08685302734375
1701104436924372000,21.1143720703125,2.4050209522247314,-2.3554928302764893,-0.17710208892822266
1701104436941364700,21.13136474609375,2.0885915756225586,-2.3868913650512695,-1.880173683166504
1701104436958356500,21.1483564453125,1.910675287246704,-2.669800043106079,-3.3156700134277344
1701104436975338500,21.16533837890625,2.072545051574707,-2.8431386947631836,-4.499032974243164
1701104436992340500,21.182340576171875,2.3234028816223145,-3.0617668628692627,-5.349551200866699
1701104437009329700,21.19932958984375,2.4662585258483887,-3.3217058181762695,-6.040684700012207
1701104437026328600,21.21632861328125,2.4900851249694824,-3.5139145851135254,-6.773731231689453
1701104437043318000,21.233318115234376,2.2775559425354004,-3.7637667655944824,-7.458611965179443
1701104437060315600,21.250315673828126,1.8471006155014038,-4.148468017578125,-8.045595169067383
1701104437077302300,21.26730224609375,1.4480375051498413,-4.423241138458252,-8.503202438354492
1701104437094283500,21.284283447265626,1.3154593706130981,-4.6522016525268555,-8.816669464111328
1701104437111290000,21.3012900390625,1.3895676136016846,-4.959732532501221,-8.922296524047852
1701104437128275000,21.31827490234375,1.8769116401672363,-5.108608245849609,-8.783016204833984
1701104437145270800,21.335270751953125,2.4319634437561035,-5.096081733703613,-8.211812019348145
1701104437162266400,21.352266357421875,2.526823043823242,-5.19973087310791,-7.083709239959717
1701104437179255000,21.369255126953124,2.244706630706787,-5.51375675201416,-5.807095527648926
1701104437196247000,21.3862470703125,1.6107573509216309,-6.417022705078125,-4.867153167724609
1701104437213223200,21.40322314453125,1.3750989437103271,-7.020718574523926,-4.538070201873779
1701104437230231300,21.420231201171877,1.750511646270752,-7.2940993309021,-4.311241626739502
1701104437247211000,21.4372109375,1.988377332687378,-8.071741104125977,-3.2485618591308594
1701104437264210400,21.45421044921875,1.7985272407531738,-8.980698585510254,-1.8622961044311523
1701104437281204000,21.471203857421877,1.7994080781936646,-9.981233596801758,-0.13829708099365234
1701104437298193200,21.488193115234374,2.0581071376800537,-10.835227966308594,1.902632713317871
1701104437315192800,21.50519287109375,1.9283950328826904,-11.011809349060059,3.839144706726074
1701104437332184300,21.522184326171875,1.8869489431381226,-10.349769592285156,6.219659805297852
1701104437349177000,21.539177001953124,1.4401602745056152,-9.039959907531738,8.52618408203125
1701104437366168600,21.55616845703125,0.551676869392395,-7.154050350189209,9.825221061706543
1701104437383148500,21.5731484375,-0.4580070972442627,-4.448513031005859,9.157135963439941
1701104437400142800,21.590142822265626,-1.5951510667800903,-1.8197436332702637,7.159516334533691
1701104437417136400,21.607136474609376,-2.592803955078125,0.32843685150146484,4.704981803894043
1701104437434127600,21.624127685546874,-2.853854179382324,1.6250786781311035,2.9124298095703125
