time,seconds_elapsed,z,y,x
1701893342582034000,0.173033935546875,-0.614436149597168,0.27226924896240234,0.2649221420288086
1701893342599023900,0.19002392578125,-0.8127899169921875,0.15067028999328613,0.4948115348815918
1701893342616017700,0.207017578125,-1.3575639724731445,0.09628844261169434,0.7494356632232666
1701893342633003300,0.224003173828125,-1.9230213165283203,-0.13931536674499512,0.768944501876831
1701893342649994200,0.240994140625,-2.3052549362182617,-0.4536314010620117,0.6307551860809326
1701893342666989800,0.25798974609375,-2.2551960945129395,-0.793004035949707,0.30848217010498047
1701893342683975700,0.2749755859375,-1.6231865882873535,-1.2505574226379395,-0.266110897064209
1701893342700968700,0.29196875,-1.1007380485534668,-1.733076572418213,-0.8766343593597412
1701893342717947400,0.308947509765625,-1.800112247467041,-1.721182107925415,-1.0978302955627441
1701893342734947000,0.325947021484375,-4.050042152404785,-1.9844379425048828,-0.6215853691101074
1701893342751938300,0.342938232421875,-5.247767448425293,-1.9727563858032227,-0.46574974060058594
1701893342768930300,0.359930419921875,-4.739504337310791,-2.1250147819519043,-0.7110595703125
1701893342785921500,0.376921630859375,-3.2069575786590576,-2.506906747817993,-1.008450984954834
1701893342802910700,0.39391064453125,-1.1065444946289062,-2.890428066253662,-1.3147621154785156
1701893342819902700,0.41090283203125,0.1628265380859375,-3.013941764831543,-1.702199935913086
1701893342836897800,0.427897705078125,0.275327205657959,-2.8915646076202393,-2.017824649810791
1701893342853878500,0.44487841796875,-1.3281292915344238,-2.5638692378997803,-2.272587776184082
1701893342870874400,0.461874267578125,-2.9965200424194336,-2.58849835395813,-1.7486329078674316
1701893342887865600,0.478865478515625,-2.8176417350769043,-2.3812012672424316,-1.1247949600219727
1701893342904856600,0.495856689453125,-0.8249155282974243,-1.9548735618591309,-0.7623233795166016
1701893342921844500,0.512844482421875,0.7867763042449951,-1.634155511856079,-0.4614095687866211
1701893342938835700,0.529835693359375,0.9778107404708862,-1.3458917140960693,-0.0684366226196289
1701893342955829000,0.5468291015625,0.16729283332824707,-0.838080644607544,0.4204435348510742
1701893342972815600,0.563815673828125,-0.828669548034668,-0.5834062695503235,0.7556982040405273
1701893342989809400,0.580809326171875,-0.3938266634941101,-0.4175735116004944,1.2052717208862305
1701893343006806300,0.59780615234375,1.0826870203018188,-0.10113485157489777,2.000272750854492
1701893343023787300,0.614787353515625,2.137378215789795,0.2079581618309021,2.9171390533447266
1701893343040777700,0.63177783203125,2.1466102600097656,0.45036816596984863,3.2836055755615234
1701893343057774300,0.6487744140625,1.3107507228851318,0.6311278343200684,3.0565109252929688
1701893343074759700,0.665759765625,0.27380239963531494,0.7249796390533447,2.7956933975219727
1701893343091752700,0.682752685546875,-0.43251344561576843,0.9362001419067383,2.552617073059082
1701893343108742100,0.6997421875,-0.6432899236679077,1.0766615867614746,2.4184913635253906
1701893343125736000,0.71673583984375,-0.7094457149505615,1.0964183807373047,2.313474655151367
1701893343142720500,0.733720458984375,-0.6093153357505798,0.9117507934570312,2.2748031616210938
1701893343159714800,0.75071484375,-0.17095649242401123,0.6845712661743164,2.290835380554199
1701893343176706000,0.7677060546875,0.3067767024040222,0.47454071044921875,2.598409652709961
1701893343193694000,0.78469384765625,0.7738552093505859,0.4594259262084961,3.140080451965332
1701893343210686200,0.801686279296875,1.1554895639419556,0.6437692642211914,3.5196409225463867
1701893343227677200,0.81867724609375,1.2471299171447754,0.7343249320983887,3.734055519104004
1701893343244658400,0.835658447265625,1.1405771970748901,0.6516714096069336,3.7600088119506836
1701893343261655800,0.85265576171875,1.054606318473816,0.42101287841796875,3.616230010986328
1701893343278636300,0.86963623046875,1.0504244565963745,0.276947021484375,3.2946276664733887
1701893343295638000,0.886637939453125,0.7978134751319885,-0.023062705993652344,3.092813014984131
1701893343312632000,0.903632080078125,0.4393143951892853,-0.4711465835571289,2.785706043243408
1701893343329623800,0.920623779296875,0.5279300212860107,-0.8425850868225098,2.222496509552002
1701893343346615000,0.937614990234375,0.9845797419548035,-0.799250602722168,1.6127219200134277
1701893343363600000,0.954599853515625,1.5428054332733154,-0.11922836303710938,1.0470318794250488
1701893343380582100,0.97158203125,1.8077137470245361,0.7139315605163574,0.6418442726135254
1701893343397583600,0.98858349609375,1.7779642343521118,1.0129690170288086,0.4827256202697754
1701893343414574000,1.005573974609375,1.533698320388794,0.6985902786254883,0.522707462310791
1701893343431562200,1.022562255859375,1.1376867294311523,0.20788240432739258,0.4403839111328125
1701893343448554200,1.03955419921875,0.6300163269042969,-0.04221343994140625,0.11777019500732422
1701893343465548000,1.056548095703125,0.01312941312789917,-0.06308460235595703,-0.1359701156616211
1701893343482530300,1.0735302734375,-0.5361756682395935,0.15958213806152344,-0.3063960075378418
1701893343499529500,1.090529541015625,-0.7372121810913086,0.419525146484375,-0.2585105895996094
1701893343516518100,1.10751806640625,-0.506133496761322,0.4550304412841797,0.26921558380126953
1701893343533505800,1.124505859375,-0.14393490552902222,0.4702167510986328,0.9698424339294434
1701893343550498300,1.141498291015625,0.20645737648010254,0.6820135116577148,1.5435009002685547
1701893343567478000,1.15847802734375,0.2052244246006012,0.9530954360961914,1.9208483695983887
1701893343584479500,1.1754794921875,-0.07804727554321289,1.4040098190307617,2.233983039855957
1701893343601463800,1.1924638671875,-0.37563177943229675,2.1019725799560547,2.467221260070801
1701893343618460000,1.2094599609375,-0.7398400902748108,2.6903038024902344,2.5832910537719727
1701893343635453400,1.226453369140625,-1.2910937070846558,3.1699905395507812,2.5767831802368164
1701893343652440600,1.243440673828125,-1.9382843971252441,3.6594810485839844,2.358928680419922
1701893343669433300,1.260433349609375,-2.6034152507781982,4.061548709869385,2.088127613067627
1701893343686422500,1.277422607421875,-2.975405693054199,4.345477104187012,1.7694807052612305
1701893343703413500,1.29441357421875,-2.860539436340332,4.5362019538879395,1.5431618690490723
1701893343720406800,1.31140673828125,-2.4375956058502197,4.7260847091674805,1.3260741233825684
1701893343737391600,1.3283916015625,-2.017805814743042,4.921926021575928,1.0893821716308594
1701893343754397200,1.345397216796875,-1.770639419555664,5.14772891998291,0.724205493927002
1701893343771382500,1.362382568359375,-1.5414669513702393,5.361075401306152,0.20758676528930664
1701893343788366300,1.379366455078125,-1.4008562564849854,5.376034259796143,-0.21729087829589844
1701893343805358000,1.396358154296875,-1.387190341949463,5.1422834396362305,-0.36460351943969727
1701893343822335500,1.41333544921875,-1.447331190109253,4.937412738800049,-0.495908260345459
1701893343839338500,1.43033837890625,-1.6568776369094849,4.53306770324707,-0.6036872863769531
1701893343856328200,1.447328125,-1.8509465456008911,4.103091239929199,-0.7769904136657715
1701893343873320000,1.46431982421875,-1.8376721143722534,3.3491907119750977,-0.8437089920043945
1701893343890311400,1.4813115234375,-1.744436502456665,2.6318864822387695,-0.8272824287414551
1701893343907302100,1.49830224609375,-1.7023274898529053,2.0989294052124023,-0.7229208946228027
1701893343924289000,1.5152890625,-1.780995488166809,1.8006830215454102,-0.49231672286987305
1701893343941280500,1.532280517578125,-1.585618257522583,1.779951572418213,-0.15368413925170898
1701893343958271700,1.549271728515625,-1.0880188941955566,0.9605607986450195,0.9655590057373047
1701893343975265500,1.566265625,-0.6181500554084778,-0.36811065673828125,2.3792171478271484
1701893343992251100,1.583251220703125,-0.07852104306221008,-1.1445565223693848,3.3070507049560547
1701893344009245700,1.60024560546875,0.4495898485183716,-2.474882125854492,4.9745283126831055
1701893344026236200,1.617236083984375,0.4202064871788025,-5.906184673309326,8.773324966430664
1701893344043224000,1.63422412109375,0.48995164036750793,-10.15328598022461,12.339669227600098
1701893344060214000,1.651214111328125,1.4013952016830444,-11.001646041870117,12.030729293823242
1701893344077208300,1.668208251953125,3.2924458980560303,-7.177534103393555,9.828452110290527
1701893344094197200,1.685197265625,3.9776580333709717,-4.848146438598633,9.726424217224121
1701893344111189500,1.702189453125,3.3581409454345703,-4.213017463684082,9.699178695678711
1701893344128174800,1.7191748046875,1.8891624212265015,-5.168710708618164,8.818951606750488
1701893344145165000,1.7361650390625,1.536719560623169,-6.033980369567871,6.272902488708496
1701893344162156800,1.75315673828125,1.8174362182617188,-5.691799163818359,2.1681413650512695
1701893344179149300,1.7701494140625,1.9772933721542358,-4.6214680671691895,-1.7098121643066406
1701893344196143400,1.787143310546875,1.9501714706420898,-3.366454839706421,-4.491481781005859
1701893344213130800,1.804130859375,1.7787373065948486,-2.3815219402313232,-6.219576358795166
1701893344230122000,1.8211220703125,1.4094518423080444,-1.793138861656189,-7.329939842224121
1701893344247115000,1.838114990234375,0.8939440846443176,-1.4344558715820312,-8.039800643920898
1701893344264105500,1.85510546875,0.49463945627212524,-1.1869187355041504,-8.425718307495117
1701893344281095700,1.872095703125,0.242885023355484,-0.9873525500297546,-8.712373733520508
1701893344298084600,1.889084716796875,-0.0293293297290802,-0.7997469305992126,-8.871037483215332
1701893344315078100,1.906078125,-0.3091420531272888,-0.630764365196228,-9.031930923461914
1701893344332063000,1.92306298828125,-0.6223059892654419,-0.5062123537063599,-9.183202743530273
1701893344349057000,1.94005712890625,-0.9615386724472046,-0.5461100339889526,-9.238799095153809
1701893344366048300,1.95704833984375,-1.4030303955078125,-0.8639488220214844,-9.247445106506348
1701893344383036000,1.974035888671875,-1.7576406002044678,-1.5217596292495728,-9.408217430114746
1701893344400024800,1.99102490234375,-1.4721791744232178,-2.2203094959259033,-9.863038063049316
1701893344417021400,2.008021484375,-0.6544972062110901,-2.607109546661377,-10.224396705627441
1701893344434006500,2.025006591796875,0.18806123733520508,-2.8549094200134277,-10.041556358337402
1701893344450997500,2.04199755859375,0.8403916954994202,-2.7970573902130127,-9.065655708312988
1701893344467991300,2.0589912109375,1.1524438858032227,-2.7905001640319824,-7.221662998199463
1701893344484981500,2.0759814453125,0.7817651629447937,-3.7192797660827637,-4.161895751953125
1701893344501971000,2.092970947265625,0.13242945075035095,-4.924079418182373,-0.7519025802612305
1701893344518961400,2.10996142578125,-0.2657835781574249,-5.415713787078857,1.2642021179199219
1701893344535950000,2.1269501953125,-1.2297347784042358,-5.732635498046875,2.547311782836914
1701893344552942300,2.1439423828125,-3.3668460845947266,-8.077003479003906,4.746560096740723
1701893344569923300,2.16092333984375,-4.457226276397705,-10.274890899658203,5.98182487487793
1701893344586927600,2.177927734375,-2.252068042755127,-11.475679397583008,7.326225280761719
1701893344603913000,2.194912841796875,1.1054527759552002,-9.834188461303711,9.005995750427246
1701893344620907000,2.211906982421875,2.980532646179199,-6.745486736297607,11.931324005126953
1701893344637894000,2.228893798828125,4.093750953674316,-4.200325965881348,15.277848243713379
1701893344654889700,2.2458896484375,4.216091156005859,-2.3985443115234375,16.16374969482422
1701893344671875600,2.26287548828125,2.1489076614379883,-0.7733654975891113,13.077998161315918
1701893344688870000,2.279869873046875,-1.09381103515625,0.8604803085327148,8.12229061126709
1701893344705859600,2.296859619140625,-3.3624629974365234,2.402332067489624,4.0445990562438965
1701893344722849000,2.31384912109375,-4.271556377410889,3.6881773471832275,1.558657169342041
1701893344739840300,2.33084033203125,-4.082520484924316,4.289674282073975,1.0221471786499023
1701893344756833800,2.347833740234375,-3.3193247318267822,4.939369201660156,1.5936517715454102
1701893344773816300,2.36481640625,-2.6907191276550293,5.641563415527344,1.5877375602722168
1701893344790816500,2.38181640625,-2.319694995880127,6.138542175292969,0.8238234519958496
1701893344807803000,2.398802978515625,-2.0733656883239746,6.409726142883301,-0.020695209503173828
1701893344824795000,2.415794921875,-1.6587533950805664,6.645350456237793,-0.953223705291748
1701893344841781500,2.432781494140625,-1.3062599897384644,6.7493157386779785,-1.7856802940368652
1701893344858775600,2.449775634765625,-1.053638219833374,6.71332311630249,-2.275615692138672
1701893344875766000,2.46676611328125,-0.7925856709480286,6.552654266357422,-2.431229591369629
1701893344892755200,2.483755126953125,-0.4060564637184143,6.304850101470947,-2.511009693145752
1701893344909746200,2.50074609375,-0.16499990224838257,5.792157173156738,-2.2857258319854736
1701893344926730000,2.51772998046875,0.08277702331542969,5.370449066162109,-1.5854988098144531
1701893344943725000,2.53472509765625,-0.003580629825592041,4.9173407554626465,-0.5006766319274902
1701893344960722700,2.55172265625,-0.33017826080322266,4.370201110839844,0.6768159866333008
1701893344977707800,2.568707763671875,-0.6029627323150635,3.9790687561035156,1.8849315643310547
1701893344994702000,2.5857021484375,-0.6928701996803284,3.8210573196411133,3.0396881103515625
1701893345011687400,2.6026875,-0.9301180839538574,3.5993475914001465,4.364597797393799
1701893345028681700,2.619681640625,-1.3055651187896729,2.9387340545654297,5.859467506408691
1701893345045673200,2.636673095703125,-1.2164584398269653,1.7389302253723145,7.256243705749512
1701893345062658600,2.653658447265625,-0.6464637517929077,-0.09664154052734375,8.708895683288574
1701893345079661300,2.670661376953125,-0.39858677983283997,-3.373572826385498,11.255325317382812
1701893345096640300,2.68764013671875,-0.3110582232475281,-6.874780654907227,12.488510131835938
1701893345113633300,2.70463330078125,0.23310665786266327,-9.246030807495117,11.907968521118164
1701893345130629600,2.721629638671875,1.6809524297714233,-9.336692810058594,10.671565055847168
1701893345147618000,2.7386181640625,3.0121231079101562,-8.066089630126953,10.293425559997559
1701893345164605200,2.755605224609375,3.600893974304199,-7.12300443649292,9.959372520446777
1701893345181593600,2.772593505859375,3.5968446731567383,-6.437510967254639,8.462539672851562
1701893345198587000,2.7895869140625,3.0606882572174072,-6.126279830932617,6.274894714355469
1701893345215580000,2.806579833984375,2.530787706375122,-5.721944808959961,3.3790817260742188
1701893345232559600,2.8235595703125,2.1031506061553955,-4.7936110496521,0.3255929946899414
1701893345249558500,2.84055859375,1.7535581588745117,-3.477354049682617,-2.142557144165039
1701893345266564000,2.857564208984375,1.352567434310913,-2.3498144149780273,-3.7193026542663574
1701893345283537400,2.874537353515625,0.6900129318237305,-1.6282305717468262,-4.664902687072754
1701893345300535800,2.891535888671875,0.1339973509311676,-1.2810955047607422,-5.365888595581055
1701893345317517300,2.908517333984375,-0.09538368880748749,-1.0309336185455322,-6.170480728149414
1701893345334514400,2.925514404296875,-0.048510968685150146,-0.858936071395874,-6.804769992828369
1701893345351500500,2.94250048828125,0.13126595318317413,-0.6968607902526855,-7.2466888427734375
1701893345368494300,2.959494384765625,0.2849428951740265,-0.6510757207870483,-7.537384986877441
1701893345385484800,2.97648486328125,0.2821652591228485,-0.6770001649856567,-7.778031349182129
1701893345402470100,2.99347021484375,0.05237297713756561,-0.8828123807907104,-7.901856422424316
1701893345419467300,3.01046728515625,-0.3371906578540802,-1.3012615442276,-7.991277694702148
1701893345436458200,3.027458251953125,-0.8675680756568909,-1.845813274383545,-8.210887908935547
1701893345453443000,3.044443115234375,-1.1979478597640991,-2.468975067138672,-8.621866226196289
1701893345470436400,3.061436279296875,-1.1498011350631714,-3.123699426651001,-8.947364807128906
1701893345487429400,3.078429443359375,-0.7977951765060425,-3.7790632247924805,-9.214347839355469
1701893345504424200,3.095424072265625,-0.11236903816461563,-4.363825798034668,-9.225335121154785
1701893345521405700,3.11240576171875,0.62607741355896,-4.844106674194336,-8.567886352539062
1701893345538399000,3.12939892578125,1.0854908227920532,-5.2945404052734375,-6.8435516357421875
1701893345555391200,3.14639111328125,0.8602622747421265,-5.604797840118408,-4.720095157623291
1701893345572380000,3.1633798828125,0.09156365692615509,-5.593169689178467,-2.662175178527832
1701893345589371600,3.18037158203125,-0.4436371922492981,-5.227237701416016,-1.4455680847167969
1701893345606362600,3.197362548828125,-0.79236900806427,-5.841622352600098,0.7178258895874023
1701893345623353900,3.214353759765625,-1.731541633605957,-6.998744487762451,3.1714181900024414
1701893345640344800,3.2313447265625,-1.418867588043213,-7.852287769317627,4.801060676574707
1701893345657324500,3.248324462890625,0.4476902484893799,-6.861447334289551,6.1280059814453125
1701893345674318300,3.265318359375,2.02797269821167,-4.317129135131836,7.377516746520996
1701893345691315500,3.2823154296875,2.3186774253845215,-2.9880967140197754,8.332358360290527
1701893345708307700,3.2993076171875,1.441050410270691,-2.3074681758880615,7.295162200927734
1701893345725296600,3.316296630859375,0.3207935094833374,-2.3286523818969727,5.177202224731445
1701893345742285600,3.33328564453125,-0.5443500280380249,-1.9581904411315918,2.845640182495117
1701893345759278000,3.350278076171875,-1.245436191558838,-1.0597548484802246,1.5408391952514648
1701893345776272600,3.367272705078125,-1.8079116344451904,0.039876461029052734,1.6400585174560547
1701893345793259000,3.384259033203125,-2.330270290374756,0.9247713088989258,2.380974769592285
1701893345810251000,3.4012509765625,-2.7193667888641357,1.7899270057678223,3.178408145904541
1701893345827240700,3.41824072265625,-2.876941442489624,2.681898593902588,3.6817827224731445
1701893345844232200,3.435232177734375,-2.827641725540161,3.695176601409912,3.8207039833068848
1701893345861218300,3.45221826171875,-2.4191036224365234,4.568790435791016,3.420346736907959
1701893345878216200,3.46921630859375,-1.6230014562606812,5.2547383308410645,2.884355068206787
1701893345895200000,3.486199951171875,-0.8694437146186829,5.676092147827148,2.6417603492736816
1701893345912195000,3.503195068359375,-0.3794324994087219,6.1136155128479,2.367703914642334
1701893345929183200,3.520183349609375,-0.2805470824241638,6.2656049728393555,1.9411916732788086
1701893345946173400,3.53717333984375,-0.6244615316390991,6.057422637939453,1.419668197631836
1701893345963152400,3.55415234375,-0.9972989559173584,5.797759056091309,0.7099676132202148
1701893345980149200,3.571149169921875,-1.462843418121338,5.31387996673584,0.1436018943786621
1701893345997140200,3.58814013671875,-1.7757365703582764,4.772235870361328,-0.1812610626220703
1701893346014132500,3.605132568359375,-1.8424241542816162,4.0878496170043945,-0.21844005584716797
1701893346031122200,3.6221220703125,-1.6925857067108154,3.0372042655944824,0.6041078567504883
1701893346048115000,3.639114990234375,-1.3420225381851196,1.8717827796936035,1.875011920928955
1701893346065096400,3.656096435546875,-0.8660371899604797,0.8706269264221191,2.9551758766174316
1701893346082090800,3.6730908203125,-0.403925359249115,-0.5316176414489746,4.610349655151367
1701893346099083800,3.690083740234375,-0.3607831299304962,-3.089078426361084,7.441685676574707
1701893346116073200,3.7070732421875,-0.6258555054664612,-5.084348201751709,8.76569938659668
1701893346133071000,3.724071044921875,0.032314449548721313,-5.2861528396606445,8.732927322387695
1701893346150063900,3.74106396484375,0.8517130613327026,-4.99078369140625,9.552240371704102
1701893346167053000,3.758052978515625,1.4384794235229492,-5.300655364990234,10.755361557006836
1701893346184039000,3.775038818359375,1.6226778030395508,-6.005087375640869,10.934598922729492
1701893346201036300,3.792036376953125,1.5073041915893555,-6.0830888748168945,9.543452262878418
1701893346218025700,3.809025634765625,1.1969587802886963,-4.984798431396484,6.858694553375244
1701893346235016400,3.826016357421875,0.851948082447052,-3.3452138900756836,4.292692184448242
1701893346252003000,3.843003173828125,0.4111481308937073,-1.9504847526550293,2.3503408432006836
1701893346268996000,3.85999609375,-0.04600346088409424,-0.9591045379638672,0.8196601867675781
1701893346285988400,3.87698828125,-0.2140020728111267,-0.4074740409851074,-0.49358320236206055
1701893346302977800,3.893977783203125,-0.07352244853973389,-0.3200554847717285,-1.7726168632507324
1701893346319969500,3.910969482421875,0.11806756258010864,-0.3868284225463867,-3.2117233276367188
1701893346336958700,3.927958740234375,0.5465494394302368,-0.45554494857788086,-4.320197582244873
1701893346353950700,3.94495068359375,0.9871363639831543,-0.3332514762878418,-5.23300838470459
1701893346370937000,3.96193701171875,1.274389386177063,-0.15124154090881348,-5.931305408477783
1701893346387932400,3.978932373046875,1.3754642009735107,0.08904123306274414,-6.504745006561279
1701893346404928500,3.995928466796875,1.310415267944336,0.16576790809631348,-6.845970630645752
1701893346421913300,4.012913330078125,1.1009736061096191,0.08794236183166504,-7.220237731933594
1701893346438900500,4.029900390625,0.9753166437149048,-0.0430910587310791,-7.868216514587402
1701893346455893500,4.0468935546875,0.9111981391906738,-0.18677735328674316,-8.554304122924805
1701893346472885800,4.0638857421875,0.827289342880249,-0.33375513553619385,-9.14675521850586
1701893346489875700,4.080875732421875,0.9200215935707092,-0.5398564338684082,-9.537200927734375
1701893346506865400,4.097865478515625,1.1017231941223145,-0.7715096473693848,-9.634346961975098
1701893346523860500,4.114860595703125,1.2356042861938477,-0.8893029689788818,-9.383315086364746
1701893346540840400,4.13184033203125,1.2184114456176758,-1.0340908765792847,-8.869003295898438
1701893346557833000,4.1488330078125,1.4326225519180298,-1.1963386535644531,-7.817599296569824
1701893346574828000,4.165828125,1.73606538772583,-1.5590629577636719,-6.204161167144775
1701893346591819500,4.182819580078125,1.7786191701889038,-2.2088043689727783,-4.060751438140869
1701893346608798500,4.199798583984375,1.5218688249588013,-2.940751075744629,-1.5900707244873047
1701893346625800200,4.21680029296875,0.8006753325462341,-3.3259644508361816,-0.11864185333251953
1701893346642792400,4.23379248046875,-0.09879016876220703,-3.4802982807159424,0.6663455963134766
1701893346659780900,4.25078076171875,-1.2481061220169067,-4.432687759399414,2.104250907897949
1701893346676771300,4.267771240234375,-2.93704891204834,-6.506623268127441,3.5853443145751953
1701893346693760300,4.28476025390625,-3.784128427505493,-8.873613357543945,4.488614082336426
1701893346710752800,4.301752685546875,-2.0887913703918457,-10.194389343261719,4.8581390380859375
1701893346727744800,4.318744873046875,0.9673936367034912,-9.07939338684082,5.82814884185791
1701893346744733000,4.33573291015625,3.1315698623657227,-7.025803565979004,8.151647567749023
1701893346761715500,4.352715576171875,3.8149685859680176,-4.934818267822266,10.522134780883789
1701893346778715100,4.369715087890625,3.4153733253479004,-2.6645355224609375,11.239543914794922
1701893346795707100,4.38670703125,1.8452562093734741,-0.5178623199462891,9.761589050292969
1701893346812696300,4.4036962890625,-0.7035139799118042,1.68894624710083,6.316610813140869
1701893346829688600,4.4206884765625,-3.4425876140594482,3.337463140487671,2.8102612495422363
1701893346846667500,4.43766748046875,-4.982668399810791,4.262810707092285,0.6870059967041016
1701893346863669800,4.454669677734375,-4.7135009765625,4.610918045043945,0.02162313461303711
1701893346880659000,4.471658935546875,-3.253509521484375,4.970959663391113,-0.049096107482910156
1701893346897650700,4.488650634765625,-1.780194878578186,5.262207984924316,0.010357856750488281
1701893346914634500,4.505634521484375,-0.8266246318817139,5.832310676574707,-0.17527389526367188
1701893346931632000,4.522632080078125,-0.6038604974746704,6.478468894958496,-0.5967831611633301
1701893346948619800,4.539619873046875,-1.3668111562728882,6.696769714355469,-1.1398134231567383
1701893346965614800,4.55661474609375,-2.637737989425659,6.5932536125183105,-1.4990057945251465
1701893346982602800,4.573602783203125,-3.391923189163208,6.477092266082764,-1.8488397598266602
1701893346999594800,4.5905947265625,-3.54150390625,5.993081569671631,-1.7527737617492676
1701893347016583700,4.607583740234375,-3.3871912956237793,5.298640727996826,-1.3638896942138672
1701893347033575400,4.624575439453125,-3.2208595275878906,4.364806652069092,-0.8606972694396973
1701893347050565600,4.641565673828125,-3.009350061416626,3.5598907470703125,-0.39162302017211914
1701893347067544800,4.658544921875,-2.667541980743408,2.857390880584717,0.7108249664306641
1701893347084537000,4.675537109375,-2.6182734966278076,1.8795166015625,2.390340805053711
1701893347101541000,4.692541015625,-2.463003396987915,1.4079899787902832,3.4579973220825195
1701893347118517800,4.709517822265625,-1.8092164993286133,0.9888629913330078,4.709129333496094
1701893347135518200,4.726518310546875,-1.2621369361877441,-1.0763540267944336,7.534502029418945
1701893347152506400,4.74350634765625,-1.1417491436004639,-5.164278030395508,10.664678573608398
1701893347169496600,4.76049658203125,0.01644909381866455,-9.000480651855469,11.550741195678711
1701893347186474200,4.77747412109375,3.0799951553344727,-8.902685165405273,10.57421875
1701893347203473700,4.7944736328125,5.639599323272705,-5.2374114990234375,10.31383991241455
1701893347220467000,4.811467041015625,5.199965476989746,-3.529877185821533,11.687196731567383
1701893347237452000,4.8284521484375,3.6203858852386475,-2.653430938720703,11.627357482910156
1701893347254442500,4.8454423828125,1.348854422569275,-2.843428134918213,9.790918350219727
1701893347271436000,4.86243603515625,-0.6406419277191162,-3.6795854568481445,6.604347229003906
1701893347288425500,4.879425537109375,-1.1646506786346436,-3.703129291534424,2.4257569313049316
1701893347305415400,4.89641552734375,-1.2272825241088867,-2.8786001205444336,-1.3497867584228516
1701893347322410200,4.91341015625,-1.0449916124343872,-2.0483388900756836,-3.5484619140625
1701893347339410200,4.93041015625,-0.24650314450263977,-1.2435832023620605,-4.643614292144775
1701893347356396500,4.947396484375,0.6076885461807251,-0.6637921333312988,-5.183011054992676
1701893347373388300,4.96438818359375,1.094283103942871,-0.32640790939331055,-5.720457077026367
1701893347390378000,4.9813779296875,1.139125108718872,-0.1768784523010254,-6.35205078125
1701893347407367400,4.998367431640625,1.0236456394195557,-0.1030571460723877,-7.0375237464904785
1701893347424361500,5.015361572265625,0.9045922756195068,0.004334688186645508,-7.58570671081543
1701893347441351000,5.032350830078125,0.848540723323822,0.07583236694335938,-7.921957969665527
1701893347458339600,5.049339599609375,0.6509270668029785,0.07947087287902832,-8.10497760772705
1701893347475333000,5.0663330078125,0.25986337661743164,-0.06378483772277832,-8.063131332397461
1701893347492321300,5.0833212890625,0.29037803411483765,-0.29277753829956055,-7.864537239074707
1701893347509313500,5.1003134765625,0.668027400970459,-0.6521477699279785,-7.543107509613037
1701893347526302200,5.11730224609375,1.0777227878570557,-1.5480704307556152,-6.767214298248291
1701893347543295700,5.134295654296875,1.1419285535812378,-3.1305480003356934,-5.721925735473633
1701893347560285400,5.151285400390625,1.1355081796646118,-4.456733226776123,-5.134706497192383
1701893347577274000,5.168274169921875,1.4182242155075073,-5.424100875854492,-4.730720043182373
1701893347594262300,5.18526220703125,1.1922483444213867,-6.974499702453613,-3.302121639251709
1701893347611257300,5.20225732421875,0.12829995155334473,-8.731430053710938,-2.3613767623901367
1701893347628248000,5.219248046875,0.49824070930480957,-9.595645904541016,-1.818570613861084
1701893347645231400,5.2362314453125,2.0014655590057373,-9.425925254821777,-0.43439674377441406
1701893347662228000,5.25322802734375,2.2434730529785156,-8.874135971069336,2.0577659606933594
1701893347679220000,5.270219970703125,1.2659014463424683,-8.145772933959961,4.171072959899902
1701893347696209000,5.287208984375,0.28227293491363525,-6.813898086547852,5.374820709228516
1701893347713201200,5.304201171875,-0.6233267784118652,-5.381012439727783,6.185220718383789
1701893347730190600,5.321190673828125,-1.2391393184661865,-3.470625877380371,6.078531265258789
1701893347747182600,5.3381826171875,-2.010531425476074,-1.297518253326416,5.133082389831543
1701893347764171500,5.355171630859375,-2.530745029449463,0.4336671829223633,4.193169116973877
1701893347781167400,5.37216748046875,-2.3989272117614746,1.8706049919128418,3.459624767303467
1701893347798162200,5.389162109375,-1.2825427055358887,3.113126277923584,2.767853260040283
1701893347815134200,5.40613427734375,0.08904200792312622,4.064996719360352,1.881462574005127
1701893347832131300,5.42313134765625,1.4940392971038818,4.751458168029785,0.5944619178771973
1701893347849128000,5.4401279296875,2.4320316314697266,5.090658664703369,-0.8395862579345703
1701893347866106400,5.4571064453125,3.0030763149261475,5.1063690185546875,-1.8477058410644531
1701893347883107300,5.474107421875,3.369601011276245,4.991159915924072,-2.206371307373047
1701893347900096500,5.491096435546875,3.565046787261963,4.683869361877441,-2.060662269592285
1701893347917088500,5.508088623046875,3.485121250152588,4.4170122146606445,-1.9980463981628418
1701893347934078200,5.525078125,3.167332410812378,4.122430801391602,-1.9039678573608398
1701893347951070000,5.542070068359375,2.5960283279418945,3.9775524139404297,-1.4970383644104004
1701893347968058400,5.559058349609375,1.9641392230987549,3.9062893390655518,-0.22845792770385742
1701893347985041700,5.576041748046875,1.101187825202942,3.759087085723877,1.876096248626709
1701893348002040600,5.59304052734375,-0.05896483361721039,3.231748580932617,4.112593650817871
1701893348019042800,5.610042724609375,-1.2610501050949097,2.3111233711242676,6.064333438873291
1701893348036020700,5.627020751953125,-1.7705439329147339,1.417048454284668,7.667238235473633
1701893348053014300,5.64401416015625,-1.7084343433380127,0.19805049896240234,9.178861618041992
1701893348070000600,5.661000732421875,-1.8866655826568604,-2.868227005004883,11.570976257324219
1701893348086995200,5.6779951171875,-1.9539265632629395,-6.879682540893555,13.237739562988281
1701893348103981000,5.69498095703125,-0.8712548017501831,-8.149742126464844,11.339578628540039
1701893348120976100,5.71197607421875,1.0397182703018188,-4.864498138427734,7.268630504608154
1701893348137965800,5.7289658203125,2.3384933471679688,-2.1499667167663574,5.733245849609375
1701893348154957600,5.74595751953125,2.778717041015625,-0.6351466178894043,5.260913372039795
1701893348171943400,5.762943359375,2.6617345809936523,0.03653287887573242,4.613250255584717
1701893348188937700,5.779937744140625,1.8857518434524536,0.5267062187194824,3.000570774078369
1701893348205929500,5.796929443359375,1.0897958278656006,1.104985237121582,1.011399269104004
1701893348222920200,5.813920166015625,0.6092608571052551,1.678293228149414,-0.7775912284851074
1701893348239909000,5.8309091796875,0.36473774909973145,2.2441701889038086,-2.029529571533203
1701893348256901400,5.8479013671875,-0.04557570815086365,2.6826491355895996,-2.759434700012207
1701893348273890800,5.864890869140625,-0.5238428115844727,3.02835750579834,-3.3262152671813965
1701893348290882000,5.881882080078125,-1.0974401235580444,3.1622140407562256,-3.814281463623047
1701893348307869200,5.898869140625,-1.6054502725601196,3.093097448348999,-4.287038803100586
1701893348324863700,5.91586376953125,-2.014416217803955,2.925828218460083,-4.6438889503479
1701893348341853200,5.932853271484375,-2.2095775604248047,2.679532289505005,-4.968734264373779
1701893348358844400,5.949844482421875,-2.1870272159576416,2.1875782012939453,-5.198437690734863
1701893348375837000,5.9668369140625,-2.057697057723999,1.3701658248901367,-5.295390605926514
1701893348392824300,5.98382421875,-2.065904140472412,0.4929499626159668,-5.490886688232422
1701893348409815800,6.00081591796875,-2.0229275226593018,-0.016026973724365234,-5.9070329666137695
1701893348426797300,6.01779736328125,-1.8720743656158447,-0.5602145195007324,-5.676657199859619
1701893348443795000,6.034794921875,-1.923890471458435,-1.7275481224060059,-4.586348056793213
1701893348460788000,6.0517880859375,-2.0659000873565674,-3.092432975769043,-3.5204625129699707
1701893348477783000,6.068782958984375,-1.2669819593429565,-4.0587477684021,-2.75885009765625
1701893348494770400,6.0857705078125,0.03712739050388336,-4.996277332305908,-1.501497745513916
1701893348511759400,6.10275927734375,0.7928483486175537,-6.051756858825684,0.6322431564331055
1701893348528748000,6.119748046875,0.3014587163925171,-7.452914237976074,2.2911462783813477
1701893348545741600,6.136741455078125,-0.2577691078186035,-8.708243370056152,2.7047033309936523
1701893348562732300,6.153732177734375,0.23647546768188477,-9.207269668579102,2.4901771545410156
1701893348579721700,6.1707216796875,1.6337902545928955,-8.206631660461426,2.634343147277832
1701893348596714000,6.1877138671875,3.2764744758605957,-6.404611110687256,4.00450325012207
1701893348613700400,6.204700439453125,4.225743770599365,-4.629370212554932,5.514421463012695
1701893348630695400,6.2216953125,4.150087356567383,-2.8230791091918945,6.002131462097168
1701893348647684600,6.2386845703125,2.937045097351074,-1.2067537307739258,5.250432968139648
1701893348664674800,6.2556748046875,0.7334621548652649,0.2905592918395996,3.2162537574768066
1701893348681664800,6.272664794921875,-1.7228810787200928,1.7365942001342773,0.6472172737121582
1701893348698666800,6.289666748046875,-3.5530052185058594,2.899996757507324,-1.1795306205749512
1701893348715633200,6.306633056640625,-4.106359004974365,3.6558916568756104,-1.7536101341247559
1701893348732639200,6.32363916015625,-3.658531665802002,4.11574125289917,-1.335672378540039
1701893348749628000,6.3406279296875,-2.752260684967041,4.613545894622803,-0.7247333526611328
1701893348766612700,6.35761279296875,-2.1435937881469727,5.018590927124023,-0.5498461723327637
1701893348783612400,6.3746123046875,-2.104433298110962,5.218980312347412,-0.8843135833740234
1701893348800601300,6.391601318359375,-2.3205924034118652,5.26291561126709,-1.5559697151184082
1701893348817589200,6.40858935546875,-2.4481101036071777,5.088489532470703,-2.2677173614501953
1701893348834583000,6.4255830078125,-2.202418327331543,4.821714401245117,-2.6281442642211914
1701893348851568000,6.442568115234375,-1.962315559387207,4.462458610534668,-2.553741455078125
1701893348868564700,6.459564697265625,-1.5702974796295166,4.073207855224609,-2.1311264038085938
1701893348885555500,6.476555419921875,-1.2972939014434814,3.725020408630371,-1.66648530960083
1701893348902537500,6.493537353515625,-1.129122018814087,3.2654099464416504,-1.2045927047729492
1701893348919539500,6.51053955078125,-1.046378254890442,2.4843297004699707,-0.23569631576538086
1701893348936524300,6.527524169921875,-0.9983125925064087,1.659411907196045,0.7149310111999512
1701893348953516300,6.544516357421875,-0.7129985690116882,1.2235231399536133,1.371455192565918
1701893348970508300,6.56150830078125,-0.577451765537262,0.7037696838378906,3.173259735107422
1701893348987497500,6.57849755859375,-0.7942363023757935,-0.9624361991882324,6.108868598937988
1701893349004486000,6.59548583984375,-1.2717385292053223,-4.534731864929199,9.430597305297852
1701893349021479000,6.61247900390625,-1.3482328653335571,-8.40621566772461,11.061674118041992
1701893349038470700,6.629470703125,-0.2637256383895874,-7.910025596618652,9.00529670715332
1701893349055459800,6.6464599609375,0.588486909866333,-4.911164283752441,7.748051643371582
1701893349072451800,6.663451904296875,0.45241081714630127,-2.833669662475586,8.147408485412598
1701893349089441500,6.680441650390625,0.21874284744262695,-1.967860221862793,8.327139854431152
1701893349106433800,6.697433837890625,-0.24331682920455933,-2.320096969604492,6.931447982788086
1701893349123422200,6.714422119140625,-0.369601845741272,-2.8856940269470215,3.7592897415161133
1701893349140411600,6.73141162109375,-0.3995458483695984,-2.894927501678467,0.06677818298339844
1701893349157406500,6.748406494140625,-0.06935092806816101,-2.072834014892578,-3.0327157974243164
1701893349174396000,6.76539599609375,0.09757283329963684,-1.1868021488189697,-4.9870405197143555
1701893349191377700,6.782377685546875,0.13009053468704224,-0.4776611328125,-6.056888580322266
1701893349208381000,6.799380859375,0.244415745139122,0.0719304084777832,-6.659296035766602
1701893349225366500,6.816366455078125,0.5024234056472778,0.4428844451904297,-7.056187152862549
1701893349242360600,6.833360595703125,0.7264071106910706,0.6516163349151611,-7.326667785644531
1701893349259345400,6.850345458984375,1.0574920177459717,0.8245742321014404,-7.461380958557129
1701893349276339500,6.86733935546875,1.2183887958526611,0.8475782871246338,-7.487835884094238
1701893349293329200,6.8843291015625,1.1008734703063965,0.6979084014892578,-7.433541297912598
1701893349310321700,6.90132177734375,0.7261444926261902,0.33359599113464355,-7.3448286056518555
1701893349327299000,6.918299072265625,0.2753790020942688,-0.14502191543579102,-7.3557538986206055
1701893349344299300,6.93529931640625,0.4352911710739136,-0.3726174831390381,-7.378066062927246
1701893349361294000,6.952294189453125,1.1034735441207886,-0.32623863220214844,-7.062148094177246
1701893349378272500,6.9692724609375,1.6684057712554932,-0.6221649646759033,-5.8995208740234375
1701893349395273200,6.986273193359375,1.8961260318756104,-1.918614149093628,-3.445479393005371
1701893349412264400,7.003264404296875,1.9536662101745605,-3.7582480907440186,-0.7256488800048828
1701893349429254100,7.020254150390625,2.2894701957702637,-5.580187797546387,1.473017692565918
1701893349446245400,7.037245361328125,2.3931045532226562,-8.424514770507812,4.27705192565918
1701893349463223300,7.054223388671875,2.4641671180725098,-9.802495956420898,6.180580139160156
1701893349480220400,7.071220458984375,2.1606311798095703,-8.648061752319336,7.995920181274414
1701893349497208800,7.088208740234375,-0.10742563009262085,-6.6973185539245605,10.013075828552246
1701893349514202400,7.105202392578125,-1.816138744354248,-4.54860782623291,10.82806396484375
1701893349531198500,7.122198486328125,-1.1164482831954956,-3.5901007652282715,10.71152400970459
1701893349548179200,7.13917919921875,1.387430191040039,-3.081850051879883,9.260584831237793
1701893349565169700,7.156169677734375,3.609412908554077,-1.483652114868164,6.508129119873047
1701893349582157000,7.173156982421875,3.9646189212799072,0.49987363815307617,4.201869964599609
1701893349599150800,7.19015087890625,2.267388105392456,1.9678449630737305,2.7168502807617188
1701893349616143000,7.20714306640625,-0.15345218777656555,2.9748926162719727,1.3539400100708008
1701893349633131500,7.224131591796875,-2.0083320140838623,3.5652425289154053,-0.1225137710571289
1701893349650133500,7.241133544921875,-2.792478322982788,3.8783116340637207,-1.6076483726501465
1701893349667123500,7.25812353515625,-2.672649383544922,3.8880743980407715,-2.617033004760742
1701893349684115000,7.275114990234375,-2.1050777435302734,3.8185510635375977,-3.0804271697998047
1701893349701101300,7.292101318359375,-1.6074315309524536,3.8519644737243652,-3.122622013092041
1701893349718096400,7.309096435546875,-1.6737167835235596,3.888845205307007,-3.0002293586730957
1701893349735085300,7.326085205078125,-2.220548152923584,3.893157958984375,-2.8219213485717773
1701893349752077300,7.343077392578125,-2.8516039848327637,3.773266077041626,-2.5239243507385254
1701893349769049300,7.36004931640625,-3.1151232719421387,3.5902671813964844,-1.7175817489624023
1701893349786061300,7.377061279296875,-2.986100196838379,3.4239630699157715,-0.2913370132446289
1701893349803043300,7.394043212890625,-2.7400147914886475,3.012864112854004,1.1705217361450195
1701893349820037400,7.411037353515625,-2.668163537979126,2.2572789192199707,2.5236687660217285
1701893349837029600,7.428029541015625,-2.767695665359497,1.2795796394348145,3.965785026550293
1701893349854023400,7.4450234375,-3.4418158531188965,0.3834390640258789,5.186025142669678
1701893349871012600,7.4620126953125,-4.419914245605469,-1.0629239082336426,6.51358699798584
1701893349888004600,7.479004638671875,-5.478562355041504,-2.429187774658203,6.998053550720215
1701893349904993800,7.495993896484375,-5.622228145599365,-3.250955581665039,6.713167667388916
1701893349921984000,7.51298388671875,-4.413448810577393,-3.192564010620117,6.109109878540039
1701893349938973200,7.52997314453125,-2.381753444671631,-2.2627272605895996,5.393765926361084
1701893349955964400,7.54696435546875,-0.5705356597900391,-1.5111327171325684,5.016534328460693
1701893349972955400,7.563955322265625,0.36204034090042114,-1.6648149490356445,4.861453533172607
1701893349989944000,7.580944091796875,-0.0404471755027771,-2.216116428375244,4.0911126136779785
1701893350006938400,7.5979384765625,-1.2549635171890259,-2.5815987586975098,2.748202323913574
1701893350023925000,7.614925048828125,-2.273742437362671,-2.5234622955322266,1.3033809661865234
1701893350040917200,7.631917236328125,-2.5849769115448,-2.4376096725463867,0.40337085723876953
1701893350057909200,7.6489091796875,-2.3595757484436035,-2.7975611686706543,0.30749988555908203
1701893350074898200,7.665898193359375,-1.9831587076187134,-3.019529342651367,0.15746593475341797
1701893350091887600,7.6828876953125,-1.555812120437622,-3.0128355026245117,-0.3836479187011719
1701893350108879400,7.69987939453125,-0.9356800317764282,-2.6413259506225586,-1.3330469131469727
1701893350125872000,7.7168720703125,-0.15565714240074158,-2.3991518020629883,-2.149616241455078
1701893350142862300,7.7338623046875,0.7416538000106812,-2.386854648590088,-2.749664306640625
1701893350159851500,7.7508515625,1.5842009782791138,-2.455716848373413,-3.4641857147216797
1701893350176832000,7.76783203125,2.1867194175720215,-2.4660048484802246,-4.252330303192139
1701893350193834200,7.784834228515625,2.592344284057617,-2.3164801597595215,-5.117260932922363
1701893350210820400,7.8018203125,2.8564889430999756,-2.1086983680725098,-5.723028182983398
1701893350227801900,7.8188017578125,3.0101795196533203,-2.183257579803467,-5.838104248046875
1701893350244802300,7.83580224609375,3.1391000747680664,-2.3176095485687256,-5.935507297515869
1701893350261799400,7.85279931640625,3.177903890609741,-2.257643699645996,-6.219634532928467
1701893350278788000,7.8697880859375,3.0058584213256836,-2.1578385829925537,-6.324671268463135
1701893350295776300,7.8867763671875,2.5019309520721436,-1.9701571464538574,-6.291942596435547
1701893350312770300,7.903770263671875,1.8427033424377441,-1.923384428024292,-6.147294998168945
1701893350329759700,7.920759765625,1.2469549179077148,-1.9801490306854248,-6.139061450958252
1701893350346738200,7.93773828125,0.935824453830719,-2.0932974815368652,-6.181171417236328
1701893350363740700,7.95474072265625,0.8704521059989929,-2.265519618988037,-6.2070746421813965
1701893350380728600,7.971728515625,1.123711347579956,-2.5000197887420654,-5.727713584899902
1701893350397724000,7.988723876953125,1.546910047531128,-2.873664379119873,-4.439864635467529
1701893350414711600,8.005711669921874,1.6869057416915894,-3.7226648330688477,-2.5139856338500977
1701893350431714300,8.02271435546875,1.3811620473861694,-4.786789894104004,-0.6550302505493164
1701893350448693200,8.039693359375,0.9680017828941345,-5.921782493591309,0.5090627670288086
1701893350465683700,8.05668359375,1.0198065042495728,-7.043524742126465,0.8077812194824219
1701893350482675000,8.073675048828125,1.95705246925354,-7.38913631439209,0.8708305358886719
1701893350499665700,8.090665771484375,3.8525257110595703,-6.505216121673584,1.8408136367797852
1701893350516655400,8.1076552734375,5.035399436950684,-5.202670574188232,4.418795585632324
1701893350533644000,8.12464404296875,4.638180732727051,-4.036722183227539,7.410407066345215
1701893350550636500,8.141636474609374,3.48380708694458,-2.717902660369873,8.473891258239746
1701893350567626000,8.1586259765625,1.8697364330291748,-1.8450136184692383,7.488718032836914
1701893350584609800,8.17560986328125,0.31156325340270996,-1.4214186668395996,5.254356861114502
1701893350601600500,8.1926005859375,-0.580339252948761,-0.6759772300720215,2.545297145843506
1701893350618601500,8.2096015625,-1.197190761566162,0.40889644622802734,0.3695836067199707
1701893350635579100,8.2265791015625,-1.3756380081176758,1.330343246459961,-0.8515801429748535
1701893350652573700,8.24357373046875,-0.8212883472442627,1.9140625,-1.1734976768493652
1701893350669563100,8.260563232421875,0.13256573677062988,2.2485527992248535,-0.8572630882263184
1701893350686550500,8.277550537109375,1.0955281257629395,2.4605417251586914,-0.546473503112793
1701893350703546000,8.294546142578126,1.6259196996688843,2.5453381538391113,-0.6653032302856445
1701893350720533200,8.311533203125,1.6950657367706299,2.5089945793151855,-1.0310096740722656
1701893350737530000,8.328530029296875,1.4034581184387207,2.443739414215088,-1.3886852264404297
1701893350754513000,8.345512939453124,1.0861718654632568,2.297421455383301,-1.46815824508667
1701893350771509500,8.362509521484375,0.9762070178985596,2.0967750549316406,-1.1559414863586426
1701893350788498700,8.379498779296876,1.1872888803482056,1.827822208404541,-0.5262465476989746
1701893350805487600,8.396487548828125,1.4596526622772217,1.5923237800598145,0.13504266738891602
1701893350822476800,8.413476806640626,1.6640571355819702,1.4423108100891113,0.8249077796936035
1701893350839481900,8.43048193359375,1.7377703189849854,1.4070172309875488,1.4863853454589844
1701893350856468700,8.44746875,1.459173321723938,1.5060114860534668,1.941798210144043
1701893350873460200,8.464460205078124,0.9312343597412109,1.5564355850219727,2.2411627769470215
1701893350890449400,8.481449462890625,0.6992654800415039,1.6266632080078125,2.556389808654785
1701893350907441400,8.49844140625,0.6963510513305664,1.6517443656921387,2.8997488021850586
1701893350924427800,8.515427734375,0.6264112591743469,1.629612922668457,3.2303037643432617
1701893350941422800,8.5324228515625,0.2811405658721924,1.6588282585144043,3.418753147125244
1701893350958410000,8.549409912109375,-0.4503212571144104,1.789698600769043,3.521787643432617
1701893350975406300,8.56640625,-1.5426026582717896,1.760655403137207,3.4811949729919434
1701893350992393700,8.583393798828125,-2.5515761375427246,1.4771637916564941,3.295381546020508
1701893351009385700,8.6003857421875,-2.9131524562835693,1.1646838188171387,3.2962756156921387
1701893351026375000,8.617375,-2.914600372314453,0.3819427490234375,3.86466646194458
1701893351043366700,8.63436669921875,-2.7095870971679688,-0.30408382415771484,4.355006694793701
1701893351060345600,8.651345703125,-2.1999893188476562,0.1437082290649414,4.181190490722656
1701893351077348000,8.66834814453125,-1.8482437133789062,1.4200515747070312,3.963326930999756
1701893351094326800,8.685326904296875,-1.9820551872253418,2.767570972442627,3.877995491027832
1701893351111315000,8.70231494140625,-2.4980087280273438,3.3725533485412598,4.141323566436768
1701893351128319200,8.7193193359375,-3.0871810913085938,2.896301746368408,4.488745212554932
1701893351145311000,8.73631103515625,-3.706120491027832,1.26878023147583,4.556588172912598
1701893351162297300,8.75329736328125,-3.8461787700653076,-0.5592331886291504,4.088854789733887
1701893351179294200,8.770294189453125,-3.67775821685791,-1.6049270629882812,3.244144916534424
1701893351196281300,8.78728125,-3.0564608573913574,-1.8286771774291992,2.634186267852783
1701893351213273300,8.8042734375,-2.177578926086426,-1.7044625282287598,2.3551888465881348
1701893351230262800,8.8212626953125,-1.3033562898635864,-1.734952449798584,2.3687472343444824
1701893351247254500,8.838254638671875,-0.38842588663101196,-1.837174892425537,2.2962822914123535
1701893351264244200,8.855244140625,0.5194064974784851,-2.1358981132507324,2.0722274780273438
1701893351281237800,8.87223779296875,1.2466750144958496,-2.471052646636963,1.4544677734375
1701893351298222000,8.88922216796875,1.4771302938461304,-2.6003289222717285,0.3532981872558594
1701893351315218400,8.906218505859375,1.0323596000671387,-2.692274570465088,-1.1184310913085938
1701893351332196000,8.923196044921875,0.7185657024383545,-2.6893506050109863,-2.599214553833008
1701893351349198800,8.94019873046875,0.8720101118087769,-2.768280029296875,-3.869813919067383
1701893351366187300,8.957187255859376,1.4300272464752197,-2.961766004562378,-4.893014907836914
1701893351383180500,8.9741806640625,2.197023868560791,-3.09793758392334,-5.763526916503906
1701893351400169200,8.991169189453124,2.9799447059631348,-3.085467576980591,-6.4158477783203125
1701893351417152800,9.00815283203125,3.597105026245117,-2.8866822719573975,-6.888684272766113
1701893351434147000,9.02514697265625,3.8763928413391113,-2.6416873931884766,-7.155859470367432
1701893351451142700,9.042142578125,3.8584482669830322,-2.5077314376831055,-7.231104850769043
1701893351468132000,9.059132080078125,3.5275111198425293,-2.4296579360961914,-7.241913795471191
1701893351485113600,9.076113525390625,3.1193859577178955,-2.4899697303771973,-7.2569580078125
1701893351502113000,9.093113037109376,2.605926513671875,-2.552537202835083,-7.340178966522217
1701893351519105000,9.11010498046875,2.136458396911621,-2.5698366165161133,-7.407905101776123
1701893351536094700,9.1270947265625,1.816423773765564,-2.465522289276123,-7.287288665771484
1701893351553082600,9.14408251953125,1.595282793045044,-2.343475818634033,-6.948887348175049
1701893351570076700,9.16107666015625,1.3610763549804688,-2.1116747856140137,-6.640898704528809
1701893351587067600,9.178067626953125,0.9994725584983826,-2.033149480819702,-6.28512716293335
1701893351604058600,9.19505859375,0.797810435295105,-2.0786499977111816,-5.969614028930664
1701893351621044700,9.212044677734376,0.8865211009979248,-2.4046807289123535,-5.3485918045043945
1701893351638035700,9.22903564453125,0.8966103196144104,-3.815186023712158,-3.7938389778137207
1701893351655032800,9.24603271484375,0.930549144744873,-4.9317216873168945,-2.630703926086426
1701893351672020000,9.26302001953125,0.8832942247390747,-4.872853755950928,-1.6938204765319824
1701893351689011200,9.28001123046875,-0.19674015045166016,-5.38954496383667,0.762476921081543
1701893351706002200,9.297002197265625,-2.5709075927734375,-7.416066646575928,4.300617218017578
1701893351722992600,9.31399267578125,-3.905766487121582,-9.431382179260254,6.108027458190918
1701893351739983400,9.3309833984375,-2.6637930870056152,-10.247392654418945,6.337564468383789
1701893351756974300,9.347974365234375,0.31253790855407715,-8.682750701904297,6.307330131530762
1701893351773963800,9.3649638671875,2.7841720581054688,-6.249713897705078,7.232773780822754
1701893351790955500,9.38195556640625,4.132697582244873,-4.1233930587768555,8.247673034667969
1701893351807941600,9.398941650390626,4.571889400482178,-2.6536383628845215,8.915430068969727
1701893351824932000,9.41593212890625,3.9325714111328125,-1.406205177307129,8.021475791931152
1701893351841923600,9.432923583984374,1.979138970375061,-0.17073583602905273,5.688124656677246
1701893351858920700,9.449920654296875,0.07553473114967346,1.0061144828796387,3.390605926513672
1701893351875906800,9.46690673828125,-1.316994071006775,2.122757911682129,2.015223979949951
1701893351892900600,9.483900634765625,-2.187385082244873,3.136936664581299,1.7566709518432617
1701893351909889000,9.500888916015626,-2.739169120788574,4.118278980255127,2.0294041633605957
1701893351926881000,9.517881103515625,-3.013239622116089,5.1829376220703125,1.9038605690002441
1701893351943867100,9.5348671875,-2.9474916458129883,6.007535457611084,1.135432243347168
1701893351960860000,9.55185986328125,-2.9271798133850098,6.246710777282715,0.3318519592285156
1701893351977854000,9.56885400390625,-2.9846386909484863,6.230299472808838,-0.42724180221557617
1701893351994843600,9.58584375,-2.8997135162353516,6.0694260597229,-0.9877715110778809
1701893352011829800,9.602829833984375,-2.7944834232330322,5.820014476776123,-1.2276897430419922
1701893352028813000,9.61981298828125,-2.74991512298584,5.545231819152832,-1.1099801063537598
1701893352045804800,9.6368046875,-2.7440502643585205,5.177783012390137,-0.7761731147766113
1701893352062805200,9.65380517578125,-2.711101531982422,4.689138889312744,-0.15358495712280273
1701893352079797000,9.670796875,-2.863034725189209,4.120970726013184,0.8190293312072754
1701893352096787700,9.68778759765625,-3.195643424987793,3.648159980773926,1.7942066192626953
1701893352113777000,9.70477685546875,-3.5364322662353516,3.253602981567383,2.700282573699951
1701893352130765600,9.721765625,-3.3068203926086426,3.0340633392333984,3.623669147491455
1701893352147765000,9.738764892578125,-2.9030871391296387,2.2989654541015625,4.907829284667969
1701893352164739800,9.75573974609375,-2.321836471557617,1.5271129608154297,5.926987171173096
1701893352181739500,9.772739501953126,-1.6864594221115112,1.1080374717712402,6.37372350692749
1701893352198730000,9.78972998046875,-1.3502269983291626,-0.3075590133666992,7.406683921813965
1701893352215722500,9.806722412109375,-1.3698545694351196,-4.181558609008789,9.717185974121094
1701893352232713000,9.823712890625,-0.9144232273101807,-8.682344436645508,10.886731147766113
1701893352249702400,9.840702392578125,0.3648066520690918,-9.738754272460938,9.200416564941406
1701893352266684000,9.857683837890624,1.6684281826019287,-7.9334516525268555,8.097406387329102
1701893352283683800,9.874683837890625,2.1073551177978516,-6.257341384887695,8.437723159790039
1701893352300676600,9.891676513671875,2.282256603240967,-5.75557804107666,8.603691101074219
1701893352317663500,9.90866357421875,2.201366662979126,-5.814018726348877,7.7696356773376465
1701893352334654500,9.925654541015625,2.126695156097412,-5.882277488708496,5.848189353942871
1701893352351646500,9.942646484375,2.3663220405578613,-5.210910797119141,2.581174850463867
1701893352368638500,9.959638427734374,2.842961072921753,-3.7508106231689453,-0.6382966041564941
1701893352385627400,9.97662744140625,3.1948769092559814,-2.1326470375061035,-2.9046783447265625
1701893352402619400,9.993619384765625,3.234034299850464,-0.8826942443847656,-4.260828018188477
1701893352419606300,10.010606201171875,2.7459983825683594,-0.26088476181030273,-5.019697189331055
1701893352436600800,10.027600830078125,2.243004322052002,-0.06849884986877441,-5.4018707275390625
1701893352453587000,10.0445869140625,1.78477144241333,-0.16089487075805664,-5.8594841957092285
1701893352470582300,10.061582275390625,1.3633344173431396,-0.3257639408111572,-6.6202802658081055
1701893352487572000,10.078572021484375,1.0637104511260986,-0.5813698768615723,-7.4161529541015625
1701893352504563700,10.095563720703124,0.930403470993042,-0.8964213132858276,-8.220161437988281
1701893352521549600,10.112549560546874,0.7942507863044739,-1.2455267906188965,-8.981439590454102
1701893352538545000,10.129544921875,0.9146243929862976,-1.5422351360321045,-9.610857009887695
1701893352555534300,10.146534423828125,1.1679751873016357,-1.7780847549438477,-9.921035766601562
1701893352572524300,10.163524169921875,1.5004451274871826,-1.9983692169189453,-10.03476619720459
1701893352589517300,10.180517333984374,1.7774741649627686,-2.152235746383667,-9.933782577514648
1701893352606513700,10.197513671875,2.022270679473877,-2.4057626724243164,-9.437071800231934
1701893352623497200,10.214497314453125,2.2251415252685547,-3.0100579261779785,-8.461114883422852
1701893352640486700,10.231486572265625,2.4419031143188477,-4.006202697753906,-6.52245569229126
1701893352657480400,10.24848046875,2.3617806434631348,-4.596061706542969,-4.718024253845215
1701893352674466600,10.265466552734376,1.815942645072937,-4.881565093994141,-3.4853572845458984
1701893352691459800,10.2824599609375,1.0893018245697021,-5.249329566955566,-1.377431869506836
1701893352708450800,10.299450927734375,-0.20671343803405762,-6.248412609100342,1.825765609741211
1701893352725441500,10.316441650390624,-2.2848713397979736,-8.021432876586914,3.3805761337280273
1701893352742430200,10.33343017578125,-3.196904420852661,-9.745187759399414,3.3149843215942383
1701893352759425000,10.350425048828125,-1.9737778902053833,-10.56632137298584,2.850022315979004
1701893352776412200,10.367412109375,0.08702027797698975,-9.812675476074219,3.439570426940918
1701893352793405700,10.38440576171875,1.4217947721481323,-8.364728927612305,5.5435991287231445
1701893352810395400,10.4013955078125,1.6286126375198364,-7.003499984741211,6.938642501831055
1701893352827382800,10.4183828125,1.5568244457244873,-5.783912181854248,6.978772163391113
1701893352844376300,10.435376220703125,1.722240686416626,-3.9655051231384277,5.982366561889648
1701893352861366000,10.452365966796876,1.4767935276031494,-1.606544017791748,4.509051322937012
1701893352878358000,10.46935791015625,0.6083636283874512,0.4130368232727051,3.394223213195801
1701893352895345700,10.486345703125,-0.4984052777290344,1.9446210861206055,2.539093017578125
1701893352912341200,10.50334130859375,-1.2650306224822998,2.7313311100006104,2.1915812492370605
1701893352929329000,10.520328857421875,-1.453840970993042,3.464806079864502,2.4623513221740723
1701893352946308400,10.537308349609376,-0.9843956232070923,4.414763927459717,2.4922709465026855
1701893352963301400,10.55430126953125,-0.3905448019504547,5.2181925773620605,1.966352939605713
1701893352980295700,10.571295654296875,-0.10557056218385696,5.838942527770996,1.1530447006225586
1701893352997286000,10.588285888671875,-0.1699305772781372,6.13815450668335,0.22058773040771484
1701893353014274300,10.6052744140625,-0.6116319894790649,6.138008117675781,-0.4435238838195801
1701893353031265800,10.622265869140625,-0.9399672150611877,6.10878849029541,-0.7780885696411133
1701893353048255500,10.63925537109375,-1.1499755382537842,5.870849609375,-0.8257584571838379
1701893353065256200,10.656256103515625,-1.2467031478881836,5.440757751464844,-0.7121129035949707
1701893353082242800,10.673242919921876,-1.0852177143096924,4.8264055252075195,-0.4373021125793457
1701893353099239000,10.690239013671874,-0.8405099511146545,4.400515556335449,0.29546356201171875
1701893353116228000,10.70722802734375,-1.1264047622680664,3.999246597290039,1.6486005783081055
1701893353133216800,10.724216796875,-1.910319209098816,3.452378273010254,3.752854824066162
1701893353150209000,10.741208984375,-3.226351737976074,2.7704715728759766,6.454848766326904
1701893353167198700,10.75819873046875,-4.9932475090026855,2.2228899002075195,7.685336112976074
1701893353184190500,10.7751904296875,-5.762157917022705,1.1563854217529297,8.748775482177734
1701893353201179400,10.792179443359375,-5.053956031799316,-2.3036251068115234,11.48820686340332
1701893353218170600,10.809170654296874,-2.7046217918395996,-5.568747520446777,12.274015426635742
1701893353235151400,10.8261513671875,0.765801727771759,-7.255045413970947,10.982406616210938
1701893353252160800,10.843160888671875,3.659142255783081,-7.0158281326293945,9.263113021850586
1701893353269123300,10.860123291015626,4.81362771987915,-6.581662178039551,8.723482131958008
1701893353286133500,10.877133544921875,4.564094066619873,-6.823873043060303,8.24575138092041
1701893353303124700,10.894124755859375,4.064511299133301,-6.666157245635986,7.005949020385742
1701893353320116000,10.911115966796874,3.5500872135162354,-5.867719650268555,5.036136627197266
1701893353337105000,10.92810498046875,2.8045060634613037,-4.739046096801758,2.745364189147949
1701893353354093600,10.945093505859376,2.022050380706787,-3.6078882217407227,0.8719720840454102
1701893353371076400,10.962076416015625,1.3133866786956787,-2.5189781188964844,-0.6180539131164551
1701893353388078600,10.97907861328125,0.4874888062477112,-1.7079691886901855,-1.9773755073547363
1701893353405058000,10.99605810546875,0.2813093662261963,-0.9731688499450684,-3.087543487548828
1701893353422057200,11.01305712890625,0.4230489730834961,-0.6194334030151367,-3.9044084548950195
1701893353439058400,11.030058349609375,0.7990461587905884,-0.4248037338256836,-4.798007965087891
1701893353456030500,11.047030517578126,1.2198278903961182,-0.2922022342681885,-5.489202499389648
1701893353473030400,11.064030517578125,1.517818808555603,-0.17008256912231445,-6.036072254180908
1701893353490018800,11.081018798828126,1.5507344007492065,-0.09754610061645508,-6.5248613357543945
1701893353507002000,11.098002197265625,1.2710587978363037,-0.10473489761352539,-7.037337779998779
1701893353524003800,11.11500390625,0.8285078406333923,-0.20708513259887695,-7.557440757751465
1701893353540990000,11.131989990234375,0.30401811003685,-0.46642184257507324,-8.082539558410645
1701893353557985000,11.148985107421876,0.18852955102920532,-0.7040679454803467,-8.376689910888672
1701893353574974700,11.165974609375,0.17786580324172974,-0.7510404586791992,-8.554147720336914
1701893353591966500,11.182966552734374,0.07574021816253662,-0.6937716007232666,-8.479877471923828
1701893353608955000,11.199954833984375,-0.03686559200286865,-0.5784406661987305,-8.095697402954102
1701893353625948700,11.21694873046875,0.2714911699295044,-0.531782865524292,-7.526736259460449
1701893353642937300,11.233937255859376,0.7388652563095093,-0.7374873161315918,-6.648257732391357
1701893353659929300,11.250929443359375,1.3600654602050781,-1.220390796661377,-5.337286472320557
1701893353676918500,11.26791845703125,2.2396464347839355,-1.9075796604156494,-3.933533191680908
1701893353693910500,11.28491064453125,2.8912997245788574,-2.725952625274658,-2.6684093475341797
1701893353710900000,11.30189990234375,3.088923931121826,-3.2896604537963867,-1.824629783630371
1701893353727891500,11.318891357421874,3.040125846862793,-3.78556227684021,-0.7728662490844727
1701893353744869000,11.335869140625,2.602170705795288,-4.435354232788086,1.118678092956543
1701893353761872600,11.35287255859375,1.001033067703247,-5.967206001281738,3.219754219055176
1701893353778863400,11.36986328125,-0.8396183252334595,-7.355766296386719,3.5244674682617188
1701893353795854000,11.38685400390625,-0.6696195602416992,-8.656773567199707,2.797987937927246
1701893353812844800,11.4038447265625,1.0454001426696777,-8.959308624267578,2.425384521484375
1701893353829836000,11.4208359375,3.090580463409424,-7.592246055603027,3.5725879669189453
1701893353846825700,11.43782568359375,3.1465964317321777,-5.893189430236816,5.593963623046875
1701893353863816000,11.45481591796875,1.8406606912612915,-4.090523719787598,6.701325416564941
1701893353880802300,11.47180224609375,0.27454954385757446,-2.801547050476074,6.971354961395264
1701893353897801200,11.48880126953125,-0.9681652784347534,-1.5060358047485352,6.297431468963623
1701893353914788000,11.5057880859375,-1.989596962928772,0.07240104675292969,4.861276626586914
1701893353931777000,11.522777099609375,-2.6451518535614014,1.770214557647705,3.335716724395752
1701893353948769300,11.539769287109374,-2.6319451332092285,3.2779321670532227,2.180647373199463
1701893353965771000,11.55677099609375,-2.021944046020508,4.261931419372559,1.6863555908203125
1701893353982751700,11.573751708984375,-1.1206201314926147,4.876578330993652,1.489769458770752
1701893353999743000,11.590742919921874,-0.13179375231266022,5.336696624755859,1.130922794342041
1701893354016732200,11.607732177734375,0.7304611206054688,5.716458320617676,0.4761977195739746
1701893354033724200,11.62472412109375,1.084648847579956,5.752364635467529,-0.1657700538635254
1701893354050710800,11.641710693359375,0.6561713814735413,5.488312244415283,-0.7015409469604492
1701893354067705900,11.658705810546875,-0.2599024772644043,5.199465274810791,-1.3071341514587402
1701893354084682500,11.6756826171875,-1.1866440773010254,4.83042049407959,-1.9152498245239258
1701893354101678600,11.6926787109375,-1.667548418045044,4.472099304199219,-2.2448318004608154
1701893354118675700,11.70967578125,-1.435760498046875,4.06063175201416,-1.5298833847045898
1701893354135657700,11.72665771484375,-1.3051400184631348,3.7631444931030273,-0.27062034606933594
1701893354152650500,11.743650390625,-1.800674319267273,3.5985493659973145,0.8641610145568848
1701893354169643500,11.7606435546875,-2.631436824798584,3.525700569152832,1.5612664222717285
1701893354186628000,11.777628173828125,-3.325268268585205,3.4066224098205566,2.0235257148742676
1701893354203621000,11.79462109375,-3.2279052734375,3.3282599449157715,2.699986457824707
1701893354220611300,11.811611328125,-2.2817647457122803,2.390099048614502,4.162076473236084
1701893354237607700,11.828607666015625,-1.2067087888717651,0.7984514236450195,5.838983535766602
1701893354254592800,11.8455927734375,0.12136563658714294,-0.5811095237731934,6.803245544433594
1701893354271584300,11.862584228515624,0.9054662585258484,-2.8933849334716797,8.011445999145508
1701893354288573700,11.87957373046875,1.0697888135910034,-6.732537269592285,9.84829044342041
1701893354305566000,11.89656591796875,1.7515032291412354,-8.028755187988281,9.335862159729004
1701893354322558500,11.913558349609374,3.0006628036499023,-6.984761714935303,8.190372467041016
1701893354339559200,11.93055908203125,3.5417399406433105,-5.604211807250977,7.771294593811035
1701893354356545800,11.9475458984375,3.1126465797424316,-5.398736476898193,7.797933578491211
1701893354373534500,11.964534423828125,2.509763717651367,-5.645455360412598,7.481357574462891
1701893354390527200,11.98152734375,2.1585874557495117,-5.378419876098633,5.81948709487915
1701893354407519500,11.99851953125,1.685570240020752,-3.986265182495117,2.997756004333496
1701893354424508400,12.01550830078125,1.4301167726516724,-2.211550235748291,0.7313718795776367
1701893354441490200,12.032490234375,1.131850242614746,-0.7769861221313477,-0.7765331268310547
1701893354458490000,12.049489990234376,0.9288541078567505,0.0883026123046875,-1.801804542541504
1701893354475482000,12.066482177734375,0.8665695190429688,0.5165839195251465,-2.6461658477783203
1701893354492471300,12.08347119140625,0.9274764060974121,0.7036356925964355,-3.4910826683044434
1701893354509463300,12.10046337890625,1.0886950492858887,0.8460261821746826,-4.354175567626953
1701893354526452700,12.11745263671875,1.176472783088684,0.9803609848022461,-5.255502700805664
1701893354543444700,12.13444482421875,1.0780047178268433,1.1306872367858887,-6.046008586883545
1701893354560434000,12.151433837890625,0.805776834487915,1.2421791553497314,-6.624841690063477
1701893354577426000,12.168426025390625,0.5735312104225159,1.2974803447723389,-6.991330623626709
1701893354594411800,12.185411865234375,0.5375090837478638,1.222456693649292,-7.170019149780273
1701893354611411500,12.202411376953124,0.6717949509620667,0.9003808498382568,-7.215890884399414
1701893354628396000,12.21939599609375,0.8744853734970093,0.4147050380706787,-7.402582168579102
1701893354645389600,12.2363896484375,1.1543879508972168,-0.2484264373779297,-7.634220123291016
1701893354662375400,12.25337548828125,1.4639241695404053,-0.6546294689178467,-7.966672420501709
1701893354679373300,12.270373291015625,1.7758080959320068,-1.0457086563110352,-8.033838272094727
1701893354696359400,12.287359375,1.9571409225463867,-1.5261445045471191,-7.648575782775879
1701893354713351400,12.304351318359375,1.931180715560913,-2.2689263820648193,-6.663738250732422
1701893354730341400,12.32134130859375,1.7943143844604492,-3.3431944847106934,-4.91923713684082
1701893354747333000,12.3383330078125,1.633177399635315,-4.517543792724609,-2.866246223449707
1701893354764319000,12.355319091796876,1.514879822731018,-5.228498458862305,-1.9665422439575195
1701893354781314000,12.37231396484375,1.5163296461105347,-5.488203525543213,-1.4604692459106445
1701893354798303700,12.3893037109375,1.2836345434188843,-5.599177360534668,-0.0652627944946289
1701893354815296000,12.4062958984375,0.41975247859954834,-6.53477668762207,2.0664024353027344
1701893354832285000,12.423284912109375,-0.41007208824157715,-8.47403335571289,3.5557069778442383
1701893354849277200,12.440277099609375,0.6648863554000854,-9.72954273223877,2.86358642578125
1701893354866266600,12.4572666015625,3.378704071044922,-8.761219024658203,1.7735223770141602
1701893354883258600,12.474258544921875,5.326141834259033,-6.874161720275879,3.2925634384155273
1701893354900247600,12.49124755859375,4.628278732299805,-5.502788066864014,6.178221702575684
1701893354917239600,12.508239501953126,2.1988179683685303,-4.122463226318359,8.034456253051758
1701893354934229200,12.525229248046875,-0.749268114566803,-2.468075752258301,8.472270965576172
1701893354951218200,12.54221826171875,-3.152599334716797,-0.5780539512634277,7.526707649230957
1701893354968210700,12.559210693359375,-4.267791748046875,1.430037021636963,5.820178985595703
1701893354985201200,12.576201171875,-4.314806938171387,3.0280466079711914,4.428864002227783
1701893355002193700,12.593193603515624,-3.73069429397583,4.128713607788086,4.274115085601807
1701893355019184000,12.61018408203125,-3.2472898960113525,5.320562362670898,4.586762428283691
1701893355036173000,12.627173095703125,-3.048100471496582,6.300493240356445,4.246364116668701
1701893355053155600,12.644155517578126,-3.2640299797058105,6.751082420349121,3.6298012733459473
1701893355070155000,12.661155029296875,-3.524033546447754,6.863742828369141,2.914180278778076
1701893355087136500,12.678136474609374,-3.4297080039978027,6.825164794921875,1.9706854820251465
1701893355104136000,12.695135986328125,-3.0101654529571533,6.567131042480469,1.2774806022644043
1701893355121128000,12.7121279296875,-2.5016160011291504,6.178202152252197,0.9788742065429688
1701893355138116900,12.729116943359376,-2.050783634185791,5.742283821105957,0.8633608818054199
1701893355155110400,12.7461103515625,-1.7681365013122559,5.193785667419434,0.7698554992675781
1701893355172098600,12.7630986328125,-1.4561213254928589,4.678989410400391,0.670628547668457
1701893355189090800,12.7800908203125,-1.022214412689209,4.123000144958496,1.107654094696045
1701893355206078200,12.797078125,-0.7866366505622864,3.8034157752990723,1.8010530471801758
1701893355223069700,12.814069580078124,-1.0768234729766846,3.479308605194092,2.6063380241394043
1701893355240061700,12.831061767578126,-1.678649663925171,3.1252808570861816,3.6132750511169434
1701893355257053400,12.848053466796875,-2.344022750854492,2.3277535438537598,4.699710845947266
1701893355274039800,12.865039794921875,-2.687398910522461,1.0396313667297363,5.392852306365967
1701893355291025000,12.88202490234375,-2.1484501361846924,-0.6533899307250977,5.841208457946777
1701893355308016000,12.89901611328125,-0.9632738828659058,-2.9022207260131836,7.199449062347412
1701893355325005600,12.916005615234376,-0.3505822420120239,-7.056199550628662,10.183370590209961
1701893355342006000,12.933006103515625,0.20929193496704102,-10.491174697875977,10.689059257507324
1701893355358998000,12.949998046875,1.7386178970336914,-10.303396224975586,8.194585800170898
1701893355375987000,12.966987060546876,3.3260655403137207,-8.159651756286621,6.403176307678223
1701893355392979200,12.983979248046875,3.690694570541382,-7.313912391662598,6.5293731689453125
1701893355409969000,13.000968994140624,3.4152777194976807,-7.547970294952393,6.474526405334473
1701893355426961000,13.0179609375,2.70973801612854,-7.791237831115723,5.221545219421387
1701893355443949800,13.03494970703125,2.007754325866699,-7.026681423187256,2.631589889526367
1701893355460938800,13.051938720703125,1.424171805381775,-5.253403663635254,-0.3431396484375
1701893355477931500,13.068931640625,0.801048994064331,-3.3960936069488525,-2.4900989532470703
1701893355494923500,13.085923583984375,0.20717859268188477,-1.9543259143829346,-3.783238410949707
1701893355511912700,13.10291259765625,0.1407688856124878,-0.9251060485839844,-4.502625465393066
1701893355528904000,13.119904052734375,0.3858001232147217,-0.45822858810424805,-4.968409538269043
1701893355545895200,13.136895263671875,0.8349817991256714,-0.3360631465911865,-5.399957656860352
1701893355562883600,13.153883544921875,1.2899364233016968,-0.16599655151367188,-6.039117813110352
1701893355579878000,13.1708779296875,1.5911941528320312,0.005844831466674805,-6.664482116699219
1701893355596867600,13.18786767578125,1.4778692722320557,0.14114117622375488,-7.096627235412598
1701893355613857000,13.20485693359375,1.1783534288406372,0.318691611289978,-7.479935646057129
1701893355630849000,13.22184912109375,0.8116955161094666,0.45237278938293457,-7.808794021606445
1701893355647828000,13.238827880859375,0.5819195508956909,0.41796839237213135,-8.06598949432373
1701893355664831000,13.2558310546875,0.6016546487808228,0.14307177066802979,-8.260592460632324
1701893355681820000,13.27281982421875,0.8560086488723755,-0.2989712953567505,-8.46187973022461
1701893355698811600,13.289811767578126,1.4829026460647583,-0.7584419250488281,-8.67057991027832
1701893355715800600,13.306800537109375,1.9213812351226807,-1.2756420373916626,-8.68779182434082
1701893355732793600,13.323793701171875,2.2483484745025635,-1.8533413410186768,-8.520700454711914
1701893355749782800,13.34078271484375,2.6351609230041504,-2.3339076042175293,-8.022294998168945
1701893355766764300,13.357764404296875,2.899036407470703,-2.8229074478149414,-7.155724048614502
1701893355783760600,13.3747607421875,3.4146740436553955,-3.112649917602539,-5.5027875900268555
1701893355800753200,13.391753173828125,3.612968921661377,-3.530134916305542,-3.292999744415283
1701893355817737500,13.408737548828125,3.098048210144043,-4.290133476257324,-1.1008834838867188
1701893355834737400,13.4257373046875,2.018787145614624,-4.58153772354126,0.12987041473388672
1701893355851723500,13.4427236328125,0.8620456457138062,-4.771723747253418,0.5901374816894531
1701893355868718600,13.459718505859374,-0.24778902530670166,-5.374265670776367,1.7974834442138672
1701893355885708300,13.476708251953125,-1.2137497663497925,-6.962430953979492,3.959278106689453
1701893355902697500,13.493697509765624,-0.8397663831710815,-8.651238441467285,5.4198808670043945
1701893355919689500,13.510689453125,1.1133486032485962,-9.096258163452148,6.10317325592041
1701893355936684000,13.52768408203125,3.4701101779937744,-6.800637722015381,7.370758056640625
1701893355953671000,13.5446708984375,3.6338109970092773,-4.281786918640137,10.418977737426758
1701893355970657300,13.5616572265625,1.7317348718643188,-2.469259262084961,13.062030792236328
1701893355987654700,13.578654541015625,-0.8090333342552185,-0.686070442199707,13.852421760559082
1701893356004644000,13.59564404296875,-3.169938325881958,0.79620361328125,12.44406509399414
1701893356021634000,13.612634033203125,-4.727383613586426,2.348672389984131,9.430630683898926
1701893356038625000,13.629625,-4.959840774536133,4.075360298156738,6.364285469055176
1701893356055615700,13.64661572265625,-4.083311080932617,5.303382873535156,4.501949310302734
1701893356072596200,13.66359619140625,-2.75421142578125,6.055437088012695,3.787515163421631
1701893356089595600,13.680595703125,-1.6875767707824707,6.553445339202881,3.3518619537353516
1701893356106571800,13.69757177734375,-1.3267698287963867,6.779849529266357,2.7252678871154785
1701893356123577600,13.71457763671875,-1.4235647916793823,6.825604438781738,1.6923718452453613
1701893356140569600,13.731569580078125,-1.722818374633789,6.58555793762207,0.659822940826416
1701893356157559600,13.7485595703125,-1.8978358507156372,6.346853733062744,-0.41250038146972656
1701893356174548200,13.76554833984375,-1.6951572895050049,6.10035514831543,-1.1887497901916504
1701893356191540500,13.78254052734375,-1.393390417098999,5.672450542449951,-1.6675734519958496
1701893356208532500,13.799532470703125,-0.7963538765907288,5.309494495391846,-1.972358226776123
1701893356225522200,13.816522216796875,-0.35993945598602295,4.758357048034668,-1.9551725387573242
1701893356242511400,13.833511474609375,-0.04683578014373779,4.179695129394531,-1.6208972930908203
1701893356259506000,13.850505859375,0.018254995346069336,3.5250327587127686,-0.9284553527832031
1701893356276495400,13.867495361328125,-0.12518924474716187,2.9537692070007324,-0.19838571548461914
1701893356293481700,13.884481689453125,-0.30461275577545166,2.4808597564697266,0.4760880470275879
1701893356310477000,13.90147705078125,-0.19248580932617188,2.2270498275756836,1.325343132019043
1701893356327466500,13.918466552734374,-0.05857032537460327,1.8663911819458008,2.6800107955932617
1701893356344458200,13.935458251953126,-0.3766826093196869,1.1151471138000488,4.1940598487854
1701893356361444600,13.952444580078126,-1.063415288925171,-0.20044755935668945,5.392634868621826
1701893356378440000,13.96943994140625,-1.737785816192627,-1.9283452033996582,6.187076568603516
1701893356395428900,13.986428955078125,-1.8033807277679443,-4.5049729347229,7.282016277313232
1701893356412418300,14.003418212890624,-1.372518539428711,-9.129884719848633,9.108013153076172
1701893356429413400,14.020413330078124,0.06099998950958252,-11.87336254119873,8.409696578979492
1701893356446390300,14.037390380859375,2.3942055702209473,-10.198967933654785,6.087590217590332
1701893356463383300,14.05438330078125,3.4854302406311035,-6.521478652954102,4.904747009277344
1701893356480374800,14.071374755859376,2.7132797241210938,-4.7433390617370605,5.102338790893555
1701893356497357000,14.088357177734375,1.5353567600250244,-4.488193988800049,4.735247611999512
1701893356514360600,14.105360595703125,0.7655351161956787,-4.821544170379639,3.254240036010742
1701893356531348200,14.12234814453125,0.7328866720199585,-4.815295696258545,0.7928590774536133
1701893356548339700,14.139339599609375,0.7386659383773804,-3.856538772583008,-2.340536594390869
1701893356565326300,14.156326416015625,0.7438249588012695,-2.2189829349517822,-4.859396934509277
1701893356582320400,14.1733203125,0.7218671441078186,-0.6898136138916016,-6.170439720153809
1701893356599312100,14.19031201171875,0.7314055562019348,0.4021477699279785,-6.42954158782959
1701893356616301600,14.207301513671876,0.8456059694290161,0.9944908618927002,-6.33603572845459
1701893356633301500,14.224301513671875,1.0974814891815186,1.205816626548767,-6.087350845336914
1701893356650291200,14.241291259765624,1.2946022748947144,1.3626961708068848,-6.024140357971191
1701893356667277800,14.25827783203125,1.4555933475494385,1.5291614532470703,-6.361253261566162
1701893356684271900,14.27527197265625,1.302808165550232,1.5367498397827148,-6.680336952209473
1701893356701262000,14.292261962890626,1.0534887313842773,1.5715668201446533,-7.024569034576416
1701893356718253800,14.30925390625,1.1225897073745728,1.5758129358291626,-7.380089282989502
1701893356735240400,14.326240478515626,1.480729341506958,1.4398629665374756,-7.579410076141357
1701893356752237600,14.343237548828125,1.7351640462875366,0.9874289035797119,-7.524079322814941
1701893356769225000,14.360224853515625,1.6228077411651611,0.3879404067993164,-7.389677047729492
1701893356786217000,14.377217041015625,1.6149711608886719,-0.0706782341003418,-7.340974807739258
1701893356803206000,14.394205810546875,1.7383662462234497,-0.33755016326904297,-7.071091651916504
1701893356820198000,14.411197998046875,2.0289015769958496,-0.48729419708251953,-6.336609840393066
1701893356837187600,14.4281875,2.5034914016723633,-0.6378886699676514,-4.879792213439941
1701893356854179600,14.4451796875,2.9268996715545654,-0.7721409797668457,-3.0489587783813477
1701893356871174000,14.462173828125,2.863130807876587,-1.9909272193908691,-0.647587776184082
1701893356888160800,14.479160888671874,2.3613314628601074,-3.3568716049194336,1.2790803909301758
1701893356905152800,14.49615283203125,2.0639867782592773,-4.072279930114746,2.3726720809936523
1701893356922142200,14.51314208984375,1.7856651544570923,-5.026669502258301,3.8135337829589844
1701893356939131600,14.530131591796875,0.5350198745727539,-6.608250141143799,5.702966690063477
1701893356956123400,14.547123291015625,-0.7853095531463623,-7.779186725616455,6.213784217834473
1701893356973113000,14.564113037109376,-0.47264373302459717,-8.121238708496094,6.650627136230469
1701893356990105300,14.581105224609376,1.511849045753479,-6.5548810958862305,7.636276721954346
1701893357007094500,14.598094482421875,3.457667827606201,-3.800605297088623,9.36412239074707
1701893357024086500,14.61508642578125,3.9034624099731445,-0.8871612548828125,10.91869068145752
1701893357041076000,14.632075927734375,2.547048807144165,0.5149722099304199,11.802699089050293
1701893357058067200,14.649067138671874,-0.6524389982223511,1.5084562301635742,10.265941619873047
1701893357075058000,14.666057861328126,-4.823482036590576,2.4950098991394043,7.047586441040039
1701893357092049200,14.683049072265625,-8.42497730255127,3.5241615772247314,4.2840375900268555
1701893357109025800,14.70002587890625,-9.519088745117188,4.540645122528076,2.6913223266601562
1701893357126033000,14.717032958984374,-7.75821590423584,5.250523090362549,1.7196249961853027
1701893357143020800,14.734020751953125,-5.107930660247803,5.382241249084473,0.7881174087524414
1701893357160009000,14.751009033203125,-2.5484156608581543,5.324219226837158,0.010465621948242188
1701893357177001700,14.768001708984375,-0.9794759750366211,5.243188858032227,-0.5662775039672852
1701893357193990700,14.78499072265625,-0.33632874488830566,5.086200714111328,-1.1956195831298828
1701893357210983000,14.80198291015625,-0.8015930652618408,4.721798419952393,-1.967604160308838
1701893357227975000,14.818974853515625,-1.8691282272338867,4.3409528732299805,-2.6010727882385254
1701893357244972300,14.83597216796875,-2.916032314300537,3.9746766090393066,-2.976815700531006
1701893357261956600,14.85295654296875,-3.6245570182800293,3.4721779823303223,-2.7939014434814453
1701893357278945800,14.86994580078125,-3.628952980041504,2.891969680786133,-2.1793384552001953
1701893357295937500,14.8869375,-3.11448335647583,2.386458396911621,-1.2563576698303223
1701893357312927500,14.903927490234375,-2.696765422821045,1.9146490097045898,-0.2919182777404785
1701893357329919500,14.92091943359375,-2.5149574279785156,1.4973807334899902,0.6046576499938965
1701893357346908700,14.93790869140625,-2.4334909915924072,1.3909697532653809,1.3894596099853516
1701893357363900700,14.954900634765625,-2.4175567626953125,0.45059680938720703,2.6734471321105957
1701893357380884500,14.971884521484375,-2.198429822921753,-1.4197354316711426,3.917550563812256
1701893357397885000,14.988885009765625,-1.423548698425293,-2.286865234375,3.9475364685058594
1701893357414871600,15.00587158203125,-0.6857821941375732,-3.198821544647217,4.281412124633789
1701893357431863600,15.022863525390624,-0.7314326167106628,-5.584650993347168,6.006552696228027
1701893357448852500,15.0398525390625,-0.5017537474632263,-7.997251510620117,7.01809024810791
1701893357465846000,15.056845947265625,0.8538689613342285,-8.59743881225586,6.841994285583496
1701893357482834200,15.073834228515626,1.8552452325820923,-6.977570056915283,6.444489479064941
1701893357499826200,15.090826171875,1.750589370727539,-5.431288719177246,6.599541664123535
1701893357516816000,15.10781591796875,0.6478910446166992,-5.060613632202148,6.746530532836914
1701893357533807900,15.124807861328126,-0.050574421882629395,-5.472439289093018,6.64067268371582
1701893357550797000,15.141797119140625,0.03143012523651123,-5.7672834396362305,5.421387672424316
1701893357567788500,15.15878857421875,0.6401679515838623,-5.351205825805664,2.7281408309936523
1701893357584766700,15.1757666015625,1.238088846206665,-4.285159111022949,-0.3917055130004883
1701893357601756000,15.192755859375,1.5181589126586914,-3.2913405895233154,-2.5596723556518555
1701893357618762500,15.209762451171875,1.492344856262207,-2.5736966133117676,-3.8402862548828125
1701893357635740700,15.22674072265625,1.499336838722229,-2.2381591796875,-4.641292572021484
1701893357652733200,15.243733154296875,1.4524261951446533,-2.2342424392700195,-5.475288391113281
1701893357669726000,15.260725830078124,1.6077367067337036,-2.2264442443847656,-6.569849491119385
1701893357686713900,15.2777138671875,1.9549806118011475,-1.9403339624404907,-7.5019354820251465
1701893357703703800,15.294703857421876,2.0427393913269043,-1.748938798904419,-7.991072177886963
1701893357720698600,15.31169873046875,1.7538743019104004,-1.6400066614151,-8.197629928588867
1701893357737692200,15.328692138671874,1.1763229370117188,-1.7483301162719727,-8.166460037231445
1701893357754675200,15.34567529296875,0.8156461715698242,-1.8855364322662354,-8.051104545593262
1701893357771667200,15.362667236328125,0.8537827730178833,-2.044668197631836,-8.068330764770508
1701893357788659200,15.3796591796875,1.1884685754776,-2.224558115005493,-7.893388271331787
1701893357805648600,15.396648681640626,1.4826781749725342,-2.3564748764038086,-7.556028366088867
1701893357822648300,15.4136484375,1.6438922882080078,-2.4624388217926025,-6.8631086349487305
1701893357839643100,15.43064306640625,1.7486464977264404,-2.81036114692688,-5.113548755645752
1701893357856630300,15.44763037109375,1.6067631244659424,-3.2775261402130127,-2.2646713256835938
1701893357873622300,15.464622314453125,1.0309360027313232,-4.316408634185791,1.0530309677124023
1701893357890608400,15.4816083984375,0.2311120629310608,-5.556019306182861,2.953084945678711
1701893357907603700,15.498603759765626,0.19202369451522827,-6.756007671356201,3.525040626525879
1701893357924593000,15.515593017578125,1.234946846961975,-6.93264102935791,3.5899248123168945
1701893357941585000,15.5325849609375,2.8738412857055664,-5.723132133483887,4.906005859375
1701893357958573600,15.549573486328125,4.378574371337891,-3.2547640800476074,7.564591407775879
1701893357975556600,15.566556640625,4.905430316925049,-1.02870512008667,10.324113845825195
1701893357992553500,15.583553466796875,4.72702169418335,0.2922515869140625,10.866511344909668
1701893358009550600,15.600550537109376,3.7712562084198,0.4463486671447754,8.624186515808105
1701893358026526500,15.6175263671875,2.5734763145446777,0.15914392471313477,5.195425987243652
1701893358043526700,15.634526611328125,1.556778907775879,0.33824920654296875,2.083071708679199
1701893358060518400,15.651518310546875,0.7635856866836548,0.9337148666381836,0.3280935287475586
1701893358077513500,15.668513427734375,0.5325297713279724,1.6671414375305176,-0.0733942985534668
1701893358094496800,15.685496826171875,0.5232033133506775,2.4998655319213867,0.401486873626709
1701893358111492000,15.7024921875,0.6291351318359375,3.2544469833374023,0.5912861824035645
1701893358128481800,15.719481689453126,0.3014736771583557,3.536591053009033,0.22066926956176758
1701893358145473800,15.736473876953125,-0.339480459690094,3.5110583305358887,-0.29082202911376953
1701893358162460200,15.753460205078126,-0.898607611656189,3.40482759475708,-0.7549548149108887
1701893358179457500,15.77045751953125,-1.5920852422714233,2.966827392578125,-1.0121731758117676
1701893358196444400,15.7874443359375,-1.5280213356018066,2.967047691345215,-1.108269214630127
1701893358213433300,15.804433349609376,-0.9925842881202698,2.9155735969543457,-0.5440878868103027
1701893358230428200,15.82142822265625,-0.559777021408081,2.962798833847046,0.33123207092285156
1701893358247415600,15.83841552734375,-0.6744916439056396,3.121303081512451,0.835474967956543
1701893358264407300,15.8554072265625,-1.255173921585083,3.1270058155059814,1.0393414497375488
1701893358281396200,15.872396240234375,-1.7673900127410889,2.994091033935547,0.8904905319213867
1701893358298388500,15.889388427734374,-1.9326075315475464,2.6570217609405518,0.6804728507995605
1701893358315380700,15.906380615234376,-1.7436199188232422,2.106788158416748,0.9280409812927246
1701893358332370200,15.9233701171875,-1.769106149673462,1.5800061225891113,1.5366692543029785
1701893358349362400,15.940362548828125,-2.179419994354248,1.2063865661621094,2.2339115142822266
1701893358366351600,15.9573515625,-2.613874912261963,1.2075414657592773,2.2747554779052734
1701893358383343600,15.974343505859375,-3.101856231689453,0.8660340309143066,2.523210048675537
1701893358400321500,15.991321533203125,-3.719482898712158,0.024050235748291016,2.889625072479248
1701893358417315800,16.00831591796875,-3.715423583984375,-0.9746766090393066,3.2032313346862793
1701893358434314200,16.025314208984376,-3.3015246391296387,-1.7747912406921387,3.685887336730957
1701893358451306200,16.04230615234375,-3.0099411010742188,-1.4092836380004883,4.101040363311768
1701893358468295400,16.05929541015625,-3.7581586837768555,-0.16210460662841797,4.25354528427124
1701893358485286400,16.076286376953124,-4.458674907684326,0.7508835792541504,4.34236478805542
1701893358502277400,16.09327734375,-3.7576100826263428,0.5273666381835938,4.327319145202637
1701893358519271700,16.110271728515624,-1.9591642618179321,-1.1375560760498047,4.630727767944336
1701893358536259000,16.127259033203124,-0.7350653409957886,-2.9090452194213867,4.55690860748291
1701893358553250800,16.144250732421874,-0.2793557643890381,-3.545269012451172,3.652604103088379
1701893358570240000,16.161239990234375,-0.3505114018917084,-3.785214900970459,2.909174919128418
1701893358587232300,16.178232177734376,-0.46895110607147217,-3.7764205932617188,2.219508171081543
1701893358604218600,16.195218505859376,-0.7026604413986206,-3.997758626937866,1.663365364074707
1701893358621209000,16.212208984375,-0.6957051157951355,-4.315878391265869,0.5284843444824219
1701893358638203400,16.229203369140624,-0.9697730541229248,-4.918923377990723,-0.6214303970336914
1701893358655195000,16.24619482421875,-0.7007088661193848,-5.660633563995361,-2.120927333831787
1701893358672184600,16.2631845703125,0.8231886625289917,-5.745888710021973,-3.688166618347168
1701893358689185500,16.280185546875,2.3082356452941895,-5.305197238922119,-4.446213722229004
1701893358706166000,16.297166015625,2.6689672470092773,-5.011125564575195,-4.826453685760498
1701893358723158000,16.314157958984374,2.3845925331115723,-4.596245765686035,-5.373261451721191
1701893358740147500,16.3311474609375,1.4102368354797363,-4.378079891204834,-6.2102532386779785
1701893358757139500,16.348139404296877,0.3541041612625122,-4.183244228363037,-7.0393900871276855
1701893358774129000,16.36512890625,-0.14286881685256958,-3.6594183444976807,-7.545536041259766
1701893358791117600,16.38211767578125,-0.6388149261474609,-3.199065923690796,-7.338911056518555
1701893358808110600,16.399110595703124,-1.4321321249008179,-3.042536497116089,-6.251439094543457
1701893358825092600,16.416092529296876,-2.4096455574035645,-2.997729778289795,-5.248784065246582
1701893358842091500,16.433091552734375,-2.8703010082244873,-2.895538330078125,-4.890596866607666
1701893358859073500,16.450073486328126,-2.7910971641540527,-2.9034252166748047,-4.856145858764648
1701893358876073200,16.4670732421875,-1.981952428817749,-3.03507661819458,-4.407021522521973
1701893358893054700,16.4840546875,-0.7932541966438293,-3.098078489303589,-3.519564628601074
1701893358910053000,16.50105322265625,0.32483404874801636,-3.258056163787842,-1.7735786437988281
1701893358927046700,16.518046630859374,0.6058598756790161,-4.479974746704102,0.6077432632446289
1701893358944036400,16.535036376953126,0.4440584182739258,-5.93315315246582,1.9919414520263672
1701893358961028000,16.552028076171876,1.0037028789520264,-6.1735992431640625,1.9307212829589844
1701893358978016500,16.5690166015625,2.3829922676086426,-5.0473456382751465,1.6519699096679688
1701893358995010000,16.586010009765626,3.9473495483398438,-3.370887279510498,2.6380414962768555
1701893359011999000,16.6029990234375,4.79405403137207,-2.1339588165283203,4.993704795837402
1701893359028991200,16.6199912109375,4.6967620849609375,-1.3984127044677734,6.727169990539551
1701893359045979600,16.636979736328126,3.443833827972412,-1.0676631927490234,6.624014854431152
1701893359062973200,16.65397314453125,2.150275945663452,-0.7521224021911621,4.2407684326171875
1701893359079949600,16.670949462890626,1.3670759201049805,-0.2005777359008789,1.2479639053344727
1701893359096954000,16.6879541015625,0.706874430179596,0.6004199981689453,-1.0221900939941406
1701893359113932500,16.7049326171875,0.14089612662792206,1.492063045501709,-1.9641613960266113
1701893359130935300,16.721935302734376,-0.3939238488674164,2.1545920372009277,-1.4641809463500977
1701893359147925200,16.73892529296875,-0.7758121490478516,2.826115131378174,-0.5238313674926758
1701893359164926500,16.755926513671874,-0.9662120938301086,3.5039820671081543,-0.22849035263061523
1701893359181908700,16.77290869140625,-1.1420623064041138,3.972777843475342,-0.5473566055297852
1701893359198898000,16.78989794921875,-1.1638994216918945,4.37866735458374,-1.05436372756958
1701893359215888000,16.806887939453127,-1.285625696182251,4.607403755187988,-1.2840614318847656
1701893359232879900,16.8238798828125,-1.5145013332366943,4.951730728149414,-1.3210506439208984
1701893359249870600,16.84087060546875,-1.9190585613250732,5.313688278198242,-1.1483569145202637
1701893359266857000,16.85785693359375,-2.390226364135742,5.478659152984619,-0.9813966751098633
1701893359283853300,16.874853271484376,-2.7432477474212646,5.425877571105957,-1.0873398780822754
1701893359300837000,16.891837158203124,-2.7699856758117676,5.217628479003906,-1.4212608337402344
1701893359317834200,16.908834228515627,-2.524021863937378,5.058629035949707,-1.7797746658325195
1701893359334821400,16.9258212890625,-2.3061957359313965,4.839249134063721,-1.748581886291504
1701893359351816200,16.942816162109374,-2.3984715938568115,4.447348594665527,-1.1809086799621582
1701893359368804900,16.959804931640626,-2.6921732425689697,3.995912551879883,-0.5699276924133301
1701893359385795000,16.976795166015624,-2.8437182903289795,3.4909090995788574,0.0009102821350097656
1701893359402787300,16.993787353515625,-2.9973721504211426,2.4119811058044434,1.0144448280334473
1701893359419776500,17.010776611328126,-3.018554210662842,1.283376693725586,1.8094468116760254
1701893359436768500,17.0277685546875,-2.4390408992767334,0.8172168731689453,2.3079652786254883
1701893359453757700,17.0447578125,-1.955191969871521,-0.1407337188720703,3.930431365966797
1701893359470749700,17.061749755859374,-1.8776674270629883,-2.521523952484131,7.239794731140137
1701893359487738600,17.078738525390627,-1.7160719633102417,-6.1069817543029785,10.3438720703125
1701893359504736500,17.095736572265626,-1.206588864326477,-9.191001892089844,11.729900360107422
1701893359521720600,17.112720458984374,0.4292689263820648,-8.632156372070312,10.613801956176758
1701893359538712800,17.129712890625,2.4145827293395996,-5.805079460144043,9.432552337646484
1701893359555699700,17.14669970703125,3.2612366676330566,-3.654815196990967,8.660720825195312
1701893359572696800,17.16369677734375,3.52919864654541,-2.6251583099365234,7.78864860534668
1701893359589683500,17.180683349609374,3.3041787147521973,-2.9385018348693848,6.417436122894287
1701893359606665000,17.1976650390625,2.9691929817199707,-3.539470672607422,3.959470748901367
1701893359623662000,17.214662109375,2.6626482009887695,-3.649451732635498,0.4942636489868164
1701893359640656100,17.23165625,2.390573501586914,-2.8516526222229004,-2.982211112976074
1701893359657646300,17.248646240234375,2.2195942401885986,-1.7190883159637451,-5.153888702392578
1701893359674640000,17.265639892578125,1.958893895149231,-0.7310354709625244,-6.012292861938477
1701893359691625000,17.282625,1.4631305932998657,-0.05092167854309082,-6.177205562591553
1701893359708620000,17.2996201171875,0.7516060471534729,0.2221207618713379,-6.130098819732666
1701893359725609700,17.316609619140625,-0.044229865074157715,0.0695950984954834,-6.2741312980651855
1701893359742601500,17.3336015625,-0.6713483333587646,-0.33533668518066406,-6.753425598144531
1701893359759591000,17.3505908203125,-0.7774486541748047,-0.8269898891448975,-7.489494800567627
1701893359776583200,17.367583251953125,-0.4895249307155609,-1.2860972881317139,-8.314648628234863
1701893359793572000,17.384572021484374,0.16188299655914307,-1.5794858932495117,-8.694755554199219
1701893359810560500,17.401560546875,1.0374510288238525,-1.8109737634658813,-8.184661865234375
1701893359827555000,17.41855517578125,1.6580803394317627,-2.051725387573242,-6.849511623382568
1701893359844546000,17.435546142578126,1.8612807989120483,-2.8542141914367676,-4.117936134338379
1701893359861535200,17.45253515625,1.926313877105713,-3.420976400375366,-2.061131477355957
1701893359878526500,17.4695263671875,1.9567216634750366,-3.758824348449707,-1.3559417724609375
1701893359895518000,17.48651806640625,1.6303670406341553,-4.019076347351074,-0.9795799255371094
1701893359912509000,17.503509033203127,0.7887653112411499,-4.4752278327941895,-0.49785614013671875
1701893359929486000,17.520486083984373,-0.25855886936187744,-4.872292995452881,-0.29453563690185547
1701893359946473000,17.537472900390625,-0.9516152143478394,-5.380612373352051,-0.49620532989501953
1701893359963472100,17.55447216796875,-0.8859078884124756,-6.138647556304932,-1.2205286026000977
1701893359980465400,17.57146533203125,-0.2080877423286438,-6.831101894378662,-2.0948967933654785
1701893359997449000,17.588448974609374,0.6002030372619629,-7.08241081237793,-2.0818862915039062
1701893360014448400,17.605448486328125,1.120509386062622,-6.94261360168457,-0.8584003448486328
1701893360031435500,17.622435546875,0.5964932441711426,-6.249111175537109,0.7215785980224609
1701893360048437500,17.6394375,-0.4158337712287903,-5.147244453430176,1.9751396179199219
1701893360065423400,17.65642333984375,-0.9640501737594604,-3.7550735473632812,2.482699394226074
1701893360082413300,17.673413330078127,-0.9825498461723328,-2.2777771949768066,2.3590917587280273
1701893360099408400,17.690408447265625,-0.5450959801673889,-0.7498836517333984,1.931981086730957
1701893360116391000,17.707390869140625,-0.10977539420127869,0.5879383087158203,1.4556331634521484
1701893360133377300,17.724377197265625,0.0010094046592712402,1.7338824272155762,1.10941743850708
1701893360150378800,17.741378662109376,-0.2635376453399658,2.6993184089660645,1.0799312591552734
1701893360167368700,17.75836865234375,-0.7262594699859619,3.703397750854492,1.1124954223632812
1701893360184360700,17.775360595703123,-1.447045087814331,4.530747413635254,1.051429271697998
1701893360201346600,17.7923466796875,-2.1981394290924072,5.033000946044922,0.8316631317138672
1701893360218342000,17.809341796875,-2.711019515991211,5.206277847290039,0.7101325988769531
1701893360235331600,17.82633154296875,-2.835453748703003,5.162904739379883,0.8430328369140625
1701893360252323600,17.843323486328124,-2.53210186958313,5.045229434967041,1.1216926574707031
1701893360269312800,17.860312744140625,-2.2994351387023926,4.782198905944824,1.7314515113830566
1701893360286305000,17.877304931640627,-2.3531246185302734,4.550925254821777,2.4624485969543457
1701893360303294500,17.89429443359375,-2.7384042739868164,3.6341915130615234,3.4240169525146484
1701893360320284000,17.911283935546876,-2.9919509887695312,2.620114326477051,4.098045825958252
1701893360337278200,17.9282783203125,-2.489557981491089,1.3403129577636719,5.242048740386963
1701893360354267600,17.945267578125,-1.7722465991973877,-0.14660072326660156,6.895211696624756
1701893360371257300,17.96225732421875,-1.225197196006775,-2.9459609985351562,9.619224548339844
1701893360388247000,17.9792470703125,-0.266863077878952,-5.400818347930908,11.69023323059082
1701893360405241300,17.996241455078124,1.4259955883026123,-5.685020446777344,12.010632514953613
1701893360422230500,18.01323046875,2.8277390003204346,-4.439356803894043,11.648508071899414
1701893360439218200,18.03021826171875,3.6887917518615723,-3.123408794403076,11.395898818969727
1701893360456214300,18.04721435546875,4.0020294189453125,-2.7576799392700195,10.966741561889648
1701893360473201400,18.064201416015624,3.593789577484131,-3.2461295127868652,9.552050590515137
1701893360490193700,18.081193603515626,2.8806936740875244,-3.488096237182617,6.948214530944824
1701893360507186200,18.098186279296876,2.080336093902588,-3.250332832336426,4.175069332122803
1701893360524172000,18.115172119140624,1.286426067352295,-2.385756015777588,1.6823797225952148
1701893360541164500,18.13216455078125,0.6897556185722351,-1.2557730674743652,-0.39209651947021484
1701893360558154000,18.149154052734374,0.24885427951812744,-0.5702390670776367,-1.678786277770996
1701893360575149000,18.166149169921876,0.1004590094089508,-0.294954776763916,-2.5020179748535156
1701893360592130000,18.183130126953124,0.3209022879600525,-0.25808143615722656,-3.182903289794922
1701893360609127400,18.20012744140625,0.642530083656311,-0.3873410224914551,-3.8350019454956055
1701893360626119700,18.21711962890625,0.9154291749000549,-0.5516884326934814,-4.494967460632324
1701893360643109000,18.234109130859373,1.1228646039962769,-0.6606922149658203,-5.140296936035156
1701893360660101000,18.25110107421875,1.281427264213562,-0.7729253768920898,-5.675777435302734
1701893360677090300,18.26809033203125,1.3080686330795288,-0.8863821029663086,-6.152113914489746
1701893360694082300,18.285082275390625,1.1937990188598633,-1.0813205242156982,-6.613543510437012
1701893360711069000,18.30206884765625,1.0391950607299805,-1.3796045780181885,-7.018520355224609
1701893360728064300,18.319064208984376,1.0676966905593872,-1.7602320909500122,-7.439810276031494
1701893360745043200,18.336043212890626,1.2780981063842773,-2.10312557220459,-7.893298625946045
1701893360762034700,18.35303466796875,1.37510347366333,-2.3321375846862793,-8.35660171508789
1701893360779032300,18.3700322265625,1.3625130653381348,-2.5193493366241455,-8.548057556152344
1701893360796029700,18.38702978515625,1.640216588973999,-2.650935649871826,-8.258925437927246
1701893360813016000,18.40401611328125,2.0339560508728027,-3.0438385009765625,-7.278255462646484
1701893360829997800,18.420997802734377,2.097996234893799,-3.7565131187438965,-5.908666610717773
1701893360846996700,18.437996826171876,2.2325658798217773,-4.540246963500977,-4.691042423248291
1701893360863981000,18.45498095703125,2.7851204872131348,-5.144263744354248,-3.2270450592041016
1701893360880979200,18.471979248046875,3.116525173187256,-5.697541236877441,-0.5351171493530273
1701893360897960700,18.488960693359374,2.0126280784606934,-6.514362335205078,2.0977039337158203
1701893360914962000,18.5059619140625,0.2447817325592041,-7.5712971687316895,3.0907983779907227
1701893360931953000,18.522952880859375,-0.5311084985733032,-8.71634292602539,3.148859977722168
1701893360948942300,18.5399423828125,0.7003465890884399,-8.719852447509766,3.2146472930908203
1701893360965926400,18.556926513671876,2.3811044692993164,-7.956783771514893,4.365788459777832
1701893360982915600,18.57391552734375,3.1538326740264893,-6.584291934967041,5.989655494689941
1701893360999915800,18.590915771484376,2.6257286071777344,-5.209120750427246,7.024844169616699
1701893361016905000,18.607905029296877,1.6505088806152344,-3.6847991943359375,6.915439605712891
1701893361033894000,18.624893798828126,0.6631121039390564,-1.7804579734802246,5.860154151916504
1701893361050887000,18.641886962890624,-0.31959235668182373,0.1445302963256836,4.53165340423584
1701893361067879200,18.658879150390625,-1.2291232347488403,1.8114595413208008,3.398587226867676
1701893361084865300,18.675865234375,-1.7962301969528198,3.0456857681274414,2.4792346954345703
1701893361101850000,18.69285009765625,-2.0225892066955566,3.683573007583618,1.494837760925293
1701893361118837800,18.709837646484374,-1.7670435905456543,3.9141831398010254,0.8725905418395996
1701893361135846400,18.726846435546875,-1.1467069387435913,4.179929733276367,0.3945770263671875
1701893361152820000,18.743820068359376,-0.7695404291152954,4.276340007781982,-0.23208284378051758
1701893361169817000,18.760817138671875,-0.761198103427887,4.211845397949219,-1.0549116134643555
1701893361186801400,18.777801513671875,-1.0557947158813477,4.060074806213379,-1.801156997680664
1701893361203799000,18.794799072265626,-1.4997352361679077,3.890838146209717,-2.366420269012451
1701893361220784600,18.81178466796875,-1.7156281471252441,3.955343246459961,-2.8431167602539062
1701893361237778700,18.82877880859375,-1.7389181852340698,4.089713096618652,-2.8854832649230957
1701893361254767400,18.845767333984377,-1.6929895877838135,4.276628017425537,-2.504270553588867
1701893361271759000,18.862759033203126,-1.722480058670044,4.277076244354248,-1.7643461227416992
1701893361288749300,18.879749267578124,-1.757094383239746,4.10029935836792,-1.2936692237854004
1701893361305739000,18.896739013671876,-1.9762499332427979,3.818373203277588,-1.3603501319885254
1701893361322731500,18.9137314453125,-2.4333455562591553,3.3502750396728516,-1.080294132232666
1701893361339728100,18.93072802734375,-2.7673568725585938,3.1113595962524414,-0.4941401481628418
1701893361356718000,18.947718017578126,-2.9727983474731445,3.144888401031494,0.5690569877624512
1701893361373712100,18.964712158203124,-3.1356470584869385,3.0553574562072754,2.1124558448791504
1701893361390699300,18.98169921875,-3.3862056732177734,2.5980961322784424,3.376555919647217
1701893361407695400,18.9986953125,-3.450500011444092,1.9916729927062988,3.851078510284424
1701893361424674800,19.0156748046875,-2.8970563411712646,1.071225643157959,4.3479228019714355
1701893361441675000,19.032675048828125,-2.4276859760284424,-2.24006986618042,7.04542875289917
1701893361458664400,19.04966455078125,-1.7536565065383911,-5.53417444229126,9.38667106628418
1701893361475653400,19.0666533203125,-0.17923325300216675,-6.679098606109619,10.07300853729248
1701893361492649200,19.083649169921873,1.3644883632659912,-5.177187442779541,9.778745651245117
1701893361509638000,19.100637939453126,2.2496347427368164,-3.567164897918701,9.966353416442871
1701893361526626600,19.11762646484375,2.6092615127563477,-3.162660598754883,10.296524047851562
1701893361543616300,19.1346162109375,2.876677989959717,-3.80670166015625,10.09566593170166
1701893361560608800,19.15160888671875,3.127718687057495,-4.21831750869751,8.607595443725586
1701893361577601000,19.16860107421875,2.9962353706359863,-3.6377086639404297,5.87959098815918
1701893361594585900,19.1855859375,2.6110894680023193,-2.4284605979919434,2.9762725830078125
1701893361611582000,19.20258203125,1.9270896911621094,-1.19862699508667,0.5079078674316406
1701893361628562700,19.219562744140624,1.3295302391052246,-0.4031500816345215,-1.2172503471374512
1701893361645564000,19.23656396484375,1.019521951675415,0.10118937492370605,-2.3705520629882812
1701893361662555100,19.25355517578125,0.8483400344848633,0.34127020835876465,-3.296588897705078
1701893361679543800,19.270543701171874,0.7361805438995361,0.43518972396850586,-4.106463432312012
1701893361696534500,19.287534423828124,0.6993223428726196,0.48874998092651367,-4.836786270141602
1701893361713526800,19.30452685546875,0.7936449646949768,0.4639244079589844,-5.474521636962891
1701893361730510800,19.3215107421875,1.0610700845718384,0.3367140293121338,-5.722439289093018
1701893361747511300,19.33851123046875,1.3314502239227295,0.23421430587768555,-5.825448036193848
1701893361764497700,19.35549755859375,1.1258859634399414,-0.022171497344970703,-6.049503803253174
1701893361781489700,19.37248974609375,0.615840494632721,-0.31026291847229004,-6.599254608154297
1701893361798478600,19.389478515625,0.6297190189361572,-0.5344281196594238,-6.850386619567871
1701893361815473400,19.406473388671873,1.0679216384887695,-0.663479208946228,-6.691743850708008
1701893361832459800,19.423459716796874,1.5551609992980957,-0.7783099412918091,-6.1263427734375
1701893361849452800,19.440452880859375,1.7536489963531494,-1.0202807188034058,-5.4479546546936035
1701893361866441500,19.45744140625,1.9207788705825806,-1.3097991943359375,-4.901888847351074
1701893361883433000,19.474432861328125,2.207362174987793,-1.6529055833816528,-4.336851119995117
1701893361900427300,19.49142724609375,2.3980329036712646,-1.9461866617202759,-3.720503807067871
1701893361917415700,19.508415771484376,2.3683547973632812,-2.368762969970703,-2.8679466247558594
1701893361934406100,19.52540625,1.8686470985412598,-2.9742586612701416,-2.2743330001831055
1701893361951397400,19.5423974609375,1.6256450414657593,-3.370903253555298,-2.0499191284179688
1701893361968386800,19.55938671875,1.840945839881897,-3.9720516204833984,-1.3622550964355469
1701893361985378800,19.57637890625,1.879865288734436,-4.5203938484191895,-0.35355663299560547
1701893362002368000,19.593367919921874,0.722811222076416,-5.5402445793151855,0.6616125106811523
1701893362019361000,19.610361083984376,-0.6340391635894775,-6.916316032409668,0.8142223358154297
1701893362036349400,19.627349365234377,-0.32092809677124023,-7.927475929260254,0.6384649276733398
1701893362053338600,19.644338623046874,1.7818377017974854,-8.090703964233398,1.6708650588989258
1701893362070331400,19.661331298828124,3.7021141052246094,-6.868727684020996,3.847355842590332
1701893362087323600,19.67832373046875,3.4843239784240723,-5.697667598724365,5.705876350402832
1701893362104312600,19.6953125,1.8963744640350342,-4.881853103637695,7.007514953613281
1701893362121301500,19.712301513671875,0.5879151821136475,-3.908315658569336,8.283365249633789
1701893362138294300,19.729294189453125,-0.47192633152008057,-1.8999323844909668,7.7311296463012695
1701893362155286300,19.746286376953126,-1.9418261051177979,0.12798023223876953,5.698077201843262
1701893362172276000,19.76327587890625,-3.0597832202911377,1.7422590255737305,3.485342025756836
1701893362189267700,19.780267822265625,-3.1264328956604004,2.8270368576049805,1.883829116821289
1701893362206257400,19.79725732421875,-2.3533244132995605,3.454042673110962,0.707270622253418
1701893362223249400,19.81424951171875,-1.5380510091781616,3.843468189239502,-0.36499691009521484
1701893362240238600,19.831238525390624,-0.926973283290863,4.227747917175293,-1.4265546798706055
1701893362257227000,19.84822705078125,-0.6029660701751709,4.334923267364502,-2.150197982788086
1701893362274224000,19.86522412109375,-0.7208921909332275,4.202788829803467,-2.566319465637207
1701893362291212300,19.88221240234375,-1.0537385940551758,4.289024353027344,-3.1505370140075684
1701893362308200700,19.89920068359375,-1.3294154405593872,4.408047676086426,-3.565865993499756
1701893362325184300,19.916184326171877,-1.1444928646087646,4.744634628295898,-3.7207822799682617
1701893362342180600,19.9331806640625,-0.7006967067718506,4.893224239349365,-3.3674144744873047
1701893362359167200,19.950167236328124,-0.4177591800689697,4.908626079559326,-2.5830941200256348
1701893362376164600,19.96716455078125,-0.22992241382598877,4.747844219207764,-1.6344199180603027
1701893362393156600,19.984156494140624,-0.4011085629463196,4.281205654144287,-0.872955322265625
1701893362410146300,20.001146240234377,-0.8040786981582642,3.7862963676452637,-0.403378963470459
1701893362427138600,20.018138671875,-1.1069684028625488,3.54410457611084,0.20007085800170898
1701893362444124400,20.03512451171875,-1.4086706638336182,3.582934856414795,1.2188138961791992
1701893362461119500,20.052119384765625,-1.861581802368164,3.344224452972412,3.0035529136657715
1701893362478110500,20.0691103515625,-2.0342018604278564,2.3363890647888184,5.5496721267700195
1701893362495103200,20.086103271484376,-2.4061782360076904,1.3483476638793945,6.777039051055908
1701893362512084200,20.103084228515623,-2.6899523735046387,-0.33716726303100586,7.6827473640441895
1701893362529082600,20.12008251953125,-2.869080066680908,-3.9461050033569336,10.241191864013672
1701893362546072300,20.137072265625,-2.2872049808502197,-7.507635593414307,12.297815322875977
1701893362563064300,20.154064208984376,-0.1252884566783905,-7.978143215179443,11.989775657653809
1701893362580044000,20.1710439453125,2.450993537902832,-5.852266311645508,10.921092987060547
1701893362597045800,20.188045654296875,4.35343599319458,-4.321112155914307,10.665044784545898
1701893362614035200,20.20503515625,5.032393455505371,-4.245208263397217,10.411865234375
1701893362631024000,20.222024169921873,4.48090124130249,-4.793806552886963,8.771875381469727
1701893362648016600,20.2390166015625,3.421806573867798,-4.661656379699707,5.5701141357421875
1701893362664998000,20.255997802734374,2.693384885787964,-3.6505045890808105,1.9481754302978516
1701893362681998000,20.272998046875,2.411775588989258,-2.2925615310668945,-0.6337318420410156
1701893362698990300,20.289990234375,2.150265693664551,-1.1544628143310547,-2.1131763458251953
1701893362715962600,20.306962646484376,1.659126877784729,-0.3312687873840332,-3.014409065246582
1701893362732971500,20.323971435546873,1.0526360273361206,0.11326313018798828,-3.637754440307617
1701893362749958100,20.340958251953126,0.26748818159103394,0.25774359703063965,-4.2320733070373535
1701893362766956500,20.35795654296875,-0.26857101917266846,0.38343071937561035,-4.902275562286377
1701893362783942400,20.3749423828125,-0.3778669238090515,0.45559096336364746,-5.379538536071777
1701893362800934700,20.3919345703125,-0.41688889265060425,0.39260268211364746,-5.668717384338379
1701893362817923300,20.40892333984375,-0.6001989841461182,0.21367120742797852,-5.7947821617126465
1701893362834917000,20.425917236328125,-0.4892157316207886,0.1917576789855957,-6.09899377822876
1701893362851905500,20.442905517578126,-0.01303255558013916,-0.005391120910644531,-6.636063575744629
1701893362868897800,20.459897705078124,0.6372964978218079,-0.3556807041168213,-7.2740678787231445
1701893362885886500,20.476886474609376,1.3387421369552612,-0.7714283466339111,-7.684153079986572
1701893362902880000,20.4938798828125,2.0284342765808105,-0.9286748170852661,-7.758003234863281
1701893362919868400,20.510868408203127,2.345418930053711,-0.9702284336090088,-7.420228958129883
1701893362936860400,20.5278603515625,2.4699976444244385,-0.9498202800750732,-6.927849769592285
1701893362953847000,20.544846923828125,2.5150628089904785,-1.1064954996109009,-6.238175392150879
1701893362970842400,20.56184228515625,2.5931620597839355,-1.1554460525512695,-5.7087883949279785
1701893362987831600,20.57883154296875,2.4313158988952637,-1.53264582157135,-4.933108329772949
1701893363004823800,20.59582373046875,2.0849883556365967,-2.5860724449157715,-3.54842472076416
1701893363021813200,20.612813232421875,1.6301217079162598,-3.535703659057617,-2.4823951721191406
1701893363038805500,20.629805419921876,1.1320159435272217,-4.351047039031982,-1.6724753379821777
1701893363055794000,20.6467939453125,0.6362779140472412,-5.280335426330566,-0.5436534881591797
1701893363072787200,20.663787109375,-0.607610821723938,-7.1003289222717285,1.2897863388061523
1701893363089776600,20.680776611328124,-1.9151484966278076,-8.65259075164795,1.8342552185058594
1701893363106758000,20.6977578125,-1.8693867921829224,-9.968574523925781,2.0852603912353516
1701893363123757600,20.714757568359374,0.19439351558685303,-10.104438781738281,3.2672290802001953
1701893363140745200,20.7317451171875,2.90299391746521,-8.764240264892578,5.529096603393555
1701893363157740300,20.748740234375,4.170934200286865,-6.96530818939209,7.655910491943359
1701893363174731300,20.765731201171874,3.916166067123413,-5.184192657470703,8.623529434204102
1701893363191720700,20.782720703125,2.5303988456726074,-3.5366063117980957,8.670823097229004
1701893363208711700,20.799711669921876,0.26442751288414,-1.5882253646850586,7.441946983337402
1701893363225692400,20.8166923828125,-2.217357635498047,0.4297614097595215,5.237002849578857
1701893363242694400,20.8336943359375,-3.783123016357422,2.213776111602783,3.318687915802002
1701893363259683600,20.85068359375,-4.242079257965088,3.4255146980285645,2.910883903503418
1701893363276675800,20.86767578125,-3.408616542816162,4.3573455810546875,3.1949281692504883
1701893363293665300,20.884665283203127,-1.947892427444458,5.208191394805908,2.9936089515686035
1701893363310657500,20.901657470703125,-1.0345699787139893,5.497405052185059,1.8904671669006348
1701893363327635200,20.91863525390625,-0.7898541688919067,5.389095783233643,0.4013671875
1701893363344637200,20.93563720703125,-0.8605470657348633,5.196628570556641,-0.9546117782592773
1701893363361631000,20.952630859375,-0.8231687545776367,4.8029985427856445,-1.6879777908325195
1701893363378620400,20.969620361328126,-0.34328773617744446,4.67802095413208,-2.4387001991271973
1701893363395609600,20.986609619140626,0.36601513624191284,4.683745861053467,-2.698087692260742
1701893363412592600,21.003592529296874,0.8101843595504761,4.847449779510498,-2.6560826301574707
1701893363429581600,21.02058154296875,0.7567185163497925,5.132600784301758,-2.101379871368408
1701893363446573000,21.037572998046876,-0.0072987377643585205,5.297360420227051,-1.2413420677185059
1701893363463563000,21.05456298828125,-1.19022798538208,5.17104434967041,-0.13703298568725586
1701893363480555000,21.071554931640627,-2.392576217651367,4.861672401428223,0.6687197685241699
1701893363497547300,21.08854736328125,-2.96988582611084,4.381298065185547,1.1275014877319336
1701893363514541800,21.105541748046875,-2.7574925422668457,3.780754566192627,1.4785809516906738
1701893363531529200,21.122529296875,-2.1989924907684326,3.351874351501465,2.0745153427124023
1701893363548530200,21.1395302734375,-1.9077632427215576,2.9419631958007812,3.2487521171569824
1701893363565517600,21.156517578125,-2.3187382221221924,2.033237934112549,4.749576091766357
1701893363582506800,21.1735068359375,-3.0807156562805176,0.7148270606994629,5.381350994110107
1701893363599501300,21.190501220703126,-2.965000629425049,-0.30712461471557617,5.245028495788574
1701893363616488200,21.20748828125,-1.8989940881729126,-2.470122814178467,6.734836101531982
1701893363633482800,21.224482666015625,-0.45682674646377563,-6.041778087615967,9.442914009094238
1701893363650468600,21.241468505859373,1.597691297531128,-7.989610195159912,9.336005210876465
1701893363667462400,21.25846240234375,3.644595146179199,-7.972144603729248,8.32354736328125
1701893363684453600,21.27545361328125,4.183896541595459,-6.9401774406433105,8.198324203491211
1701893363701443300,21.292443359375,2.929835081100464,-6.355605125427246,8.211217880249023
1701893363718434600,21.3094345703125,1.518941044807434,-5.981231212615967,7.332400321960449
1701893363735425500,21.326425537109376,0.8445941209793091,-5.510488033294678,5.693190574645996
1701893363752413700,21.34341357421875,0.7381913065910339,-4.953520774841309,3.3245296478271484
1701893363769406500,21.360406494140626,0.9702373147010803,-3.8891892433166504,0.9911079406738281
1701893363786398500,21.3773984375,0.9790135622024536,-2.746027708053589,-0.7920103073120117
1701893363803387600,21.3943876953125,0.7835800647735596,-1.6241605281829834,-2.227029800415039
1701893363820379600,21.411379638671875,0.8170428276062012,-0.7124912738800049,-3.4513158798217773
1701893363837369600,21.42836962890625,1.0694870948791504,-0.12211036682128906,-4.406142234802246
1701893363854358500,21.445358642578125,1.3336734771728516,0.1748976707458496,-5.097116947174072
1701893363871350500,21.4623505859375,1.5479971170425415,0.41350865364074707,-5.772562026977539
1701893363888350000,21.479349853515625,1.641024112701416,0.5308780670166016,-6.228024959564209
1701893363905332500,21.49633251953125,1.5895967483520508,0.5596286058425903,-6.642845153808594
1701893363922324200,21.51332421875,1.493279218673706,0.5220475196838379,-7.061387062072754
1701893363939314000,21.53031396484375,1.631386637687683,0.49443089962005615,-7.364128112792969
1701893363956305700,21.5473056640625,1.9421947002410889,0.3759639263153076,-7.4229655265808105
1701893363973292500,21.56429248046875,2.318784713745117,0.14554965496063232,-7.3553385734558105
1701893363990288000,21.581287841796875,2.502697467803955,-0.10131824016571045,-7.388699531555176
1701893364007276800,21.59827685546875,2.540328025817871,-0.17192232608795166,-7.581953048706055
1701893364024258800,21.6152587890625,2.481998920440674,-0.023830771446228027,-7.613804817199707
1701893364041255400,21.63225537109375,2.595667839050293,0.04968559741973877,-6.996893882751465
1701893364058250500,21.64925048828125,2.806647300720215,-0.0066831111907958984,-5.885288715362549
1701893364075240700,21.66624072265625,2.6205058097839355,-0.29021739959716797,-4.536735534667969
1701893364092230700,21.683230712890627,2.1711618900299072,-1.2672497034072876,-2.609628677368164
