time,seconds_elapsed,z,y,x
1701893602106723300,0.174723388671875,-0.45314884185791016,-0.09136772155761719,-0.21090149879455566
1701893602123720400,0.191720458984375,0.14840984344482422,-0.12375354766845703,-0.5605411529541016
1701893602140710000,0.2087099609375,-0.10538482666015625,-0.28488683700561523,-0.1578369140625
1701893602157711400,0.22571142578125,-0.9342489242553711,-0.4620480537414551,0.11782097816467285
1701893602174694400,0.2426943359375,-2.0995516777038574,-0.5619406700134277,-0.09002089500427246
1701893602191689500,0.259689453125,-2.551150321960449,-0.7668821811676025,-0.7048792839050293
1701893602208682000,0.276681884765625,-2.436357021331787,-1.0072262287139893,-1.47727632522583
1701893602225670100,0.293670166015625,-2.565918445587158,-2.1925971508026123,-1.6609001159667969
1701893602242663000,0.310662841796875,-0.9206333160400391,-0.7041535377502441,-1.6651852130889893
1701893602259657700,0.32765771484375,-1.4034924507141113,-0.9135136604309082,-0.9840943813323975
1701893602276648700,0.344648681640625,-2.314645290374756,-1.0006093978881836,-0.6577069759368896
1701893602293637000,0.36163720703125,-1.752737045288086,-1.485152244567871,-1.1926813125610352
1701893602310627000,0.378626953125,-1.5770502090454102,-1.6164295673370361,-1.787137508392334
1701893602327624700,0.395624755859375,-1.8848485946655273,-1.372910976409912,-2.100564479827881
1701893602344611300,0.412611328125,-2.107740879058838,-1.2367191314697266,-2.1131458282470703
1701893602361606000,0.42960595703125,-2.47011137008667,-1.0089917182922363,-2.2922561168670654
1701893602378593500,0.446593505859375,-2.70438814163208,-1.419564962387085,-2.0176162719726562
1701893602395587000,0.463587158203125,-2.136058807373047,-1.2021830081939697,-2.323979377746582
1701893602412581000,0.4805810546875,-1.1285886764526367,-2.103971481323242,-2.4639484882354736
1701893602429572600,0.497572509765625,0.20317840576171875,-2.9064488410949707,-1.720515251159668
1701893602446563800,0.514563720703125,0.22340774536132812,-2.1904897689819336,-2.0991806983947754
1701893602463553800,0.5315537109375,-0.7132019996643066,-2.2245373725891113,-2.061558246612549
1701893602480547000,0.548547119140625,-0.9452943801879883,-3.011138677597046,-1.3454437255859375
1701893602497540000,0.5655400390625,0.2626781463623047,-3.5091280937194824,0.0048675537109375
1701893602514528300,0.5825283203125,0.6394133567810059,-3.939671039581299,0.34494972229003906
1701893602531521800,0.599521728515625,-0.714017391204834,-4.014211654663086,0.03821563720703125
1701893602548516600,0.6165166015625,-2.0747923851013184,-3.8124074935913086,-0.6344099044799805
1701893602565503500,0.63350341796875,-2.006105422973633,-3.7235326766967773,-0.2975196838378906
1701893602582495000,0.650494873046875,-0.21379327774047852,-3.578866958618164,1.0686607360839844
1701893602599492000,0.6674921875,1.515951156616211,-3.407717704772949,2.780904769897461
1701893602616482000,0.68448193359375,2.039170503616333,-3.189901828765869,3.5189380645751953
1701893602633470200,0.70147021484375,1.2921781539916992,-2.9665236473083496,3.0858898162841797
1701893602650463500,0.71846337890625,0.5426756143569946,-3.044192314147949,2.423769950866699
1701893602667458000,0.7354580078125,0.5814869403839111,-3.035166025161743,2.0890750885009766
1701893602684444700,0.752444580078125,1.3600895404815674,-2.7141246795654297,3.2125635147094727
1701893602701432300,0.769432373046875,1.845202922821045,-2.7169995307922363,5.500546455383301
1701893602718422000,0.786422119140625,1.9395182132720947,-2.1455636024475098,6.272092819213867
1701893602735420400,0.80342041015625,1.7449567317962646,-1.3836770057678223,6.006756782531738
1701893602752414500,0.82041455078125,1.5709900856018066,-0.8165841102600098,5.665315628051758
1701893602769395700,0.837395751953125,1.6182849407196045,-0.33068132400512695,5.641458034515381
1701893602786396000,0.85439599609375,2.0280771255493164,0.30686378479003906,5.86212158203125
1701893602803390000,0.871389892578125,2.4308066368103027,1.1212687492370605,6.234287738800049
1701893602820377300,0.88837744140625,2.653214931488037,2.057039260864258,5.964496612548828
1701893602837375500,0.90537548828125,2.3094663619995117,3.2069993019104004,5.547060966491699
1701893602854369300,0.922369384765625,1.622214674949646,4.035826683044434,4.924063205718994
1701893602871348200,0.93934814453125,0.9197816848754883,4.7237772941589355,4.359554290771484
1701893602888353300,0.956353271484375,0.4593645930290222,5.249447345733643,3.731771945953369
1701893602905341000,0.9733408203125,0.21374911069869995,5.611414432525635,3.367492198944092
1701893602922316500,0.990316650390625,0.03982970118522644,5.9005842208862305,2.934457778930664
1701893602939328000,1.007327880859375,-0.27308398485183716,6.108499526977539,2.584308624267578
1701893602956315100,1.024315185546875,-0.6009747385978699,6.317986488342285,2.158010482788086
1701893602973303800,1.0413037109375,-0.8808189630508423,6.542142391204834,1.6563711166381836
1701893602990295300,1.05829541015625,-1.19820237159729,6.62858772277832,1.5552091598510742
1701893603007292400,1.07529248046875,-1.7606695890426636,6.588901996612549,1.5118122100830078
1701893603024276200,1.092276123046875,-2.2697196006774902,6.4224700927734375,1.4405217170715332
1701893603041275400,1.109275390625,-2.5291943550109863,5.975872993469238,1.2925610542297363
1701893603058265300,1.126265380859375,-2.6870734691619873,5.4360737800598145,1.1071100234985352
1701893603075253800,1.143253662109375,-2.670518159866333,4.983996391296387,0.9215950965881348
1701893603092248300,1.160248291015625,-2.6353414058685303,4.603876113891602,0.8988418579101562
1701893603109239600,1.177239501953125,-2.466080665588379,4.261242866516113,1.1484198570251465
1701893603126232000,1.194232177734375,-2.1477737426757812,4.029452800750732,1.3470516204833984
1701893603143218200,1.21121826171875,-1.8570541143417358,3.7049782276153564,1.3957762718200684
1701893603160216600,1.228216552734375,-1.5135523080825806,3.1418702602386475,1.4990525245666504
1701893603177207800,1.245207763671875,-1.2705857753753662,1.8701395988464355,2.4659981727600098
1701893603194194400,1.2621943359375,-1.0256789922714233,0.14616727828979492,3.886356830596924
1701893603211187200,1.279187255859375,-0.3834753632545471,-1.4690828323364258,4.521623134613037
1701893603228182000,1.29618212890625,0.29168593883514404,-3.359103202819824,4.952369689941406
1701893603245164300,1.313164306640625,0.8466023802757263,-6.467543601989746,6.94806432723999
1701893603262162000,1.330161865234375,1.6668051481246948,-9.953046798706055,9.392265319824219
1701893603279158800,1.34715869140625,3.4417495727539062,-10.74742317199707,9.871928215026855
1701893603296149200,1.364149169921875,5.013732433319092,-8.842741012573242,9.356802940368652
1701893603313137700,1.3811376953125,5.631789207458496,-6.513603687286377,9.036738395690918
1701893603330127000,1.398127197265625,5.184697151184082,-5.4086833000183105,8.819954872131348
1701893603347125500,1.41512548828125,4.206327438354492,-5.223748683929443,7.722779273986816
1701893603364106500,1.4321064453125,3.1847715377807617,-5.26744270324707,5.3883161544799805
1701893603381101600,1.4491015625,2.4572463035583496,-5.07436466217041,2.0543642044067383
1701893603398100500,1.4661005859375,2.143404960632324,-4.113903999328613,-1.6751585006713867
1701893603415084500,1.48308447265625,2.106713056564331,-2.8960578441619873,-4.379531383514404
1701893603432085000,1.5000849609375,2.0120718479156494,-1.7544002532958984,-5.7981414794921875
1701893603449078000,1.517078125,1.746793270111084,-1.0009326934814453,-6.367551803588867
1701893603466048500,1.534048583984375,1.3330011367797852,-0.6228674650192261,-6.57744836807251
1701893603483054800,1.551054931640625,0.9449405074119568,-0.571319580078125,-6.9835524559021
1701893603500045600,1.568045654296875,0.6225035190582275,-0.7332382202148438,-7.587116718292236
1701893603517039400,1.585039306640625,0.300096333026886,-1.0593520402908325,-8.14884090423584
1701893603534027800,1.60202783203125,-0.002959921956062317,-1.4664700031280518,-8.562792778015137
1701893603551023900,1.61902392578125,-0.15268248319625854,-1.7707799673080444,-8.95451831817627
1701893603568017200,1.63601708984375,-0.10161274671554565,-1.909624695777893,-9.435745239257812
1701893603584995300,1.652995361328125,0.08541163802146912,-1.9861290454864502,-9.673839569091797
1701893603601994800,1.669994873046875,0.32249417901039124,-1.8988792896270752,-9.649763107299805
1701893603618990000,1.686989990234375,0.3694893419742584,-1.9882327318191528,-8.954051971435547
1701893603635978500,1.703978515625,0.44242429733276367,-2.12365984916687,-8.030329704284668
1701893603652963300,1.72096337890625,0.5952234268188477,-2.2291882038116455,-7.109249591827393
1701893603669964000,1.737964111328125,0.43009912967681885,-2.3220531940460205,-6.005697250366211
1701893603686958300,1.754958251953125,-0.01438140869140625,-2.7727956771850586,-4.591466426849365
1701893603703945000,1.771945068359375,-0.47931569814682007,-3.911632537841797,-2.7247185707092285
1701893603720938200,1.788938232421875,-0.3043426275253296,-4.777010440826416,-1.0548038482666016
1701893603737930200,1.80593017578125,0.1875801682472229,-4.873293399810791,-0.3437156677246094
1701893603754920700,1.822920654296875,0.2056354284286499,-5.339931964874268,1.4217405319213867
1701893603771914800,1.839914794921875,-0.3820945620536804,-6.561463356018066,3.9739999771118164
1701893603788906800,1.85690673828125,-0.21065950393676758,-7.136329650878906,5.38758659362793
1701893603805892900,1.873892822265625,1.2307393550872803,-7.604483604431152,6.86699104309082
1701893603822893600,1.8908935546875,2.9096429347991943,-6.884591102600098,8.20946216583252
1701893603839880700,1.907880615234375,3.8539440631866455,-5.469644546508789,10.310449600219727
1701893603856874800,1.924874755859375,3.2416396141052246,-4.037179470062256,11.43952465057373
1701893603873854200,1.941854248046875,1.3304239511489868,-2.451897144317627,10.683944702148438
1701893603890855000,1.95885498046875,-1.031367301940918,-0.48966407775878906,8.447179794311523
1701893603907850000,1.97585009765625,-2.6997334957122803,1.4229111671447754,6.176511764526367
1701893603924838400,1.99283837890625,-3.448828935623169,2.944862127304077,4.411444664001465
1701893603941830700,2.00983056640625,-3.5869061946868896,4.067901611328125,3.2125682830810547
1701893603958824700,2.02682470703125,-3.324296474456787,4.820333003997803,2.4575109481811523
1701893603975811000,2.04381103515625,-2.9030158519744873,5.262398719787598,1.9388947486877441
1701893603992807200,2.06080712890625,-2.173281669616699,5.760575771331787,1.2665972709655762
1701893604009794800,2.077794921875,-1.565012812614441,6.203985214233398,0.5557389259338379
1701893604026797000,2.094797119140625,-1.2423508167266846,6.374972820281982,-0.11739206314086914
1701893604043779600,2.111779541015625,-1.10774564743042,6.455626010894775,-0.8555111885070801
1701893604060770600,2.1287705078125,-1.0448874235153198,6.4546942710876465,-1.3898000717163086
1701893604077764900,2.145764892578125,-0.8790503740310669,6.385822772979736,-1.8046526908874512
1701893604094756600,2.162756591796875,-0.8110742568969727,6.119694709777832,-1.7795400619506836
1701893604111747600,2.17974755859375,-0.5730416178703308,5.87194299697876,-1.4398751258850098
1701893604128742000,2.196741943359375,-0.3919432759284973,5.357186317443848,-1.377389907836914
1701893604145729000,2.21372900390625,-0.2815663814544678,4.741152763366699,-1.4772567749023438
1701893604162721000,2.230720947265625,-0.27044081687927246,4.075923442840576,-1.073718547821045
1701893604179716600,2.247716552734375,-0.40472936630249023,3.7193994522094727,-0.22734785079956055
1701893604196708000,2.2647080078125,-0.602278470993042,3.705759286880493,1.030897617340088
1701893604213695000,2.281695068359375,-1.0471463203430176,3.2546606063842773,2.7000174522399902
1701893604230679800,2.2986796875,-1.2824647426605225,2.282527446746826,4.242156982421875
1701893604247682800,2.315682861328125,-0.7540422677993774,1.5759387016296387,5.094986438751221
1701893604264670700,2.332670654296875,-0.11662420630455017,0.26856565475463867,6.663919925689697
1701893604281664300,2.349664306640625,-0.20671230554580688,-3.1856770515441895,9.632954597473145
1701893604298657500,2.366657470703125,0.17466923594474792,-5.679041385650635,10.858861923217773
1701893604315646200,2.383646240234375,1.3288911581039429,-6.098117351531982,10.451995849609375
1701893604332640800,2.400640869140625,2.4615561962127686,-5.223343372344971,10.218765258789062
1701893604349631000,2.417630859375,2.9563400745391846,-4.516892433166504,10.654245376586914
1701893604366621000,2.434620849609375,2.8172597885131836,-4.668972015380859,10.64926528930664
1701893604383612200,2.451612060546875,2.469144344329834,-4.945216178894043,9.295398712158203
1701893604400607000,2.46860693359375,2.518876075744629,-4.936080455780029,6.787966251373291
1701893604417598500,2.485598388671875,2.756767749786377,-4.233522415161133,3.821287155151367
1701893604434588700,2.502588623046875,2.680446147918701,-3.3516483306884766,1.191843032836914
1701893604451581200,2.519581298828125,2.303868532180786,-2.5535778999328613,-0.8856563568115234
1701893604468575000,2.536574951171875,1.912196397781372,-1.871150016784668,-2.6491613388061523
1701893604485562000,2.55356201171875,1.514693021774292,-1.3145685195922852,-4.262808799743652
1701893604502557700,2.5705576171875,1.3199572563171387,-0.8268475532531738,-5.590587615966797
1701893604519548000,2.5875478515625,1.273309588432312,-0.4644339084625244,-6.546148300170898
1701893604536541700,2.604541748046875,1.208512306213379,-0.2593507766723633,-7.155213356018066
1701893604553528600,2.621528564453125,0.9953351020812988,-0.27177727222442627,-7.410683631896973
1701893604570524000,2.63852392578125,0.6676666736602783,-0.4548588991165161,-7.446157932281494
1701893604587506200,2.655506103515625,0.2923804521560669,-0.7758611440658569,-7.58364200592041
1701893604604504300,2.67250439453125,-0.093960240483284,-1.194016456604004,-8.00536823272705
1701893604621495800,2.689495849609375,-0.420404314994812,-1.6529054641723633,-8.54768180847168
1701893604638494000,2.706493896484375,-0.5852526426315308,-2.0409328937530518,-8.493494033813477
1701893604655478800,2.723478759765625,-0.595015823841095,-2.225468635559082,-8.448639869689941
1701893604672474400,2.740474365234375,-1.0713180303573608,-2.8706841468811035,-8.371687889099121
1701893604689464600,2.757464599609375,-1.3594200611114502,-3.576432704925537,-7.955691337585449
1701893604706451500,2.774451416015625,-0.9775182008743286,-4.25784969329834,-6.846606254577637
1701893604723445500,2.791445556640625,0.08311998844146729,-4.710123538970947,-5.462131977081299
1701893604740437200,2.808437255859375,1.447860598564148,-4.623234748840332,-3.2568063735961914
1701893604757436400,2.8254365234375,1.2777611017227173,-5.674851417541504,0.2152547836303711
1701893604774418700,2.842418701171875,-0.7118375301361084,-7.748767375946045,2.2824087142944336
1701893604791417300,2.859417236328125,-1.6457115411758423,-9.14205551147461,2.162417411804199
1701893604808408000,2.876407958984375,-0.1745508909225464,-9.742996215820312,2.3320817947387695
1701893604825393000,2.893392822265625,2.0031185150146484,-8.602682113647461,3.708958625793457
1701893604842392300,2.910392333984375,3.5830156803131104,-6.894881248474121,6.428930282592773
1701893604859386600,2.92738671875,3.159689426422119,-5.511734962463379,8.577432632446289
1701893604876374300,2.944374267578125,1.3651196956634521,-4.51963996887207,8.850512504577637
1701893604893365800,2.96136572265625,0.010654687881469727,-3.446777105331421,7.574654579162598
1701893604910358500,2.978358642578125,-0.38483941555023193,-1.9632196426391602,5.446138381958008
1701893604927351800,2.995351806640625,-0.36774611473083496,-0.6431851387023926,3.806248664855957
1701893604944341800,3.012341796875,-0.6563354730606079,0.21058225631713867,3.966653823852539
1701893604961332700,3.029332763671875,-0.8885737657546997,1.760190486907959,5.045668125152588
1701893604978325800,3.04632568359375,-1.0333865880966187,3.90203857421875,4.587924003601074
1701893604995312400,3.0633125,-1.4605722427368164,5.317415237426758,2.8558120727539062
1701893605012306000,3.080305908203125,-1.8192181587219238,5.7926716804504395,0.9987525939941406
1701893605029298400,3.09729833984375,-1.788424015045166,5.837397575378418,-0.6654748916625977
1701893605046292700,3.114292724609375,-1.5436482429504395,5.798674583435059,-1.7061538696289062
1701893605063276500,3.131276611328125,-1.1598079204559326,5.742877960205078,-2.148914337158203
1701893605080277500,3.148277587890625,-0.6824212074279785,5.613492012023926,-2.4333348274230957
1701893605097265700,3.165265625,-0.43142828345298767,5.210736274719238,-2.824982166290283
1701893605114258400,3.182258544921875,-0.14440304040908813,4.860805988311768,-3.408008575439453
1701893605131246300,3.199246337890625,0.23164403438568115,4.567704200744629,-3.42301082611084
1701893605148239600,3.216239501953125,0.3204306364059448,4.124320983886719,-2.3313212394714355
1701893605165234700,3.233234619140625,-0.24712109565734863,3.583988666534424,-0.12840843200683594
1701893605182213000,3.250213134765625,-1.5198019742965698,2.8048367500305176,2.0985960960388184
1701893605199208400,3.26720849609375,-2.5757877826690674,2.4526844024658203,3.3555808067321777
1701893605216210700,3.284210693359375,-2.960756301879883,1.8322877883911133,5.026122093200684
1701893605233199000,3.30119921875,-3.2577602863311768,-0.4150543212890625,8.506999969482422
1701893605250188000,3.31818798828125,-3.2233331203460693,-2.8411684036254883,12.085824966430664
1701893605267183900,3.335183837890625,-2.233018398284912,-3.7927560806274414,14.045791625976562
1701893605284175000,3.352175048828125,-1.223557949066162,-3.48891544342041,14.65588665008545
1701893605301155300,3.3691552734375,0.25000590085983276,-2.878793239593506,14.522809028625488
1701893605318157800,3.38615771484375,2.160336971282959,-2.912069797515869,13.961864471435547
1701893605335139800,3.403139892578125,3.498704433441162,-3.3893518447875977,12.342687606811523
1701893605352142000,3.42014208984375,3.861109733581543,-3.5227508544921875,9.071304321289062
1701893605369131300,3.43713134765625,3.608046054840088,-3.2413687705993652,5.515927791595459
1701893605386127400,3.45412744140625,3.0683884620666504,-2.8165125846862793,2.5189061164855957
1701893605403116300,3.4711162109375,2.488546371459961,-2.379244327545166,0.26024723052978516
1701893605420108500,3.488108642578125,1.8813769817352295,-2.0283384323120117,-1.625814437866211
1701893605437111000,3.505111083984375,1.4169189929962158,-1.6282944679260254,-3.3824448585510254
1701893605454089000,3.5220888671875,1.1245675086975098,-1.2713823318481445,-4.78277587890625
1701893605471083000,3.5390830078125,0.9002860188484192,-0.9862873554229736,-5.940070152282715
1701893605488062700,3.556062744140625,0.7313861846923828,-0.8079888820648193,-6.656736373901367
1701893605505056300,3.57305615234375,0.43278735876083374,-0.8570919036865234,-7.0327348709106445
1701893605522056200,3.59005615234375,0.15425506234169006,-1.079169511795044,-7.221770286560059
1701893605539046700,3.607046630859375,-0.0891437828540802,-1.3135695457458496,-7.314630508422852
1701893605556028700,3.624028564453125,-0.14643797278404236,-1.4390952587127686,-7.407401084899902
1701893605573025000,3.64102490234375,-0.21743778884410858,-1.7382473945617676,-7.490656852722168
1701893605590023400,3.6580234375,-0.3739330768585205,-2.178236484527588,-7.595014572143555
1701893605607011600,3.675011474609375,-0.42544907331466675,-2.738790512084961,-7.594983100891113
1701893605624009700,3.692009765625,-0.11981624364852905,-3.3208327293395996,-7.238407135009766
1701893605641007600,3.709007568359375,0.03436698764562607,-4.102702617645264,-6.44748592376709
1701893605657984000,3.72598388671875,0.06347784399986267,-4.355441093444824,-6.153420925140381
1701893605674983400,3.7429833984375,0.46408647298812866,-4.358254909515381,-5.37769889831543
1701893605691975400,3.759975341796875,0.7504969239234924,-4.88947868347168,-2.5533480644226074
1701893605708966700,3.776966552734375,-0.9840965270996094,-6.569741725921631,0.6524715423583984
1701893605725959200,3.793959228515625,-3.328148126602173,-9.239826202392578,1.5483169555664062
1701893605742948600,3.810948486328125,-2.5387308597564697,-10.588229179382324,1.639897346496582
1701893605759944000,3.82794384765625,1.4881258010864258,-9.337912559509277,3.085536003112793
1701893605776924200,3.844924072265625,4.671736717224121,-6.956521511077881,6.844719886779785
1701893605793926000,3.86192578125,4.086676120758057,-4.756333351135254,11.010109901428223
1701893605810906400,3.87890625,1.1405543088912964,-2.1374053955078125,11.937628746032715
1701893605827908400,3.895908447265625,-1.7475135326385498,0.24411940574645996,9.632755279541016
1701893605844893200,3.91289306640625,-3.009280204772949,1.8983936309814453,5.750945091247559
1701893605861892900,3.929892822265625,-2.760256767272949,2.8719289302825928,2.0841407775878906
1701893605878883600,3.946883544921875,-1.6225454807281494,3.2139804363250732,-0.37143707275390625
1701893605895875600,3.96387548828125,-0.4631419777870178,3.155897617340088,-1.4958782196044922
1701893605912866800,3.98086669921875,0.4150905907154083,3.250823497772217,-1.7175803184509277
1701893605929859800,3.99785986328125,1.1357412338256836,3.720426082611084,-1.6918978691101074
1701893605946850600,4.0148505859375,1.4713324308395386,4.244077682495117,-1.8589873313903809
1701893605963837000,4.0318369140625,1.410020351409912,4.440785884857178,-2.1717376708984375
1701893605980833800,4.048833740234375,1.0608088970184326,4.507051467895508,-2.7867884635925293
1701893605997834200,4.065834228515625,0.7713348865509033,4.397127151489258,-3.134500503540039
1701893606014817000,4.082817138671875,0.4916982650756836,4.162285804748535,-2.9119224548339844
1701893606031809500,4.0998095703125,0.27322128415107727,4.04907751083374,-2.4671239852905273
1701893606048800300,4.11680029296875,0.12989464402198792,3.893867254257202,-2.0134663581848145
1701893606065792500,4.13379248046875,-0.015029102563858032,3.5748889446258545,-1.6529388427734375
1701893606082794200,4.150794189453125,-0.14513474702835083,3.242485523223877,-1.311722755432129
1701893606099776000,4.16777587890625,-0.17305904626846313,3.2708096504211426,-0.8347640037536621
1701893606116767200,4.184767333984375,-0.2663768231868744,3.568403720855713,0.25577735900878906
1701893606133759700,4.201759765625,-0.9367080926895142,3.105253219604492,2.188267230987549
1701893606150747600,4.21874755859375,-1.6753497123718262,2.330422878265381,3.9805006980895996
1701893606167743000,4.235742919921875,-1.9992618560791016,1.640207290649414,4.585447311401367
1701893606184722000,4.252721923828125,-2.207106590270996,-1.5391063690185547,7.024017333984375
1701893606201718800,4.26971875,-2.0254175662994385,-6.480406761169434,10.380172729492188
1701893606218707700,4.286707763671875,-0.4766182005405426,-7.448253631591797,11.139644622802734
1701893606235711200,4.303711181640625,0.8991414308547974,-4.316294193267822,11.535611152648926
1701893606252701400,4.320701416015625,1.052356243133545,-1.6326985359191895,13.14474868774414
1701893606269683000,4.337682861328125,1.484760046005249,-0.02142190933227539,13.671716690063477
1701893606286674000,4.354673828125,1.6837950944900513,-0.5451207160949707,13.17092514038086
1701893606303676400,4.371676513671875,1.2740397453308105,-1.5519089698791504,10.615396499633789
1701893606320668200,4.388668212890625,0.972072958946228,-1.8177452087402344,6.506412029266357
1701893606337658400,4.405658447265625,0.9403786659240723,-1.403693675994873,2.7464351654052734
1701893606354651600,4.422651611328125,0.9361162185668945,-0.8667473793029785,-0.028051376342773438
1701893606371635700,4.4396357421875,0.8870038986206055,-0.5634598731994629,-1.8548393249511719
1701893606388627700,4.456627685546875,0.8799697160720825,-0.32849836349487305,-3.338510036468506
1701893606405615600,4.47361572265625,0.9638446569442749,-0.060259342193603516,-4.73655891418457
1701893606422607400,4.490607421875,1.075216293334961,0.262514591217041,-5.681560039520264
1701893606439605500,4.50760546875,0.7936338782310486,0.4479398727416992,-6.276247024536133
1701893606456598500,4.5245986328125,0.22699008882045746,0.5926096439361572,-6.644641399383545
1701893606473591600,4.541591552734375,-0.4252307415008545,0.6964411735534668,-6.9430742263793945
1701893606490580500,4.55858056640625,-0.64984130859375,0.7533977031707764,-7.1880645751953125
1701893606507569200,4.575569091796875,-0.4995768666267395,0.5054066181182861,-7.187551498413086
1701893606524556500,4.592556640625,0.08202061057090759,-0.0454556941986084,-7.042522430419922
1701893606541557800,4.609557861328125,0.8616639375686646,-0.6506681442260742,-6.8322062492370605
1701893606558548500,4.626548583984375,1.4727120399475098,-1.6305592060089111,-6.345853805541992
1701893606575536000,4.6435361328125,1.7874455451965332,-3.0692458152770996,-5.536515235900879
1701893606592526300,4.6605263671875,1.9275076389312744,-4.416886806488037,-4.839845657348633
1701893606609522400,4.6775224609375,2.5234408378601074,-4.8197174072265625,-4.175592422485352
1701893606626509800,4.694509765625,2.8583593368530273,-5.431957244873047,-2.1712512969970703
1701893606643498500,4.71149853515625,1.92257821559906,-6.662291526794434,0.5628299713134766
1701893606660498000,4.728497802734375,0.6091364622116089,-7.306643009185791,1.6348695755004883
1701893606677493800,4.74549365234375,0.10599291324615479,-7.569169044494629,1.345977783203125
1701893606694487600,4.762487548828125,0.794409990310669,-7.45438289642334,1.2806167602539062
1701893606711469000,4.779468994140625,1.741809368133545,-7.4979095458984375,2.306473731994629
1701893606728467000,4.796467041015625,2.688119411468506,-7.271480560302734,3.3734960556030273
1701893606745461800,4.813461669921875,3.246859550476074,-6.420215606689453,3.7352895736694336
1701893606762449000,4.830448974609375,3.1624624729156494,-5.145635604858398,3.55667781829834
1701893606779443700,4.847443603515625,2.383599042892456,-3.487006902694702,2.9763097763061523
1701893606796437200,4.864437255859375,1.3285727500915527,-1.8193674087524414,2.3959217071533203
1701893606813427700,4.881427734375,0.34573593735694885,-0.3547229766845703,1.949972152709961
1701893606830409500,4.898409423828125,-0.4249597489833832,1.0061323642730713,1.3895139694213867
1701893606847410400,4.915410400390625,-0.8433506488800049,2.103118658065796,0.752558708190918
1701893606864390700,4.932390625,-0.882473349571228,3.065143346786499,0.40819740295410156
1701893606881394700,4.949394775390625,-0.8437065482139587,3.9150307178497314,0.13161182403564453
1701893606898385200,4.96638525390625,-1.016810417175293,4.409191131591797,-0.39736413955688477
1701893606915377400,4.98337744140625,-1.3384897708892822,4.581173896789551,-1.121457576751709
1701893606932368400,5.000368408203125,-1.499565601348877,4.642889022827148,-1.9384002685546875
1701893606949361200,5.017361083984375,-1.5925087928771973,4.518773078918457,-2.516812324523926
1701893606966347800,5.03434765625,-1.5828943252563477,4.44056510925293,-2.8294811248779297
1701893606983341000,5.051341064453125,-1.4824001789093018,4.3529744148254395,-2.7152605056762695
1701893607000335000,5.068335205078125,-1.3855891227722168,4.248366355895996,-2.104951858520508
1701893607017327900,5.085327880859375,-1.4503459930419922,4.098365306854248,-1.1476554870605469
1701893607034318800,5.10231884765625,-1.720252275466919,3.926673173904419,0.3645448684692383
1701893607051305200,5.11930517578125,-2.034243583679199,3.7628889083862305,2.2559375762939453
1701893607068304600,5.1363046875,-2.3486123085021973,3.453359842300415,4.09406852722168
1701893607085294800,5.153294921875,-3.238090753555298,2.2559518814086914,5.557367324829102
1701893607102283000,5.170282958984375,-3.845797061920166,1.2156553268432617,5.886065483093262
1701893607119280400,5.1872802734375,-3.6518120765686035,-0.08950376510620117,6.453177452087402
1701893607136268800,5.204268798828125,-3.5998432636260986,-3.4521284103393555,8.848773956298828
1701893607153261300,5.22126123046875,-2.8626136779785156,-5.910109043121338,9.444334983825684
1701893607170248400,5.23824853515625,-0.6393240690231323,-5.622398853302002,8.677706718444824
1701893607187245600,5.25524560546875,1.5210822820663452,-3.5731968879699707,8.52882194519043
1701893607204235500,5.272235595703125,2.615081787109375,-1.997208595275879,9.25447940826416
1701893607221228300,5.289228271484375,2.772003412246704,-1.351027011871338,9.635177612304688
1701893607238218200,5.30621826171875,2.4870710372924805,-1.5417108535766602,9.255401611328125
1701893607255212300,5.32321240234375,2.3412556648254395,-1.5716805458068848,7.654841423034668
1701893607272202200,5.3402021484375,2.4209847450256348,-0.8653640747070312,5.392592430114746
1701893607289192700,5.357192626953125,2.301029682159424,0.2179417610168457,3.4537181854248047
1701893607306188300,5.374188232421875,1.865098237991333,1.1839275360107422,1.8184285163879395
1701893607323175700,5.39117578125,1.3798454999923706,1.812671184539795,0.4109525680541992
1701893607340171500,5.408171630859375,0.9337179660797119,2.121042251586914,-0.87530517578125
1701893607357161700,5.42516162109375,0.7744879722595215,2.137800693511963,-2.0887956619262695
1701893607374149600,5.442149658203125,0.6635376214981079,1.9566216468811035,-3.1737804412841797
1701893607391145000,5.45914501953125,0.5491289496421814,1.6548867225646973,-4.058533191680908
1701893607408136000,5.476135986328125,0.4794827401638031,1.3499765396118164,-4.855962753295898
1701893607425118200,5.4931181640625,0.44676968455314636,1.1467070579528809,-5.622115135192871
1701893607442119400,5.510119384765625,0.506047248840332,0.917938232421875,-6.32109260559082
1701893607459112000,5.52711181640625,0.5321965217590332,0.645057201385498,-6.953328609466553
1701893607476102700,5.5441025390625,0.5359792709350586,0.25275468826293945,-7.366513252258301
1701893607493092400,5.56109228515625,0.6405962705612183,-0.2855241298675537,-7.5326762199401855
1701893607510086400,5.57808642578125,1.052549958229065,-0.6912994384765625,-7.468117713928223
1701893607527068000,5.59506787109375,1.8198580741882324,-0.9077699184417725,-7.208676338195801
1701893607544069600,5.612069580078125,2.5197134017944336,-1.2075579166412354,-6.457301616668701
1701893607561059000,5.62905908203125,2.7411277294158936,-1.8865694999694824,-5.074192047119141
1701893607578053000,5.64605322265625,2.3896002769470215,-3.0717694759368896,-3.2731075286865234
1701893607595035100,5.66303515625,1.9004355669021606,-4.087254047393799,-1.9403772354125977
1701893607612036400,5.680036376953125,1.6787137985229492,-4.565753936767578,-1.2549419403076172
1701893607629029000,5.697029052734375,1.5310781002044678,-5.379212379455566,0.035155296325683594
1701893607646020000,5.71402001953125,1.0953960418701172,-6.7679595947265625,1.7008380889892578
1701893607663010300,5.73101025390625,0.7568901777267456,-7.933300018310547,2.408329963684082
1701893607680001800,5.748001708984375,1.0982186794281006,-8.815961837768555,2.5644617080688477
1701893607696995800,5.764995849609375,2.4454100131988525,-8.493030548095703,2.8653564453125
1701893607713986800,5.78198681640625,4.111569881439209,-6.997984886169434,4.0290985107421875
1701893607730979000,5.79897900390625,4.901682376861572,-5.061942100524902,5.490439414978027
1701893607747969300,5.81596923828125,4.034962177276611,-3.2665088176727295,5.907598495483398
1701893607764957000,5.83295703125,2.088827133178711,-1.7677690982818604,4.826517105102539
1701893607781953500,5.84995361328125,-0.13539040088653564,-0.28452205657958984,2.9588851928710938
1701893607798946300,5.8669462890625,-1.8555344343185425,1.1901776790618896,1.4610509872436523
1701893607815936800,5.883936767578125,-2.7174742221832275,2.492867946624756,0.7973480224609375
1701893607832929500,5.900929443359375,-2.859175205230713,3.633439779281616,0.4103126525878906
1701893607849918700,5.917918701171875,-2.8410451412200928,4.45117712020874,-0.3969688415527344
1701893607866914600,5.93491455078125,-2.9122166633605957,4.903664588928223,-1.279963493347168
1701893607883900400,5.951900390625,-3.020158529281616,5.038645267486572,-1.9510908126831055
1701893607900889600,5.9688896484375,-2.9563426971435547,5.204257965087891,-2.3098340034484863
1701893607917888000,5.985887939453125,-2.73915433883667,5.398137092590332,-2.633418560028076
1701893607934878500,6.00287841796875,-2.547090530395508,5.436537265777588,-2.717123508453369
1701893607951870500,6.019870361328125,-2.488054037094116,5.339664459228516,-2.6036524772644043
1701893607968863200,6.03686328125,-2.4395275115966797,5.218719482421875,-2.2209320068359375
1701893607985851600,6.0538515625,-2.343783140182495,5.086009979248047,-1.7776775360107422
1701893608002849000,6.07084912109375,-2.1925392150878906,4.7382917404174805,-0.9442625045776367
1701893608019837200,6.087837158203125,-2.271944522857666,4.337874889373779,0.30766820907592773
1701893608036829700,6.10482958984375,-2.5198488235473633,4.042628288269043,1.9018282890319824
1701893608053821000,6.121821044921875,-2.8588430881500244,3.288989543914795,3.6416406631469727
1701893608070810000,6.13881005859375,-2.831975221633911,2.541935920715332,4.880344867706299
1701893608087804200,6.15580419921875,-2.0944182872772217,1.7622976303100586,6.084115982055664
1701893608104797000,6.172796875,-1.584535002708435,-0.7869234085083008,8.963470458984375
1701893608121787600,6.18978759765625,-1.4175187349319458,-4.584019660949707,11.971725463867188
1701893608138780000,6.20677978515625,-1.0624070167541504,-6.274384498596191,12.321016311645508
1701893608155770000,6.22377001953125,-0.6276258826255798,-4.5400519371032715,10.50619888305664
1701893608172764200,6.24076416015625,-0.11002668738365173,-3.1378345489501953,9.678815841674805
1701893608189754600,6.257754638671875,0.441869854927063,-2.7146434783935547,8.98592472076416
1701893608206736400,6.274736328125,0.8878713250160217,-3.6476035118103027,8.391695022583008
1701893608223734800,6.29173486328125,0.9844319224357605,-4.783235549926758,6.829921722412109
1701893608240729300,6.308729248046875,1.2629097700119019,-4.938546180725098,3.964634895324707
1701893608257724200,6.32572412109375,1.8341937065124512,-3.8902463912963867,1.256856918334961
1701893608274714400,6.34271435546875,2.1705217361450195,-2.6276326179504395,-0.4648399353027344
1701893608291704600,6.35970458984375,2.1168484687805176,-1.7141902446746826,-1.5223259925842285
1701893608308697300,6.376697265625,1.7363661527633667,-1.2429530620574951,-2.456310272216797
1701893608325688000,6.39368798828125,1.4183526039123535,-1.0776829719543457,-3.5576987266540527
1701893608342677800,6.410677734375,1.2078973054885864,-1.0285894870758057,-4.930450916290283
1701893608359673600,6.427673583984375,1.1156553030014038,-0.9687561988830566,-6.249807357788086
1701893608376663300,6.444663330078125,1.0544562339782715,-0.867024302482605,-7.326519012451172
1701893608393652700,6.46165283203125,0.9803900122642517,-0.7696062326431274,-8.047627449035645
1701893608410647300,6.478647216796875,0.815682590007782,-0.6308795213699341,-8.566247940063477
1701893608427638300,6.49563818359375,0.6322569847106934,-0.5298638343811035,-8.835555076599121
1701893608444630300,6.51263037109375,0.589702308177948,-0.5810389518737793,-8.997512817382812
1701893608461622300,6.529622314453125,0.6562096476554871,-0.7194603681564331,-9.179320335388184
1701893608478612700,6.54661279296875,0.8589098453521729,-0.890927791595459,-9.165811538696289
1701893608495606300,6.563606201171875,0.9887049794197083,-1.1874724626541138,-8.705256462097168
1701893608512597800,6.58059765625,0.9750359058380127,-1.7818973064422607,-7.64622688293457
1701893608529588700,6.597588623046875,0.9492670297622681,-2.62248158454895,-6.160452365875244
1701893608546570200,6.6145703125,0.6805051565170288,-4.081398010253906,-4.488218307495117
1701893608563572000,6.631572021484375,0.774541974067688,-5.759627819061279,-2.3092541694641113
1701893608580564700,6.648564697265625,0.7413834929466248,-9.091676712036133,1.8438282012939453
1701893608597543000,6.66554296875,0.29280489683151245,-11.95002555847168,4.877904891967773
1701893608614544400,6.68254443359375,0.6056011915206909,-12.820281982421875,6.087998390197754
1701893608631538700,6.69953857421875,1.420430064201355,-10.934163093566895,6.894281387329102
1701893608648534800,6.71653466796875,2.486321210861206,-8.468803405761719,8.850658416748047
1701893608665523200,6.733523193359375,2.9710850715637207,-6.110269546508789,9.388784408569336
1701893608682501600,6.750501708984375,3.3444156646728516,-4.513880252838135,8.367219924926758
1701893608699509500,6.767509521484375,3.7537736892700195,-4.099611282348633,7.166860580444336
1701893608716498400,6.78449853515625,3.215975522994995,-3.0162487030029297,5.27674674987793
1701893608733489200,6.8014892578125,1.3786472082138062,-1.2455434799194336,3.598327159881592
1701893608750481400,6.8184814453125,-1.0249515771865845,0.9740304946899414,2.7675185203552246
1701893608767471600,6.8354716796875,-2.8202452659606934,2.866795539855957,3.5388216972351074
1701893608784466000,6.8524658203125,-3.625030279159546,4.259174346923828,4.470216274261475
1701893608801455900,6.869455810546875,-3.593836545944214,5.209232330322266,4.25753927230835
1701893608818453200,6.886453369140625,-3.337911605834961,5.665721893310547,2.8920464515686035
1701893608835439000,6.903439208984375,-3.436450481414795,5.909132957458496,1.0638041496276855
1701893608852432000,6.920431884765625,-3.650007724761963,5.710177898406982,-0.04690074920654297
1701893608869422800,6.9374228515625,-3.0520877838134766,5.523144245147705,-0.36661529541015625
1701893608886415000,6.9544150390625,-2.0481197834014893,5.327642440795898,0.06473875045776367
1701893608903402800,6.97140283203125,-1.7757713794708252,5.064283847808838,0.7235040664672852
1701893608920411000,6.988410888671875,-1.7778606414794922,4.893773078918457,1.0007624626159668
1701893608937389600,7.0053896484375,-1.724563479423523,4.748128890991211,1.127922534942627
1701893608954381800,7.0223818359375,-1.4370160102844238,4.363264083862305,1.6958765983581543
1701893608971369700,7.03936962890625,-1.0176177024841309,3.7430953979492188,2.9076905250549316
1701893608988361200,7.056361328125,-0.8179577589035034,3.14241361618042,4.430548191070557
1701893609005346600,7.0733466796875,-0.7695235013961792,2.5902786254882812,5.896409511566162
1701893609022348000,7.09034814453125,-0.6641360521316528,1.989553451538086,6.858470439910889
1701893609039337000,7.1073369140625,-0.6436649560928345,0.45561790466308594,7.835086345672607
1701893609056324400,7.124324462890625,-1.0744874477386475,-1.2787823677062988,8.66899585723877
1701893609073312300,7.141312255859375,-2.001842737197876,-1.8314237594604492,8.508222579956055
1701893609090311700,7.158311767578125,-3.2244722843170166,-1.396397590637207,7.769103527069092
1701893609107307500,7.1753076171875,-3.7128851413726807,-0.9825625419616699,7.340653896331787
1701893609124299300,7.19229931640625,-3.3168652057647705,-1.5471992492675781,7.553439617156982
1701893609141290000,7.2092900390625,-3.391735076904297,-3.026597499847412,7.364464282989502
1701893609158281500,7.226281494140625,-3.7947516441345215,-4.415065765380859,5.83476448059082
1701893609175274000,7.24327392578125,-3.7311418056488037,-5.494940280914307,3.9118213653564453
1701893609192266200,7.260266357421875,-2.6896679401397705,-5.966080188751221,2.020122528076172
1701893609209257000,7.277257080078125,-1.167304277420044,-6.410797595977783,0.6681737899780273
1701893609226249200,7.294249267578125,0.38268786668777466,-6.881880760192871,-0.26013660430908203
1701893609243237400,7.3112373046875,1.3330738544464111,-7.091978073120117,-1.1497488021850586
1701893609260235500,7.328235595703125,1.3277289867401123,-6.956843376159668,-2.353912353515625
1701893609277224000,7.345223876953125,0.7257483005523682,-6.596048355102539,-3.737154006958008
1701893609294206200,7.362206298828125,0.34415557980537415,-6.15847635269165,-4.804256439208984
1701893609311207000,7.37920703125,0.3167218565940857,-5.840126037597656,-5.438043594360352
1701893609328200000,7.396199951171875,0.4717484712600708,-5.4997053146362305,-5.7871317863464355
1701893609345191000,7.41319091796875,0.7187237739562988,-5.110644817352295,-5.94482421875
1701893609362183000,7.430182861328125,0.6961302161216736,-4.7069292068481445,-5.8873372077941895
1701893609379174000,7.447173828125,0.4870438575744629,-4.451120376586914,-5.622690200805664
1701893609396166400,7.46416650390625,0.25718820095062256,-4.256925582885742,-5.5705671310424805
1701893609413154600,7.481154541015625,0.02669215202331543,-4.095701694488525,-5.534141540527344
1701893609430149600,7.498149658203125,-0.21796733140945435,-3.917929172515869,-5.487325668334961
1701893609447138000,7.515137939453125,-0.558923065662384,-3.7119622230529785,-5.387509346008301
1701893609464136200,7.53213623046875,-0.9191412329673767,-3.4620778560638428,-5.392056465148926
1701893609481121300,7.549121337890625,-1.1647764444351196,-3.269512176513672,-5.520561218261719
1701893609498107600,7.566107666015625,-1.267735481262207,-3.114704132080078,-5.538552284240723
1701893609515107300,7.583107421875,-1.3097927570343018,-2.965836524963379,-5.467370510101318
1701893609532100400,7.600100341796875,-1.3987007141113281,-3.1322293281555176,-5.174015998840332
1701893609549091300,7.61709130859375,-1.1601111888885498,-3.372401714324951,-4.742587089538574
1701893609566083600,7.63408349609375,-0.6080108880996704,-3.789886713027954,-4.187502384185791
1701893609583074300,7.65107421875,0.023878946900367737,-4.333396911621094,-3.4932031631469727
1701893609600064800,7.668064697265625,0.866793692111969,-4.885988235473633,-2.4463109970092773
1701893609617058300,7.685058349609375,2.156250238418579,-5.197412490844727,-0.6770124435424805
1701893609634050600,7.702050537109375,3.194836139678955,-5.744079113006592,1.7295293807983398
1701893609651038500,7.71903857421875,3.9594204425811768,-6.2995991706848145,3.930840492248535
1701893609668036000,7.7360361328125,4.2808003425598145,-7.115941524505615,5.371045112609863
1701893609685020200,7.753020263671875,4.565340042114258,-7.836970329284668,5.991757392883301
1701893609702009600,7.770009521484375,5.471526145935059,-7.3227410316467285,5.672747611999512
1701893609718998000,7.786998046875,6.843496799468994,-5.258507251739502,5.320465087890625
1701893609736003800,7.80400390625,7.661458492279053,-2.6668825149536133,5.90511417388916
1701893609752991700,7.82099169921875,7.2808942794799805,-1.0565037727355957,7.151153087615967
1701893609769986600,7.837986572265625,6.401098728179932,-0.39757299423217773,7.239323139190674
1701893609786975000,7.85497509765625,5.404178619384766,-0.21022796630859375,5.411318302154541
1701893609803964700,7.871964599609375,4.506041526794434,0.1488194465637207,2.6257128715515137
1701893609820958500,7.88895849609375,3.457512140274048,1.0060701370239258,0.12392950057983398
1701893609837950700,7.90595068359375,2.431161880493164,2.039180040359497,-1.340898036956787
1701893609854941700,7.922941650390625,1.6875874996185303,2.97467041015625,-1.7576861381530762
1701893609871931400,7.939931396484375,1.0637516975402832,3.656175136566162,-1.7608356475830078
1701893609888917000,7.9569169921875,0.481964111328125,3.9943935871124268,-1.696009635925293
1701893609905908500,7.973908447265625,-0.03615802526473999,4.011593818664551,-1.6945629119873047
1701893609922899500,7.9908994140625,-0.35898083448410034,3.785412073135376,-1.8717584609985352
1701893609939892700,8.007892822265624,-0.510011613368988,3.3157894611358643,-2.11417293548584
1701893609956885500,8.024885498046874,-0.5686668157577515,2.7779431343078613,-2.178162097930908
1701893609973876200,8.041876220703125,-0.18963098526000977,2.2513046264648438,-1.7126884460449219
1701893609990871000,8.05887109375,0.30222445726394653,1.8622641563415527,-0.7768874168395996
1701893610007861800,8.07586181640625,0.5922724604606628,1.742424488067627,0.34850358963012695
1701893610024848400,8.092848388671875,0.6025981903076172,1.767463207244873,1.3439559936523438
1701893610041849000,8.10984912109375,0.481797993183136,1.8935017585754395,2.108856678009033
1701893610058834700,8.126834716796875,0.22477354109287262,2.099583625793457,2.774416446685791
1701893610075832000,8.14383203125,0.027994006872177124,2.2577953338623047,3.3805432319641113
1701893610092821200,8.1608212890625,-0.03761495649814606,2.1517114639282227,3.8164381980895996
1701893610109806000,8.17780615234375,0.14126989245414734,2.070244312286377,4.079928874969482
1701893610126801200,8.19480126953125,-0.037858836352825165,2.0157690048217773,4.57802677154541
1701893610143795200,8.211795166015625,-1.1156572103500366,1.9243502616882324,5.0758161544799805
1701893610160786400,8.228786376953124,-2.9071006774902344,1.5477495193481445,5.045001983642578
1701893610177787000,8.245786865234376,-4.325956344604492,0.7241382598876953,4.567378044128418
1701893610194776800,8.26277685546875,-4.358478546142578,-0.1423497200012207,4.233554840087891
1701893610211768800,8.279768798828124,-3.6614975929260254,-0.14856719970703125,4.032899856567383
1701893610228760000,8.296760009765626,-3.3398313522338867,0.6988792419433594,3.943577289581299
1701893610245751300,8.313751220703125,-3.4562835693359375,1.6795940399169922,3.7929234504699707
1701893610262743600,8.33074365234375,-3.493741989135742,2.0809240341186523,3.4857277870178223
1701893610279749600,8.34774951171875,-3.2294111251831055,1.5638914108276367,3.4543089866638184
1701893610296726500,8.3647265625,-3.001638412475586,0.4267120361328125,3.420863151550293
1701893610313716000,8.381716064453125,-2.952584743499756,-0.7841978073120117,3.1821980476379395
1701893610330709800,8.398709716796875,-2.957620620727539,-1.6960654258728027,2.741021156311035
1701893610347702800,8.415702880859374,-2.674783706665039,-2.2338342666625977,2.3961782455444336
1701893610364692000,8.43269189453125,-2.1112754344940186,-2.6589837074279785,2.3337459564208984
1701893610381685800,8.449685791015625,-1.2909133434295654,-2.9744153022766113,2.2787837982177734
1701893610398676700,8.4666767578125,-0.5278506278991699,-3.32218074798584,2.037384033203125
1701893610415669500,8.48366943359375,0.2447100281715393,-3.6084542274475098,1.3390684127807617
1701893610432659200,8.5006591796875,0.928961455821991,-4.049444675445557,0.5395469665527344
1701893610449653800,8.51765380859375,1.4516165256500244,-4.118109703063965,-0.5715131759643555
1701893610466633200,8.53463330078125,1.9071264266967773,-3.9424798488616943,-1.5467653274536133
1701893610483636200,8.55163623046875,2.266414165496826,-3.85322904586792,-2.160371780395508
1701893610500621000,8.56862109375,2.5259830951690674,-3.798250436782837,-2.6468582153320312
1701893610517623600,8.58562353515625,2.647538661956787,-3.7902584075927734,-3.30484676361084
1701893610534610200,8.602610107421874,2.6870546340942383,-3.840402603149414,-4.218438148498535
1701893610551603200,8.619603271484374,2.66496205329895,-3.923412799835205,-5.363303184509277
1701893610568584200,8.636584228515625,2.65857195854187,-3.839001417160034,-6.403122901916504
1701893610585585700,8.653585693359375,2.5512213706970215,-3.7419934272766113,-7.095184326171875
1701893610602578700,8.67057861328125,2.3001832962036133,-3.689964771270752,-7.475692272186279
1701893610619570000,8.68756982421875,1.9833095073699951,-3.6664159297943115,-7.645647048950195
1701893610636550400,8.70455029296875,1.6311026811599731,-3.7109599113464355,-7.821025848388672
1701893610653553200,8.72155322265625,1.3997151851654053,-3.717111587524414,-8.155561447143555
1701893610670544100,8.738544189453124,1.3205480575561523,-3.60502028465271,-8.48369026184082
1701893610687536400,8.755536376953126,1.3495314121246338,-3.3987839221954346,-8.587223052978516
1701893610704529000,8.77252880859375,1.25705087184906,-3.1895813941955566,-8.46534252166748
1701893610721519900,8.789519775390625,1.1295446157455444,-3.116936683654785,-8.046544075012207
1701893610738517500,8.806517578125,1.1296736001968384,-3.0713250637054443,-7.479525566101074
1701893610755503600,8.823503662109376,1.4039974212646484,-2.9031715393066406,-6.909458160400391
1701893610772494600,8.84049462890625,1.78212308883667,-2.5122292041778564,-6.121024131774902
1701893610789486800,8.85748681640625,1.9554295539855957,-2.05104923248291,-5.0729804039001465
1701893610806472200,8.87447216796875,1.988173007965088,-1.7363674640655518,-3.7359800338745117
1701893610823465500,8.891465576171875,1.5288020372390747,-2.0292153358459473,-1.7694931030273438
1701893610840466400,8.908466552734374,0.5053711533546448,-2.5120627880096436,0.3743171691894531
1701893610857450500,8.925450439453124,-0.23895789682865143,-2.6726670265197754,1.7470645904541016
1701893610874444300,8.9424443359375,-0.9558485746383667,-3.6456491947174072,3.0137462615966797
1701893610891434500,8.9594345703125,-1.8938117027282715,-6.13851261138916,4.486824989318848
1701893610908428500,8.976428466796875,-2.101433515548706,-8.152950286865234,5.37831974029541
1701893610925420500,8.993420654296875,-1.2018232345581055,-8.417027473449707,6.280816078186035
1701893610942409000,9.010408935546875,-0.16373082995414734,-7.435173988342285,8.032646179199219
1701893610959396400,9.027396240234374,0.7521506547927856,-6.381617546081543,10.682348251342773
1701893610976395500,9.0443955078125,1.331260085105896,-5.150190830230713,12.493597984313965
1701893610993387500,9.061387451171875,1.102712631225586,-3.5901074409484863,12.47650146484375
1701893611010367200,9.0783671875,-0.36379826068878174,-1.5168743133544922,10.407771110534668
1701893611027363600,9.095363525390624,-2.4649410247802734,0.7464199066162109,7.34927225112915
1701893611044362000,9.112362060546875,-4.147574424743652,2.481635570526123,4.713233947753906
1701893611061354200,9.129354248046875,-4.573370456695557,3.3497865200042725,3.0629048347473145
1701893611078344400,9.146344482421876,-3.605516195297241,3.891955852508545,2.095921516418457
1701893611095338800,9.1633388671875,-2.161252975463867,4.460427284240723,1.572286605834961
1701893611112329000,9.180328857421875,-1.3422471284866333,5.126667499542236,0.9883089065551758
1701893611129321200,9.1973212890625,-1.4663431644439697,5.749547958374023,0.14398193359375
1701893611146312400,9.2143125,-2.3178906440734863,6.22702693939209,-0.8385128974914551
1701893611163302400,9.231302490234375,-3.1650943756103516,6.498936176300049,-1.6759428977966309
1701893611180297000,9.248296875,-3.515281915664673,6.454256534576416,-2.143005847930908
1701893611197290800,9.265290771484375,-3.4803109169006348,6.093895435333252,-2.22836971282959
1701893611214274600,9.282274658203125,-3.0249972343444824,5.738789081573486,-2.212308406829834
1701893611231273200,9.299273193359374,-2.5235939025878906,5.244168281555176,-2.0948586463928223
1701893611248263000,9.316262939453125,-2.1553256511688232,4.7331743240356445,-1.8076329231262207
1701893611265255000,9.3332548828125,-2.016535997390747,4.320450782775879,-1.2957220077514648
1701893611282238000,9.350238037109374,-2.2881524562835693,3.8681631088256836,-0.7223014831542969
1701893611299236000,9.367236083984375,-2.3700904846191406,3.5613553524017334,-0.09998273849487305
1701893611316230000,9.38422998046875,-2.172783374786377,3.284532070159912,0.6217103004455566
1701893611333218600,9.401218505859376,-1.7886626720428467,2.8027000427246094,1.574418067932129
1701893611350212900,9.418212890625,-1.2424709796905518,1.3999013900756836,3.152975559234619
1701893611367205600,9.43520556640625,-0.4100637435913086,-0.3614659309387207,4.832118034362793
1701893611384196600,9.452196533203125,0.2619836926460266,-1.6275296211242676,6.4165802001953125
1701893611401185500,9.469185546875,0.24749869108200073,-4.057987689971924,9.14648151397705
1701893611418175700,9.48617578125,0.575776219367981,-6.998363494873047,11.3736572265625
1701893611435176400,9.503176513671875,1.8982657194137573,-8.801519393920898,12.072542190551758
1701893611452153000,9.520153076171875,3.335638999938965,-8.60423469543457,11.803098678588867
1701893611469155800,9.53715576171875,3.802699565887451,-7.482008457183838,11.122198104858398
1701893611486146300,9.554146240234376,3.143718719482422,-6.532370567321777,9.839984893798828
1701893611503139800,9.571139892578126,2.033449172973633,-5.746842384338379,7.849432945251465
1701893611520119600,9.58811962890625,1.0452282428741455,-5.054286479949951,5.546820640563965
1701893611537122600,9.60512255859375,0.5566653609275818,-4.24157190322876,2.836419105529785
1701893611554104300,9.622104248046876,0.5360125303268433,-3.2494068145751953,0.2434406280517578
1701893611571095000,9.639094970703125,0.7912572622299194,-2.3471839427948,-1.6481542587280273
1701893611588096500,9.656096435546875,1.0596872568130493,-1.594177007675171,-3.141050338745117
1701893611605079600,9.67307958984375,1.1371591091156006,-1.1509807109832764,-4.303121566772461
1701893611622080500,9.69008056640625,1.1175529956817627,-1.099595308303833,-5.277364253997803
1701893611639073000,9.707072998046876,1.1141371726989746,-1.2635862827301025,-6.247562885284424
1701893611656064000,9.72406396484375,1.3351106643676758,-1.561544418334961,-7.022406101226807
1701893611673052000,9.741052001953125,1.6754586696624756,-1.7184103727340698,-7.435386657714844
1701893611690045200,9.758045166015625,1.821955680847168,-1.7529213428497314,-7.341225624084473
1701893611707040000,9.7750400390625,2.092198610305786,-1.4721534252166748,-7.461600303649902
1701893611724027600,9.792027587890624,2.4864156246185303,-1.0125532150268555,-7.756233215332031
1701893611741023000,9.80902294921875,2.6455094814300537,-0.771848738193512,-7.828232765197754
1701893611758014200,9.82601416015625,2.281733751296997,-0.8619142174720764,-7.459297180175781
1701893611775006700,9.8430068359375,1.7519307136535645,-1.0104823112487793,-7.021021842956543
1701893611791997700,9.859997802734375,1.2898602485656738,-1.2905704975128174,-6.734299659729004
1701893611808990200,9.876990234375,1.4656364917755127,-1.350006103515625,-6.831728935241699
1701893611825972000,9.893971923828126,1.9129105806350708,-1.4143917560577393,-6.915098190307617
1701893611842973700,9.9109736328125,2.1886589527130127,-1.573554277420044,-6.757445335388184
1701893611859964700,9.927964599609375,2.2193970680236816,-1.8431506156921387,-6.376773357391357
1701893611876947000,9.944947021484374,2.2138121128082275,-2.252680778503418,-6.005800247192383
1701893611893947600,9.96194775390625,2.284623146057129,-3.0957047939300537,-5.128031253814697
1701893611910937600,9.9789375,2.3435256481170654,-3.83158540725708,-3.7515645027160645
1701893611927931400,9.995931396484375,1.8835170269012451,-4.167021751403809,-2.485239028930664
1701893611944919300,10.012919189453125,1.2817018032073975,-4.6489763259887695,-0.8277149200439453
1701893611961914600,10.02991455078125,0.2018657624721527,-6.170893669128418,1.6461362838745117
1701893611978907400,10.046907470703125,-1.757245421409607,-8.089935302734375,2.9148178100585938
1701893611995898400,10.0638984375,-2.7458720207214355,-10.012571334838867,2.350377082824707
1701893612012891000,10.080890869140624,-0.8637824058532715,-10.213054656982422,1.3240585327148438
1701893612029881600,10.097881591796876,2.9774739742279053,-8.76185417175293,3.3108835220336914
1701893612046874400,10.114874267578125,4.342774868011475,-7.3256049156188965,7.555141448974609
1701893612063865300,10.131865234375,2.453028917312622,-5.850327014923096,9.786656379699707
1701893612080855000,10.14885498046875,-0.5141174793243408,-4.4095778465271,9.112639427185059
1701893612097850000,10.16585009765625,-2.462163209915161,-2.9119200706481934,6.92941951751709
1701893612114842000,10.182842041015626,-3.193696975708008,-0.943601131439209,4.765375137329102
1701893612131832000,10.19983203125,-3.651832342147827,0.9850168228149414,3.3144631385803223
1701893612148824600,10.216824462890624,-4.152284622192383,2.3085083961486816,3.016362190246582
1701893612165814800,10.233814697265625,-4.2500762939453125,3.2717270851135254,3.8453311920166016
1701893612182808600,10.25080859375,-3.4253063201904297,4.442708969116211,4.225265979766846
1701893612199799000,10.267799072265625,-2.245988368988037,5.379199504852295,3.4126529693603516
1701893612216791300,10.284791259765624,-1.6408474445343018,5.939517974853516,1.9746413230895996
1701893612233779200,10.301779296875,-1.756756067276001,6.088560104370117,0.735743522644043
1701893612250772500,10.3187724609375,-2.120663642883301,6.1060791015625,0.08958959579467773
1701893612267751200,10.335751220703125,-2.3644859790802,6.061635971069336,-0.1747446060180664
1701893612284747500,10.35274755859375,-2.45212459564209,5.871035575866699,-0.2124953269958496
1701893612301740300,10.369740234375,-2.490227699279785,5.561857223510742,-0.25968313217163086
1701893612318742000,10.386741943359375,-2.5923078060150146,5.031966686248779,-0.03047466278076172
1701893612335733800,10.403733642578125,-2.8182482719421387,4.438710689544678,0.4342217445373535
1701893612352724200,10.42072412109375,-3.119203567504883,4.078555107116699,1.0135540962219238
1701893612369716200,10.43771630859375,-3.4989585876464844,3.923036575317383,1.4871692657470703
1701893612386698500,10.454698486328125,-3.6152079105377197,3.835920810699463,1.801797866821289
1701893612403689200,10.471689208984374,-3.3890116214752197,3.1953258514404297,2.4128427505493164
1701893612420687600,10.4886875,-2.9402995109558105,1.7524385452270508,3.526883125305176
1701893612437684000,10.50568408203125,-2.0526692867279053,0.2229604721069336,4.264245986938477
1701893612454675700,10.52267578125,-0.9360918998718262,-1.8154830932617188,5.293046951293945
1701893612471655000,10.539655029296876,-0.4044848680496216,-5.241980075836182,8.264494895935059
1701893612488656400,10.556656494140626,-0.052989661693573,-7.067039489746094,9.646831512451172
1701893612505639700,10.5736396484375,0.7428595423698425,-7.637269973754883,9.878166198730469
1701893612522637300,10.59063720703125,2.253326177597046,-7.1431660652160645,9.865814208984375
1701893612539626000,10.6076259765625,4.429511547088623,-6.90479040145874,10.593494415283203
1701893612556616200,10.6246162109375,5.925732612609863,-7.2751617431640625,11.55463981628418
1701893612573615000,10.641614990234375,5.9680585861206055,-7.5818400382995605,11.393867492675781
1701893612590610700,10.658610595703125,5.0580596923828125,-6.642821311950684,9.564348220825195
1701893612607595800,10.675595703125,3.4250195026397705,-5.2519659996032715,7.045304775238037
1701893612624593400,10.692593505859374,1.4751307964324951,-4.322516441345215,4.515966415405273
1701893612641583900,10.709583984375,-0.0778210461139679,-3.699852466583252,2.1321020126342773
1701893612658576400,10.726576416015625,-0.901333212852478,-3.303727149963379,0.011320114135742188
1701893612675567400,10.7435673828125,-0.9993014931678772,-3.0176472663879395,-1.9806194305419922
1701893612692559400,10.760559326171874,-0.7015023231506348,-2.638162851333618,-3.8372554779052734
1701893612709550300,10.77755029296875,-0.09329020977020264,-2.2292258739471436,-5.071301460266113
1701893612726536000,10.794535888671875,0.6041862964630127,-1.9555398225784302,-5.8330278396606445
1701893612743528200,10.811528076171875,1.0417439937591553,-1.981378436088562,-6.362972259521484
1701893612760532000,10.828531982421875,1.214834213256836,-2.193519115447998,-6.809502601623535
1701893612777514800,10.8455146484375,1.219793677330017,-2.4293322563171387,-7.281739234924316
1701893612794510000,10.862510009765625,1.1879802942276,-2.744913101196289,-7.657540798187256
1701893612811498000,10.879498046875,1.2705622911453247,-3.015047550201416,-7.998979568481445
1701893612828493600,10.89649365234375,1.5762836933135986,-3.100449800491333,-8.2284574508667
1701893612845484300,10.913484375,1.7089507579803467,-3.199814796447754,-8.310779571533203
1701893612862474200,10.93047412109375,1.5746135711669922,-3.338181972503662,-8.537199020385742
1701893612879470300,10.94747021484375,1.5163023471832275,-3.4032297134399414,-8.94278621673584
1701893612896460000,10.9644599609375,1.9099615812301636,-3.425534248352051,-8.967034339904785
1701893612913451000,10.981450927734375,2.3151350021362305,-3.4312448501586914,-8.403873443603516
1701893612930440000,10.99843994140625,2.4913172721862793,-3.3669943809509277,-7.519627094268799
1701893612947435800,11.015435791015625,2.718425750732422,-3.40995454788208,-6.346923828125
1701893612964427000,11.032427001953126,3.1494956016540527,-3.833475112915039,-5.078567028045654
1701893612981418000,11.04941796875,2.8492767810821533,-4.724634170532227,-4.102973937988281
1701893612998410000,11.066409912109375,1.7852396965026855,-5.352538108825684,-3.4360809326171875
1701893613015402500,11.083402587890625,0.6785979270935059,-5.436500549316406,-2.6880722045898438
1701893613032395300,11.100395263671874,-0.6023348569869995,-5.808728218078613,-1.6186819076538086
1701893613049383700,11.1173837890625,-1.7797088623046875,-6.693576812744141,-0.3300657272338867
1701893613066377700,11.134377685546875,-1.701604962348938,-7.500426292419434,0.7319602966308594
1701893613083368400,11.151368408203124,-0.4958670139312744,-8.509296417236328,2.1452808380126953
1701893613100352300,11.168352294921876,0.9521809816360474,-8.744298934936523,4.240766525268555
1701893613117351700,11.1853515625,1.529768943786621,-8.342520713806152,6.264558792114258
1701893613134341400,11.20234130859375,1.1263456344604492,-7.722546577453613,7.530749320983887
1701893613151345000,11.219344970703125,1.0373399257659912,-6.932643890380859,8.077071189880371
1701893613168332300,11.236332275390625,1.9342403411865234,-5.550397872924805,8.23103141784668
1701893613185319000,11.25331884765625,2.9373655319213867,-3.4212331771850586,8.124518394470215
1701893613202298000,11.270298095703126,2.984391927719116,-1.2320170402526855,7.832291603088379
1701893613219295500,11.28729541015625,1.8018656969070435,1.0922961235046387,7.055386543273926
1701893613236285000,11.304284912109376,0.08299451321363449,2.71622896194458,6.465530872344971
1701893613253282300,11.3212822265625,-1.6006529331207275,3.7899246215820312,6.378604888916016
1701893613270278400,11.3382783203125,-2.9293065071105957,4.476738929748535,5.9326252937316895
1701893613287269400,11.355269287109374,-3.132369041442871,4.921258926391602,4.50479793548584
1701893613304261600,11.37226171875,-2.6186628341674805,5.0632476806640625,2.708317279815674
1701893613321249300,11.389249267578125,-1.9452314376831055,5.326395034790039,0.8547148704528809
1701893613338245000,11.4062451171875,-1.7433314323425293,5.635184288024902,-0.47481727600097656
1701893613355236000,11.423236083984374,-1.7967332601547241,5.7783613204956055,-0.9691691398620605
1701893613372221400,11.440221435546874,-1.9630284309387207,5.726589202880859,-0.9195137023925781
1701893613389215200,11.45721533203125,-2.167377471923828,5.731325626373291,-0.8912935256958008
1701893613406206000,11.4742060546875,-2.312842607498169,5.770684242248535,-1.0039782524108887
1701893613423196200,11.491196044921875,-2.5786986351013184,5.57487678527832,-0.9701299667358398
1701893613440190700,11.508190673828125,-2.9228336811065674,5.1782073974609375,-0.6846880912780762
1701893613457182200,11.52518212890625,-3.2782249450683594,4.718021392822266,-0.03210258483886719
1701893613474171100,11.542171142578125,-3.6214733123779297,4.312586307525635,1.0434107780456543
1701893613491158800,11.55915869140625,-3.9363574981689453,3.959038257598877,2.432717800140381
1701893613508159200,11.5761591796875,-3.9745371341705322,3.0534496307373047,4.202323913574219
1701893613525143000,11.59314306640625,-3.6035540103912354,1.398305892944336,5.968251705169678
1701893613542142200,11.61014208984375,-2.8281612396240234,-0.2746286392211914,7.387384414672852
1701893613559133200,11.62713330078125,-2.035989761352539,-2.8596630096435547,9.714516639709473
1701893613576120600,11.64412060546875,-1.0715078115463257,-7.315637588500977,13.141948699951172
1701893613593116000,11.661115966796874,1.2378062009811401,-10.324687004089355,14.926863670349121
1701893613610109700,11.678109619140624,4.215244770050049,-9.652872085571289,13.724674224853516
1701893613627093200,11.69509326171875,6.6015214920043945,-7.028017044067383,12.153879165649414
1701893613644095000,11.712094970703125,6.775962829589844,-6.379187107086182,11.787307739257812
1701893613661087700,11.729087646484375,5.118438243865967,-6.819490432739258,10.072765350341797
1701893613678079700,11.746079833984375,3.143181800842285,-6.915488243103027,6.689173221588135
1701893613695070700,11.76307080078125,1.541600227355957,-6.264278888702393,2.876542091369629
1701893613712063000,11.78006298828125,0.9889765977859497,-4.829422950744629,-0.1282820701599121
1701893613729053700,11.7970537109375,1.1655728816986084,-3.114311695098877,-2.040404796600342
1701893613746046700,11.814046630859375,1.5264016389846802,-1.6148138046264648,-2.9631199836730957
1701893613763027700,11.83102783203125,1.6644731760025024,-0.642723560333252,-3.3209400177001953
1701893613780026000,11.848026123046875,1.6080024242401123,-0.17771434783935547,-3.6668496131896973
1701893613797020700,11.865020751953125,1.4856741428375244,0.07740306854248047,-4.49973201751709
1701893613814013200,11.88201318359375,1.3841304779052734,0.2255082130432129,-5.319584846496582
1701893613831001600,11.899001708984375,1.3050661087036133,0.3488450050354004,-6.141394138336182
1701893613847996700,11.91599658203125,1.1828410625457764,0.34899330139160156,-6.813967227935791
1701893613864983600,11.932983642578124,0.9613398313522339,0.2036421298980713,-7.316056251525879
1701893613881970000,11.949969970703124,0.8012906908988953,-0.04516148567199707,-7.675661087036133
1701893613898971400,11.966971435546874,0.752878725528717,-0.3516242504119873,-8.410776138305664
1701893613915963600,11.983963623046876,0.9397995471954346,-0.7207733392715454,-8.966601371765137
1701893613932954600,12.00095458984375,1.3334076404571533,-1.1178312301635742,-9.245887756347656
1701893613949947400,12.017947509765625,1.5754278898239136,-1.3385967016220093,-9.216897964477539
1701893613966938400,12.0349384765625,1.442521333694458,-1.5788934230804443,-8.930398941040039
1701893613983930600,12.0519306640625,1.0878760814666748,-1.844010829925537,-8.784109115600586
1701893614000931000,12.06893115234375,0.7836748361587524,-2.1677494049072266,-8.78080940246582
1701893614017910000,12.085909912109376,0.6280353665351868,-2.5207762718200684,-8.687661170959473
1701893614034909400,12.102909423828125,0.5684982538223267,-3.105581760406494,-7.680167198181152
1701893614051884000,12.119884033203125,0.2386346161365509,-4.091806888580322,-5.6809892654418945
1701893614068888600,12.136888671875,-0.15322953462600708,-4.863759994506836,-3.977907657623291
1701893614085880600,12.153880615234375,-0.22794735431671143,-5.28977108001709,-2.602311134338379
1701893614102872800,12.170872802734374,-0.5457561016082764,-6.028260231018066,-0.6794595718383789
1701893614119864300,12.1878642578125,-1.7030123472213745,-7.382330894470215,1.3723182678222656
1701893614136855300,12.204855224609375,-2.8563852310180664,-8.970009803771973,2.389904022216797
1701893614153845000,12.221844970703126,-2.3369863033294678,-10.976840019226074,3.266786575317383
1701893614170839300,12.23883935546875,0.5469120144844055,-11.3618803024292,4.336220741271973
1701893614187831300,12.255831298828125,3.8305115699768066,-10.060037612915039,6.413673400878906
1701893614204822300,12.272822265625,4.838626861572266,-8.12002182006836,9.04037857055664
1701893614221815000,12.28981494140625,3.1843976974487305,-5.921599388122559,10.64352798461914
1701893614238805800,12.3068056640625,0.615740180015564,-3.8364734649658203,10.87436580657959
1701893614255797800,12.3237978515625,-1.5650725364685059,-1.639319896697998,9.849013328552246
1701893614272789500,12.34078955078125,-2.8927628993988037,0.788886547088623,7.949164867401123
1701893614289773600,12.357773681640625,-3.657477617263794,2.915550708770752,6.133667945861816
1701893614306762500,12.374762451171875,-3.8437325954437256,4.330667018890381,5.329866409301758
1701893614323765000,12.391764892578125,-3.469996213912964,5.428589820861816,5.312341690063477
1701893614340750000,12.40875,-2.477893590927124,6.479640960693359,4.652743816375732
1701893614357751300,12.425751220703125,-1.5439910888671875,7.018219947814941,3.2046685218811035
1701893614374739700,12.44273974609375,-0.9460474848747253,7.192389011383057,1.527082920074463
1701893614391732000,12.45973193359375,-0.7277272939682007,7.227097988128662,0.026454925537109375
1701893614408722200,12.47672216796875,-0.5859438180923462,7.2543864250183105,-1.0366005897521973
1701893614425706000,12.4937060546875,-0.6478995680809021,7.311380863189697,-1.6609621047973633
1701893614442706400,12.51070654296875,-0.7776903510093689,7.21259880065918,-1.9635026454925537
1701893614459698700,12.52769873046875,-0.8557115197181702,6.5068793296813965,-2.0291576385498047
1701893614476677400,12.544677490234376,-0.8118439316749573,5.545080184936523,-2.2295515537261963
1701893614493682400,12.561682373046875,-0.36261433362960815,4.637031555175781,-2.3109216690063477
1701893614510673700,12.578673583984376,0.285847544670105,4.067270278930664,-1.8616282939910889
1701893614527665200,12.5956650390625,0.40590327978134155,3.7216477394104004,-0.3281412124633789
1701893614544657400,12.612657470703125,-0.30679988861083984,3.875969886779785,1.903818130493164
1701893614561649400,12.6296494140625,-1.2849349975585938,4.041098117828369,4.212879657745361
1701893614578640400,12.646640380859376,-1.6907341480255127,3.092240333557129,6.5368475914001465
1701893614595632600,12.663632568359375,-1.0123814344406128,1.5068163871765137,8.491064071655273
1701893614612623600,12.68062353515625,0.25699201226234436,-0.25450801849365234,10.345539093017578
1701893614629616600,12.69761669921875,0.6763575673103333,-4.126640319824219,13.765449523925781
1701893614646606000,12.714606201171875,1.3088631629943848,-8.258356094360352,16.092885971069336
1701893614663596300,12.73159619140625,3.0857486724853516,-9.481012344360352,14.844890594482422
1701893614680590300,12.74859033203125,4.515889644622803,-6.979540824890137,11.61376953125
1701893614697583000,12.7655830078125,4.116995811462402,-5.3329620361328125,10.285213470458984
1701893614714574000,12.782573974609376,2.9611153602600098,-5.762046813964844,9.394586563110352
1701893614731563300,12.799563232421875,1.984868049621582,-7.373486518859863,7.516845703125
1701893614748546600,12.816546630859374,1.6039626598358154,-8.459745407104492,4.666635513305664
1701893614765550800,12.83355078125,1.5521245002746582,-7.919564723968506,1.4993085861206055
1701893614782538500,12.85053857421875,1.619774580001831,-6.225325584411621,-0.8954129219055176
1701893614799535900,12.867535888671876,1.251833200454712,-4.346245765686035,-2.4750823974609375
1701893614816524300,12.884524169921875,0.46270552277565,-2.8496458530426025,-3.658829689025879
1701893614833517000,12.90151708984375,0.03334781527519226,-1.9159538745880127,-4.343244552612305
1701893614850494700,12.91849462890625,0.09885895252227783,-1.3784115314483643,-4.73399019241333
1701893614867499000,12.9354990234375,0.4577175974845886,-1.1116490364074707,-5.065279483795166
1701893614884491300,12.9524912109375,0.7801127433776855,-1.0201551914215088,-5.50061559677124
1701893614901484000,12.969484130859374,0.7019389867782593,-1.1060924530029297,-6.050895690917969
1701893614918474200,12.98647412109375,0.2244679480791092,-1.25667405128479,-6.730934143066406
1701893614935468000,13.003468017578125,-0.059948235750198364,-1.3577053546905518,-7.391593933105469
1701893614952458200,13.020458251953125,0.274715781211853,-1.2642089128494263,-7.844057559967041
1701893614969451000,13.037450927734374,1.1849662065505981,-1.0613462924957275,-7.7286882400512695
1701893614986442000,13.05444189453125,1.612121820449829,-1.034908652305603,-7.268342018127441
1701893615003423700,13.071423828125,1.4440648555755615,-1.0540319681167603,-7.152375221252441
1701893615020425000,13.088425048828125,1.1785876750946045,-1.2117116451263428,-7.289060115814209
1701893615037417700,13.105417724609374,1.1502501964569092,-1.3339753150939941,-7.452539920806885
1701893615054405600,13.122405517578125,1.2660729885101318,-1.3366200923919678,-7.5720720291137695
1701893615071402800,13.13940283203125,1.5093994140625,-1.3175857067108154,-7.2502031326293945
1701893615088390400,13.156390380859374,1.6998347043991089,-1.48954176902771,-6.658086776733398
1701893615105385000,13.173385009765624,1.6777843236923218,-2.105329990386963,-5.887108325958252
1701893615122374100,13.1903740234375,1.331753134727478,-3.0105090141296387,-5.21870231628418
1701893615139369500,13.207369384765625,0.9390676617622375,-4.029102802276611,-4.984786033630371
1701893615156359000,13.22435888671875,0.7229865789413452,-4.818419456481934,-5.056755065917969
1701893615173342500,13.241342529296874,0.6985967755317688,-5.298190593719482,-4.564555644989014
1701893615190343000,13.258343017578126,0.06863588094711304,-5.608654499053955,-2.920009136199951
1701893615207330800,13.275330810546874,-1.401921033859253,-6.627706527709961,-0.5962495803833008
1701893615224326000,13.292325927734375,-2.45505428314209,-7.991351127624512,1.1341419219970703
1701893615241315300,13.3093154296875,-1.8412883281707764,-10.345182418823242,2.1941375732421875
1701893615258309600,13.3263095703125,0.8594717979431152,-11.76032829284668,2.727877616882324
1701893615275291100,13.343291015625,3.9822566509246826,-10.93746280670166,4.815676689147949
1701893615292292600,13.360292724609375,4.306755542755127,-9.458658218383789,8.726561546325684
1701893615309269200,13.377269287109375,2.5817112922668457,-7.909812927246094,11.814072608947754
1701893615326274000,13.394274169921875,0.864897608757019,-5.846656799316406,13.110017776489258
1701893615343271200,13.411271240234376,-0.5193982720375061,-3.0054173469543457,12.895231246948242
1701893615360259300,13.42825927734375,-2.3301656246185303,0.39374303817749023,11.224658966064453
1701893615377252600,13.445252685546874,-3.991576671600342,3.204802989959717,9.112598419189453
1701893615394243600,13.46224365234375,-4.391155242919922,4.558779716491699,8.444671630859375
1701893615411235600,13.479235595703125,-3.0628371238708496,5.639220714569092,8.080830574035645
1701893615428225800,13.496225830078124,-0.893352746963501,6.530662536621094,6.825396537780762
1701893615445220400,13.513220458984375,0.33647942543029785,7.067514896392822,4.946142196655273
1701893615462210300,13.530210205078125,0.44716835021972656,7.227291584014893,3.0582170486450195
1701893615479201800,13.547201904296875,0.12064036726951599,7.287428855895996,1.6259040832519531
1701893615496194600,13.564194580078125,-0.14674904942512512,7.128199577331543,0.9984679222106934
1701893615513186000,13.58118603515625,-0.3724178671836853,7.013172149658203,0.39332056045532227
1701893615530177300,13.59817724609375,-0.1544518768787384,6.973897933959961,-0.4460892677307129
1701893615547169500,13.61516943359375,0.33812564611434937,6.6246795654296875,-1.0168285369873047
1701893615564157200,13.6321572265625,0.8201974034309387,6.006987571716309,-1.1823320388793945
1701893615581153000,13.649153076171874,0.9896905422210693,5.1466569900512695,-1.0981111526489258
1701893615598144300,13.666144287109375,0.8820251226425171,4.3521575927734375,-1.0593748092651367
1701893615615136300,13.68313623046875,0.8951495885848999,3.981387138366699,-0.8479218482971191
1701893615632130600,13.700130615234375,0.9742779731750488,3.9509496688842773,-0.08139419555664062
1701893615649117000,13.717116943359375,1.1532225608825684,4.1188507080078125,1.1061735153198242
1701893615666111000,13.734111083984375,1.160835862159729,3.4762086868286133,2.9123120307922363
1701893615683103200,13.751103271484375,1.1734822988510132,1.7914447784423828,4.984964370727539
1701893615700094200,13.76809423828125,1.3503105640411377,0.6702938079833984,5.880820274353027
1701893615717087000,13.7850869140625,1.3640260696411133,-1.0564403533935547,7.279396057128906
1701893615734078000,13.802077880859375,0.9640882015228271,-4.005321502685547,10.104900360107422
1701893615751067000,13.81906689453125,0.9163944721221924,-6.54965353012085,11.651521682739258
1701893615768061200,13.836061279296874,2.0597376823425293,-8.834701538085938,11.86198616027832
1701893615785043700,13.853043701171876,3.335175037384033,-8.166385650634766,10.164031982421875
1701893615802034700,13.87003466796875,3.4725441932678223,-6.989823341369629,9.236719131469727
1701893615819037000,13.887036865234375,3.036257743835449,-6.6780009269714355,8.705162048339844
1701893615836028200,13.904028076171874,2.6838884353637695,-7.2454609870910645,7.83480167388916
1701893615853021000,13.92102099609375,1.9571812152862549,-7.521533966064453,6.147518157958984
1701893615870008800,13.9380087890625,0.6664528250694275,-7.011739253997803,3.4209060668945312
1701893615887004200,13.955004150390625,-0.47744986414909363,-5.576999664306641,0.5281744003295898
1701893615903995000,13.971994873046874,-0.9812248349189758,-3.8838882446289062,-1.65724515914917
1701893615920987600,13.988987548828124,-0.8100816011428833,-2.453186511993408,-3.1217575073242188
1701893615937977900,14.005977783203125,-0.40522366762161255,-1.5528523921966553,-3.8558592796325684
1701893615954954000,14.0229541015625,-0.21427153050899506,-1.1783490180969238,-4.312297344207764
1701893615971954200,14.0399541015625,-0.32850921154022217,-0.9871866703033447,-5.013486385345459
1701893615988950800,14.05695068359375,-0.4459804594516754,-0.871412992477417,-5.786525249481201
1701893616005941200,14.073941162109374,-0.5891798734664917,-0.7038569450378418,-6.648589611053467
1701893616022938600,14.090938720703125,-0.858402669429779,-0.449047327041626,-7.476748466491699
1701893616039924200,14.10792431640625,-1.2853420972824097,-0.17171883583068848,-8.049915313720703
1701893616056924700,14.124924560546875,-1.4992702007293701,0.1257781982421875,-8.323974609375
1701893616073909200,14.1419091796875,-1.4744205474853516,0.25630760192871094,-8.475320816040039
1701893616090904800,14.15890478515625,-1.2447091341018677,0.02735888957977295,-8.71658706665039
1701893616107895600,14.1758955078125,-0.7838484048843384,-0.29338037967681885,-9.0097017288208
1701893616124875800,14.192875732421875,-0.24332740902900696,-0.572729229927063,-9.083968162536621
1701893616141879300,14.20987939453125,0.2208976149559021,-0.8902398347854614,-8.775934219360352
1701893616158871800,14.226871826171875,0.6386833786964417,-1.1377654075622559,-8.1962890625
1701893616175862800,14.24386279296875,1.0452438592910767,-1.3588968515396118,-7.633711814880371
1701893616192855300,14.260855224609376,1.4601572751998901,-1.6169841289520264,-7.151281356811523
1701893616209846300,14.27784619140625,1.9067782163619995,-1.9015781879425049,-6.687361240386963
1701893616226838500,14.294838623046875,2.328340530395508,-2.083552598953247,-6.202732563018799
1701893616243829500,14.31182958984375,2.5455565452575684,-2.1500754356384277,-5.678140163421631
1701893616260816600,14.328816650390625,2.556192398071289,-2.56645131111145,-4.626963138580322
1701893616277814000,14.34581396484375,3.062504768371582,-3.2472426891326904,-3.6616153717041016
1701893616294807300,14.362807373046875,4.6166486740112305,-4.112202167510986,-3.088325023651123
1701893616311796500,14.37979638671875,6.081978797912598,-5.117045879364014,-2.0797195434570312
1701893616328788700,14.396788818359376,5.973966598510742,-5.979510307312012,0.22159957885742188
1701893616345780700,14.41378076171875,3.3793246746063232,-7.816928863525391,3.25478458404541
1701893616362773000,14.43077294921875,0.4987601041793823,-10.121769905090332,4.888169288635254
1701893616379763200,14.44776318359375,0.29562461376190186,-11.533952713012695,5.587688446044922
1701893616396751000,14.464751220703125,2.4682066440582275,-10.547128677368164,7.096076488494873
1701893616413747200,14.481747314453125,3.4982550144195557,-8.400390625,10.888378143310547
1701893616430739500,14.498739501953125,1.8801379203796387,-5.944240570068359,14.494275093078613
1701893616447729700,14.515729736328124,-0.36036431789398193,-3.1548943519592285,15.357514381408691
1701893616464725000,14.53272509765625,-2.1733222007751465,-0.7525086402893066,13.948465347290039
1701893616481703400,14.549703369140625,-3.273906946182251,1.4285869598388672,11.242963790893555
1701893616498706200,14.5667060546875,-3.859729290008545,3.236919403076172,8.810837745666504
1701893616515697400,14.583697509765624,-3.949925422668457,4.563814163208008,6.88914155960083
1701893616532690000,14.60068994140625,-3.484929084777832,5.333643436431885,5.523248672485352
1701893616549681200,14.61768115234375,-3.1117653846740723,5.637579917907715,4.628492832183838
1701893616566660000,14.63466015625,-3.160223960876465,5.799964904785156,3.7255167961120605
1701893616583663600,14.65166357421875,-3.6644186973571777,5.857935428619385,2.7473630905151367
1701893616600656000,14.66865576171875,-4.227319717407227,5.863814830780029,1.7564306259155273
1701893616617646300,14.685646240234375,-4.687973976135254,5.784780025482178,0.9156284332275391
1701893616634655200,14.7026552734375,-4.9952592849731445,5.722988605499268,0.38890981674194336
1701893616651628000,14.7196279296875,-5.11961555480957,5.537836074829102,0.01193094253540039
1701893616668624000,14.736623779296876,-4.618252277374268,5.1802978515625,0.13989496231079102
1701893616685614800,14.75361474609375,-3.7370057106018066,4.722506523132324,0.7638134956359863
1701893616702607000,14.770607177734375,-3.2872509956359863,4.205672264099121,1.6022100448608398
1701893616719597600,14.78759765625,-3.3407130241394043,3.777862548828125,2.3799943923950195
1701893616736579300,14.804579345703125,-3.610741138458252,3.306344985961914,3.017664909362793
1701893616753584000,14.821584228515626,-3.776675224304199,2.3943867683410645,4.341429710388184
1701893616770570200,14.8385703125,-3.7448172569274902,0.5762462615966797,6.255058765411377
1701893616787565800,14.85556591796875,-3.348649501800537,-1.4052391052246094,7.565767288208008
1701893616804557800,14.872557861328126,-2.8987984657287598,-4.9293084144592285,10.075540542602539
1701893616821548800,14.889548828125,-2.439206838607788,-9.556802749633789,12.297750473022461
1701893616838540000,14.9065400390625,-0.7333345413208008,-11.266520500183105,11.348836898803711
1701893616855532500,14.923532470703124,1.493111252784729,-8.990795135498047,9.126225471496582
1701893616872513800,14.940513671875,2.3937156200408936,-7.23118782043457,9.165375709533691
1701893616889508600,14.957508544921875,2.032299518585205,-7.4912800788879395,9.627677917480469
1701893616906503000,14.9745029296875,1.4549212455749512,-8.652168273925781,8.357845306396484
1701893616923489300,14.9914892578125,1.160495400428772,-9.60023021697998,5.6760454177856445
1701893616940489200,15.0084892578125,1.3726556301116943,-9.299474716186523,2.1420955657958984
1701893616957479700,15.025479736328125,1.911167860031128,-7.677512168884277,-0.6097593307495117
1701893616974467000,15.042467041015625,2.087618112564087,-5.788315773010254,-2.153343677520752
1701893616991456500,15.05945654296875,1.8102803230285645,-4.251992702484131,-3.1047849655151367
1701893617008454000,15.076453857421875,1.2495352029800415,-3.285479784011841,-3.8276796340942383
1701893617025439200,15.093439208984375,0.8701505661010742,-2.8240034580230713,-4.637773513793945
1701893617042421800,15.110421875,0.9887552261352539,-2.5793850421905518,-5.621519565582275
1701893617059434500,15.1274345703125,1.3555189371109009,-2.4365506172180176,-6.516628742218018
1701893617076423000,15.1444228515625,1.4710490703582764,-2.3187944889068604,-7.242658615112305
1701893617093411000,15.1614111328125,1.4116679430007935,-2.1473805904388428,-7.860637664794922
1701893617110401000,15.178401123046875,1.2060251235961914,-1.9785361289978027,-8.39490795135498
1701893617127387400,15.195387451171875,0.7883963584899902,-1.8473994731903076,-8.781271934509277
1701893617144390400,15.212390380859375,0.38409292697906494,-1.8273184299468994,-8.983440399169922
1701893617161373000,15.229373046875,0.1079174280166626,-2.0353193283081055,-8.987104415893555
1701893617178373000,15.246373046875,-0.0029708147048950195,-2.49731707572937,-8.884786605834961
1701893617195369200,15.263369140625,0.21579492092132568,-3.130157232284546,-8.796133995056152
1701893617212359400,15.280359375,0.8083915710449219,-3.651885747909546,-8.687824249267578
1701893617229347000,15.29734716796875,1.3994646072387695,-4.18862771987915,-8.298299789428711
1701893617246346000,15.314345947265625,1.7179455757141113,-4.759400367736816,-7.541080474853516
1701893617263328500,15.33132861328125,1.795874834060669,-5.729588031768799,-6.371284008026123
1701893617280326100,15.348326171875,1.669276475906372,-7.153088569641113,-4.699464797973633
1701893617297317400,15.3653173828125,1.65228271484375,-8.69676685333252,-3.08481502532959
1701893617314309400,15.382309326171875,2.4303629398345947,-9.741989135742188,-1.67966890335083
1701893617331300400,15.39930029296875,3.6073362827301025,-10.092364311218262,-0.06845283508300781
1701893617348292600,15.416292724609375,4.941965579986572,-9.212244987487793,2.014802932739258
1701893617365285000,15.43328515625,5.623252868652344,-7.833158493041992,4.763487815856934
1701893617382273500,15.4502734375,5.281318187713623,-6.513782978057861,7.409480094909668
1701893617399270000,15.467269775390625,4.313412189483643,-5.212526798248291,8.615392684936523
1701893617416260400,15.48426025390625,3.1468238830566406,-4.189792156219482,8.074159622192383
1701893617433251000,15.5012509765625,1.7117635011672974,-3.1870007514953613,6.486442565917969
1701893617450243300,15.518243408203125,0.32754817605018616,-1.8634276390075684,4.8970794677734375
1701893617467234300,15.535234375,-0.40873438119888306,-0.26212596893310547,4.14970588684082
1701893617484224000,15.55222412109375,-0.764091968536377,1.2368040084838867,4.020996570587158
1701893617501217800,15.5692177734375,-0.956244170665741,2.360647201538086,3.9444961547851562
1701893617518207500,15.58620751953125,-0.9971716403961182,3.0694518089294434,3.5587968826293945
1701893617535203800,15.603203857421875,-0.8372618556022644,3.3395328521728516,2.749906539916992
1701893617552193800,15.62019384765625,-0.4566391706466675,3.355699062347412,1.8950395584106445
1701893617569185000,15.63718505859375,-0.08510273694992065,3.239187240600586,1.312873363494873
1701893617586177300,15.65417724609375,0.16916023194789886,3.2484936714172363,0.8652834892272949
1701893617603168300,15.671168212890626,0.41634058952331543,3.376493453979492,1.0012354850769043
1701893617620160800,15.688160888671876,0.7735991477966309,3.766096830368042,1.486659049987793
1701893617637151700,15.70515185546875,0.8258944749832153,4.00015926361084,1.8352727890014648
1701893617654144000,15.72214404296875,0.6387491822242737,4.133111476898193,1.7952814102172852
1701893617671132000,15.7391318359375,0.5338228344917297,4.060011386871338,1.5881147384643555
1701893617688128000,15.7561279296875,0.8810280561447144,3.9314534664154053,1.5542993545532227
1701893617705108200,15.773108154296875,1.346582293510437,3.8418900966644287,1.8810949325561523
1701893617722111000,15.790111083984375,1.310455560684204,3.6954097747802734,2.227571487426758
1701893617739102000,15.80710205078125,0.5331979990005493,3.1423916816711426,2.8453474044799805
1701893617756094700,15.8240947265625,-0.49755358695983887,2.533881187438965,3.4828147888183594
1701893617773085700,15.841085693359375,-1.3777191638946533,2.1022286415100098,4.208991050720215
1701893617790079200,15.858079345703125,-1.9061042070388794,1.530630111694336,5.424915313720703
1701893617807058700,15.87505859375,-1.8680167198181152,0.6794466972351074,7.008018493652344
1701893617824061700,15.892061767578125,-1.69252610206604,-0.6708741188049316,8.672298431396484
1701893617841052700,15.909052734375,-1.777031660079956,-1.6948328018188477,9.631918907165527
1701893617858044000,15.9260439453125,-2.2701001167297363,-1.4475092887878418,9.254037857055664
1701893617875036700,15.94303662109375,-2.7060132026672363,-0.1495985984802246,8.056906700134277
1701893617892028400,15.9600283203125,-2.734600067138672,0.9791445732116699,6.715043067932129
1701893617909007000,15.977007080078126,-2.3784823417663574,1.0299444198608398,5.704104900360107
1701893617926000000,15.994000244140626,-1.8570091724395752,0.034151554107666016,4.5265302658081055
1701893617942992600,16.01099267578125,-1.3545997142791748,-1.6383862495422363,3.0537338256835938
1701893617959995100,16.0279951171875,-0.8311537504196167,-3.6259870529174805,1.6672887802124023
1701893617976986600,16.044986572265625,-0.24338585138320923,-5.23313045501709,0.5655555725097656
1701893617993975800,16.061975830078126,0.14503833651542664,-6.157162666320801,-0.2525310516357422
1701893618010969600,16.078969482421876,0.22041963040828705,-6.343076229095459,-0.6893253326416016
1701893618027963000,16.095962890625,-0.17285969853401184,-5.855159759521484,-1.071122169494629
1701893618044963000,16.112963134765625,-0.9020240902900696,-5.2932209968566895,-1.6414871215820312
1701893618061945600,16.129945556640624,-1.3586997985839844,-4.899094581604004,-2.349534034729004
1701893618078936600,16.1469365234375,-1.215867519378662,-5.311506271362305,-2.4888248443603516
1701893618095929300,16.163929443359375,-0.6383702158927917,-5.933084011077881,-2.7974419593811035
1701893618112920300,16.18092041015625,0.22530600428581238,-6.280270576477051,-3.4890942573547363
1701893618129912800,16.197912841796875,0.9698688387870789,-6.288443565368652,-4.197924613952637
1701893618146903800,16.21490380859375,1.5261369943618774,-6.009228229522705,-4.671938419342041
1701893618163891200,16.23189111328125,1.8373982906341553,-5.689891338348389,-4.860926628112793
1701893618180885800,16.2488857421875,2.063255786895752,-5.396821975708008,-5.014888763427734
1701893618197878000,16.2658779296875,2.102057933807373,-5.115355968475342,-5.253062725067139
1701893618214870500,16.28287060546875,2.005845308303833,-4.883829593658447,-5.45385217666626
1701893618231861000,16.299861083984375,1.7292604446411133,-4.684248447418213,-5.7965216636657715
1701893618248856300,16.316856201171873,1.4005367755889893,-4.442708492279053,-6.237027168273926
1701893618265847600,16.33384765625,0.9795548915863037,-4.199772834777832,-6.787995338439941
1701893618282837500,16.35083740234375,0.5942515134811401,-4.017784595489502,-7.1428914070129395
1701893618299820300,16.3678203125,0.6580050587654114,-3.733987808227539,-7.070192337036133
1701893618316821200,16.3848212890625,1.0271544456481934,-3.2918262481689453,-6.5042948722839355
1701893618333813500,16.4018134765625,1.2252534627914429,-2.9791643619537354,-5.770598411560059
1701893618350804500,16.418804443359374,1.4775747060775757,-2.704331874847412,-4.869309425354004
1701893618367796700,16.435796630859375,1.9871413707733154,-2.4982545375823975,-3.6630630493164062
1701893618384786200,16.4527861328125,2.5131096839904785,-2.353069305419922,-2.204577922821045
1701893618401780500,16.469780517578126,2.9397716522216797,-2.010694742202759,-0.5902090072631836
1701893618418771200,16.486771240234376,2.973179578781128,-1.391204833984375,0.8261709213256836
1701893618435763200,16.50376318359375,2.1658785343170166,-1.1797869205474854,2.1613473892211914
1701893618452756000,16.520755859375,1.290281057357788,-1.6915309429168701,3.4955997467041016
1701893618469747500,16.53774755859375,1.1039042472839355,-2.4515438079833984,4.149176597595215
1701893618486728000,16.55472802734375,1.5646681785583496,-3.289364814758301,4.376707077026367
1701893618503727900,16.571727783203126,1.9638733863830566,-4.3273820877075195,4.8405561447143555
1701893618520720000,16.588719970703124,2.4141695499420166,-4.845551490783691,5.155351638793945
1701893618537716500,16.605716552734375,3.5730080604553223,-4.133851528167725,5.043671607971191
1701893618554705200,16.622705078125,5.027251243591309,-2.396444320678711,4.806540012359619
1701893618571694800,16.63969482421875,5.982907295227051,-1.038261890411377,5.747599124908447
1701893618588689000,16.65668896484375,6.379110813140869,-0.07413339614868164,7.119112968444824
1701893618605681400,16.673681396484376,6.082377910614014,0.5093746185302734,7.467709064483643
1701893618622668500,16.69066845703125,4.309079170227051,0.5578880310058594,6.055658340454102
1701893618639668700,16.707668701171876,1.8427144289016724,0.6621112823486328,3.4346671104431152
1701893618656656000,16.72465576171875,-0.16927261650562286,0.950218677520752,0.9785408973693848
1701893618673648000,16.741648193359374,-0.9273796081542969,1.5316834449768066,-0.991783618927002
1701893618690636000,16.758635986328127,-0.506801962852478,2.1056694984436035,-1.8795909881591797
1701893618707633700,16.775633544921874,0.34725213050842285,2.4852728843688965,-1.801605224609375
1701893618724622800,16.792622802734375,0.8377342224121094,2.8007864952087402,-1.3987021446228027
1701893618741615000,16.809614990234376,0.6579042077064514,3.12369966506958,-1.1967110633850098
1701893618758605000,16.82660498046875,-0.16072237491607666,3.235095977783203,-1.11444091796875
1701893618775599600,16.843599609375,-1.2047886848449707,3.2420358657836914,-1.0410714149475098
1701893618792589800,16.86058984375,-1.8459677696228027,3.245435953140259,-0.7380766868591309
1701893618809582300,16.877582275390626,-2.126222610473633,3.2865920066833496,-0.19227313995361328
1701893618826555400,16.894555419921875,-2.1565566062927246,3.413944721221924,0.2901325225830078
1701893618843565800,16.91156591796875,-2.115448474884033,3.650669574737549,0.4584035873413086
1701893618860556800,16.928556884765626,-2.0542705059051514,4.029293060302734,0.4421849250793457
1701893618877549000,16.945549072265624,-2.059199810028076,4.294207572937012,0.4179673194885254
1701893618894536700,16.96253662109375,-2.436438798904419,4.499466896057129,0.1568460464477539
1701893618911532500,16.979532470703123,-3.1576662063598633,4.585982799530029,-0.04801368713378906
1701893618928523500,16.9965234375,-4.053622722625732,4.333638668060303,-0.06978178024291992
1701893618945516000,17.01351611328125,-4.719943046569824,3.9510293006896973,-0.25978755950927734
1701893618962504200,17.030504150390627,-4.9128828048706055,3.229983329772949,-0.6172823905944824
1701893618979502000,17.047502197265626,-4.636360168457031,2.4400691986083984,-1.171987533569336
1701893618996480800,17.064480712890624,-4.316092491149902,1.5958828926086426,-1.601231575012207
1701893619013479700,17.081479736328124,-3.579599142074585,1.3098187446594238,-1.6677498817443848
1701893619030474500,17.098474609375,-2.980149507522583,1.0021381378173828,-1.4464826583862305
1701893619047466200,17.11546630859375,-2.163900852203369,1.0203337669372559,-0.841949462890625
1701893619064457500,17.13245751953125,-1.2673933506011963,0.7645473480224609,0.0891876220703125
1701893619081439200,17.149439208984376,-0.6141303777694702,-0.33008241653442383,1.3735642433166504
1701893619098440700,17.166440673828124,-0.015519142150878906,-1.48622465133667,2.3786120414733887
1701893619115433500,17.18343359375,0.7074596881866455,-2.8859949111938477,3.9242444038391113
1701893619132424400,17.200424560546875,0.8958662748336792,-5.713818073272705,6.6391448974609375
1701893619149412600,17.21741259765625,1.0825176239013672,-8.735335350036621,8.504907608032227
1701893619166412000,17.234412109375,2.3250980377197266,-9.110007286071777,8.227663040161133
1701893619183400400,17.251400390625,3.112459659576416,-7.382600784301758,7.771725177764893
1701893619200391400,17.268391357421876,2.710420608520508,-5.9871907234191895,8.385005950927734
1701893619217384000,17.285384033203126,1.8096121549606323,-5.590012073516846,8.673282623291016
1701893619234375000,17.302375,1.3328523635864258,-5.767476558685303,7.8347625732421875
1701893619251367400,17.319367431640625,1.494926929473877,-5.3910369873046875,5.736600875854492
1701893619268347400,17.336347412109376,1.8415874242782593,-4.250730991363525,3.296065330505371
1701893619285351700,17.3533515625,1.9768203496932983,-2.9401187896728516,1.4733657836914062
1701893619302339000,17.370339111328125,1.773197054862976,-1.8037428855895996,-0.027449607849121094
1701893619319337000,17.3873369140625,1.475266933441162,-0.9979701042175293,-1.3588933944702148
1701893619336325400,17.404325439453125,1.2341248989105225,-0.5114984512329102,-2.6222991943359375
1701893619353317600,17.421317626953126,1.0645564794540405,-0.3373885154724121,-3.7853002548217773
1701893619370308600,17.43830859375,0.9813627004623413,-0.3608362674713135,-4.7932610511779785
1701893619387301400,17.45530126953125,0.9714579582214355,-0.4413881301879883,-5.670332908630371
1701893619404289300,17.472289306640626,0.9722845554351807,-0.5999467372894287,-6.546149253845215
1701893619421284900,17.489284912109376,0.9301928877830505,-0.7257592678070068,-7.419748306274414
1701893619438273800,17.506273681640625,1.0123181343078613,-0.7824821472167969,-8.021871566772461
1701893619455258400,17.52325830078125,0.8690528273582458,-0.7904781103134155,-8.520340919494629
1701893619472249600,17.54024951171875,1.205767035484314,-0.6461224555969238,-9.012263298034668
1701893619489247500,17.55724755859375,1.3259860277175903,-0.6142867803573608,-9.237951278686523
1701893619506233000,17.574233154296873,1.3619420528411865,-0.7892011404037476,-9.11478042602539
1701893619523232300,17.591232177734376,1.3945733308792114,-1.1124095916748047,-8.889779090881348
1701893619540219400,17.608219482421877,1.364426851272583,-1.392311692237854,-8.523164749145508
1701893619557220600,17.625220703125,1.2221105098724365,-1.7526652812957764,-7.995799541473389
1701893619574207700,17.642207763671873,1.4424034357070923,-1.8526678085327148,-7.7247233390808105
1701893619591199000,17.659198974609374,1.7046334743499756,-2.0894880294799805,-6.813249588012695
1701893619608193300,17.676193359375,1.7473134994506836,-2.4726414680480957,-5.214169979095459
1701893619625185500,17.693185546875,1.60003662109375,-2.999110698699951,-3.6038241386413574
1701893619642176300,17.71017626953125,1.4065862894058228,-3.799985647201538,-1.9875917434692383
1701893619659168300,17.727168212890625,0.8801195621490479,-4.942274570465088,-0.15697765350341797
1701893619676158700,17.74415869140625,0.42684656381607056,-5.709621429443359,0.5157508850097656
1701893619693154600,17.761154541015625,0.5596892237663269,-6.215603351593018,0.855198860168457
1701893619710143200,17.778143310546874,0.953490138053894,-6.973855972290039,2.367222785949707
1701893619727136300,17.79513623046875,0.8120991587638855,-8.377281188964844,4.211512565612793
1701893619744127000,17.812126953125,1.1889398097991943,-9.851680755615234,5.489609718322754
1701893619761119200,17.829119140625,2.3885998725891113,-9.883834838867188,6.046982765197754
1701893619778109700,17.846109619140623,3.256601572036743,-7.9818339347839355,7.278384685516357
1701893619795093800,17.86309375,1.6891300678253174,-5.887356758117676,9.59016227722168
1701893619812094200,17.88009423828125,-1.2404754161834717,-3.584437847137451,11.155659675598145
1701893619829086500,17.89708642578125,-4.014743328094482,-1.2159786224365234,10.868841171264648
1701893619846076700,17.91407666015625,-5.720458507537842,0.4247589111328125,9.195806503295898
1701893619863067100,17.931067138671875,-5.590892791748047,1.7203564643859863,6.845433235168457
1701893619880055600,17.9480556640625,-4.046542644500732,2.919759750366211,4.894063472747803
1701893619897046300,17.96504638671875,-2.1170787811279297,3.712095260620117,3.844571590423584
1701893619914041000,17.982041015625,-0.520179808139801,4.308306694030762,3.174649238586426
1701893619931037000,17.999036865234373,0.4078547954559326,4.812867164611816,2.51507568359375
1701893619948028200,18.016028076171875,0.6448333263397217,5.281330108642578,1.8370776176452637
1701893619965009700,18.033009765625,0.30157142877578735,5.5455732345581055,1.153958797454834
1701893619982011100,18.05001123046875,-0.187051460146904,5.714433670043945,0.5805153846740723
1701893619999004000,18.06700390625,-0.5339784622192383,5.693358421325684,0.1371750831604004
1701893620015995000,18.083994873046876,-0.549237072467804,5.532685279846191,-0.2478933334350586
1701893620032987100,18.100987060546874,-0.2504138946533203,5.297598838806152,-0.3880319595336914
1701893620049979100,18.117979248046876,0.21328532695770264,5.194949150085449,-0.49327659606933594
1701893620066971000,18.134970947265625,0.43094804883003235,4.9890031814575195,-0.2684025764465332
1701893620083960000,18.1519599609375,0.3014741539955139,4.609162330627441,-0.0013904571533203125
1701893620100950800,18.16895068359375,0.04737335443496704,4.16633939743042,0.24050045013427734
1701893620117945000,18.185945068359374,-0.2705472707748413,3.676687240600586,0.34157800674438477
1701893620134937900,18.202937744140623,-0.43445101380348206,3.2735347747802734,0.5611891746520996
1701893620151928800,18.2199287109375,-0.5627050995826721,2.9006500244140625,0.8672080039978027
1701893620168920300,18.23692041015625,-0.5315686464309692,2.5150442123413086,1.2115840911865234
1701893620185912800,18.253912841796875,-0.5849048495292664,1.6538801193237305,1.556203842163086
1701893620202904800,18.27090478515625,-0.6922557353973389,0.9595189094543457,1.6060242652893066
1701893620219883300,18.28788330078125,-1.0142645835876465,0.5607023239135742,1.8507089614868164
1701893620236877600,18.304877685546874,-1.9336392879486084,0.5417017936706543,1.9389691352844238
1701893620253870800,18.321870849609375,-2.718881607055664,0.05729961395263672,2.202544689178467
1701893620270869200,18.338869140625,-2.349433422088623,-1.0687642097473145,2.523726463317871
1701893620287862000,18.355862060546876,-1.0254247188568115,-2.956798553466797,2.592543601989746
1701893620304853000,18.37285302734375,0.4484872817993164,-5.161507606506348,2.922957420349121
1701893620321848600,18.3898486328125,0.9141043424606323,-9.167731285095215,4.877051830291748
1701893620338838800,18.4068388671875,1.3320368528366089,-11.45948314666748,4.311728477478027
1701893620355828700,18.423828857421874,2.7901644706726074,-11.114059448242188,2.3165884017944336
1701893620372813600,18.4408134765625,4.555702209472656,-8.779227256774902,1.1112146377563477
1701893620389809700,18.4578095703125,5.118718147277832,-7.069517612457275,1.7048540115356445
1701893620406795300,18.474795166015625,4.12740421295166,-6.832098960876465,2.6396360397338867
1701893620423793400,18.49179345703125,2.9749999046325684,-7.049442291259766,2.5133543014526367
1701893620440783000,18.508783203125,2.234186887741089,-6.627241134643555,0.35059261322021484
1701893620457778000,18.52577783203125,2.0868301391601562,-4.872584342956543,-2.049123764038086
1701893620474770400,18.5427705078125,1.7242872714996338,-2.763289451599121,-3.305508613586426
1701893620491758300,18.55975830078125,1.0586724281311035,-0.873082160949707,-3.8918609619140625
1701893620508746200,18.576746337890626,0.3950605094432831,0.36055946350097656,-3.7917137145996094
1701893620525736200,18.593736083984375,-0.1125413179397583,1.210327386856079,-3.6864023208618164
1701893620542737400,18.6107373046875,-0.3197837471961975,1.708491325378418,-3.9295525550842285
1701893620559722500,18.627722412109375,-0.384976327419281,2.0886924266815186,-4.656772613525391
1701893620576723200,18.64472314453125,-0.18228021264076233,2.4306392669677734,-5.500798225402832
1701893620593711600,18.661711669921875,-0.07418254017829895,2.6579465866088867,-6.154571533203125
1701893620610698000,18.678697998046875,-0.22245033085346222,2.781780481338501,-6.248579025268555
1701893620627688700,18.695688720703124,-0.38220852613449097,2.925797462463379,-6.07770299911499
1701893620644684300,18.712684326171875,-0.6643912196159363,2.9738683700561523,-5.733111381530762
1701893620661680600,18.7296806640625,-1.1712545156478882,2.8535385131835938,-5.445634841918945
1701893620678673000,18.7466728515625,-1.5952825546264648,2.4517979621887207,-5.399872779846191
1701893620695665200,18.7636650390625,-1.0641441345214844,2.015974521636963,-5.393924236297607
1701893620712638200,18.78063818359375,0.0409865528345108,1.5237836837768555,-5.006165504455566
1701893620729647900,18.79764794921875,1.5275918245315552,1.1729309558868408,-4.652646064758301
1701893620746628900,18.81462890625,2.8623130321502686,0.8683521747589111,-4.041503429412842
1701893620763632400,18.83163232421875,3.424302577972412,0.27153635025024414,-2.975139617919922
1701893620780620500,18.84862060546875,2.8419971466064453,-1.593174934387207,-1.0524349212646484
1701893620797618000,18.865617919921874,1.8876553773880005,-3.174755096435547,-0.18365192413330078
1701893620814604300,18.882604248046874,1.7410433292388916,-4.060845375061035,-0.5305299758911133
1701893620831596300,18.89959619140625,2.235029697418213,-5.734687328338623,0.7601432800292969
1701893620848593200,18.91659326171875,2.6923422813415527,-7.581586837768555,3.3602466583251953
1701893620865581600,18.93358154296875,2.792673110961914,-8.067096710205078,4.688441276550293
1701893620882574300,18.95057421875,2.911522150039673,-7.615118980407715,5.218171119689941
1701893620899565300,18.9675654296875,3.3015663623809814,-6.574466228485107,6.086446285247803
1701893620916555000,18.984554931640623,3.3317248821258545,-5.960716724395752,7.992804527282715
1701893620933547800,19.0015478515625,1.7296490669250488,-5.359132289886475,9.435428619384766
1701893620950532400,19.018532470703125,-1.0727694034576416,-4.236993312835693,9.382923126220703
1701893620967532300,19.0355322265625,-4.099452018737793,-2.6174111366271973,7.996999263763428
1701893620984524800,19.05252490234375,-6.151735305786133,-0.3148026466369629,5.840002536773682
1701893621001512400,19.069512451171875,-6.477564334869385,1.7393803596496582,4.111512184143066
1701893621018508300,19.08650830078125,-5.12040901184082,3.056468963623047,3.075998306274414
1701893621035499300,19.103499267578126,-3.3053336143493652,3.925905227661133,2.2808661460876465
1701893621052491500,19.120491455078124,-2.24607515335083,4.436765193939209,1.3344779014587402
1701893621069482500,19.137482421875,-2.328874111175537,4.735955715179443,0.13177919387817383
1701893621086471400,19.154471435546874,-3.0617356300354004,4.870221138000488,-1.0463347434997559
1701893621103466200,19.17146630859375,-3.557957172393799,4.869076251983643,-1.9123139381408691
1701893621120460500,19.18846044921875,-3.4094526767730713,4.725140571594238,-2.5093727111816406
1701893621137452800,19.205452880859376,-2.7179722785949707,4.708475112915039,-2.937516450881958
1701893621154442200,19.222442138671877,-2.0873639583587646,4.639883041381836,-3.2976670265197754
1701893621171433200,19.23943310546875,-1.8338252305984497,4.515886306762695,-3.5808653831481934
1701893621188424700,19.2564248046875,-1.7281243801116943,4.239601135253906,-3.6268579959869385
1701893621205417500,19.27341748046875,-1.5904229879379272,3.851654529571533,-3.401716470718384
1701893621222410500,19.290410400390623,-1.3060638904571533,3.401475429534912,-2.9332635402679443
1701893621239399000,19.30739892578125,-1.0410795211791992,2.7866902351379395,-2.1579031944274902
1701893621256392400,19.324392333984374,-0.6015568971633911,2.3111023902893066,-1.147061824798584
1701893621273383400,19.341383544921875,0.07966631650924683,2.0381412506103516,-0.2886686325073242
1701893621290373000,19.358373046875,0.40260064601898193,1.650639533996582,0.5341176986694336
1701893621307367200,19.3753671875,0.41749656200408936,1.3346805572509766,1.3774347305297852
1701893621324348400,19.392348388671873,0.2527197301387787,1.2159900665283203,1.8993992805480957
1701893621341350400,19.409350341796873,0.12340527772903442,0.9562087059020996,2.6727709770202637
1701893621358333000,19.4263330078125,-0.20538336038589478,0.26529502868652344,3.9100661277770996
1701893621375334100,19.443334228515624,-0.9606317281723022,-0.6115860939025879,5.22161865234375
1701893621392326400,19.460326416015626,-1.6972846984863281,-1.602186679840088,6.296048164367676
1701893621409317400,19.4773173828125,-1.8875362873077393,-4.24522066116333,8.652539253234863
1701893621426310100,19.49431005859375,-1.2402236461639404,-9.683101654052734,12.027336120605469
1701893621443301000,19.511301025390626,0.740451455116272,-12.191271781921387,11.581069946289062
1701893621460293400,19.52829345703125,2.7684197425842285,-9.762447357177734,8.514914512634277
1701893621477284400,19.545284423828125,3.7596960067749023,-6.354887962341309,6.452646255493164
1701893621494277000,19.562277099609375,2.9749596118927,-4.9606242179870605,5.705935478210449
1701893621511264800,19.5792646484375,1.5616880655288696,-5.63111686706543,4.848658561706543
1701893621528260400,19.59626025390625,1.118092656135559,-6.3750715255737305,2.602553367614746
1701893621545238500,19.613238525390624,1.3073763847351074,-6.849058151245117,-0.38647937774658203
1701893621562233900,19.63023388671875,2.3339385986328125,-5.656147480010986,-4.116815567016602
1701893621579232000,19.64723193359375,3.475389003753662,-3.7993996143341064,-6.170347213745117
1701893621596227300,19.664227294921876,3.9499053955078125,-2.1952083110809326,-6.332520008087158
1701893621613215700,19.6812158203125,3.63887357711792,-1.0490286350250244,-5.981085777282715
1701893621630213600,19.698213623046875,2.8424232006073,-0.377516508102417,-5.885018825531006
1701893621647202000,19.7152021484375,2.101520538330078,0.022071361541748047,-6.154223918914795
1701893621664194300,19.7321943359375,1.558485746383667,0.29890942573547363,-6.669065475463867
1701893621681177300,19.74917724609375,1.1425113677978516,0.5162731409072876,-7.038956642150879
1701893621698177000,19.766177001953125,0.8252166509628296,0.6767833232879639,-6.966597557067871
1701893621715169800,19.783169677734374,0.5720089673995972,0.8429148197174072,-6.7246832847595215
1701893621732159000,19.800158935546875,0.26862531900405884,1.010556936264038,-6.642943859100342
1701893621749154300,19.817154296875,-0.046529412269592285,1.2020455598831177,-6.5950164794921875
1701893621766144300,19.834144287109375,-0.302146852016449,1.1479649543762207,-6.5161004066467285
1701893621783136800,19.85113671875,-0.6395663022994995,0.8403031826019287,-6.4726691246032715
1701893621800128000,19.8681279296875,-0.475630521774292,0.6253201961517334,-6.2751054763793945
1701893621817119200,19.885119140625,-0.033264756202697754,0.23958039283752441,-6.735550880432129
1701893621834108700,19.902108642578124,0.6981560587882996,-0.06807494163513184,-6.25488805770874
1701893621851103000,19.91910302734375,1.4279186725616455,-0.47385549545288086,-5.238943576812744
1701893621868095200,19.93609521484375,2.0426461696624756,-0.6332492828369141,-4.210025787353516
1701893621885078800,19.953078857421875,2.2324962615966797,-0.7753360271453857,-2.935253620147705
1701893621902079000,19.970078857421875,1.9466464519500732,-1.3646528720855713,-1.2260894775390625
1701893621919070000,19.987070068359376,1.0837609767913818,-2.514716625213623,0.21049880981445312
1701893621936062000,20.00406201171875,0.33199387788772583,-3.6601486206054688,0.48084545135498047
1701893621953053200,20.02105322265625,-0.0641137957572937,-4.723073959350586,1.0486221313476562
1701893621970043600,20.038043701171876,0.5657622814178467,-6.538363933563232,2.462752342224121
1701893621987037200,20.055037109375,2.0325217247009277,-8.042584419250488,3.094264030456543
1701893622004029200,20.072029296875,3.381467819213867,-8.99176025390625,3.35184383392334
1701893622021016800,20.089016845703124,4.5926713943481445,-8.784568786621094,4.473694801330566
1701893622038012700,20.1060126953125,5.142849922180176,-7.646518230438232,6.652888774871826
1701893622055004000,20.12300390625,3.3552420139312744,-6.576733589172363,9.423171997070312
1701893622071996000,20.139995849609374,-0.8038986325263977,-5.049496650695801,10.99992847442627
1701893622088986400,20.156986328125,-5.791766166687012,-2.9583301544189453,10.580047607421875
1701893622105980700,20.173980712890625,-8.798526763916016,-0.22566986083984375,8.69024658203125
1701893622122971000,20.190970947265626,-8.843929290771484,1.8924283981323242,6.600883960723877
1701893622139963100,20.207963134765624,-6.505080223083496,3.073781967163086,4.737436294555664
1701893622156954000,20.2249541015625,-3.671729326248169,3.612849235534668,3.066112518310547
1701893622173946600,20.241946533203127,-1.4746084213256836,3.968000650405884,1.7775030136108398
1701893622190937600,20.2589375,-0.22866275906562805,4.2879414558410645,0.8967938423156738
1701893622207929300,20.275929443359374,0.20149652659893036,4.546937942504883,0.3986549377441406
1701893622224919000,20.2929189453125,0.3901721239089966,5.019108295440674,-0.21138668060302734
1701893622241903400,20.3099033203125,0.4176667630672455,5.336372375488281,-1.011777400970459
1701893622258904800,20.32690478515625,0.21190699934959412,5.544969081878662,-1.7498679161071777
1701893622275896000,20.34389599609375,0.0013296306133270264,5.525660514831543,-2.322615146636963
1701893622292878000,20.360878173828127,-0.02001902461051941,5.532717704772949,-2.79331111907959
1701893622309880800,20.377880859375,0.29006636142730713,5.534835338592529,-2.9408607482910156
1701893622326863600,20.394863525390626,0.6160478591918945,5.386499881744385,-2.8532729148864746
1701893622343860700,20.41186083984375,0.5562456250190735,5.128342628479004,-2.7158539295196533
1701893622360841700,20.428841796875,0.08629363775253296,4.615995407104492,-2.4505252838134766
1701893622377848000,20.44584814453125,-0.4007689952850342,4.076792240142822,-2.198044776916504
1701893622394840800,20.4628408203125,-0.7409899234771729,3.568187713623047,-1.887028694152832
1701893622411827700,20.47982763671875,-0.7949321269989014,3.397590160369873,-1.7475996017456055
1701893622428822000,20.496822021484373,-0.6368995308876038,3.0130019187927246,-1.0371904373168945
1701893622445814300,20.513814208984375,-0.6265918016433716,2.7836108207702637,-0.5537090301513672
1701893622462806300,20.53080615234375,-0.5150231122970581,2.621157646179199,-0.18009281158447266
1701893622479798000,20.547798095703126,-0.28643959760665894,1.9866957664489746,0.5326342582702637
1701893622496788700,20.564788818359375,0.10818052291870117,0.6367983818054199,1.7128829956054688
1701893622513781800,20.58178173828125,0.36925119161605835,-0.7060918807983398,3.2245707511901855
1701893622530769700,20.598769775390625,-0.013060208410024643,-2.8355870246887207,6.734593391418457
1701893622547765000,20.615764892578124,-0.8879709243774414,-6.3423919677734375,11.141605377197266
1701893622564745500,20.632745361328126,-0.3022520840167999,-9.178330421447754,12.861123085021973
1701893622581748500,20.64974853515625,2.3927738666534424,-9.394572257995605,12.480602264404297
1701893622598737200,20.666737060546875,4.988370418548584,-7.186345100402832,11.712189674377441
1701893622615735000,20.683735107421874,5.172643184661865,-6.389321804046631,11.766241073608398
1701893622632722200,20.70072216796875,3.3034653663635254,-7.398609638214111,10.83118724822998
1701893622649711900,20.7177119140625,1.0707248449325562,-8.392989158630371,8.070266723632812
1701893622666697700,20.73469775390625,-0.8188617825508118,-8.315845489501953,3.9582738876342773
1701893622683701800,20.75170166015625,-1.7169582843780518,-6.657961845397949,-0.4566049575805664
1701893622700689000,20.76868896484375,-1.4530460834503174,-4.598478317260742,-3.1110410690307617
1701893622717683500,20.785683349609375,-0.7540416717529297,-2.8668696880340576,-4.464596748352051
1701893622734670800,20.8026708984375,0.1362459659576416,-1.6684956550598145,-5.272488594055176
1701893622751666000,20.819666015625,0.8159960508346558,-1.2234141826629639,-5.599083423614502
1701893622768657000,20.836656982421875,1.2983219623565674,-1.092545747756958,-5.6724042892456055
1701893622785649700,20.853649658203125,1.4263187646865845,-0.946509838104248,-5.788515090942383
1701893622802640600,20.870640625,1.1221721172332764,-0.8472940921783447,-5.93587589263916
1701893622819633000,20.8876328125,0.6804461479187012,-0.6507550477981567,-6.234487533569336
1701893622836624000,20.904623779296877,0.11691152304410934,-0.3905740976333618,-6.724461078643799
1701893622853613300,20.92161328125,-0.30845364928245544,-0.07983314990997314,-7.2726874351501465
1701893622870607600,20.938607666015624,-0.3978840112686157,0.07050466537475586,-7.669842720031738
1701893622887600000,20.95560009765625,0.021736986935138702,-0.001946091651916504,-7.607173442840576
1701893622904590800,20.9725908203125,0.6927927136421204,-0.17532050609588623,-7.310359954833984
1701893622921580500,20.98958056640625,1.1670317649841309,-0.47323012351989746,-7.067010879516602
1701893622938574600,21.00657470703125,1.3691341876983643,-0.7177188396453857,-7.257936000823975
1701893622955561500,21.0235615234375,1.2505202293395996,-0.9246374368667603,-7.649450302124023
1701893622972553000,21.040552978515624,0.9589327573776245,-0.9920663833618164,-7.854839324951172
1701893622989545500,21.05754541015625,0.652637779712677,-1.0177615880966187,-7.616264820098877
1701893623006531800,21.07453173828125,0.451940655708313,-1.154948353767395,-6.8758544921875
1701893623023530200,21.0915302734375,0.32139360904693604,-1.7157856225967407,-5.874086380004883
1701893623040513800,21.108513671875,0.08986252546310425,-3.0620551109313965,-4.3816375732421875
1701893623057520000,21.12552001953125,0.15075194835662842,-4.232426166534424,-3.2126574516296387
1701893623074498300,21.142498291015624,0.19158875942230225,-5.439223766326904,-2.079028606414795
1701893623091500800,21.159500732421876,-0.001329660415649414,-6.797492027282715,-0.4018573760986328
1701893623108478700,21.176478759765626,-0.7617238759994507,-8.703512191772461,2.08315372467041
1701893623125487400,21.1934873046875,-0.9778359532356262,-10.874929428100586,4.294247627258301
1701893623142472200,21.21047216796875,0.9052538275718689,-12.570014953613281,5.968221664428711
1701893623159469800,21.2274697265625,4.788740634918213,-11.606832504272461,8.09864616394043
1701893623176459000,21.244458984375,7.127471923828125,-8.985023498535156,11.672866821289062
1701893623193451500,21.261451416015625,5.679011344909668,-6.027870178222656,14.464896202087402
1701893623210442800,21.27844287109375,1.691731572151184,-2.955824851989746,14.396260261535645
1701893623227424300,21.29542431640625,-2.846776008605957,-0.15753173828125,11.65084171295166
1701893623244422400,21.31242236328125,-6.199511528015137,2.235332489013672,7.903008937835693
1701893623261418500,21.32941845703125,-6.703958988189697,4.010207653045654,4.891221523284912
1701893623278409500,21.346409423828124,-4.738219738006592,4.862978935241699,3.182772636413574
1701893623295402000,21.363402099609374,-2.290555000305176,4.929162979125977,2.2686119079589844
1701893623312392400,21.380392333984375,-0.40649688243865967,5.052783012390137,1.6651768684387207
1701893623329385700,21.3973857421875,0.4171777665615082,5.318376541137695,1.117894172668457
1701893623346369300,21.414369384765624,0.31621867418289185,5.785215377807617,0.3550267219543457
1701893623363368700,21.43136865234375,-0.38088810443878174,6.09005069732666,-0.3028140068054199
1701893623380359700,21.448359619140625,-1.0667991638183594,6.208644390106201,-0.8532652854919434
1701893623397352400,21.4653525390625,-1.255487084388733,6.496331214904785,-1.3261518478393555
1701893623414343400,21.482343505859376,-1.1436699628829956,6.594915390014648,-1.4923858642578125
1701893623431329800,21.499329833984376,-0.9661256074905396,6.824060440063477,-1.5301299095153809
1701893623448329500,21.51632958984375,-0.8233540654182434,6.702340126037598,-1.3433361053466797
1701893623465319700,21.533319580078125,-0.9452368021011353,6.073209762573242,-1.0192546844482422
1701893623482310700,21.550310546875,-1.0554568767547607,5.432218551635742,-0.8311443328857422
1701893623499292200,21.567292236328125,-1.0921392440795898,4.772181987762451,-0.6219654083251953
1701893623516293600,21.584293701171877,-0.9598310589790344,4.211417198181152,-0.1715998649597168
1701893623533286700,21.60128662109375,-0.6966396570205688,3.48543119430542,0.7175178527832031
1701893623550277400,21.61827734375,-0.3209768235683441,3.052626132965088,1.5646629333496094
1701893623567260400,21.635260498046875,-0.18166011571884155,2.2159605026245117,2.7956838607788086
1701893623584260900,21.6522607421875,-0.24986445903778076,1.0386862754821777,4.045290470123291
1701893623601253400,21.66925341796875,-0.5033758878707886,-0.7199540138244629,5.1519083976745605
