time,seconds_elapsed,z,y,x
1700936827496336600,0.112336669921875,-1.6888699531555176,-1.1224987506866455,0.27149081230163574
1700936827513330200,0.129330078125,-2.710899829864502,-1.4262242317199707,-0.26221632957458496
1700936827530325000,0.146324951171875,-3.0464158058166504,-1.4604785442352295,-1.3351950645446777
1700936827547314700,0.163314697265625,-1.4566125869750977,-2.1033596992492676,-2.0903732776641846
1700936827564311800,0.180311767578125,0.1482853889465332,-2.4498140811920166,-2.004847288131714
1700936827581304800,0.197304931640625,-2.121175765991211,-3.2404322624206543,-1.7853055000305176
1700936827598300400,0.214300537109375,-4.205809593200684,-3.8239307403564453,-1.3675203323364258
1700936827615293400,0.23129345703125,-4.227553844451904,-3.6918716430664062,-0.8962154388427734
1700936827632283000,0.248282958984375,-1.5855615139007568,-3.5726821422576904,-1.2369370460510254
1700936827649263400,0.265263427734375,0.3333396911621094,-4.257272243499756,-1.3901562690734863
1700936827666269200,0.282269287109375,1.8875858783721924,-4.439560890197754,-2.66072940826416
1700936827683270700,0.299270751953125,1.9210913181304932,-4.971445083618164,-3.1468544006347656
1700936827700263200,0.31626318359375,1.6875497102737427,-5.323309898376465,-2.7389912605285645
1700936827717253000,0.333253173828125,1.4540596008300781,-5.137134552001953,-1.8055715560913086
1700936827734250200,0.350250244140625,0.764594316482544,-4.612394332885742,-0.8094253540039062
1700936827751243300,0.3672431640625,0.43659916520118713,-4.146970748901367,-0.17452621459960938
1700936827768238800,0.38423876953125,0.4630812406539917,-3.551542282104492,0.2081766128540039
1700936827785230800,0.40123095703125,0.5343024730682373,-3.4543700218200684,1.8231878280639648
1700936827802224600,0.418224609375,0.9752920269966125,-3.2060203552246094,4.346610069274902
1700936827819220200,0.43522021484375,2.2949299812316895,-2.6478209495544434,6.027432441711426
1700936827836210000,0.4522099609375,2.3780930042266846,-1.58970308303833,5.7227678298950195
1700936827853205500,0.46920556640625,2.0998692512512207,-1.030503273010254,5.071542739868164
1700936827870202600,0.48620263671875,2.0146491527557373,-0.5973873138427734,5.0890960693359375
1700936827887191600,0.503191650390625,2.2143197059631348,-0.02996063232421875,5.6517744064331055
1700936827904188700,0.520188720703125,2.3139748573303223,0.5930614471435547,6.335137367248535
1700936827921173000,0.537173095703125,2.1709213256835938,1.065237045288086,7.134397506713867
1700936827938174700,0.5541748046875,1.6750296354293823,1.4531302452087402,7.829858779907227
1700936827955169800,0.571169677734375,1.253427505493164,2.11077880859375,7.415729999542236
1700936827972153900,0.58815380859375,0.5273409485816956,2.6827750205993652,7.4098734855651855
1700936827989158700,0.60515869140625,-0.06744864583015442,3.6255033016204834,7.5460052490234375
1700936828006148600,0.622148681640625,-0.5732318162918091,4.559091091156006,7.146014213562012
1700936828023145000,0.63914501953125,-0.48002418875694275,5.2170305252075195,6.798023700714111
1700936828040140300,0.656140380859375,-0.6413836479187012,5.202367782592773,5.941255569458008
1700936828057131300,0.67313134765625,-0.6001381874084473,4.753104209899902,5.074648380279541
1700936828074129000,0.69012890625,-0.9563294649124146,4.087611198425293,4.456855297088623
1700936828091115500,0.707115478515625,-1.2274856567382812,3.643951654434204,4.413257598876953
1700936828108138800,0.724138671875,-1.0860610008239746,3.7429592609405518,4.472687244415283
1700936828125106200,0.741106201171875,-1.1326394081115723,3.5216970443725586,4.8875627517700195
1700936828142106000,0.758106201171875,-1.3022971153259277,2.993159294128418,5.060123443603516
1700936828159097900,0.775097900390625,-1.346824049949646,2.2366561889648438,5.0198283195495605
1700936828176086500,0.79208642578125,-1.204424500465393,1.4478731155395508,4.809932231903076
1700936828193082400,0.809082275390625,-0.9962347745895386,0.6857309341430664,4.83676290512085
1700936828210080500,0.82608056640625,-0.2463505119085312,0.36749982833862305,5.062417984008789
1700936828227068700,0.843068603515625,0.6763997077941895,0.25116825103759766,4.7753005027771
1700936828244056000,0.86005615234375,1.5170575380325317,-0.032671451568603516,4.205218315124512
1700936828261056500,0.877056396484375,2.2501487731933594,-0.2991976737976074,3.4663162231445312
1700936828278051800,0.8940517578125,2.766509771347046,-0.7118725776672363,2.6529793739318848
1700936828295047200,0.911047119140625,3.1459298133850098,-1.0677399635314941,1.7467398643493652
1700936828312036600,0.92803662109375,3.380580425262451,-1.2265939712524414,0.9909572601318359
1700936828329039000,0.9450390625,3.591750383377075,-1.0288333892822266,-0.014019966125488281
1700936828346027000,0.962027099609375,3.4062275886535645,-0.9263415336608887,-1.0355744361877441
1700936828363022300,0.979022216796875,2.8500585556030273,-0.849029541015625,-2.056149959564209
1700936828380018200,0.99601806640625,2.4181294441223145,-0.8094351291656494,-3.0823473930358887
1700936828397007000,1.013007080078125,2.031686305999756,-0.8446578979492188,-4.181240081787109
1700936828414015700,1.030015625,1.789223074913025,-0.8758838176727295,-4.9494948387146
1700936828430987000,1.046987060546875,1.5532532930374146,-0.9166469573974609,-5.236667633056641
1700936828447989200,1.0639892578125,1.3039112091064453,-1.030364990234375,-5.397093296051025
1700936828464985600,1.080985595703125,0.8884639739990234,-1.2969460487365723,-5.610404968261719
1700936828481978600,1.097978515625,0.3415152430534363,-1.7655389308929443,-6.0737457275390625
1700936828498960600,1.114960693359375,0.028401672840118408,-2.052644729614258,-6.8681488037109375
1700936828515967200,1.13196728515625,0.14180579781532288,-2.1913580894470215,-7.520166873931885
1700936828532960300,1.148960205078125,0.15698716044425964,-2.2104427814483643,-7.7979350090026855
1700936828549955800,1.165955810546875,0.5431102514266968,-2.3353829383850098,-7.420952320098877
1700936828566939400,1.182939453125,0.8869816660881042,-2.4199934005737305,-7.178305625915527
1700936828583943000,1.19994287109375,1.406896948814392,-2.551931381225586,-6.717545509338379
1700936828600942300,1.2169423828125,1.9279474020004272,-2.7407824993133545,-5.874450206756592
1700936828617928000,1.233927978515625,2.3102810382843018,-2.862856388092041,-5.1051459312438965
1700936828634924300,1.25092431640625,2.334599256515503,-3.4378271102905273,-4.095805644989014
1700936828651917000,1.2679169921875,1.898247241973877,-3.762328863143921,-3.3790698051452637
1700936828668912600,1.28491259765625,1.6831598281860352,-3.4734532833099365,-1.9656610488891602
1700936828685904000,1.30190380859375,1.4999115467071533,-3.1072170734405518,-0.0034513473510742188
1700936828702886700,1.31888671875,1.028347134590149,-3.57151460647583,2.303518295288086
1700936828719894000,1.33589404296875,0.866198718547821,-5.253909111022949,4.358325004577637
1700936828736881400,1.35288134765625,1.4471361637115479,-7.010676383972168,5.398512840270996
1700936828753876200,1.369876220703125,2.580827236175537,-6.313080310821533,6.217779159545898
1700936828770872600,1.38687255859375,2.811539649963379,-4.1682820320129395,8.302850723266602
1700936828787868000,1.403867919921875,2.145223617553711,-1.8167428970336914,10.912551879882812
1700936828804862700,1.42086279296875,1.512528657913208,0.3455047607421875,12.022186279296875
1700936828821855700,1.437855712890625,0.47790154814720154,1.4330902099609375,11.25670051574707
1700936828838851000,1.45485107421875,-0.5860397815704346,2.262021064758301,8.434900283813477
1700936828855833900,1.471833740234375,-1.764575481414795,3.2211856842041016,5.115392684936523
1700936828872837400,1.48883740234375,-2.5315699577331543,4.147650241851807,2.5768752098083496
1700936828889832700,1.505832763671875,-2.749177932739258,4.446906089782715,1.7041840553283691
1700936828906829600,1.52282958984375,-2.249690532684326,4.599115371704102,1.7266168594360352
1700936828923817700,1.539817626953125,-1.2202292680740356,4.773273468017578,1.6141157150268555
1700936828940828000,1.556827880859375,-0.7870592474937439,4.896282196044922,0.816072940826416
1700936828957804000,1.573803955078125,-1.173378586769104,4.805024147033691,-0.16680049896240234
1700936828974801400,1.590801513671875,-1.8319191932678223,4.731555461883545,-1.1727523803710938
1700936828991795000,1.607794921875,-2.0620980262756348,4.6048407554626465,-1.822411060333252
1700936829008789000,1.6247890625,-1.8681764602661133,4.21270751953125,-1.665006160736084
1700936829025781200,1.64178125,-1.294810175895691,3.959886074066162,-1.5238242149353027
1700936829042775300,1.658775390625,-0.5798296332359314,3.625537395477295,-1.0812745094299316
1700936829059771100,1.675771240234375,-0.12080904096364975,3.292165994644165,-1.2171363830566406
1700936829076762600,1.6927626953125,0.06851927191019058,2.8109967708587646,-1.6443943977355957
1700936829093757200,1.709757080078125,0.1966646909713745,2.0611655712127686,-1.2905426025390625
1700936829110751200,1.726751220703125,0.3386056125164032,1.0252909660339355,-0.23537254333496094
1700936829127744000,1.743743896484375,0.6581659317016602,0.8024115562438965,0.44115257263183594
1700936829144739800,1.76073974609375,1.456977367401123,0.854301929473877,1.0311756134033203
1700936829161732600,1.777732666015625,1.9685742855072021,-0.7143030166625977,3.10616397857666
1700936829178720800,1.794720703125,1.5206958055496216,-3.6747469902038574,4.8803815841674805
1700936829195715300,1.81171533203125,1.7924437522888184,-6.017921447753906,4.661153793334961
1700936829212716800,1.828716796875,3.5614941120147705,-5.913946151733398,3.7648496627807617
1700936829229709600,1.84570947265625,5.230573654174805,-4.19852876663208,5.107967376708984
1700936829246699800,1.86269970703125,5.192000389099121,-3.108828544616699,7.694240570068359
1700936829263696000,1.87969580078125,4.199843406677246,-2.214158535003662,8.895459175109863
1700936829280691200,1.896691162109375,2.90211820602417,-2.100548267364502,8.109783172607422
1700936829297681200,1.91368115234375,1.7692270278930664,-1.7391014099121094,4.891324996948242
1700936829314667800,1.930667724609375,1.5380042791366577,-1.2092480659484863,1.2821311950683594
1700936829331672800,1.9476728515625,1.1686975955963135,-0.7956881523132324,-1.3281221389770508
1700936829348665000,1.9646650390625,0.9850764274597168,-0.28432536125183105,-3.1480517387390137
1700936829365649700,1.981649658203125,0.9834794998168945,0.24461650848388672,-4.473263740539551
1700936829382642400,1.998642333984375,0.8562355041503906,0.4368627071380615,-5.302969932556152
1700936829399648000,2.01564794921875,0.7537580728530884,0.6324172019958496,-5.963440895080566
1700936829416631000,2.032631103515625,0.5424764156341553,0.693821907043457,-6.416691780090332
1700936829433634300,2.04963427734375,0.3478715419769287,0.6294028759002686,-6.60954475402832
1700936829450630000,2.0666298828125,-0.055588603019714355,0.40709519386291504,-6.777043342590332
1700936829467619600,2.08361962890625,-0.4379752278327942,0.14822697639465332,-6.882971286773682
1700936829484615700,2.10061572265625,-0.4193914532661438,0.08712005615234375,-7.0391974449157715
1700936829501601000,2.11760107421875,-0.4011051654815674,-0.05283474922180176,-7.105406761169434
1700936829518602800,2.134602783203125,-0.16671133041381836,-0.5779194831848145,-6.915050506591797
1700936829535597800,2.151597900390625,0.4404699504375458,-1.4572947025299072,-6.259881019592285
1700936829552580900,2.168580810546875,0.917192816734314,-3.2046947479248047,-4.564098834991455
1700936829569586700,2.185586669921875,1.2010151147842407,-4.249006748199463,-3.2343907356262207
1700936829586576600,2.20257666015625,2.0953941345214844,-4.412530899047852,-1.5620951652526855
1700936829603566000,2.219566162109375,2.6822357177734375,-5.719365119934082,1.7024269104003906
1700936829620564500,2.236564453125,2.5357728004455566,-7.396790981292725,4.494994163513184
1700936829637562000,2.25356201171875,2.446043014526367,-7.476294994354248,5.12838077545166
1700936829654555400,2.270555419921875,2.724348783493042,-7.477975845336914,6.369791030883789
1700936829671548400,2.28754833984375,3.857510566711426,-6.652050495147705,7.721565246582031
1700936829688533500,2.304533447265625,4.812242031097412,-5.585371494293213,9.110090255737305
1700936829705533700,2.32153369140625,4.441634654998779,-4.7142415046691895,9.303475379943848
1700936829722530000,2.338530029296875,2.6555702686309814,-3.53580904006958,7.690834045410156
1700936829739525600,2.355525634765625,0.13704633712768555,-1.9836745262145996,4.424371719360352
1700936829756515300,2.372515380859375,-1.7743244171142578,-0.4884366989135742,1.6841201782226562
1700936829773502000,2.389501953125,-2.3401246070861816,0.7209076881408691,0.7098159790039062
1700936829790497800,2.406497802734375,-1.8439288139343262,1.715074062347412,1.2127189636230469
1700936829807496700,2.42349658203125,-0.8476771116256714,3.040886163711548,1.0496277809143066
1700936829824493800,2.440493896484375,-0.3617124557495117,4.023181915283203,0.2344808578491211
1700936829841483500,2.4574833984375,-0.3355901837348938,4.727875709533691,-0.7205286026000977
1700936829858479900,2.47447998046875,-0.3971824645996094,5.301860809326172,-1.7357025146484375
1700936829875467500,2.491467529296875,-0.6612405180931091,5.602200508117676,-2.629819869995117
1700936829892468200,2.50846826171875,-0.924104630947113,5.65936279296875,-3.225749969482422
1700936829909461800,2.525461669921875,-0.9407655000686646,5.631276607513428,-3.5246291160583496
1700936829926455800,2.542455810546875,-0.9004569053649902,5.495927333831787,-3.3218302726745605
1700936829943450000,2.5594501953125,-0.7689765691757202,5.376828670501709,-3.1960768699645996
1700936829960445400,2.576445556640625,-0.38958844542503357,5.264612197875977,-3.3057971000671387
1700936829977435400,2.593435302734375,-0.13162344694137573,4.974598407745361,-3.252912998199463
1700936829994426600,2.610426513671875,-0.06481635570526123,4.92939567565918,-3.012078285217285
1700936830011425800,2.62742578125,-0.23093584179878235,4.708953380584717,-1.928828239440918
1700936830028420600,2.644420654296875,-0.5893257260322571,4.048238754272461,-0.5625195503234863
1700936830045410800,2.661410888671875,-0.7237340211868286,3.5008153915405273,0.46212053298950195
1700936830062407000,2.678406982421875,-0.6093604564666748,3.4002368450164795,1.1352224349975586
1700936830079402500,2.695402587890625,-0.3632954955101013,3.1019680500030518,2.767207622528076
1700936830096390000,2.712389892578125,-0.6149902939796448,2.721543788909912,4.5465240478515625
1700936830113389300,2.729389404296875,-0.5676088333129883,2.5038442611694336,6.240901470184326
1700936830130388500,2.746388427734375,-0.2742190361022949,1.276057243347168,8.931957244873047
1700936830147382500,2.763382568359375,0.014090240001678467,-3.5668153762817383,13.011337280273438
1700936830164372500,2.78037255859375,1.1193585395812988,-6.8133544921875,14.105640411376953
1700936830181361400,2.797361328125,3.5554897785186768,-5.241121768951416,12.723939895629883
1700936830198358800,2.81435888671875,4.648551940917969,-2.652463436126709,13.106989860534668
1700936830215351000,2.83135107421875,4.184969902038574,-2.1246814727783203,14.215936660766602
1700936830232338200,2.848338134765625,2.405515432357788,-3.2986350059509277,14.225988388061523
1700936830249344800,2.8653447265625,1.4444128274917603,-4.591934680938721,11.84710693359375
1700936830266324000,2.882323974609375,1.3493788242340088,-4.970030784606934,7.241271018981934
1700936830283329000,2.8993291015625,1.719390869140625,-4.633357048034668,2.2602109909057617
1700936830300321300,2.9163212890625,2.14516544342041,-3.9809563159942627,-1.2757067680358887
1700936830317312500,2.9333125,2.2010912895202637,-3.5021252632141113,-3.6134490966796875
1700936830334311200,2.950311279296875,1.9946577548980713,-3.0757133960723877,-5.148798942565918
1700936830351300900,2.96730078125,1.696718454360962,-2.8704466819763184,-6.2838921546936035
1700936830368298200,2.98429833984375,1.4397788047790527,-2.6656017303466797,-7.379237174987793
1700936830385288000,3.001287841796875,1.3839082717895508,-2.673286199569702,-8.101175308227539
1700936830402284000,3.018283935546875,1.6620914936065674,-2.7249462604522705,-8.615615844726562
1700936830419279600,3.035279541015625,1.5956394672393799,-2.7094948291778564,-9.029485702514648
1700936830436269300,3.052269287109375,1.2372157573699951,-3.086686849594116,-8.83829402923584
1700936830453265700,3.069265625,0.8118299841880798,-3.2509608268737793,-8.950112342834473
1700936830470264000,3.08626416015625,0.4164268374443054,-3.4460527896881104,-9.280133247375488
1700936830487250700,3.103250732421875,-0.12253010272979736,-3.5012922286987305,-9.865581512451172
1700936830504245500,3.12024560546875,-0.34691327810287476,-3.6332783699035645,-9.907115936279297
1700936830521242400,3.137242431640625,-0.07095837593078613,-3.693878412246704,-9.621288299560547
1700936830538222800,3.154222900390625,0.34463679790496826,-4.291857719421387,-8.060141563415527
1700936830555220200,3.17122021484375,0.1675112247467041,-5.30753755569458,-5.773617744445801
1700936830572223700,3.1882236328125,0.9506711959838867,-5.366765975952148,-4.064520835876465
1700936830589207300,3.205207275390625,1.370943546295166,-5.938564777374268,-2.767320156097412
1700936830606211600,3.222211669921875,0.7091993093490601,-7.755002498626709,-0.6698493957519531
1700936830623205000,3.239205078125,0.9061562418937683,-9.79202651977539,0.6766576766967773
1700936830640186000,3.25618603515625,2.398367166519165,-10.03231143951416,1.7264642715454102
1700936830657182500,3.273182373046875,2.842526912689209,-9.155132293701172,5.455437660217285
1700936830674189300,3.290189208984375,1.7926759719848633,-8.393128395080566,9.364677429199219
1700936830691162600,3.30716259765625,0.772730827331543,-7.49448299407959,11.648165702819824
1700936830708174000,3.324174072265625,-0.5136911869049072,-6.650925159454346,11.963542938232422
1700936830725169000,3.3411689453125,-2.3246312141418457,-4.267210960388184,9.724225044250488
1700936830742162400,3.358162353515625,-3.4656245708465576,-1.6457390785217285,7.156285285949707
1700936830759156000,3.375156005859375,-3.5026657581329346,0.34804725646972656,5.127662658691406
1700936830776150000,3.39214990234375,-2.355820655822754,0.8693103790283203,5.419253826141357
1700936830793143800,3.409143798828125,0.26523613929748535,1.9731593132019043,6.441335678100586
1700936830810133500,3.426133544921875,1.8605175018310547,3.744466781616211,5.057400703430176
1700936830827131600,3.443131591796875,1.940986156463623,5.022207260131836,2.7948899269104004
1700936830844128000,3.4601279296875,1.043394684791565,5.63543701171875,1.1829452514648438
1700936830861119500,3.477119384765625,0.21152445673942566,6.096752643585205,-0.10980606079101562
1700936830878110500,3.4941103515625,-0.3319332003593445,6.154978275299072,-0.20435714721679688
1700936830895116500,3.511116455078125,0.19884952902793884,6.464797496795654,0.8381390571594238
1700936830912098000,3.52809814453125,0.595975399017334,7.136546611785889,1.2176876068115234
1700936830929097200,3.54509716796875,0.1764550656080246,6.992793083190918,0.8496880531311035
1700936830946087700,3.562087646484375,-0.39950647950172424,6.574712753295898,-0.7282514572143555
1700936830963082500,3.57908251953125,-0.8550969362258911,6.151352882385254,-2.0680432319641113
1700936830980076000,3.596075927734375,-0.32137733697891235,6.195830345153809,-2.602199077606201
1700936830997070300,3.6130703125,0.5920661091804504,5.957252502441406,-1.7344369888305664
1700936831014064000,3.630064208984375,1.1276651620864868,5.915539264678955,0.07307147979736328
1700936831031043800,3.6470439453125,1.1199921369552612,5.596872329711914,1.9679765701293945
1700936831048051700,3.6640517578125,0.6662565469741821,4.7678422927856445,3.310641288757324
1700936831065045500,3.68104541015625,-0.0030397772789001465,4.150352478027344,3.700214385986328
1700936831082039300,3.698039306640625,-0.0012139678001403809,3.7655365467071533,3.949791431427002
1700936831099029500,3.715029541015625,0.7762835025787354,1.4783425331115723,7.006093978881836
1700936831116031000,3.732031005859375,1.7737585306167603,-1.1380014419555664,10.524255752563477
1700936831133011000,3.749010986328125,2.627239227294922,-2.71317720413208,12.330852508544922
1700936831150015000,3.766014892578125,2.749075412750244,-2.5789670944213867,12.645397186279297
1700936831167008500,3.783008544921875,2.562859296798706,-3.092219352722168,13.59238052368164
1700936831184002600,3.80000244140625,2.4614710807800293,-3.8397107124328613,13.763364791870117
1700936831200996400,3.816996337890625,2.235137701034546,-4.888341903686523,13.352169036865234
1700936831217990100,3.833990234375,2.3446807861328125,-5.788522243499756,12.559637069702148
1700936831234984200,3.850984130859375,2.6062850952148438,-6.072097301483154,10.020540237426758
1700936831251970000,3.867969970703125,2.099519968032837,-5.7933349609375,6.342594146728516
1700936831268969200,3.88496923828125,1.6025323867797852,-5.190127372741699,2.648927688598633
1700936831285968100,3.901968017578125,1.2014042139053345,-4.475248336791992,-0.5026836395263672
1700936831302959600,3.918959716796875,0.7652698755264282,-3.749746799468994,-2.919736862182617
1700936831319953400,3.935953369140625,0.5488797426223755,-3.05639910697937,-4.5821428298950195
1700936831336944600,3.952944580078125,0.5563747882843018,-2.3436970710754395,-6.007572650909424
1700936831353943600,3.969943603515625,0.4857935309410095,-1.9660542011260986,-7.0530548095703125
1700936831370934800,3.986934814453125,0.9653193950653076,-2.259615898132324,-7.987451076507568
1700936831387926300,4.00392626953125,2.5194201469421387,-2.083385944366455,-9.232370376586914
1700936831404925200,4.02092529296875,2.606090545654297,-2.0615766048431396,-10.10942554473877
1700936831421916700,4.037916748046875,1.4077242612838745,-2.496213674545288,-10.560555458068848
1700936831438910500,4.054910400390625,0.609969437122345,-2.662818431854248,-10.713987350463867
1700936831455904000,4.071904052734375,0.47103750705718994,-2.837257146835327,-10.8627290725708
1700936831472898300,4.088898193359375,1.3247829675674438,-3.0943970680236816,-10.706180572509766
1700936831489889500,4.1058896484375,2.2022764682769775,-3.0943870544433594,-10.314790725708008
1700936831506888200,4.12288818359375,2.183784008026123,-3.5673396587371826,-9.40839672088623
1700936831523880000,4.1398798828125,1.3798271417617798,-4.392154216766357,-8.3313627243042
1700936831540863000,4.156863037109375,0.6906297206878662,-4.796488285064697,-7.550861835479736
1700936831557858600,4.173858642578125,0.7118818759918213,-4.584876537322998,-6.228294372558594
1700936831574843100,4.190843017578125,0.5279979705810547,-5.920582294464111,-3.2698917388916016
1700936831591854800,4.207854736328125,-0.18124961853027344,-8.413758277893066,0.08927249908447266
1700936831608849200,4.22484912109375,0.2705860137939453,-10.579065322875977,1.7326717376708984
1700936831625843000,4.241843017578125,1.4023706912994385,-12.392720222473145,3.220393180847168
1700936831642844700,4.2588447265625,3.0227200984954834,-11.778916358947754,7.036022186279297
1700936831659828000,4.275827880859375,4.41214656829834,-10.584860801696777,13.255678176879883
1700936831676827400,4.292827392578125,4.607412338256836,-8.658019065856934,17.99945640563965
1700936831693818000,4.309818115234375,3.671077251434326,-5.734835624694824,18.312599182128906
1700936831710820600,4.326820556640625,0.3809579610824585,-2.7426881790161133,14.478084564208984
1700936831727803400,4.343803466796875,-4.37548303604126,0.14037752151489258,8.478826522827148
1700936831744802300,4.36080224609375,-7.418624401092529,2.3788537979125977,4.122079372406006
1700936831761794000,4.3777939453125,-7.369677543640137,3.1746976375579834,2.767652988433838
1700936831778787300,4.394787353515625,-5.102813720703125,3.3820056915283203,2.9927358627319336
1700936831795781400,4.411781494140625,-1.8123576641082764,4.421158790588379,2.815347671508789
1700936831812775400,4.428775390625,1.1662026643753052,5.4316630363464355,1.6730842590332031
1700936831829769000,4.44576904296875,3.0651001930236816,5.921036720275879,0.8154830932617188
1700936831846761200,4.46276123046875,3.38204288482666,6.147671699523926,0.5190682411193848
1700936831863759600,4.479759521484375,2.860671043395996,6.567522048950195,0.5649557113647461
1700936831880750600,4.49675048828125,1.205000638961792,6.955019474029541,-0.1348557472229004
1700936831897745000,4.513744873046875,-0.5334874987602234,6.63068151473999,-1.0223350524902344
1700936831914738700,4.53073876953125,-0.8312855362892151,5.910669803619385,-1.4516797065734863
1700936831931732200,4.547732177734375,0.15111036598682404,5.6697893142700195,-1.9748468399047852
1700936831948726300,4.564726318359375,1.0417712926864624,5.385871887207031,-1.8415088653564453
1700936831965720000,4.581719970703125,0.9815688729286194,5.475658416748047,-1.17881441116333
1700936831982717000,4.598717041015625,-0.03413777053356171,5.7369561195373535,-0.050665855407714844
1700936831999708000,4.6157080078125,-0.8190237879753113,5.894881248474121,1.5485095977783203
1700936832016701400,4.632701416015625,-0.9753668308258057,5.934837341308594,3.0159497261047363
1700936832033695500,4.649695556640625,-0.6352978944778442,5.725215911865234,4.208133697509766
1700936832050686700,4.666686767578125,-0.4953976571559906,4.746330738067627,5.410967826843262
1700936832067686000,4.683685791015625,-0.1809053272008896,3.885173797607422,5.841693878173828
1700936832084677000,4.700677001953125,0.4098973274230957,2.840181350708008,6.51993465423584
1700936832101671000,4.7176708984375,1.0581252574920654,1.3773798942565918,8.03703498840332
1700936832118654500,4.734654541015625,2.0452566146850586,-0.7090330123901367,10.054515838623047
1700936832135659000,4.751658935546875,3.4060182571411133,-3.4736576080322266,12.21339225769043
1700936832152650000,4.76864990234375,4.362908840179443,-5.115475654602051,13.200716972351074
1700936832169649000,4.78564892578125,4.513544082641602,-5.586696624755859,13.716484069824219
1700936832186640400,4.802640380859375,4.025161266326904,-6.103189468383789,14.12098503112793
1700936832203634000,4.819634033203125,3.9204516410827637,-6.934463024139404,13.624526023864746
1700936832220628000,4.8366279296875,4.272417068481445,-8.037046432495117,12.184789657592773
1700936832237618400,4.853618408203125,4.458535671234131,-8.292259216308594,9.32792854309082
1700936832254619000,4.870618896484375,4.140353679656982,-7.320733547210693,5.731541633605957
1700936832271609600,4.887609619140625,3.1264989376068115,-6.39827299118042,2.453277587890625
1700936832288603600,4.904603759765625,1.8321177959442139,-5.60841178894043,-0.4007740020751953
1700936832305587000,4.9215869140625,0.7035939693450928,-4.962986946105957,-2.405843734741211
1700936832322591200,4.93859130859375,0.2476067990064621,-4.028139114379883,-4.382229804992676
1700936832339584800,4.955584716796875,-0.06145656108856201,-3.1072418689727783,-6.108143329620361
1700936832356578800,4.972578857421875,-0.32577353715896606,-2.4365968704223633,-7.252857208251953
1700936832373562000,4.98956201171875,-0.6845367550849915,-2.0883545875549316,-8.047818183898926
1700936832390566700,5.006566650390625,-0.7615816593170166,-2.0793209075927734,-8.697968482971191
1700936832407550000,5.023550048828125,-0.6302534341812134,-2.1838252544403076,-9.556339263916016
1700936832424554500,5.040554443359375,-0.23581792414188385,-2.541048765182495,-10.228025436401367
1700936832441548300,5.05754833984375,-0.012009680271148682,-2.9772789478302,-10.701448440551758
1700936832458541800,5.074541748046875,-0.005351394414901733,-3.166449785232544,-11.150482177734375
1700936832475536100,5.0915361328125,-0.12641942501068115,-3.292464256286621,-11.30960750579834
1700936832492530000,5.108530029296875,0.054882168769836426,-3.406789541244507,-11.042282104492188
1700936832509523500,5.1255234375,0.5187721848487854,-3.4638545513153076,-10.448258399963379
1700936832526517500,5.142517578125,0.8572226762771606,-4.234857082366943,-9.548469543457031
1700936832543511300,5.15951123046875,1.0311882495880127,-4.849555015563965,-9.162724494934082
1700936832560505300,5.17650537109375,1.5010673999786377,-5.232804775238037,-8.101370811462402
1700936832577499100,5.1934990234375,1.1899158954620361,-5.749519348144531,-5.8013739585876465
1700936832594492700,5.21049267578125,0.34222376346588135,-6.085968971252441,-2.9360198974609375
1700936832611486500,5.227486572265625,-0.6771719455718994,-6.874844551086426,-0.3717193603515625
1700936832628479500,5.2444794921875,-1.4539086818695068,-8.385550498962402,1.1700057983398438
1700936832645475300,5.261475341796875,-0.600510835647583,-9.952629089355469,1.873612403869629
1700936832662468400,5.27846826171875,1.621697187423706,-11.126378059387207,3.6850814819335938
1700936832679462100,5.295462158203125,3.647674083709717,-10.679373741149902,7.5043487548828125
1700936832696456000,5.3124560546875,3.722341537475586,-10.023155212402344,11.808492660522461
1700936832713450200,5.3294501953125,3.477079391479492,-8.110860824584961,13.40410327911377
1700936832730443500,5.346443603515625,2.9251370429992676,-5.187591552734375,11.973305702209473
1700936832747427000,5.363427001953125,1.4021998643875122,-2.8936667442321777,9.777012825012207
1700936832764431400,5.380431396484375,-0.19267010688781738,-0.7279658317565918,7.0255126953125
1700936832781425200,5.397425048828125,-1.0346004962921143,0.8550057411193848,5.316066741943359
1700936832798419000,5.4144189453125,-0.9881353378295898,2.0667572021484375,5.647942543029785
1700936832815413200,5.431413330078125,-0.08590292930603027,3.7236459255218506,5.808104991912842
1700936832832402700,5.448402587890625,0.6056168079376221,5.02310037612915,5.207120418548584
1700936832849402400,5.46540234375,0.8002911806106567,5.955193996429443,3.5251307487487793
1700936832866394600,5.48239453125,0.8596665263175964,6.344916343688965,1.8487248420715332
1700936832883378400,5.49937841796875,0.6143355369567871,6.370217323303223,0.9197602272033691
1700936832900382200,5.51638232421875,0.6193224191665649,6.492784023284912,0.7342157363891602
1700936832917378000,5.5333779296875,1.0478531122207642,6.909080505371094,0.2764620780944824
1700936832934368300,5.5503681640625,0.935577392578125,6.856121063232422,0.03500175476074219
1700936832951364000,5.567364013671875,0.8435639142990112,6.438843727111816,-0.3814668655395508
1700936832968358000,5.58435791015625,0.7439941167831421,5.9293389320373535,-0.8266324996948242
1700936832985351400,5.601351318359375,1.0196195840835571,5.671329498291016,-0.5726041793823242
1700936833002345500,5.618345458984375,1.0701096057891846,5.41309928894043,0.9174070358276367
1700936833019339300,5.63533935546875,1.0114736557006836,5.076678276062012,2.9275355339050293
1700936833036333000,5.6523330078125,0.8822928071022034,4.108360290527344,5.821051120758057
1700936833053336300,5.66933642578125,0.4949904680252075,3.184147357940674,7.1225762367248535
1700936833070321200,5.686321044921875,0.24721407890319824,2.6195693016052246,7.898689270019531
1700936833087317200,5.703317138671875,0.2120850682258606,-0.3497161865234375,11.9381103515625
1700936833104309000,5.72030908203125,0.003544330596923828,-2.4516773223876953,15.027658462524414
1700936833121302800,5.737302734375,1.1222517490386963,-3.403597831726074,15.931502342224121
1700936833138293800,5.754293701171875,3.0703744888305664,-2.9703049659729004,15.201577186584473
1700936833155282200,5.7712822265625,5.59999942779541,-3.526944160461426,14.689603805541992
1700936833172284200,5.7882841796875,6.754015922546387,-5.553280353546143,14.239582061767578
1700936833189278200,5.8052783203125,6.60236120223999,-7.147049903869629,11.84547233581543
1700936833206271700,5.822271728515625,5.295560359954834,-7.628096580505371,8.610065460205078
1700936833223262500,5.839262451171875,3.218600034713745,-7.052709102630615,5.524829864501953
1700936833240262700,5.8562626953125,1.0497424602508545,-6.027548313140869,2.9677743911743164
1700936833257249800,5.873249755859375,-0.464030385017395,-4.836076736450195,0.5612411499023438
1700936833274244600,5.89024462890625,-1.0576961040496826,-3.482550859451294,-1.7247695922851562
1700936833291243800,5.907243896484375,-0.6362714767456055,-2.319073438644409,-3.7419843673706055
1700936833308235300,5.9242353515625,0.13605523109436035,-1.720350742340088,-5.217121124267578
1700936833325229000,5.94122900390625,0.7364282608032227,-1.4490966796875,-5.984766960144043
1700936833342222600,5.95822265625,1.8978900909423828,-1.043407917022705,-6.259202003479004
1700936833359216400,5.97521630859375,2.4975357055664062,-0.9086167812347412,-6.310734272003174
1700936833376210700,5.992210693359375,2.207134246826172,-1.1617761850357056,-6.656749248504639
1700936833393204200,6.009204345703125,1.4182374477386475,-1.5449167490005493,-7.4415483474731445
1700936833410198000,6.026197998046875,0.8095566034317017,-2.1069679260253906,-8.617786407470703
1700936833427191000,6.04319091796875,0.34268617630004883,-2.4023468494415283,-9.749506950378418
1700936833444176100,6.060176025390625,0.13439354300498962,-2.5228519439697266,-10.40538215637207
1700936833461180000,6.077179931640625,-0.10930335521697998,-2.617784261703491,-10.828969955444336
1700936833478173700,6.094173583984375,-0.4176948368549347,-2.731785297393799,-10.976167678833008
1700936833495157000,6.111156982421875,-0.5821514129638672,-3.041618824005127,-10.823654174804688
1700936833512160000,6.128159912109375,-0.5939685106277466,-3.2911787033081055,-10.691207885742188
1700936833529156900,6.145156982421875,-0.17492049932479858,-3.5718343257904053,-10.05937671661377
1700936833546138400,6.162138427734375,0.3831590712070465,-4.233778953552246,-8.383366584777832
1700936833563143000,6.179142822265625,1.125695824623108,-5.226511001586914,-5.582194805145264
1700936833580136700,6.19613671875,1.0126460790634155,-5.69498348236084,-4.165419578552246
1700936833597119700,6.21311962890625,0.6969786882400513,-5.49254846572876,-3.2424774169921875
1700936833614124800,6.230124755859375,-0.38688647747039795,-5.403602600097656,0.4710712432861328
1700936833631118000,6.2471181640625,-1.9529204368591309,-6.4433088302612305,6.2719573974609375
1700936833648107000,6.26410693359375,-0.830546498298645,-7.815654754638672,10.13597297668457
1700936833665108700,6.281108642578125,2.2100398540496826,-8.143106460571289,11.151223182678223
1700936833682104800,6.298104736328125,5.026106357574463,-7.35706901550293,9.974782943725586
1700936833699099400,6.315099365234375,5.698056697845459,-5.893532752990723,8.557397842407227
1700936833716087800,6.332087890625,3.5825793743133545,-5.19136905670166,7.891599655151367
1700936833733081600,6.34908154296875,0.07782900333404541,-5.033788681030273,7.729475975036621
1700936833750075400,6.366075439453125,-2.7991585731506348,-4.037108421325684,6.920653343200684
1700936833767069400,6.3830693359375,-3.5652873516082764,-2.2713074684143066,6.554218292236328
1700936833784063000,6.40006298828125,-2.8933560848236084,-0.29699182510375977,5.996606349945068
1700936833801056800,6.417056884765625,-1.5442278385162354,1.438509464263916,4.861073970794678
1700936833818051000,6.434051025390625,-0.5611457228660583,2.761021614074707,4.247255325317383
1700936833835040000,6.4510400390625,-0.16543185710906982,3.5538885593414307,4.145663261413574
1700936833852039400,6.468039306640625,-0.19902297854423523,4.540538787841797,4.357100963592529
1700936833869030000,6.48502978515625,-0.19995541870594025,5.867093563079834,3.6721649169921875
1700936833886028800,6.50202880859375,-0.9270669221878052,6.472777843475342,2.556051731109619
1700936833903017000,6.519016845703125,-1.6971673965454102,6.797804832458496,1.6514039039611816
1700936833920011300,6.53601123046875,-2.129034996032715,7.360996246337891,1.5434622764587402
1700936833937010400,6.553010498046875,-2.7369682788848877,7.6583123207092285,1.3711342811584473
1700936833954001700,6.570001708984375,-3.6131739616394043,6.651264190673828,0.7786931991577148
1700936833970995700,6.58699560546875,-3.451132297515869,6.017583847045898,-0.42372846603393555
1700936833987989200,6.6039892578125,-2.183215618133545,5.511842727661133,-1.102525234222412
1700936834004983300,6.6209833984375,-0.7633236050605774,4.9672112464904785,-1.0687637329101562
1700936834021976800,6.637976806640625,0.34754785895347595,4.281151294708252,0.17928171157836914
1700936834038960600,6.654960693359375,0.6259048581123352,3.822929620742798,1.5472793579101562
1700936834055964700,6.671964599609375,-0.17728115618228912,3.3268260955810547,2.112687587738037
1700936834072946000,6.68894580078125,-1.0948572158813477,3.1290268898010254,2.3478031158447266
1700936834089944800,6.70594482421875,-1.7989099025726318,2.736452579498291,2.8492298126220703
1700936834106946600,6.722946533203125,-2.033684730529785,1.3761234283447266,3.7849416732788086
1700936834123931000,6.739930908203125,-1.6917874813079834,0.25280284881591797,4.812959671020508
1700936834140924000,6.756923828125,-1.0624980926513672,-0.18795013427734375,5.396739482879639
1700936834157923600,6.773923583984375,-1.0088679790496826,-2.3616690635681152,7.234792232513428
1700936834174926600,6.790926513671875,-0.9940993189811707,-5.041445732116699,8.950035095214844
1700936834191915800,6.807915771484375,0.14148980379104614,-6.38305139541626,9.92111873626709
1700936834208908000,6.824907958984375,1.0948309898376465,-5.616235733032227,10.727518081665039
1700936834225900800,6.84190087890625,0.8813313245773315,-4.425487041473389,11.229904174804688
1700936834242898400,6.8588984375,-0.18867695331573486,-4.817398548126221,11.902745246887207
1700936834259887900,6.875887939453125,-1.630091667175293,-6.159289360046387,11.045402526855469
1700936834276887300,6.89288720703125,-1.5103756189346313,-7.023916721343994,8.025556564331055
1700936834293878800,6.909878662109375,-0.4241180419921875,-6.761893272399902,3.6996994018554688
1700936834310872800,6.926872802734375,0.9682294130325317,-5.509357452392578,-0.149505615234375
1700936834327866400,6.943866455078125,1.710289478302002,-4.277522087097168,-2.354867458343506
1700936834344856600,6.960856689453125,2.02984356880188,-3.3460402488708496,-3.6848530769348145
1700936834361854200,6.977854248046875,1.977102279663086,-2.8794655799865723,-4.761912822723389
1700936834378848000,6.994847900390625,1.9736822843551636,-2.567101001739502,-5.812677383422852
1700936834395842000,7.011842041015625,2.0931193828582764,-2.412078857421875,-6.593512535095215
1700936834412836000,7.028836181640625,2.0684075355529785,-2.3273141384124756,-7.067559242248535
1700936834429829600,7.04582958984375,1.7895630598068237,-2.2355146408081055,-7.338819980621338
1700936834446813700,7.062813720703125,1.388214111328125,-2.108186960220337,-7.33225154876709
1700936834463807000,7.079806884765625,1.1983351707458496,-1.8623616695404053,-7.44105339050293
1700936834480811500,7.0968115234375,0.9285842180252075,-1.9649221897125244,-7.5977783203125
1700936834497805000,7.11380517578125,0.554161548614502,-2.2580246925354004,-7.950936794281006
1700936834514796300,7.13079638671875,0.4938920736312866,-2.6155598163604736,-8.122410774230957
1700936834531795500,7.14779541015625,0.7046091556549072,-3.0155460834503174,-7.911945343017578
1700936834548777000,7.16477685546875,0.9822735786437988,-3.561053991317749,-7.026268005371094
1700936834565778200,7.181778076171875,1.6430127620697021,-3.8806307315826416,-5.656473636627197
1700936834582777000,7.198777099609375,2.1143391132354736,-4.34170389175415,-3.853790760040283
1700936834599768600,7.2157685546875,1.9201411008834839,-5.308488368988037,-2.4048867225646973
1700936834616762400,7.232762451171875,1.1308144330978394,-6.865359783172607,-1.071681022644043
1700936834633756000,7.249755859375,0.8654612302780151,-8.429837226867676,0.2248086929321289
1700936834650750000,7.26675,1.425006628036499,-9.524974822998047,2.1858348846435547
1700936834667743700,7.28374365234375,3.0346875190734863,-9.694524765014648,5.361102104187012
1700936834684737500,7.300737548828125,4.720795631408691,-8.276824951171875,8.924915313720703
1700936834701731300,7.3177314453125,6.2859086990356445,-6.029514312744141,11.611560821533203
1700936834718725400,7.334725341796875,6.7557291984558105,-3.7783191204071045,11.943571090698242
1700936834735725300,7.351725341796875,4.786214828491211,-2.563188314437866,10.251066207885742
1700936834752713200,7.368713134765625,2.084847927093506,-1.9307315349578857,8.119839668273926
1700936834769706800,7.385706787109375,-0.08721375465393066,-1.3797736167907715,5.315752029418945
1700936834786690600,7.402690673828125,-1.038565993309021,-0.7814607620239258,2.575812339782715
1700936834803694300,7.4196943359375,-1.2030287981033325,0.12563705444335938,0.07843971252441406
1700936834820689000,7.43668896484375,-0.8054239749908447,1.0249497890472412,-1.6969971656799316
1700936834837671700,7.453671630859375,-0.33440101146698,1.7379026412963867,-2.8075733184814453
1700936834854665700,7.470665771484375,0.015590548515319824,2.0291826725006104,-3.3997230529785156
1700936834871670000,7.487669921875,0.06293892860412598,1.8279715776443481,-3.512028694152832
1700936834888654300,7.504654296875,0.7953848838806152,1.4937567710876465,-3.333207607269287
1700936834905657900,7.521657958984375,1.7800357341766357,1.4027986526489258,-2.9254398345947266
1700936834922651600,7.538651611328125,2.3012173175811768,1.2528352737426758,-2.654944896697998
1700936834939645400,7.5556455078125,2.3423705101013184,1.2678730487823486,-2.638228416442871
1700936834956639200,7.57263916015625,2.204486608505249,1.2122392654418945,-2.5661725997924805
1700936834973633000,7.589633056640625,2.0949368476867676,1.2483770847320557,-2.385143756866455
1700936834990608400,7.6066083984375,2.2627339363098145,1.210254430770874,-2.005817413330078
1700936835007620900,7.623620849609375,2.298551321029663,0.8716433048248291,-1.1438660621643066
1700936835024614700,7.64061474609375,2.6666412353515625,0.7345342636108398,-0.20630359649658203
1700936835041608700,7.657608642578125,2.9041197299957275,0.46998095512390137,-0.10940933227539062
1700936835058602500,7.6746025390625,3.0576181411743164,0.20384573936462402,-0.39717864990234375
1700936835075597000,7.69159716796875,2.932441234588623,0.07713985443115234,-0.4306821823120117
1700936835092590000,7.708590087890625,2.5441040992736816,0.4135591983795166,-0.2044849395751953
1700936835109584000,7.725583984375,1.740931510925293,0.5369760990142822,0.733612060546875
1700936835126578000,7.742577880859375,1.0017704963684082,0.05370450019836426,2.416595458984375
1700936835143572000,7.759572021484375,-0.3229203224182129,-0.26784563064575195,2.6585311889648438
1700936835160563000,7.77656298828125,-2.134870767593384,-0.9861340522766113,1.5084514617919922
1700936835177561900,7.793561767578125,-2.9535789489746094,-1.9908349514007568,0.39678192138671875
1700936835194553300,7.81055322265625,-1.8431856632232666,-2.2439005374908447,0.34751129150390625
1700936835211544600,7.827544677734375,0.3421241343021393,-1.234773874282837,1.6900339126586914
1700936835228543500,7.84454345703125,1.46244215965271,0.6565961837768555,4.482326507568359
1700936835245524500,7.8615244140625,1.320027232170105,1.6056294441223145,6.848605155944824
1700936835262528800,7.87852880859375,0.46129700541496277,1.1674890518188477,7.3711042404174805
1700936835279522600,7.8955224609375,0.03796400502324104,0.05883646011352539,6.401667594909668
1700936835296516600,7.9125166015625,0.42166492342948914,-0.9041259288787842,5.243501663208008
1700936835313510400,7.929510498046875,0.5557187795639038,-1.067762851715088,4.5308837890625
1700936835330504000,7.94650390625,-0.6093268990516663,-1.392934799194336,5.212957382202148
1700936835347498200,7.963498291015625,-1.6697795391082764,-1.4705815315246582,5.351354598999023
1700936835364491800,7.98049169921875,-2.44163179397583,-1.8274433612823486,3.0935230255126953
1700936835381492700,7.99749267578125,-2.700488328933716,-2.599015235900879,0.33285999298095703
1700936835398479600,8.014479736328125,-1.9801362752914429,-3.2208218574523926,-2.181434154510498
1700936835415473400,8.031473388671875,-0.83493572473526,-3.399869918823242,-3.415062427520752
1700936835432457000,8.04845703125,0.10842059552669525,-3.5503716468811035,-3.6048245429992676
1700936835449458700,8.065458740234375,0.34536629915237427,-3.5736618041992188,-3.620255470275879
1700936835466457600,8.08245751953125,0.30650874972343445,-3.5271499156951904,-3.976383686065674
1700936835483448800,8.09944873046875,0.11047697067260742,-3.7149720191955566,-4.634945869445801
1700936835500443000,8.11644287109375,-0.28337541222572327,-3.918416738510132,-5.36214542388916
1700936835517438700,8.133438720703126,-0.42888060212135315,-3.935283899307251,-6.080852508544922
1700936835534430500,8.150430419921875,-0.6462937593460083,-3.7812745571136475,-6.332897186279297
1700936835551424500,8.167424560546875,-1.1088358163833618,-3.730574607849121,-5.9134697914123535
1700936835568418300,8.184418212890625,-1.5774624347686768,-3.5999200344085693,-5.014700412750244
1700936835585412000,8.201412109375,-1.992882490158081,-3.52945613861084,-4.407853126525879
1700936835602406000,8.218406005859375,-2.4265201091766357,-3.5579464435577393,-4.329290390014648
1700936835619379000,8.23537890625,-2.628038167953491,-3.5372958183288574,-4.357517242431641
1700936835636396500,8.252396484375,-2.3896915912628174,-3.480989933013916,-4.48035192489624
1700936835653384000,8.269384033203124,-2.0720274448394775,-3.5958523750305176,-4.2799458503723145
1700936835670381300,8.28638134765625,-1.0143929719924927,-3.589524269104004,-2.8223862648010254
1700936835687375400,8.303375244140625,0.04348301887512207,-3.347330093383789,-1.2006988525390625
1700936835704358400,8.3203583984375,0.7433842420578003,-3.062901020050049,0.05552864074707031
1700936835721363000,8.337363037109375,1.1150448322296143,-2.613226890563965,0.49298095703125
1700936835738354400,8.3543544921875,1.0739428997039795,-2.5584490299224854,0.7804479598999023
1700936835755353000,8.37135302734375,0.8028692007064819,-3.114420175552368,1.4699697494506836
1700936835772344600,8.388344482421875,0.9399706125259399,-3.4192593097686768,2.958637237548828
1700936835789335800,8.405335693359374,1.1409344673156738,-3.383800983428955,4.26048469543457
1700936835806334700,8.422334716796875,0.9180039763450623,-2.8568472862243652,4.840371131896973
1700936835823323400,8.439323486328124,1.1926584243774414,-1.6912517547607422,4.951602935791016
1700936835840322600,8.456322509765625,1.8638648986816406,-0.4189162254333496,5.068774223327637
1700936835857307000,8.473306884765625,2.4159443378448486,0.07403230667114258,5.441069602966309
1700936835874307600,8.4903076171875,3.207322359085083,0.15534496307373047,5.220554351806641
1700936835891301600,8.507301513671875,3.681074619293213,-0.17057371139526367,4.434415817260742
1700936835908295400,8.52429541015625,3.291973829269409,-0.5008244514465332,3.0884408950805664
1700936835925289200,8.541289306640625,2.4016566276550293,-0.2643570899963379,1.430048942565918
1700936835942278000,8.55827783203125,1.098637342453003,0.2920551300048828,0.014981269836425781
1700936835959277000,8.575277099609375,-0.1438407450914383,0.9215538501739502,-1.0147695541381836
1700936835976270800,8.592270751953125,-0.9072511196136475,1.6080451011657715,-1.7387638092041016
1700936835993264600,8.6092646484375,-1.2378095388412476,2.054277181625366,-2.1218972206115723
1700936836010262000,8.626261962890625,-1.1903003454208374,2.265714406967163,-2.2626590728759766
1700936836027258400,8.64325830078125,-1.1006120443344116,2.2113211154937744,-2.0737147331237793
1700936836044248800,8.660248779296875,-1.0228986740112305,2.0639965534210205,-1.5836420059204102
1700936836061240000,8.677239990234375,-1.3337910175323486,1.9370818138122559,-1.7146830558776855
1700936836078233900,8.69423388671875,-1.70066499710083,2.255993127822876,-2.3776073455810547
1700936836095218400,8.711218505859375,-1.928968906402588,2.5726842880249023,-2.712672233581543
1700936836112219100,8.72821923828125,-2.284311056137085,2.6390788555145264,-2.6313014030456543
1700936836129218000,8.745218017578125,-2.2992355823516846,2.619210720062256,-2.5005974769592285
1700936836146209300,8.762209228515625,-2.1123828887939453,2.5424816608428955,-2.6846585273742676
1700936836163200800,8.77920068359375,-1.6992703676223755,2.5958712100982666,-3.232435703277588
1700936836180198700,8.79619873046875,-1.2033650875091553,2.6450345516204834,-3.4997758865356445
1700936836197191700,8.813191650390625,-1.0677478313446045,2.6112747192382812,-3.5686817169189453
1700936836214182400,8.830182373046876,-1.3579999208450317,2.3242712020874023,-3.222052574157715
1700936836231181000,8.84718115234375,-1.8767645359039307,1.9674713611602783,-2.719306468963623
1700936836248172300,8.86417236328125,-2.247987747192383,1.648590326309204,-2.252528667449951
1700936836265166300,8.881166259765624,-2.705667018890381,1.74849271774292,-1.7215909957885742
1700936836282157800,8.89815771484375,-2.9680063724517822,1.9027917385101318,-1.048029899597168
1700936836299156500,8.915156494140625,-3.1712517738342285,1.9003267288208008,-0.43392181396484375
1700936836316148000,8.93214794921875,-2.8093416690826416,1.8399696350097656,0.25940608978271484
1700936836333142000,8.94914208984375,-2.070190191268921,1.7132911682128906,0.5100736618041992
1700936836350135600,8.966135498046874,-0.9645301103591919,1.3895394802093506,0.7986555099487305
1700936836367125000,8.983125,-0.7429500222206116,0.9252152442932129,1.1492443084716797
1700936836384123400,9.000123291015624,-1.206903100013733,0.2831387519836426,1.7867860794067383
1700936836401117000,9.017116943359374,-1.1667284965515137,-0.15719032287597656,2.471653938293457
1700936836418102500,9.0341025390625,-0.7554849982261658,-0.5773584842681885,3.5291576385498047
1700936836435105000,9.05110498046875,-0.7343577146530151,-2.9364702701568604,6.526704788208008
1700936836452097800,9.068097900390624,-0.5813775658607483,-5.677213668823242,8.45697021484375
1700936836469092600,9.085092529296874,0.5168638229370117,-6.782029628753662,8.725842475891113
1700936836486086100,9.102086181640624,1.9939571619033813,-5.00959587097168,8.453853607177734
1700936836503081000,9.1190810546875,1.8749381303787231,-3.298947811126709,9.500398635864258
1700936836520068400,9.136068359375,-0.2742105722427368,-3.2712574005126953,10.467113494873047
1700936836537068000,9.153068115234374,-2.118408679962158,-3.522143602371216,9.161922454833984
1700936836554061600,9.1700615234375,-2.2965171337127686,-4.3547163009643555,6.405264854431152
1700936836571055900,9.187055908203124,-0.937069296836853,-4.62445592880249,2.569835662841797
1700936836588051500,9.204051513671875,0.8782154321670532,-3.6095707416534424,-1.364654541015625
1700936836605041700,9.221041748046876,1.8735344409942627,-2.6731019020080566,-3.698230266571045
1700936836622037500,9.23803759765625,2.023015260696411,-2.162951946258545,-4.951746463775635
1700936836639031300,9.25503125,1.7347437143325806,-1.8477308750152588,-5.814381122589111
1700936836656024800,9.27202490234375,1.2681056261062622,-1.7475242614746094,-6.548211097717285
1700936836673008000,9.289008056640625,1.1115669012069702,-1.7331438064575195,-7.513974189758301
1700936836690012700,9.3060126953125,1.6859666109085083,-1.3212780952453613,-8.371071815490723
1700936836707006500,9.32300634765625,1.924035668373108,-0.8564095497131348,-8.962138175964355
1700936836724000300,9.340000244140626,1.0881693363189697,-0.8971811532974243,-8.61706829071045
1700936836740979200,9.356979248046875,-0.4188920855522156,-1.206088662147522,-7.462521553039551
1700936836757988000,9.373988037109376,-1.6026946306228638,-1.3245004415512085,-6.450416088104248
1700936836774982000,9.39098193359375,-1.8496487140655518,-1.392531394958496,-6.249528884887695
1700936836791972600,9.40797265625,-1.064093828201294,-1.7021023035049438,-6.777507781982422
1700936836808969500,9.424969482421876,0.4885474443435669,-1.5384800434112549,-7.405670642852783
1700936836825963500,9.441963623046876,1.1575003862380981,-1.873272180557251,-7.091923236846924
1700936836842957300,9.458957275390626,0.8515735268592834,-2.592301607131958,-6.031381607055664
1700936836859948800,9.47594873046875,0.5817257165908813,-3.6507716178894043,-4.323082447052002
1700936836876947700,9.49294775390625,0.004397034645080566,-4.614858150482178,-3.2699899673461914
1700936836893928200,9.50992822265625,-0.1620194911956787,-4.934467315673828,-3.230919361114502
1700936836910933000,9.52693310546875,-0.28181934356689453,-5.127560138702393,-2.849968433380127
1700936836927926500,9.543926513671876,-0.20446407794952393,-6.553991794586182,-0.0833282470703125
1700936836944920300,9.56092041015625,-0.8883787393569946,-8.178021430969238,3.1550378799438477
1700936836961914400,9.577914306640626,-0.5707975625991821,-10.017585754394531,6.196296691894531
1700936836978905600,9.594905517578125,1.2414559125900269,-10.165639877319336,8.406961441040039
1700936836995904800,9.61190478515625,3.3802847862243652,-8.92400074005127,9.812525749206543
1700936837012884500,9.628884521484375,4.128114700317383,-7.191289901733398,11.291082382202148
1700936837029881000,9.645881103515626,2.671574115753174,-4.965738773345947,10.721880912780762
1700936837046886000,9.662885986328124,-0.7060152292251587,-2.864819049835205,7.562774658203125
1700936837063877400,9.67987744140625,-4.074664115905762,-0.8973779678344727,3.8162736892700195
1700936837080869000,9.696869140625,-6.014479637145996,0.9063229560852051,1.327681064605713
1700936837097865700,9.71386572265625,-6.09271764755249,2.404806137084961,0.5464615821838379
1700936837114858500,9.7308583984375,-4.3769612312316895,3.5191810131073,0.5846066474914551
1700936837131848400,9.747848388671875,-2.8300042152404785,4.558052062988281,0.5650548934936523
1700936837148847400,9.764847412109376,-1.6309688091278076,5.39080810546875,0.06004667282104492
1700936837165844700,9.7818447265625,-1.208541989326477,5.80567741394043,-0.8294181823730469
1700936837182834200,9.798834228515625,-1.3733131885528564,5.767465591430664,-1.8684163093566895
1700936837199828500,9.815828369140625,-1.7622274160385132,5.421555995941162,-1.9039602279663086
1700936837216817700,9.832817626953124,-1.4466465711593628,5.9364013671875,-2.4661178588867188
1700936837233815800,9.84981591796875,-1.3437888622283936,6.019706726074219,-2.8248438835144043
1700936837250809600,9.8668095703125,-1.4006450176239014,5.730896949768066,-2.9538865089416504
1700936837267803600,9.8838037109375,-1.1166656017303467,5.240866661071777,-3.0716781616210938
1700936837284797400,9.90079736328125,-0.7945953607559204,4.415742874145508,-2.981311798095703
1700936837301791200,9.917791259765625,-0.6047207117080688,3.728555202484131,-2.4900989532470703
1700936837318785300,9.934785400390625,-0.38986390829086304,3.510913133621216,-1.5966620445251465
1700936837335779000,9.951779052734375,-0.3909420669078827,3.562408685684204,0.1769118309020996
1700936837352772900,9.96877294921875,-0.4718174636363983,2.37050199508667,2.7588796615600586
1700936837369767000,9.985766845703125,-0.5638856291770935,1.4519171714782715,4.344711780548096
1700936837386761000,10.002760986328125,-0.19043341279029846,0.6627368927001953,5.44427490234375
1700936837403754500,10.01975439453125,-0.38515573740005493,-1.828080177307129,8.30228328704834
1700936837420748500,10.03674853515625,0.18504458665847778,-5.52616024017334,12.519306182861328
1700936837437742000,10.0537421875,1.643196940422058,-8.296119689941406,15.733654975891113
1700936837454736100,10.070736083984375,2.9545369148254395,-7.323303699493408,15.217094421386719
1700936837471727400,10.087727294921875,3.56296968460083,-5.597642421722412,14.513561248779297
1700936837488725800,10.104725830078126,3.5196914672851562,-4.9654765129089355,14.154732704162598
1700936837505718300,10.12171826171875,2.816775321960449,-5.396045207977295,12.893107414245605
1700936837522711800,10.1387119140625,1.313053846359253,-6.2552924156188965,9.963114738464355
1700936837539705000,10.155705078125,0.18004286289215088,-6.325807571411133,5.731135368347168
1700936837556697600,10.172697509765625,-0.225589781999588,-5.299677848815918,1.2159509658813477
1700936837573693000,10.18969287109375,0.24923257529735565,-3.6391754150390625,-2.312312126159668
1700936837590687000,10.20668701171875,0.3301469385623932,-2.2553043365478516,-4.5413408279418945
1700936837607676700,10.2236767578125,0.17160649597644806,-1.3519268035888672,-6.292400360107422
1700936837624672000,10.240672119140624,-0.4967663288116455,-0.7113704681396484,-7.984399795532227
1700936837641660700,10.25766064453125,-0.9184519052505493,-0.5830485820770264,-8.626697540283203
1700936837658652000,10.27465185546875,-0.8529230952262878,-0.5546607971191406,-8.380790710449219
1700936837675656200,10.29165625,-0.6078718900680542,-0.5052905082702637,-7.932472229003906
1700936837692647400,10.3086474609375,-0.5452224016189575,-0.47684192657470703,-7.650148391723633
1700936837709646300,10.325646240234375,-0.8005872964859009,-0.5972925424575806,-7.55837869644165
1700936837726637800,10.342637939453125,-1.2890413999557495,-1.000699520111084,-7.72020149230957
1700936837743631600,10.359631591796875,-1.8697806596755981,-1.4091378450393677,-8.398750305175781
1700936837760625000,10.376625,-2.208494186401367,-1.5079071521759033,-9.283989906311035
1700936837777620000,10.393619873046875,-1.9354331493377686,-1.5836153030395508,-9.778777122497559
1700936837794610700,10.410610595703124,-1.2589260339736938,-2.108992338180542,-9.552328109741211
1700936837811606800,10.427606689453125,-0.48444560170173645,-2.931840419769287,-8.905961990356445
1700936837828598000,10.444597900390624,0.3531063199043274,-3.4873909950256348,-8.383597373962402
1700936837845598200,10.46159814453125,1.1049933433532715,-3.751284599304199,-7.5828094482421875
1700936837862588700,10.478588623046875,1.1014477014541626,-4.31716775894165,-6.662515640258789
1700936837879580000,10.495579833984374,0.7261744141578674,-5.3513665199279785,-6.330377578735352
1700936837896578800,10.512578857421875,0.8521766662597656,-6.700780868530273,-5.863000869750977
1700936837913570300,10.5295703125,1.5716742277145386,-8.173187255859375,-4.6006760597229
1700936837930564000,10.546564208984375,1.789487361907959,-9.584415435791016,-1.6307611465454102
1700936837947557600,10.5635576171875,1.0269633531570435,-11.314689636230469,2.765413284301758
1700936837964551400,10.580551513671875,0.09400343894958496,-13.001731872558594,5.910032272338867
1700936837981545700,10.597545654296875,-0.22500300407409668,-13.913209915161133,7.651630401611328
1700936837998539300,10.614539306640625,0.7411565780639648,-12.871546745300293,9.296744346618652
1700936838015533000,10.631532958984375,1.2230666875839233,-11.092315673828125,10.94137954711914
1700936838032527000,10.648527099609375,0.45021092891693115,-8.730628967285156,11.271368026733398
1700936838049521200,10.665521240234375,-0.91434645652771,-5.881856918334961,9.803525924682617
1700936838066502700,10.682502685546876,-1.8951739072799683,-3.286348342895508,7.440592288970947
1700936838083508700,10.6995087890625,-2.0939173698425293,-0.9345579147338867,5.596879482269287
1700936838100499200,10.716499267578126,-1.804644227027893,1.1105670928955078,4.819645404815674
1700936838117496300,10.733496337890625,-1.4631632566452026,2.942903518676758,4.40556526184082
1700936838134490000,10.750489990234374,-1.5984045267105103,4.206360816955566,4.116771221160889
1700936838151484200,10.767484130859375,-1.8985629081726074,5.275845527648926,3.6600613594055176
1700936838168477700,10.784477783203124,-2.3290836811065674,6.068395614624023,2.9601516723632812
1700936838185471500,10.801471435546874,-2.983475685119629,6.511445999145508,2.201920986175537
1700936838202465800,10.8184658203125,-3.7069835662841797,6.801886558532715,1.5006394386291504
1700936838219457300,10.835457275390626,-4.105238914489746,7.0904083251953125,0.8315463066101074
1700936838236455400,10.852455322265625,-4.138631343841553,6.960973739624023,0.5878481864929199
1700936838253447200,10.869447265625,-3.846416473388672,6.892576694488525,0.17150545120239258
1700936838270441200,10.886441162109374,-3.4490766525268555,6.446611404418945,-0.10599470138549805
1700936838287434800,10.903434814453124,-3.168610095977783,5.9107465744018555,-0.5234861373901367
1700936838304428800,10.9204287109375,-3.0305073261260986,5.165291786193848,-0.746727705001831
1700936838321422600,10.937422607421874,-2.399726390838623,4.344361305236816,-0.679736852645874
1700936838338416400,10.95441650390625,-1.4700847864151,3.354384422302246,-0.12084579467773438
1700936838355410200,10.97141015625,-0.08774113655090332,2.852853298187256,1.2386865615844727
1700936838372404000,10.988404052734374,1.112583041191101,2.422363758087158,3.9333548545837402
1700936838389395500,11.0053955078125,0.49825072288513184,1.4245939254760742,5.75844144821167
1700936838406394400,11.022394287109375,0.23178255558013916,1.4229135513305664,6.044912815093994
1700936838423385900,11.0393857421875,0.12754011154174805,-1.2727479934692383,8.616432189941406
1700936838440381700,11.056381591796875,0.44019198417663574,-6.672941207885742,12.880538940429688
1700936838457371600,11.07337158203125,1.323495626449585,-12.507539749145508,14.778779983520508
1700936838474356700,11.090356689453126,2.5814430713653564,-12.453340530395508,11.721497535705566
1700936838491350000,11.10735009765625,3.806307315826416,-9.408589363098145,9.871549606323242
1700936838508355000,11.12435498046875,3.949970245361328,-7.639561176300049,9.671953201293945
1700936838525348600,11.1413486328125,3.4278759956359863,-6.607978343963623,8.610397338867188
1700936838542326500,11.158326416015624,2.4529480934143066,-6.149528980255127,6.573976039886475
1700936838559337700,11.175337646484374,1.6960052251815796,-6.076904296875,3.837921619415283
1700936838576329200,11.1923291015625,1.4831931591033936,-5.694929122924805,0.37803125381469727
1700936838593326600,11.20932666015625,1.882500171661377,-4.154033184051514,-2.8119635581970215
1700936838610317800,11.22631787109375,1.6673328876495361,-2.5083999633789062,-5.089669227600098
1700936838627311900,11.243311767578126,1.307403802871704,-1.131758689880371,-6.283148288726807
1700936838644305700,11.2603056640625,0.9182016849517822,-0.3096184730529785,-6.8749542236328125
1700936838661297200,11.277297119140625,0.30193644762039185,0.0428316593170166,-7.307023048400879
1700936838678296000,11.294296142578125,-0.0699913501739502,0.33498454093933105,-7.913541793823242
1700936838695287300,11.311287353515626,-0.33403685688972473,0.38482213020324707,-8.211127281188965
1700936838712281000,11.328281005859376,-0.5701758861541748,0.3097498416900635,-8.391843795776367
1700936838729275100,11.345275146484376,-0.8903905153274536,0.05331540107727051,-8.457012176513672
1700936838746269000,11.36226904296875,-1.3227295875549316,-0.45902466773986816,-8.506126403808594
1700936838763262700,11.3792626953125,-2.3560526371002197,-1.36281418800354,-8.698988914489746
1700936838780256500,11.396256591796876,-3.637756109237671,-2.2846627235412598,-9.293838500976562
1700936838797250300,11.413250244140626,-4.351016998291016,-2.8662009239196777,-10.155668258666992
1700936838814244400,11.430244384765626,-4.575742244720459,-3.3958184719085693,-10.792591094970703
1700936838831227600,11.4472275390625,-4.1648125648498535,-4.0781683921813965,-10.788057327270508
1700936838848231700,11.464231689453126,-2.837522029876709,-5.036936283111572,-9.859789848327637
1700936838865225700,11.481225830078126,-0.22147977352142334,-6.40955114364624,-7.605957984924316
1700936838882219500,11.498219482421876,2.6605734825134277,-6.86381721496582,-5.449207782745361
1700936838899213600,11.515213623046876,3.323007583618164,-6.227410316467285,-3.3707504272460938
1700936838916196900,11.53219677734375,1.7367689609527588,-6.849389553070068,-0.23319244384765625
1700936838933201200,11.549201171875,0.3200555443763733,-7.545975208282471,2.4106340408325195
1700936838950192400,11.5661923828125,-0.1599636673927307,-8.878067970275879,4.7024126052856445
1700936838967191600,11.583191650390624,0.43086835741996765,-10.613763809204102,5.484310150146484
1700936838984182800,11.600182861328125,2.422431468963623,-10.722275733947754,5.046774864196777
1700936839001176600,11.617176513671875,4.901381492614746,-8.860947608947754,6.294075965881348
1700936839018170400,11.63417041015625,4.380878925323486,-7.929298400878906,11.02227783203125
1700936839035164200,11.6511640625,2.018062114715576,-5.692572593688965,14.647666931152344
1700936839052146000,11.66814599609375,-0.43346190452575684,-2.3438773155212402,14.698256492614746
1700936839069152300,11.68515234375,-2.642098903656006,0.4644017219543457,10.985861778259277
1700936839086145800,11.702145751953125,-4.566572666168213,2.6588635444641113,6.40621280670166
1700936839103139600,11.7191396484375,-4.9778361320495605,4.183602333068848,3.4040045738220215
1700936839120133600,11.736133544921875,-4.270843505859375,5.084004878997803,1.808267593383789
1700936839137127200,11.753127197265625,-3.065143585205078,5.350773811340332,1.1446170806884766
1700936839154121500,11.77012158203125,-1.5841052532196045,5.696002006530762,0.9767122268676758
1700936839171115300,11.787115234375,-0.20077097415924072,6.085927486419678,0.9119977951049805
1700936839188109000,11.804109130859375,0.6102325916290283,6.16942834854126,0.7251877784729004
1700936839205102600,11.8211025390625,0.9587187767028809,6.468713283538818,-0.24904775619506836
1700936839222097400,11.838097412109375,0.799537718296051,6.511512756347656,-1.2092509269714355
1700936839239090700,11.855090576171875,0.43452024459838867,6.188119888305664,-1.861523151397705
1700936839256084500,11.87208447265625,0.3569534718990326,5.453387260437012,-1.774179458618164
1700936839273076700,11.88907666015625,0.9094077348709106,5.581196308135986,-1.3025994300842285
1700936839290070000,11.906070068359375,0.7788378000259399,5.533668041229248,-1.4309310913085938
1700936839307068000,11.92306787109375,-0.43975570797920227,5.131134033203125,-1.9669857025146484
1700936839324059600,11.9400595703125,-1.6727886199951172,4.590389251708984,-1.9345741271972656
1700936839341044500,11.95704443359375,-2.132673501968384,4.133849620819092,-1.1613197326660156
1700936839358046500,11.97404638671875,-1.8907883167266846,3.9322400093078613,0.3103818893432617
1700936839375041300,11.991041259765625,-1.2417155504226685,3.8661320209503174,2.458935260772705
1700936839392035300,12.008035400390625,-0.3135095238685608,3.5081787109375,4.099638938903809
1700936839409028900,12.02502880859375,0.10486398637294769,2.2371749877929688,5.273165702819824
1700936839426022700,12.042022705078125,1.3032515048980713,0.29805898666381836,6.636957168579102
1700936839443016400,12.059016357421875,2.250575542449951,-2.318726062774658,9.195226669311523
1700936839460010500,12.076010498046875,2.853023052215576,-5.087277889251709,12.399017333984375
1700936839477007400,12.09300732421875,3.8673977851867676,-5.699999809265137,13.856452941894531
1700936839493995500,12.10999560546875,4.773122310638428,-4.858796119689941,14.193584442138672
1700936839510981400,12.1269814453125,5.316933631896973,-5.206764221191406,14.401325225830078
1700936839527985700,12.143985595703125,5.425508499145508,-6.641044616699219,13.981897354125977
1700936839544979700,12.160979736328125,4.680281162261963,-7.6472954750061035,11.550605773925781
1700936839561973800,12.177973876953125,3.1149089336395264,-7.694215774536133,8.145216941833496
1700936839578967600,12.194967529296875,1.1791961193084717,-6.914299488067627,4.516143798828125
1700936839595961000,12.211961181640625,-0.22921240329742432,-5.623376846313477,1.2597990036010742
1700936839612955400,12.228955322265625,-0.8615298867225647,-4.335850715637207,-1.4269680976867676
1700936839629949200,12.24594921875,-0.8633561730384827,-3.195652961730957,-3.5213990211486816
1700936839646942700,12.262942626953125,-0.7740455865859985,-2.321751356124878,-5.271803379058838
1700936839663926000,12.279926025390624,-0.5962479114532471,-1.9344580173492432,-6.472419738769531
1700936839680930800,12.296930908203125,-0.30948543548583984,-1.6326384544372559,-7.14556884765625
1700936839697914600,12.31391455078125,-0.20495820045471191,-1.3744961023330688,-7.2242021560668945
1700936839714908000,12.330907958984374,-0.3312523365020752,-1.263509750366211,-7.11091423034668
1700936839731909400,12.347909423828124,-0.5613308548927307,-1.2155367136001587,-7.192644119262695
1700936839748908500,12.364908447265625,-1.1762518882751465,-1.2932476997375488,-7.552164077758789
1700936839765890300,12.381890380859375,-1.9632139205932617,-1.501011610031128,-8.172760009765625
1700936839782893800,12.398893798828125,-2.5435256958007812,-1.7468209266662598,-8.59151554107666
1700936839799887400,12.415887451171875,-2.885072946548462,-2.053478479385376,-8.911450386047363
1700936839816881400,12.43288134765625,-2.8640575408935547,-2.333319664001465,-9.253317832946777
1700936839833875500,12.44987548828125,-2.6903584003448486,-2.782813549041748,-9.376677513122559
1700936839850869200,12.466869140625,-2.0490970611572266,-3.2890384197235107,-9.457229614257812
1700936839867862800,12.48386279296875,-1.1796938180923462,-3.8492188453674316,-9.43217945098877
1700936839884856600,12.500856689453125,-0.24367451667785645,-4.368681907653809,-9.100964546203613
1700936839901849000,12.51784912109375,0.7351399064064026,-4.8103346824646,-8.234129905700684
1700936839918844400,12.534844482421875,1.7134827375411987,-5.534717559814453,-5.641573905944824
1700936839935838500,12.55183837890625,1.4261425733566284,-6.766515254974365,-3.2550296783447266
1700936839952832000,12.56883203125,0.9174314737319946,-7.317892074584961,-1.7879695892333984
1700936839969827600,12.58582763671875,0.6871366500854492,-7.786503791809082,-1.0302677154541016
1700936839986818300,12.602818359375,0.9294888377189636,-8.847063064575195,0.620574951171875
1700936840003814000,12.61981396484375,1.4574497938156128,-10.461057662963867,3.2020511627197266
1700936840020806700,12.636806640625,2.1262521743774414,-12.021053314208984,5.931096076965332
1700936840037802200,12.65380224609375,2.685070037841797,-11.5280179977417,8.254953384399414
1700936840054795000,12.670794921875,2.7138500213623047,-9.47364616394043,10.685117721557617
1700936840071787300,12.687787353515626,1.7481582164764404,-7.074446678161621,13.347700119018555
1700936840088785000,12.704784912109375,0.694469153881073,-3.80251407623291,14.070281028747559
1700936840105786000,12.7217861328125,-1.1994295120239258,-1.0535321235656738,13.044978141784668
1700936840122769400,12.738769287109376,-2.741530418395996,1.22062349319458,10.360833168029785
1700936840139765800,12.755765869140625,-4.475987434387207,3.341217279434204,6.733033657073975
1700936840156758000,12.772758056640624,-5.3268609046936035,4.605279922485352,4.482962131500244
1700936840173752000,12.789751953125,-4.7971510887146,5.131710052490234,3.4870386123657227
1700936840190741500,12.806741455078125,-3.429759979248047,5.277244567871094,2.3691530227661133
1700936840207738000,12.823738037109376,-1.7730743885040283,5.521841526031494,1.433053970336914
1700936840224735000,12.84073486328125,0.011627685278654099,6.019021987915039,1.2804021835327148
1700936840241718800,12.85771875,1.1423581838607788,6.823462963104248,0.43274545669555664
1700936840258721300,12.87472119140625,1.0786957740783691,7.06643009185791,-0.7535724639892578
1700936840275715300,12.89171533203125,0.4861144423484802,7.020112991333008,-2.0549330711364746
1700936840292709000,12.908709228515624,0.16467079520225525,6.828935623168945,-3.100038766860962
1700936840309703000,12.925702880859374,0.41076958179473877,6.471895694732666,-3.0907201766967773
1700936840326696700,12.94269677734375,1.0190932750701904,6.350316047668457,-2.1403279304504395
1700936840343690500,12.9596904296875,0.9910519123077393,5.956099033355713,-1.5768027305603027
1700936840360682000,12.976681884765625,0.3159354329109192,5.243505477905273,-1.0955357551574707
1700936840377680600,12.9936806640625,-0.3194441795349121,4.704370498657227,-0.5418334007263184
1700936840394672400,13.01067236328125,-1.0213161706924438,4.442895889282227,0.5181407928466797
1700936840411666200,13.027666259765626,-1.492339849472046,3.5679240226745605,2.8591160774230957
1700936840428659700,13.04465966796875,-2.1597771644592285,2.31170654296875,5.685244083404541
1700936840445643000,13.06164306640625,-1.9509116411209106,1.397714614868164,7.886593341827393
1700936840462647800,13.078647705078126,-1.3624924421310425,-1.0411643981933594,10.944524765014648
1700936840479641300,13.095641357421876,-0.8991975784301758,-5.620028972625732,15.063789367675781
1700936840496635400,13.112635498046876,-0.11639487743377686,-9.154840469360352,16.937686920166016
1700936840513625900,13.1296259765625,1.04625403881073,-10.46979808807373,16.32895851135254
1700936840530626300,13.146626220703125,3.334716320037842,-8.092304229736328,13.960020065307617
1700936840547606000,13.16360595703125,5.36295747756958,-6.386214733123779,12.661645889282227
1700936840564610800,13.18061083984375,6.417173862457275,-5.615215301513672,10.990616798400879
1700936840581604400,13.197604248046876,5.687476634979248,-6.431657791137695,8.655096054077148
1700936840598598100,13.21459814453125,3.965212345123291,-6.731266975402832,4.627679824829102
1700936840615582500,13.23158251953125,2.2483534812927246,-6.415060520172119,0.06120014190673828
1700936840632586000,13.2485859375,1.6668591499328613,-4.884249210357666,-4.148486614227295
1700936840649580000,13.265580078125,1.706929087638855,-3.266350269317627,-6.645933151245117
1700936840666573600,13.282573486328126,1.4191124439239502,-2.1044082641601562,-7.947147369384766
1700936840683567400,13.2995673828125,0.7125594019889832,-1.2990779876708984,-8.725360870361328
1700936840700561400,13.3165615234375,-0.21442857384681702,-0.7669088840484619,-9.21111011505127
1700936840717555200,13.33355517578125,-0.9157922267913818,-0.5994181632995605,-9.2213716506958
1700936840734548700,13.350548828125,-0.9929930567741394,-0.4306337833404541,-9.094186782836914
1700936840751543000,13.36754296875,-1.0137852430343628,-0.5814756155014038,-9.19150161743164
1700936840768536800,13.384536865234375,-1.0791237354278564,-0.9522484540939331,-9.141609191894531
1700936840785528300,13.4015283203125,-0.9803276658058167,-1.3287856578826904,-8.922109603881836
1700936840802527000,13.41852685546875,-1.3353056907653809,-1.8042709827423096,-8.974540710449219
1700936840819518200,13.435518310546875,-1.6388070583343506,-2.28519868850708,-9.343951225280762
1700936840836512000,13.452511962890625,-1.7874916791915894,-2.634567975997925,-9.792015075683594
1700936840853491700,13.46949169921875,-1.3947474956512451,-2.6861515045166016,-10.358552932739258
1700936840870499800,13.486499755859375,-0.9092469811439514,-2.809431552886963,-10.565641403198242
1700936840887498800,13.503498779296875,-0.157864511013031,-3.1179113388061523,-9.98133373260498
1700936840904487200,13.520487060546875,0.28612378239631653,-4.050516605377197,-8.414956092834473
1700936840921482000,13.53748193359375,0.10464128851890564,-4.992157459259033,-7.053267478942871
1700936840938475300,13.554475341796875,0.29217830300331116,-5.689694881439209,-4.595386028289795
1700936840955469000,13.571468994140625,-0.9492143988609314,-7.515134811401367,-1.1364850997924805
1700936840972462800,13.588462890625,-2.5113539695739746,-10.116193771362305,1.7778511047363281
1700936840989456600,13.60545654296875,-1.09559965133667,-12.088927268981934,3.2077865600585938
1700936841006451000,13.622450927734375,2.4211630821228027,-12.639721870422363,4.399782180786133
1700936841023444500,13.639444580078125,6.921499729156494,-12.185134887695312,7.8474225997924805
1700936841040450800,13.656450927734374,8.64716911315918,-10.652652740478516,11.49934196472168
1700936841057432300,13.673432373046875,6.635684967041016,-9.190362930297852,13.917036056518555
1700936841074425900,13.69042578125,2.434791088104248,-7.000388145446777,14.071797370910645
1700936841091420000,13.707419921875,-2.2997140884399414,-3.9562296867370605,12.707719802856445
1700936841108414000,13.7244140625,-5.485743045806885,-0.7516765594482422,10.137102127075195
1700936841125407700,13.74140771484375,-5.995790958404541,1.678504467010498,7.409771919250488
1700936841142391000,13.75839111328125,-5.057062149047852,2.5999865531921387,6.383844375610352
1700936841159391700,13.775391845703124,-2.5817856788635254,3.6371986865997314,5.957205295562744
1700936841176389000,13.79238916015625,0.73088538646698,5.352052211761475,4.926354885101318
1700936841193383200,13.809383056640625,1.7879416942596436,6.811707496643066,2.8980655670166016
1700936841210376700,13.826376708984375,1.370269536972046,7.332154273986816,1.075709342956543
1700936841227370500,13.84337060546875,0.07883186638355255,7.358187198638916,-0.5345654487609863
1700936841244364500,13.860364501953125,-0.8633487820625305,7.277769565582275,-1.6621904373168945
1700936841261358600,13.877358642578125,-1.2368073463439941,7.037156581878662,-1.7244515419006348
1700936841278352100,13.89435205078125,-1.2185444831848145,6.855650901794434,-1.6676826477050781
1700936841295346000,13.911345947265625,-0.9625322818756104,6.281959533691406,-1.4318418502807617
1700936841312340000,13.928340087890625,-0.5782152414321899,5.5022993087768555,-1.4910998344421387
1700936841329333500,13.94533349609375,-0.32970330119132996,5.0356855392456055,-1.5508618354797363
1700936841346327600,13.96232763671875,-0.29493027925491333,4.5603861808776855,-0.7489395141601562
1700936841363321300,13.9793212890625,-0.3740255832672119,4.028685092926025,1.237499713897705
1700936841380315100,13.996315185546875,-0.4322141706943512,3.9384360313415527,3.4739184379577637
1700936841397309000,14.013308837890625,-1.0505900382995605,3.2627410888671875,5.015933990478516
1700936841414303000,14.030302978515625,-1.2548608779907227,2.551833152770996,6.335207939147949
1700936841431294200,14.047294189453124,-1.0476804971694946,2.4449405670166016,6.882704734802246
1700936841448293000,14.064293212890625,-0.08548659086227417,1.7221784591674805,7.715023517608643
1700936841465274400,14.0812744140625,0.8151964545249939,-1.892087459564209,11.065444946289062
1700936841482278100,14.098278076171875,1.271221399307251,-8.190866470336914,13.711538314819336
1700936841499272000,14.11527197265625,2.161853313446045,-13.098358154296875,12.468673706054688
1700936841516266000,14.132265869140625,3.340367317199707,-10.374983787536621,6.49237060546875
1700936841533260000,14.149260009765625,4.390909671783447,-4.961616039276123,4.031447887420654
1700936841550253800,14.16625390625,3.669654369354248,-3.1705374717712402,4.580143451690674
1700936841567247400,14.183247314453125,2.776508092880249,-3.546766757965088,5.061041831970215
1700936841584244200,14.200244140625,0.8965134024620056,-4.864168643951416,3.696621894836426
1700936841601215000,14.217215087890626,-0.36689019203186035,-4.946359634399414,0.003925323486328125
1700936841618229000,14.23422900390625,-0.8663841485977173,-2.8443846702575684,-4.227916717529297
1700936841635221000,14.251220947265624,-0.8744438886642456,-0.8468947410583496,-6.235359191894531
1700936841652219000,14.268218994140625,-1.264204740524292,0.5429556369781494,-7.182096004486084
1700936841669210400,14.28521044921875,-1.3965988159179688,1.1586017608642578,-7.270082950592041
1700936841686204700,14.30220458984375,-0.9586461186408997,1.446876049041748,-6.891228675842285
1700936841703198200,14.3191982421875,-0.32053011655807495,1.5773520469665527,-6.416258335113525
1700936841720192300,14.336192138671874,0.04019230604171753,1.6571202278137207,-6.4509172439575195
1700936841737183200,14.353183349609376,-0.08803451061248779,1.8400510549545288,-6.980230331420898
1700936841754186200,14.370186279296876,-0.5189205408096313,1.917689561843872,-7.632972240447998
1700936841771174000,14.387173828125,-1.2353086471557617,1.759486198425293,-7.884070873260498
1700936841788167700,14.404167724609374,-2.045248508453369,1.5534288883209229,-7.903192520141602
1700936841805161500,14.421161376953124,-2.3917832374572754,1.4889683723449707,-7.666998386383057
1700936841822155000,14.438155029296874,-2.1140224933624268,1.0689258575439453,-6.880429744720459
1700936841839139800,14.455139892578124,-1.2595863342285156,0.28206706047058105,-6.01287841796875
1700936841856142800,14.472142822265624,-0.24446004629135132,-0.9789905548095703,-4.968862056732178
1700936841873137000,14.489136962890624,0.4607001543045044,-3.0228476524353027,-3.304903030395508
1700936841890120400,14.506120361328126,1.2207897901535034,-4.560974597930908,-1.496351718902588
1700936841907123700,14.523123779296874,2.892646551132202,-6.183024883270264,1.5889310836791992
1700936841924118500,14.540118408203124,4.050784111022949,-8.138603210449219,5.451690673828125
1700936841941102600,14.5571025390625,4.601577281951904,-9.163772583007812,7.200876235961914
1700936841958106000,14.574106201171874,4.536156177520752,-9.524701118469238,7.58537483215332
1700936841975100200,14.59110009765625,7.2157063484191895,-8.545849800109863,8.56489372253418
1700936841992093700,14.60809375,10.44759464263916,-6.300599098205566,10.281219482421875
1700936842009086500,14.62508642578125,10.41231918334961,-3.833876132965088,11.692777633666992
1700936842026080300,14.642080322265626,5.075212001800537,-2.1873207092285156,10.682559967041016
1700936842043076400,14.659076416015624,-1.6122633218765259,-0.8488845825195312,7.611085414886475
1700936842060069000,14.676069091796874,-5.75137186050415,0.5191349983215332,4.592887878417969
1700936842077062400,14.6930625,-6.317158222198486,1.6196231842041016,2.1184959411621094
1700936842094057500,14.710057373046874,-3.9961001873016357,2.372072458267212,0.2530660629272461
1700936842111050500,14.727050537109376,-1.5981206893920898,2.633073091506958,-1.3227624893188477
1700936842128044500,14.74404443359375,-0.9696049690246582,2.5408473014831543,-2.6930174827575684
1700936842145027600,14.761027587890625,-0.8413716554641724,2.6581737995147705,-2.9774131774902344
1700936842162032000,14.7780322265625,-1.4759598970413208,2.6687817573547363,-2.357816219329834
1700936842179026000,14.79502587890625,-1.9253826141357422,2.966876983642578,-2.026571750640869
1700936842196019700,14.812019775390626,-2.8056671619415283,2.97939133644104,-2.207961082458496
1700936842213013800,14.829013671875,-3.8160955905914307,2.7945785522460938,-2.9611940383911133
1700936842230007600,14.846007568359376,-4.153046607971191,2.4408674240112305,-2.5324831008911133
1700936842247001300,14.86300146484375,-3.9422800540924072,1.8264102935791016,-1.6698040962219238
1700936842263993300,14.879993408203125,-3.5906574726104736,1.2290167808532715,-0.5144023895263672
1700936842280989000,14.896989013671876,-3.501845359802246,0.6473627090454102,0.39490556716918945
1700936842297983000,14.91398291015625,-5.411091327667236,-0.23764801025390625,1.3163166046142578
1700936842314966000,14.930966064453125,-4.390396595001221,-0.7513065338134766,0.9198741912841797
1700936842331970600,14.947970458984376,-2.473780393600464,-1.697732925415039,0.21648311614990234
1700936842348964600,14.964964599609376,-0.7175981402397156,-2.243483543395996,-0.574915885925293
1700936842365947600,14.98194775390625,-0.1842278242111206,-2.6182260513305664,-0.7237234115600586
1700936842382952200,14.9989521484375,0.039668142795562744,-3.0508785247802734,-0.17686128616333008
1700936842399945700,15.01594580078125,-0.5581470727920532,-3.6371498107910156,0.9313526153564453
1700936842416939800,15.032939697265626,-1.343878984451294,-4.435089111328125,1.9840474128723145
1700936842433933600,15.04993359375,-1.8897037506103516,-5.444604873657227,2.1999950408935547
1700936842450924000,15.066924072265625,-1.6047333478927612,-5.520829677581787,1.8212614059448242
1700936842467924700,15.0839248046875,-0.6169570684432983,-4.344132423400879,2.045771598815918
1700936842484915200,15.100915283203125,0.14020073413848877,-2.3573732376098633,3.1066813468933105
1700936842501906700,15.11790673828125,-0.1706468164920807,-0.8469462394714355,4.5333027839660645
1700936842518905300,15.1349052734375,-1.1722477674484253,-0.30426597595214844,4.882887363433838
1700936842535886300,15.15188623046875,-2.0104262828826904,-0.7071590423583984,3.8852858543395996
1700936842552890600,15.168890625,-1.927919864654541,-1.965390682220459,2.0584959983825684
1700936842569885400,15.185885498046876,-0.9015372395515442,-2.635557174682617,0.6911444664001465
1700936842586878200,15.202878173828125,0.8165427446365356,-2.793541431427002,0.23638200759887695
1700936842603872300,15.219872314453125,2.1396076679229736,-2.6855034828186035,0.4665355682373047
1700936842620866000,15.236865966796875,2.933884620666504,-2.5180206298828125,0.6175594329833984
1700936842637859600,15.253859619140625,3.1674892902374268,-3.0501394271850586,-0.33641529083251953
1700936842654851000,15.27085107421875,3.5792970657348633,-3.0748953819274902,-1.994114875793457
1700936842671850200,15.287850341796876,3.97560453414917,-3.072093963623047,-2.6032814979553223
1700936842688852200,15.304852294921876,4.0702223777771,-2.9019434452056885,-2.6053709983825684
1700936842705835300,15.321835205078125,3.795713186264038,-2.7474234104156494,-2.65781307220459
1700936842722828800,15.338828857421875,3.3657519817352295,-2.646528959274292,-2.9048237800598145
1700936842739812400,15.355812255859375,2.862426280975342,-2.4920737743377686,-3.759720802307129
1700936842756816600,15.372816650390625,2.1017351150512695,-2.474123477935791,-4.511181831359863
1700936842773810700,15.389810791015625,1.568901777267456,-2.3134238719940186,-4.976943016052246
1700936842790805500,15.406805419921875,1.0196948051452637,-2.2524263858795166,-5.0663557052612305
1700936842807798000,15.423798095703125,0.8336961269378662,-2.114131450653076,-5.050497055053711
1700936842824791800,15.440791748046875,0.8420107364654541,-2.0905325412750244,-4.977960586547852
1700936842841783600,15.457783447265625,0.90644371509552,-2.088744640350342,-4.924869060516357
1700936842858779600,15.474779541015625,0.9663834571838379,-2.1258771419525146,-5.0249481201171875
1700936842875773700,15.491773681640625,0.9686372876167297,-2.143813371658325,-5.2077107429504395
1700936842892767500,15.508767578125,0.9827885627746582,-2.001814126968384,-5.324814319610596
1700936842909761000,15.525760986328125,1.054165005683899,-2.06197452545166,-4.908447265625
1700936842926744300,15.542744384765625,1.2460949420928955,-2.34659743309021,-4.170530319213867
1700936842943749000,15.5597490234375,1.508643388748169,-2.6285715103149414,-3.6847243309020996
1700936842960740600,15.57674072265625,1.8092398643493652,-2.9536430835723877,-3.289823055267334
1700936842977736400,15.593736328125,1.8606431484222412,-3.149350643157959,-2.6755123138427734
1700936842994730200,15.610730224609375,1.7223258018493652,-3.137667179107666,-1.8855476379394531
1700936843011724500,15.627724609375,1.2462148666381836,-3.4048564434051514,-0.7519941329956055
1700936843028718000,15.644718017578125,0.6562039852142334,-4.164937496185303,0.8726301193237305
1700936843045713400,15.66171337890625,0.2339504063129425,-5.089071273803711,2.394556999206543
1700936843062706000,15.678705810546875,0.02595764398574829,-5.851170063018799,3.8843088150024414
1700936843079699700,15.69569970703125,0.4687782824039459,-5.653354167938232,4.840611457824707
1700936843096693500,15.712693603515625,1.239905595779419,-4.006373882293701,5.145788192749023
1700936843113678800,15.729678955078125,1.7091407775878906,-1.6939077377319336,5.804786205291748
1700936843130681300,15.746681396484375,1.6022310256958008,-0.15213441848754883,7.049559593200684
1700936843147675000,15.7636748046875,1.3031851053237915,0.25870466232299805,7.494688987731934
1700936843164652000,15.780652099609375,1.4421595335006714,-0.14353561401367188,6.176888465881348
1700936843181662700,15.797662841796875,1.5407905578613281,-0.7308745384216309,3.7088232040405273
1700936843198656500,15.814656494140625,1.470449447631836,-1.1488537788391113,1.3106307983398438
1700936843215650300,15.831650390625,1.6377341747283936,-0.6942715644836426,-0.7166047096252441
1700936843232644400,15.848644287109375,2.018247127532959,0.1424236297607422,-1.9432563781738281
1700936843249638700,15.865638671875,2.4755098819732666,1.2438888549804688,-2.6552834510803223
1700936843266631400,15.88263134765625,2.574030876159668,1.8853557109832764,-2.807921886444092
1700936843283625700,15.899625732421875,2.4393041133880615,2.2324788570404053,-2.6510891914367676
1700936843300619500,15.91661962890625,2.1380083560943604,2.3123419284820557,-2.6675891876220703
1700936843317608000,15.93360791015625,1.5343782901763916,2.0174219608306885,-2.8524880409240723
1700936843334607000,15.950607177734375,1.2400264739990234,1.8912098407745361,-3.1111483573913574
1700936843351601200,15.96760107421875,0.9652249217033386,1.6829829216003418,-3.1433815956115723
1700936843368595000,15.984594970703125,0.6753268241882324,1.6723971366882324,-3.1544933319091797
1700936843385578000,16.001577880859376,0.23465999960899353,1.6711654663085938,-2.789762020111084
1700936843402577400,16.018577392578123,-0.18608379364013672,1.5519232749938965,-2.09006929397583
1700936843419576300,16.035576416015626,-0.5043550729751587,1.3191556930541992,-1.4370832443237305
1700936843436561700,16.052561767578126,-0.42553865909576416,1.041548252105713,-1.1036896705627441
1700936843453562400,16.069562255859374,-0.2704898715019226,0.8046989440917969,-0.5765519142150879
1700936843470558000,16.086557861328124,-0.24343161284923553,0.7302718162536621,0.17228984832763672
1700936843487551700,16.1035517578125,-0.33805930614471436,0.8763976097106934,1.025115966796875
1700936843504543200,16.120543212890624,-0.5847501754760742,1.291633129119873,2.0480217933654785
1700936843521543700,16.137543701171875,-1.4259915351867676,1.4645185470581055,2.850214958190918
1700936843538531800,16.15453173828125,-2.6463546752929688,1.1824579238891602,3.600055694580078
1700936843555527000,16.17152685546875,-3.886378765106201,0.2957901954650879,4.207923412322998
1700936843572521200,16.188521240234376,-4.136408805847168,-0.10387372970581055,4.226677894592285
1700936843589504800,16.2055048828125,-3.7896499633789062,0.08945512771606445,4.180049419403076
1700936843606508500,16.222508544921876,-3.3846278190612793,0.7813353538513184,4.3077592849731445
1700936843623502600,16.239502685546874,-3.216744899749756,1.552595615386963,4.62313175201416
1700936843640498200,16.256498291015625,-3.231300115585327,1.996443748474121,5.104483127593994
1700936843657488400,16.27348828125,-3.2244768142700195,2.0701942443847656,5.315306186676025
1700936843674484200,16.290484130859376,-3.1907339096069336,1.7624931335449219,4.604176044464111
1700936843691477800,16.307477783203126,-3.02949857711792,1.0042223930358887,3.570624351501465
1700936843708457700,16.324457763671877,-2.9499876499176025,0.04942131042480469,2.8195009231567383
1700936843725465900,16.3414658203125,-2.670201301574707,-1.204000473022461,2.5844507217407227
1700936843742446600,16.358446533203125,-2.2807364463806152,-2.283416271209717,2.6493778228759766
1700936843759455700,16.375455810546875,-1.8858158588409424,-3.040391445159912,2.7924413681030273
1700936843776440600,16.392440673828126,-1.232744812965393,-3.005669116973877,2.361532211303711
1700936843793441000,16.40944091796875,-0.6159406900405884,-2.9088807106018066,1.9883651733398438
1700936843810434800,16.426434814453124,0.04672741889953613,-2.630861759185791,1.3621253967285156
1700936843827428900,16.443428955078126,0.7198731303215027,-2.442187786102295,0.6544990539550781
1700936843844422700,16.460422607421876,1.4208266735076904,-2.6920714378356934,0.07349967956542969
1700936843861416400,16.47741650390625,2.1108341217041016,-2.9937238693237305,-0.6560220718383789
1700936843878410200,16.49441015625,2.4973878860473633,-3.338773727416992,-1.6000590324401855
1700936843895404000,16.511404052734374,2.857985019683838,-3.5176351070404053,-2.56154727935791
1700936843912398000,16.528398193359376,2.8937785625457764,-3.571925640106201,-3.497591495513916
1700936843929391900,16.545391845703126,3.139134407043457,-3.337702989578247,-4.228443622589111
1700936843946385700,16.5623857421875,3.140127658843994,-3.232391595840454,-4.664948463439941
1700936843963382300,16.57938232421875,2.8913745880126953,-3.4149768352508545,-5.0758280754089355
1700936843980370400,16.596370361328123,2.543931007385254,-3.7092692852020264,-5.687464714050293
1700936843997367000,16.613366943359374,2.1456968784332275,-3.8293590545654297,-6.740108013153076
1700936844014360800,16.63036083984375,1.8812254667282104,-3.844882011413574,-7.687184810638428
1700936844031352800,16.647352783203125,1.64755380153656,-3.748943328857422,-8.156017303466797
1700936844048350700,16.664350830078124,1.1491602659225464,-3.678534507751465,-8.259591102600098
1700936844065342500,16.681342529296874,0.5465678572654724,-3.6538097858428955,-8.338902473449707
1700936844082336300,16.698336181640624,0.04337063059210777,-3.4982450008392334,-8.110040664672852
1700936844099327700,16.71532763671875,-0.45880794525146484,-3.3921709060668945,-7.896018981933594
1700936844116324000,16.732323974609375,-0.8027504682540894,-3.117008686065674,-8.02363109588623
1700936844133318000,16.74931787109375,-0.9813967943191528,-2.849795341491699,-7.892648696899414
1700936844150311700,16.766311767578124,-1.0381460189819336,-2.677907943725586,-7.045279502868652
1700936844167305500,16.783305419921874,-1.1059406995773315,-2.7493209838867188,-5.517377853393555
1700936844184299300,16.80029931640625,-1.1231257915496826,-2.5841808319091797,-4.474246501922607
1700936844201293000,16.81729296875,-0.8547020554542542,-2.4170150756835938,-3.695984363555908
1700936844218286800,16.834286865234375,-0.7588188648223877,-2.8484513759613037,-2.646427631378174
1700936844235280600,16.85128076171875,-0.8613206744194031,-3.4104957580566406,-1.4938149452209473
1700936844252274700,16.868274658203124,-0.4404914677143097,-3.573864698410034,0.5106287002563477
1700936844269268700,16.885268798828125,-0.251837819814682,-3.6841182708740234,2.8169403076171875
1700936844286262500,16.902262451171875,-0.6069436073303223,-4.603635787963867,5.759672164916992
1700936844303256300,16.91925634765625,-0.9856817126274109,-6.134305000305176,8.691919326782227
1700936844320263000,16.936262939453126,-0.5629677772521973,-7.063935279846191,10.762982368469238
1700936844337243600,16.95324365234375,0.8545146584510803,-5.666983604431152,11.581975936889648
1700936844354237400,16.970237548828123,1.8778111934661865,-2.577266216278076,12.546485900878906
1700936844371231700,16.987231689453125,1.4125725030899048,0.028754711151123047,14.00527572631836
1700936844388225500,17.0042255859375,-0.5681652426719666,1.3804397583007812,13.598188400268555
1700936844405219000,17.021218994140625,-2.6748950481414795,2.1732287406921387,10.533838272094727
1700936844422210300,17.038210205078126,-4.47216272354126,2.8164000511169434,6.631952285766602
1700936844439212800,17.055212890625,-4.806002140045166,3.726942300796509,3.526071548461914
1700936844456197000,17.072197021484374,-4.107230186462402,4.54630184173584,1.6801872253417969
1700936844473183700,17.089183837890626,-2.9308860301971436,4.969088554382324,1.025129795074463
1700936844490188300,17.106188232421875,-1.4033174514770508,5.5074687004089355,1.0964641571044922
1700936844507182300,17.123182373046873,-0.04432469606399536,6.126482009887695,0.6172738075256348
1700936844524176100,17.140176025390623,0.05241239070892334,6.061646938323975,-0.2914705276489258
1700936844541159700,17.15715966796875,-0.5733461976051331,5.816733360290527,-1.3917021751403809
1700936844558163700,17.174163818359375,-1.2288928031921387,5.687343120574951,-2.589437961578369
1700936844575157800,17.19115771484375,-1.5292716026306152,5.308837413787842,-2.990569591522217
1700936844592151300,17.2081513671875,-1.1857764720916748,5.014841079711914,-3.3376307487487793
1700936844609144600,17.22514453125,-0.637861430644989,4.568790435791016,-3.2035470008850098
1700936844626140000,17.242139892578123,-0.3364850580692291,3.8912110328674316,-2.8822288513183594
1700936844643133000,17.2591328125,-0.4659299850463867,3.186948776245117,-2.732849597930908
1700936844660127000,17.276126953125,-0.8132530450820923,2.77832293510437,-3.2780442237854004
1700936844677118200,17.2931181640625,-1.2935543060302734,2.243649482727051,-3.514960765838623
1700936844694116900,17.310116943359375,-1.374049186706543,1.962045669555664,-3.3067946434020996
1700936844711097600,17.32709765625,-1.0832017660140991,1.6909592151641846,-2.1773319244384766
1700936844728102100,17.34410205078125,-0.8583186864852905,0.7561373710632324,-0.1398630142211914
1700936844745096000,17.361095947265625,-0.7848926782608032,-1.020850658416748,1.9816322326660156
1700936844762089700,17.37808984375,-0.4319901764392853,-1.7468438148498535,3.42147159576416
1700936844779083500,17.39508349609375,0.07450798153877258,-3.352031707763672,5.758164405822754
1700936844796077600,17.41207763671875,0.7257378697395325,-5.848052501678467,7.773458480834961
1700936844813068800,17.42906884765625,2.826364755630493,-6.837009429931641,8.783201217651367
1700936844830068000,17.44606787109375,4.366855144500732,-7.189188003540039,10.658336639404297
1700936844847059000,17.463058837890625,4.103737831115723,-6.283206939697266,11.466830253601074
1700936844864042200,17.480042236328124,1.7929481267929077,-5.962972164154053,11.596816062927246
1700936844881046500,17.497046630859376,-0.6809190511703491,-5.717358589172363,10.131518363952637
1700936844898040600,17.51404052734375,-2.1913716793060303,-5.249163627624512,7.216710090637207
1700936844915036700,17.53103662109375,-2.270339012145996,-4.112110614776611,3.2081451416015625
1700936844932025900,17.54802587890625,-1.5127830505371094,-2.6726629734039307,-0.6180562973022461
1700936844949022000,17.56502197265625,-0.23518618941307068,-1.504539966583252,-3.1102476119995117
1700936844966016000,17.58201611328125,0.8533811569213867,-0.7304904460906982,-4.566323280334473
1700936844983009500,17.599009521484376,1.5760571956634521,-0.0035653114318847656,-5.575127601623535
1700936844999993300,17.615993408203124,1.8669368028640747,0.4313344955444336,-6.227085590362549
1700936845016994800,17.632994873046876,1.7129054069519043,0.7855043411254883,-6.92134952545166
1700936845033994000,17.649993896484375,1.2057970762252808,0.9897739887237549,-7.3195719718933105
1700936845050985200,17.666985107421876,0.253138929605484,1.1159852743148804,-7.550312042236328
1700936845067976700,17.683976806640626,-0.8453079462051392,1.0054831504821777,-7.1600422859191895
1700936845084974800,17.700974853515625,-1.6771148443222046,1.1120567321777344,-7.092008113861084
1700936845101966300,17.71796630859375,-2.4751298427581787,1.2873893976211548,-7.16295862197876
1700936845118950100,17.7349501953125,-2.9740676879882812,1.3253237009048462,-7.3773112297058105
1700936845135954200,17.7519541015625,-2.095977544784546,1.2094237804412842,-7.4765496253967285
1700936845152938500,17.7689384765625,-0.8991077542304993,0.7300785779953003,-7.193453788757324
1700936845169941800,17.785941650390626,0.3363424241542816,-0.11476528644561768,-6.712989807128906
1700936845186935600,17.802935546875,1.437496542930603,-0.8011690378189087,-6.5334930419921875
1700936845203927000,17.819927001953126,2.1402575969696045,-1.4619650840759277,-6.291193962097168
1700936845220926200,17.83692626953125,2.910813331604004,-2.190652370452881,-4.595019340515137
1700936845237917200,17.853917236328126,2.9356508255004883,-3.6578400135040283,-2.6811985969543457
1700936845254911200,17.8709111328125,2.930138111114502,-4.8672895431518555,-2.333883285522461
1700936845271894000,17.88789404296875,4.0628533363342285,-5.815581321716309,-3.0082454681396484
1700936845288888000,17.90488818359375,4.721165657043457,-7.698582649230957,-1.4530186653137207
1700936845305892900,17.921892822265626,4.056735515594482,-10.195242881774902,2.7848339080810547
1700936845322886400,17.938886474609376,1.3803410530090332,-11.813663482666016,5.818866729736328
1700936845339878700,17.955878662109374,-1.385453701019287,-11.399473190307617,7.126589775085449
1700936845356876000,17.9728759765625,-3.3937063217163086,-9.436119079589844,7.41005802154541
1700936845373860900,17.98986083984375,-4.610638618469238,-7.6929755210876465,7.862322807312012
1700936845390861800,18.00686181640625,-5.358477592468262,-5.93502140045166,7.514943599700928
1700936845407855900,18.02385595703125,-5.584598064422607,-4.328094482421875,6.126914978027344
1700936845424849700,18.040849609375,-4.95255184173584,-2.8258471488952637,4.229281425476074
1700936845441843500,18.057843505859374,-4.1050519943237305,-1.0576910972595215,2.836874485015869
1700936845458837200,18.074837158203124,-3.1767029762268066,0.4837031364440918,2.2825117111206055
1700936845475820500,18.091820556640624,-2.4962658882141113,1.999556064605713,2.2417216300964355
1700936845492822300,18.108822265625,-1.9059706926345825,3.2627649307250977,2.335036277770996
1700936845509821200,18.1258212890625,-1.63117253780365,4.428223609924316,2.253347873687744
1700936845526812400,18.1428125,-1.811269998550415,5.090959548950195,2.278796672821045
1700936845543806200,18.15980615234375,-2.4811816215515137,5.826631546020508,2.0575785636901855
1700936845560800300,18.17680029296875,-3.182892322540283,6.347998142242432,2.172924041748047
1700936845577794000,18.1937939453125,-3.908907175064087,6.776492595672607,2.338052749633789
1700936845594787300,18.210787353515624,-4.270392894744873,7.146810531616211,2.2268476486206055
1700936845611782100,18.2277822265625,-4.29618501663208,6.959287643432617,1.621408462524414
1700936845628775400,18.244775390625,-3.8051059246063232,6.618387699127197,0.7737293243408203
1700936845645769500,18.26176953125,-2.702977418899536,6.013577461242676,0.054264068603515625
1700936845662763000,18.278762939453124,-1.8264080286026,5.490845203399658,-0.41777706146240234
1700936845679757000,18.295757080078126,-1.0371779203414917,4.885007858276367,-0.2535209655761719
1700936845696746800,18.312746826171875,-0.888065755367279,4.142949104309082,0.18623828887939453
1700936845713743600,18.32974365234375,-0.8364976644515991,3.391179084777832,0.5239944458007812
1700936845730739500,18.346739501953124,-0.7456302046775818,2.873945713043213,1.09779691696167
1700936845747732500,18.363732421875,-0.4198058843612671,2.4735050201416016,1.6063575744628906
1700936845764726300,18.380726318359375,-0.21286773681640625,1.699075698852539,2.6043753623962402
1700936845781720000,18.397719970703125,-0.08661580085754395,0.3981351852416992,3.680053234100342
1700936845798705200,18.414705078125,0.4473898410797119,-1.1270794868469238,4.966900825500488
1700936845815707600,18.431707763671874,0.91261887550354,-4.04369592666626,7.903313636779785
1700936845832700700,18.44870068359375,0.8461301922798157,-7.341011047363281,9.606773376464844
1700936845849696300,18.4656962890625,1.5609943866729736,-8.9928617477417,8.957723617553711
1700936845866689300,18.482689208984375,2.986445426940918,-8.45255184173584,8.14187240600586
1700936845883683000,18.49968310546875,4.460200786590576,-7.941867828369141,9.121317863464355
1700936845900676900,18.5166767578125,4.244806289672852,-8.415104866027832,9.64713191986084
1700936845917663000,18.5336630859375,3.5187768936157227,-8.374628067016602,8.321817398071289
1700936845934664700,18.550664794921875,2.276078462600708,-8.128240585327148,5.417817115783691
1700936845951658800,18.56765869140625,1.5309008359909058,-7.051212787628174,1.6509418487548828
1700936845968652000,18.584652099609375,1.1669930219650269,-5.239743709564209,-1.0813984870910645
1700936845985642200,18.601642333984376,0.8450884819030762,-3.586225986480713,-2.7619810104370117
1700936846002644200,18.618644287109376,0.6330664753913879,-2.1102218627929688,-4.011799335479736
1700936846019633700,18.635633544921873,0.28376641869544983,-1.1623013019561768,-4.8174543380737305
1700936846036619800,18.652619873046874,-0.06802931427955627,-0.5279386043548584,-5.558815956115723
1700936846053618700,18.66961865234375,-0.3706717789173126,-0.2092580795288086,-6.56317663192749
1700936846070615300,18.686615234375,-0.4227454662322998,0.39380717277526855,-7.239804267883301
1700936846087609300,18.703609375,-0.5602290630340576,0.6561753749847412,-7.488032341003418
1700936846104603100,18.72060302734375,-0.7621548175811768,1.006803274154663,-7.594828128814697
1700936846121595400,18.737595458984377,-1.193849802017212,1.0330564975738525,-7.470538139343262
1700936846138582000,18.75458203125,-1.6100149154663086,1.028616189956665,-7.541354179382324
1700936846155575800,18.771575927734375,-1.5845507383346558,1.0300285816192627,-7.614435195922852
1700936846172578300,18.788578369140627,-1.5565990209579468,0.7058019638061523,-7.751557350158691
1700936846189572000,18.805572021484377,-1.335839033126831,0.34586310386657715,-7.9726128578186035
1700936846206566000,18.82256591796875,-0.9472814798355103,-0.09801387786865234,-7.8783721923828125
1700936846223560000,18.839559814453125,-0.5143877267837524,-0.29249095916748047,-7.494997024536133
1700936846240553500,18.856553466796875,-0.0424422025680542,-0.45110559463500977,-6.770537376403809
1700936846257547300,18.87354736328125,0.5505982637405396,-0.520984411239624,-5.8079915046691895
1700936846274541300,18.890541259765627,0.47491878271102905,-0.9395961761474609,-4.833003997802734
1700936846291534800,18.907534912109377,0.28951022028923035,-1.5039668083190918,-4.108206272125244
1700936846308529200,18.924529052734375,0.44047319889068604,-1.8644123077392578,-3.0594186782836914
1700936846325523000,18.94152294921875,0.6130170822143555,-2.731543779373169,-1.4652557373046875
1700936846342506200,18.95850634765625,0.3010667860507965,-3.782510280609131,0.15112781524658203
1700936846359510800,18.9755107421875,-0.14656883478164673,-4.234748363494873,0.9644851684570312
1700936846376503000,18.9925029296875,-0.25525251030921936,-4.523789405822754,1.5472135543823242
1700936846393502500,19.00950244140625,-0.346985787153244,-5.421438217163086,2.850360870361328
1700936846410488600,19.026488525390626,0.20753151178359985,-6.75326681137085,4.024827003479004
1700936846427485700,19.043485595703125,1.8048217296600342,-8.202089309692383,5.038423538208008
1700936846444475600,19.0604755859375,3.831923007965088,-8.07697582244873,5.466717720031738
1700936846461473500,19.0774736328125,5.207342147827148,-6.134657859802246,6.3194499015808105
1700936846478467300,19.09446728515625,4.405696868896484,-4.158121585845947,7.840451240539551
1700936846495461400,19.11146142578125,2.5937325954437256,-2.2243213653564453,8.759295463562012
1700936846512444400,19.1284443359375,0.1775704026222229,-0.787600040435791,8.836849212646484
1700936846529449000,19.145448974609376,-1.9499789476394653,0.5355849266052246,7.441397666931152
1700936846546442800,19.16244287109375,-3.033339262008667,1.7805266380310059,5.608315467834473
1700936846563446300,19.1794462890625,-2.6464855670928955,3.06085205078125,4.159616470336914
1700936846580419300,19.19641943359375,-1.4443210363388062,4.03260612487793,3.357150077819824
1700936846597424600,19.213424560546876,-0.19494175910949707,4.802395820617676,2.9975204467773438
1700936846614418000,19.23041796875,0.5828554034233093,5.5359649658203125,2.275787353515625
1700936846631401700,19.247401611328126,0.29405051469802856,5.96392822265625,1.324049472808838
1700936846648403200,19.2644033203125,-0.6339582800865173,6.08359956741333,0.22898244857788086
1700936846665402000,19.281402099609377,-1.4186677932739258,5.99051570892334,-0.557375431060791
1700936846682393300,19.298393310546874,-1.8031775951385498,5.719791412353516,-0.8705949783325195
1700936846699387100,19.31538720703125,-1.8531471490859985,5.386086940765381,-1.2300257682800293
1700936846716370400,19.332370361328124,-1.635628581047058,4.865434646606445,-1.4657082557678223
1700936846733375000,19.349375,-1.365839958190918,4.216757774353027,-1.628763198852539
1700936846750368800,19.36636865234375,-1.1463497877120972,3.6091020107269287,-1.6342048645019531
1700936846767360000,19.383360107421876,-1.1905395984649658,3.2202701568603516,-1.386866569519043
1700936846784359000,19.40035888671875,-1.8401453495025635,2.6628708839416504,-1.1316308975219727
1700936846801361000,19.41736083984375,-2.312628984451294,2.2519073486328125,-0.6677379608154297
1700936846818344000,19.434343994140626,-2.370537757873535,1.8629732131958008,-0.1311798095703125
1700936846835344600,19.4513447265625,-1.7896302938461304,1.5001072883605957,0.31929683685302734
1700936846852331800,19.468331787109374,-1.178383231163025,0.8833727836608887,1.2892303466796875
1700936846869314800,19.485314697265625,-0.9205957055091858,0.1720113754272461,2.3181586265563965
1700936846886319400,19.5023193359375,-0.8890712857246399,-1.367584228515625,3.341287612915039
1700936846903313200,19.519313232421876,-0.49778854846954346,-3.1927552223205566,3.3403992652893066
1700936846920307200,19.53630712890625,0.29589271545410156,-4.708874225616455,3.2102904319763184
1700936846937301000,19.553301025390624,1.0282138586044312,-7.614024639129639,4.944418907165527
1700936846954294500,19.57029443359375,1.4110890626907349,-10.153770446777344,5.418407440185547
1700936846971288600,19.58728857421875,2.7884137630462646,-10.829434394836426,4.456245422363281
1700936846988282400,19.604282470703126,4.904574394226074,-8.684318542480469,2.3353023529052734
1700936847005276200,19.621276123046876,6.680717468261719,-6.653144359588623,2.3426122665405273
1700936847022270000,19.63827001953125,6.039649486541748,-6.071568012237549,3.2266292572021484
1700936847039264000,19.655263916015624,4.684890270233154,-4.967963218688965,2.9789609909057617
1700936847056257500,19.672257568359374,3.1019530296325684,-3.5182647705078125,1.3869647979736328
1700936847073251300,19.689251220703124,1.5994410514831543,-1.9252996444702148,-0.9733247756958008
1700936847090235000,19.70623486328125,0.5000177621841431,-0.5220727920532227,-2.7443861961364746
1700936847107239400,19.723239501953124,0.032775022089481354,0.6931476593017578,-3.7763524055480957
1700936847124233200,19.740233154296874,0.10788202285766602,1.7813324928283691,-4.299255847930908
1700936847141216300,19.75721630859375,-0.15576770901679993,2.4596352577209473,-4.447695732116699
1700936847158220800,19.774220703125,-0.7354269623756409,2.960498571395874,-4.6700334548950195
1700936847175214600,19.791214599609376,-1.4015401601791382,3.5166821479797363,-5.1277289390563965
1700936847192208100,19.8082080078125,-2.052826166152954,3.9359331130981445,-5.374279022216797
1700936847209202200,19.8252021484375,-2.355834722518921,4.244916915893555,-5.562681198120117
1700936847226188000,19.84218798828125,-2.378826141357422,4.218233585357666,-5.53780460357666
1700936847243188700,19.859188720703123,-2.2641663551330566,3.92474365234375,-5.601720809936523
1700936847260183800,19.876183837890625,-1.9636619091033936,3.366715431213379,-5.81876277923584
1700936847277177300,19.89317724609375,-1.4653159379959106,2.7594947814941406,-5.914525032043457
1700936847294171400,19.91017138671875,-0.6696162819862366,2.1851987838745117,-5.804859161376953
1700936847311154400,19.927154541015625,0.18137681484222412,1.3872737884521484,-4.982442855834961
1700936847328159000,19.944158935546874,0.9912258386611938,0.6650652885437012,-4.052029132843018
1700936847345152800,19.96115283203125,1.8393652439117432,-0.048956871032714844,-2.6337738037109375
1700936847362146800,19.978146728515625,3.053176164627075,-0.08661270141601562,-1.3776817321777344
1700936847379140900,19.995140869140624,3.7886314392089844,-0.4083991050720215,0.5675506591796875
1700936847396134100,20.012134033203125,2.954307794570923,-1.4367551803588867,2.787825107574463
1700936847413128700,20.029128662109375,1.020294427871704,-1.8124442100524902,3.687549591064453
1700936847430122200,20.046122314453125,-0.8406681418418884,-2.254549026489258,4.535211086273193
1700936847447116000,20.063115966796875,-0.6734461784362793,-2.9193801879882812,5.850193500518799
1700936847464109800,20.08010986328125,1.774523377418518,-3.8134684562683105,7.364339351654053
1700936847481093600,20.09709375,3.872925281524658,-5.157227993011475,8.766000747680664
1700936847498097200,20.11409716796875,4.1799774169921875,-4.774271488189697,9.012453079223633
1700936847515091200,20.13109130859375,3.154932975769043,-2.4800148010253906,9.455011367797852
1700936847532074500,20.148074462890627,0.8366491794586182,-0.2764620780944824,10.75172233581543
1700936847549079000,20.1650791015625,-1.299154281616211,1.154247760772705,11.560068130493164
1700936847566072600,20.182072509765625,-3.0367677211761475,1.6117210388183594,10.662036895751953
1700936847583066400,20.19906640625,-3.870978355407715,1.3020305633544922,7.9593048095703125
1700936847600057600,20.2160576171875,-3.479062080383301,1.5082993507385254,4.576895713806152
1700936847617046300,20.23304638671875,-2.17136287689209,2.0819716453552246,1.9211602210998535
1700936847634048000,20.250048095703125,-0.671116828918457,2.79726243019104,0.2052140235900879
1700936847651042000,20.2670419921875,0.31921470165252686,3.0432403087615967,-0.5834488868713379
1700936847668034000,20.284033935546876,0.6789410710334778,3.2666027545928955,-1.2106571197509766
1700936847685031200,20.30103125,0.2815089821815491,3.1460471153259277,-1.9491429328918457
1700936847702023400,20.3180234375,-0.6983333826065063,2.8800342082977295,-2.877958297729492
1700936847719016000,20.335015869140626,-1.495436191558838,2.5451486110687256,-3.7297868728637695
1700936847736012500,20.352012451171873,-1.7285513877868652,2.296499013900757,-4.47489070892334
1700936847753005000,20.369005126953127,-1.3525445461273193,1.804182529449463,-4.931839466094971
1700936847769998800,20.385998779296877,-0.7077540755271912,1.4145398139953613,-5.462401390075684
1700936847786982100,20.402982177734376,0.30088379979133606,1.0910227298736572,-5.427674770355225
1700936847803986400,20.419986328125,0.9514315128326416,0.6475226879119873,-5.088680744171143
1700936847820980200,20.436980224609375,1.2903356552124023,-0.053223609924316406,-4.606954097747803
1700936847837966300,20.45396630859375,1.303342342376709,-0.9186499118804932,-4.313485622406006
1700936847854959000,20.470958984375,1.727514386177063,-1.3459692001342773,-4.31571102142334
1700936847871961900,20.4879619140625,2.2071402072906494,-1.591709852218628,-3.8436813354492188
1700936847888955400,20.504955322265626,2.3802788257598877,-1.8368542194366455,-3.34975004196167
1700936847905939000,20.52193896484375,2.200955390930176,-2.43711519241333,-2.6274495124816895
1700936847922943200,20.538943115234375,1.8388803005218506,-3.234870195388794,-1.6781563758850098
1700936847939937300,20.555937255859376,1.3599298000335693,-4.082792282104492,-1.3820610046386719
1700936847956921600,20.572921630859376,1.235877513885498,-4.825050354003906,-1.5109734535217285
1700936847973924900,20.5899248046875,1.3610048294067383,-5.764884948730469,-0.8328475952148438
1700936847990918100,20.606918212890626,0.9502236843109131,-8.003921508789062,1.262786865234375
1700936848007902200,20.623902099609374,0.5586274266242981,-10.033096313476562,2.3292837142944336
1700936848024906200,20.64090625,1.013395071029663,-10.671510696411133,2.0262222290039062
1700936848041900300,20.657900390625,2.6956729888916016,-9.024900436401367,1.4720582962036133
1700936848058893600,20.6748935546875,3.598026990890503,-6.62821102142334,2.7380876541137695
1700936848075886000,20.691885986328124,2.834240674972534,-5.589189529418945,5.135506629943848
1700936848092881400,20.70888134765625,1.6345115900039673,-4.398933410644531,6.175622940063477
1700936848109878300,20.725878173828125,0.2815442681312561,-3.767914295196533,5.609987258911133
1700936848126866000,20.742865966796874,-0.23641258478164673,-2.7844510078430176,3.271270751953125
1700936848143863000,20.759863037109376,-0.11274702847003937,-1.1264238357543945,0.5469875335693359
1700936848160856800,20.77685693359375,0.059385403990745544,0.5800642967224121,-1.383749008178711
1700936848177850400,20.793850341796876,-0.24831654131412506,1.8127682209014893,-2.400442600250244
1700936848194844700,20.8108447265625,-0.6718250513076782,2.576677083969116,-2.45695161819458
1700936848211838500,20.82783837890625,-1.2266066074371338,3.1296157836914062,-1.7584714889526367
1700936848228832000,20.84483203125,-1.801382064819336,3.919069528579712,-1.3668303489685059
1700936848245825800,20.86182568359375,-2.119966983795166,4.472068786621094,-1.8738021850585938
1700936848262819600,20.878819580078126,-2.644747734069824,4.675449371337891,-2.4220356941223145
1700936848279821800,20.89582177734375,-2.987964153289795,4.777474880218506,-2.979984760284424
1700936848296807400,20.912807373046874,-3.2080914974212646,4.5561017990112305,-3.0602824687957764
1700936848313799700,20.929799560546876,-2.934680938720703,4.214812278747559,-2.728461265563965
1700936848330796800,20.946796875,-2.4734649658203125,4.042028903961182,-2.529508590698242
1700936848347789000,20.9637890625,-1.72026789188385,3.6647629737854004,-1.7860918045043945
1700936848364782800,20.980782958984374,-1.0659923553466797,3.376349449157715,-0.9401283264160156
1700936848381776600,20.997776611328124,-0.6559604406356812,3.0525174140930176,0.12062597274780273
1700936848398760200,21.01476025390625,-0.10570013523101807,2.688425064086914,1.637831687927246
1700936848415764200,21.03176416015625,0.40590089559555054,2.6045517921447754,3.0264759063720703
1700936848432758000,21.048758056640626,0.6153181195259094,1.823850154876709,4.999089241027832
1700936848449752000,21.065751953125,0.8809469938278198,0.8452987670898438,6.96949577331543
1700936848466745900,21.082745849609374,2.256456136703491,0.4639873504638672,8.711467742919922
1700936848483739600,21.09973974609375,3.7727808952331543,0.590083122253418,10.226171493530273
1700936848500728300,21.116728271484376,2.9058265686035156,-0.5521750450134277,11.714017868041992
1700936848517736700,21.13373681640625,2.1269235610961914,-2.6169962882995605,11.486176490783691
1700936848534721000,21.150720947265626,3.5757009983062744,-4.470355033874512,10.43983268737793
1700936848551714800,21.16771484375,5.97034215927124,-3.9749417304992676,8.685070037841797
1700936848568708900,21.184708984375,7.261782646179199,-1.4341521263122559,7.068554401397705
1700936848585700000,21.2017001953125,5.361295700073242,-0.5567264556884766,7.769271373748779
1700936848602699000,21.218698974609374,1.3452355861663818,-1.2874083518981934,8.068187713623047
1700936848619690200,21.235690185546876,-2.7723276615142822,-2.1268343925476074,6.942446708679199
1700936848636684000,21.25268408203125,-5.154108047485352,-1.8442306518554688,4.78923225402832
1700936848653677800,21.269677734375,-4.686480522155762,-0.7235660552978516,2.4509201049804688
1700936848670672000,21.286671875,-2.387049674987793,0.18492937088012695,0.8143997192382812
1700936848687664400,21.303664306640623,-0.5395864248275757,0.5822296142578125,-0.47870635986328125
1700936848704660500,21.320660400390626,0.5470297932624817,0.3618745803833008,-1.5415911674499512
1700936848721658400,21.337658447265625,1.0440049171447754,0.021781444549560547,-2.6814064979553223
1700936848738647000,21.35464697265625,1.139894723892212,-0.3833022117614746,-3.576631546020508
1700936848755641600,21.3716416015625,1.1687411069869995,-0.5151553153991699,-4.289759159088135
1700936848772634400,21.38863427734375,1.0076708793640137,-1.0416810512542725,-4.236086368560791
1700936848789626400,21.40562646484375,0.8940343856811523,-1.4339332580566406,-4.056610584259033
1700936848806624300,21.422624267578126,0.4850945472717285,-1.7965137958526611,-4.178018093109131
1700936848823614200,21.4396142578125,-0.08732742071151733,-2.2454047203063965,-4.777241230010986
1700936848840610300,21.4566103515625,-0.38965392112731934,-2.5735204219818115,-5.494410991668701
1700936848857604000,21.47360400390625,-0.30472344160079956,-3.0073490142822266,-5.999743461608887
1700936848874597600,21.49059765625,0.23152178525924683,-3.3097615242004395,-6.339473724365234
1700936848891591400,21.50759130859375,1.176842451095581,-3.6893887519836426,-6.071034908294678
1700936848908585500,21.52458544921875,1.9941786527633667,-4.067972183227539,-5.669102668762207
1700936848925576700,21.54157666015625,2.2750959396362305,-4.344558238983154,-5.488472938537598
1700936848942575600,21.55857568359375,1.9203870296478271,-4.716381549835205,-5.595450401306152
