time,seconds_elapsed,z,y,x
1701886126444178200,0.14417822265625,-1.236851692199707,-0.5976366996765137,-0.032050102949142456
1701886126461170000,0.161169921875,-1.140428066253662,-0.8101434707641602,-0.19545409083366394
1701886126478164200,0.178164306640625,-1.4244580268859863,-1.0216445922851562,-0.17255568504333496
1701886126495159600,0.19515966796875,-1.646881103515625,-1.169097900390625,0.23499739170074463
1701886126512152300,0.21215234375,-1.94366455078125,-1.3438630104064941,0.7328962087631226
1701886126529134300,0.22913427734375,-2.42574405670166,-1.2699756622314453,0.7211756706237793
1701886126546130700,0.246130615234375,-2.862497329711914,-1.4751019477844238,0.25850701332092285
1701886126563133400,0.263133544921875,-2.6525678634643555,-1.774120807647705,-0.41509032249450684
1701886126580119800,0.280119873046875,-2.077833652496338,-2.1008265018463135,-0.9455443620681763
1701886126597113000,0.297113037109375,-1.5627307891845703,-2.5551061630249023,-1.4729890823364258
1701886126614111000,0.314111083984375,-2.1455020904541016,-2.527202606201172,-1.2768361568450928
1701886126631098000,0.33109814453125,-3.5277295112609863,-2.851348638534546,-0.4246859550476074
1701886126648094200,0.34809423828125,-3.90852427482605,-2.743818759918213,-0.040747642517089844
1701886126665083100,0.365083251953125,-3.2779555320739746,-2.956082344055176,-0.3332686424255371
1701886126682080800,0.382080810546875,-1.808131456375122,-3.418177604675293,-0.9708156585693359
1701886126699069400,0.3990693359375,-0.35241127014160156,-3.4531588554382324,-1.5032577514648438
1701886126716064800,0.416064697265625,-0.705420970916748,-3.1776340007781982,-1.3312101364135742
1701886126733056000,0.433055908203125,-2.258985996246338,-3.242598533630371,-0.5159378051757812
1701886126750048000,0.450048095703125,-3.1853394508361816,-3.2703065872192383,0.9507675170898438
1701886126767042600,0.46704248046875,-2.5201892852783203,-2.9939956665039062,0.9364724159240723
1701886126784038400,0.484038330078125,-1.1324265003204346,-3.2221837043762207,0.08102130889892578
1701886126801026600,0.501026611328125,0.20721030235290527,-3.387678623199463,-0.6715660095214844
1701886126818022700,0.518022705078125,0.5650279521942139,-2.613377332687378,-0.5878763198852539
1701886126835015000,0.535014892578125,-0.750598669052124,-3.112199544906616,0.6122674942016602
1701886126852009000,0.552009033203125,-0.565988302230835,-2.849841833114624,1.7976198196411133
1701886126868998100,0.568998046875,0.10358166694641113,-2.4207959175109863,2.389134407043457
1701886126885985500,0.585985595703125,0.8249738216400146,-2.3874096870422363,2.1602611541748047
1701886126902987800,0.60298779296875,0.8723695278167725,-2.3150100708007812,2.054915428161621
1701886126919975400,0.619975341796875,0.36867213249206543,-2.140583038330078,1.7920846939086914
1701886126936973000,0.63697314453125,-0.7263491153717041,-2.0093908309936523,1.818791389465332
1701886126953965600,0.653965576171875,-1.7228646278381348,-1.862987756729126,1.8625383377075195
1701886126970956800,0.670956787109375,-1.6692864894866943,-1.8454697132110596,2.2057790756225586
1701886126987948500,0.687948486328125,-0.7077652215957642,-1.8409624099731445,2.8698062896728516
1701886127004945700,0.704945556640625,0.3252098560333252,-1.887144923210144,3.3685903549194336
1701886127021937700,0.721937744140625,0.9568458795547485,-1.8877663612365723,3.7100296020507812
1701886127038924500,0.738924560546875,1.3541353940963745,-1.6591084003448486,4.012883186340332
1701886127055920400,0.75592041015625,1.625956654548645,-1.1548142433166504,4.096048355102539
1701886127072916500,0.77291650390625,1.4245789051055908,-0.8285784721374512,4.373732566833496
1701886127089905000,0.78990478515625,1.157897710800171,-0.3452000617980957,4.536044120788574
1701886127106900000,0.80689990234375,0.7511771321296692,0.10025262832641602,4.565210342407227
1701886127123894500,0.82389453125,0.03565111756324768,0.46570396423339844,4.763263702392578
1701886127140883500,0.840883544921875,-1.0199761390686035,0.8538644313812256,4.717922210693359
1701886127157879600,0.857879638671875,-2.081697940826416,1.233635663986206,4.462967872619629
1701886127174871600,0.87487158203125,-2.856667995452881,1.55242919921875,4.000872611999512
1701886127191876900,0.891876953125,-3.047713279724121,1.7026348114013672,3.482542037963867
1701886127208863000,0.908863037109375,-2.612941026687622,1.7464454174041748,2.944708824157715
1701886127225844500,0.925844482421875,-1.7726575136184692,1.6879000663757324,2.443648338317871
1701886127242842600,0.942842529296875,-1.085800051689148,1.5824241638183594,1.9970378875732422
1701886127259837200,0.959837158203125,-0.5660682916641235,1.477492332458496,1.4464387893676758
1701886127276819200,0.976819091796875,-0.16810673475265503,1.402777910232544,1.0938091278076172
1701886127293824000,0.993823974609375,0.053492844104766846,1.3811194896697998,0.7601346969604492
1701886127310804700,1.0108046875,0.24323755502700806,1.2414963245391846,0.7115602493286133
1701886127327808000,1.02780810546875,0.3023083209991455,1.0740070343017578,0.7230825424194336
1701886127344800000,1.044800048828125,0.19887423515319824,0.8924541473388672,0.6775655746459961
1701886127361794600,1.061794677734375,-0.06557577848434448,0.7335543632507324,0.6890354156494141
1701886127378776300,1.0787763671875,-0.12922018766403198,0.6088376045227051,0.759678840637207
1701886127395778800,1.09577880859375,-0.03231620788574219,0.6933093070983887,0.7428874969482422
1701886127412773000,1.112773193359375,-0.06563353538513184,0.6226358413696289,0.8455314636230469
1701886127429761000,1.129760986328125,-0.25530773401260376,0.4802718162536621,0.8706607818603516
1701886127446758100,1.146758056640625,-0.4544782340526581,0.32358646392822266,0.6492376327514648
1701886127463751400,1.16375146484375,-0.5697935223579407,0.05412101745605469,0.35423755645751953
1701886127480740400,1.180740234375,-0.6354146003723145,-0.21219491958618164,0.2983884811401367
1701886127497735400,1.1977353515625,-0.41939812898635864,-0.2570610046386719,0.22043514251708984
1701886127514729200,1.214729248046875,-0.21496498584747314,-0.38599538803100586,0.14175128936767578
1701886127531723300,1.23172314453125,-0.21311593055725098,-0.501772403717041,-0.03249645233154297
1701886127548712400,1.24871240234375,-0.25622057914733887,-0.5635523796081543,-0.29817771911621094
1701886127565703700,1.26570361328125,-0.3386203646659851,-0.680211067199707,-0.4875307083129883
1701886127582701600,1.28270166015625,-0.2709546685218811,-0.6972675323486328,-0.68768310546875
1701886127599687200,1.299687255859375,-0.2279667854309082,-0.871070384979248,-0.7383556365966797
1701886127616682200,1.31668212890625,-0.439919650554657,-1.1428475379943848,-0.7466468811035156
1701886127633683200,1.33368310546875,-0.3981481194496155,-1.1321468353271484,-0.877739429473877
1701886127650669000,1.3506689453125,-0.30324018001556396,-1.1836442947387695,-1.0330448150634766
1701886127667657500,1.367657470703125,-0.1346653699874878,-1.3116307258605957,-1.1579780578613281
1701886127684657200,1.3846572265625,0.07612526416778564,-1.4049959182739258,-1.1257305145263672
1701886127701651500,1.4016513671875,0.20973467826843262,-1.423602819442749,-1.0107502937316895
1701886127718640000,1.41864013671875,0.18713784217834473,-1.3200888633728027,-1.0345654487609863
1701886127735635500,1.435635498046875,-0.018413305282592773,-1.240825891494751,-1.0115079879760742
1701886127752626700,1.452626708984375,-0.17205274105072021,-1.0973093509674072,-1.07249116897583
1701886127769619500,1.469619384765625,-0.19621893763542175,-1.0356080532073975,-1.0611486434936523
1701886127786614300,1.4866142578125,-0.1667071282863617,-1.0603892803192139,-1.0391716957092285
1701886127803608300,1.5036083984375,-0.22806304693222046,-1.0615034103393555,-1.092745304107666
1701886127820595000,1.520594970703125,-0.2825435400009155,-1.0419740676879883,-1.0688934326171875
1701886127837586200,1.537586181640625,-0.4407510459423065,-0.9443438053131104,-1.056027889251709
1701886127854585600,1.554585693359375,-0.5662025809288025,-0.8464999198913574,-1.0938754081726074
1701886127871582000,1.57158203125,-0.6266664266586304,-0.7568950653076172,-1.0582966804504395
1701886127888569300,1.5885693359375,-0.6328756213188171,-0.8116750717163086,-0.7816667556762695
1701886127905568800,1.60556884765625,-0.5939822793006897,-0.6967182159423828,-0.7219839096069336
1701886127922558200,1.62255810546875,-0.6120052933692932,-0.6378607749938965,-0.5723466873168945
1701886127939547400,1.63954736328125,-0.6101846098899841,-0.564943790435791,-0.32919979095458984
1701886127956540400,1.65654052734375,-0.549519419670105,-0.4610934257507324,-0.16150569915771484
1701886127973534500,1.673534423828125,-0.4990899860858917,-0.43010759353637695,0.08289432525634766
1701886127990527000,1.69052685546875,-0.4461401104927063,-0.42099857330322266,0.32119083404541016
1701886128007523600,1.707523681640625,-0.46565818786621094,-0.32685184478759766,0.4859962463378906
1701886128024514800,1.724514892578125,-0.5926843285560608,-0.22485065460205078,0.54132080078125
1701886128041506300,1.74150634765625,-0.7146763801574707,-0.14983606338500977,0.5232181549072266
1701886128058500400,1.758500244140625,-0.7772701978683472,-0.13427114486694336,0.48377418518066406
1701886128075489000,1.775489013671875,-0.7560197710990906,-0.10882759094238281,0.3716707229614258
1701886128092487000,1.79248681640625,-0.68646240234375,-0.10843181610107422,0.21781539916992188
1701886128109468700,1.80946875,-0.5301913022994995,-0.14303970336914062,0.06729793548583984
1701886128126471200,1.82647119140625,-0.4117066264152527,-0.1004939079284668,-0.054228782653808594
1701886128143462100,1.843462158203125,-0.35387077927589417,-0.06477928161621094,-0.06998729705810547
1701886128160454100,1.8604541015625,-0.32295629382133484,-0.03209352493286133,-0.06375408172607422
1701886128177450800,1.87745068359375,-0.32089102268218994,-0.03646039962768555,-0.035663604736328125
1701886128194442200,1.894442138671875,-0.3715164065361023,-0.07361316680908203,-0.027924537658691406
1701886128211435500,1.911435546875,-0.3331054747104645,-0.08675336837768555,-0.050522804260253906
1701886128228429000,1.928428955078125,-0.24456563591957092,-0.14196443557739258,-0.048195838928222656
1701886128245420800,1.9454208984375,-0.13885200023651123,-0.12847614288330078,-0.06913375854492188
1701886128262407000,1.962406982421875,-0.060624271631240845,-0.14891624450683594,-0.06606769561767578
1701886128279400400,1.979400390625,-0.005068749189376831,-0.18842744827270508,-0.04414081573486328
1701886128296396000,1.99639599609375,0.014634102582931519,-0.2688608169555664,0.058974266052246094
1701886128313395700,2.013395751953125,0.039212048053741455,-0.3089752197265625,0.1119394302368164
1701886128330381800,2.0303818359375,0.07114684581756592,-0.2992219924926758,0.07324600219726562
1701886128347379700,2.047379638671875,0.03817203640937805,-0.3140254020690918,-0.012857437133789062
1701886128364370700,2.06437060546875,0.009949833154678345,-0.30179309844970703,-0.14590835571289062
1701886128381362000,2.08136181640625,-0.05090150237083435,-0.3045206069946289,-0.2039203643798828
1701886128398357500,2.098357421875,-0.16675716638565063,-0.30439138412475586,-0.18767929077148438
1701886128415349200,2.115349365234375,-0.29837504029273987,-0.2764096260070801,-0.10044384002685547
1701886128432343800,2.13234375,-0.48001137375831604,-0.28873109817504883,-0.042755126953125
1701886128449332700,2.149332763671875,-0.6434273719787598,-0.28130531311035156,-0.12776660919189453
1701886128466326300,2.166326171875,-0.7097733020782471,-0.29497671127319336,-0.14171504974365234
1701886128483324400,2.183324462890625,-0.6828529834747314,-0.3352012634277344,-0.16428756713867188
1701886128500310800,2.200310791015625,-0.5696402788162231,-0.3540687561035156,-0.1675558090209961
1701886128517305600,2.2173056640625,-0.48066455125808716,-0.36647844314575195,-0.1654834747314453
1701886128534301700,2.2343017578125,-0.5237683057785034,-0.4067716598510742,-0.09903240203857422
1701886128551289900,2.251289794921875,-0.5584840774536133,-0.3369612693786621,-0.10660457611083984
1701886128568284200,2.2682841796875,-0.6069676280021667,-0.37992143630981445,-0.16927146911621094
1701886128585277200,2.285277099609375,-0.5349335670471191,-0.42023658752441406,-0.21240806579589844
1701886128602272800,2.302272705078125,-0.4229944050312042,-0.4288973808288574,-0.2348194122314453
1701886128619261700,2.31926171875,-0.30968961119651794,-0.41228723526000977,-0.27080631256103516
1701886128636254500,2.33625439453125,-0.2262869030237198,-0.39965295791625977,-0.34462833404541016
1701886128653249500,2.35324951171875,-0.15680021047592163,-0.4335050582885742,-0.3744192123413086
1701886128670232300,2.370232421875,-0.13304263353347778,-0.4851698875427246,-0.32640838623046875
1701886128687225600,2.3872255859375,-0.05353376269340515,-0.47969484329223633,-0.2647285461425781
1701886128704233500,2.4042333984375,-0.04386398196220398,-0.4556727409362793,-0.3271207809448242
1701886128721204700,2.421204833984375,-0.0499269962310791,-0.4561491012573242,-0.36855316162109375
1701886128738211800,2.4382119140625,-0.008386671543121338,-0.43861865997314453,-0.33669185638427734
1701886128755209000,2.455208984375,0.05087655782699585,-0.3996009826660156,-0.26475048065185547
1701886128772190500,2.4721904296875,0.015977591276168823,-0.3727264404296875,-0.18361854553222656
1701886128789189600,2.489189697265625,-0.13157358765602112,-0.35580968856811523,-0.1092367172241211
1701886128806185000,2.50618505859375,-0.22718915343284607,-0.3206171989440918,-0.13396930694580078
1701886128823179300,2.52317919921875,-0.30160853266716003,-0.38324451446533203,-0.14089488983154297
1701886128840167400,2.54016748046875,-0.2803826928138733,-0.40186309814453125,-0.23940277099609375
1701886128857164300,2.557164306640625,-0.16980355978012085,-0.44551944732666016,-0.24059009552001953
1701886128874158000,2.574157958984375,-0.05261769890785217,-0.4544677734375,-0.2225513458251953
1701886128891147000,2.59114697265625,-0.017772436141967773,-0.41731786727905273,-0.19425010681152344
1701886128908143000,2.60814306640625,-0.08892181515693665,-0.3580183982849121,-0.21379470825195312
1701886128925134800,2.625134765625,-0.19585144519805908,-0.33627986907958984,-0.2231731414794922
1701886128942138600,2.642138671875,-0.24444231390953064,-0.3122987747192383,-0.26621341705322266
1701886128959118300,2.659118408203125,-0.27222469449043274,-0.3379530906677246,-0.24950027465820312
1701886128976110000,2.676110107421875,-0.32578304409980774,-0.3122215270996094,-0.20797061920166016
1701886128993101000,2.69310107421875,-0.42490947246551514,-0.25867223739624023,-0.15572357177734375
1701886129010097000,2.710096923828125,-0.4492093622684479,-0.20155096054077148,-0.182098388671875
1701886129027092700,2.7270927734375,-0.48124268651008606,-0.2113780975341797,-0.1887493133544922
1701886129044085500,2.74408544921875,-0.4720923602581024,-0.2294473648071289,-0.15773963928222656
1701886129061075200,2.7610751953125,-0.5028600692749023,-0.2429518699645996,-0.1111001968383789
1701886129078071300,2.7780712890625,-0.5169230699539185,-0.21823787689208984,-0.07024955749511719
1701886129095063600,2.7950634765625,-0.5537362098693848,-0.2242569923400879,-0.04927253723144531
1701886129112057900,2.812057861328125,-0.5158185362815857,-0.2212820053100586,-0.057849884033203125
1701886129129049600,2.829049560546875,-0.4392946660518646,-0.2641110420227051,-0.039328575134277344
1701886129146039000,2.8460390625,-0.32821327447891235,-0.31380128860473633,-0.08005619049072266
1701886129163033000,2.863033203125,-0.2166680097579956,-0.3497929573059082,-0.16885757446289062
1701886129180025300,2.880025390625,-0.14443111419677734,-0.3800640106201172,-0.23200035095214844
1701886129197022000,2.89702197265625,-0.033400923013687134,-0.3767104148864746,-0.23886489868164062
1701886129214015000,2.914014892578125,-0.0004183053970336914,-0.3847332000732422,-0.2548084259033203
1701886129231004000,2.93100390625,-0.005153357982635498,-0.37891578674316406,-0.2376422882080078
1701886129247999700,2.947999755859375,-0.05622750520706177,-0.39200592041015625,-0.23897647857666016
1701886129264992000,2.964991943359375,-0.11907145380973816,-0.4040346145629883,-0.21607208251953125
1701886129281986600,2.981986572265625,-0.11753398180007935,-0.3807864189147949,-0.2641716003417969
1701886129298975200,2.998975341796875,-0.12467405200004578,-0.39872074127197266,-0.2923698425292969
1701886129315971000,3.01597119140625,-0.1444512903690338,-0.3941192626953125,-0.24889087677001953
1701886129332964900,3.03296484375,-0.1804160177707672,-0.35210704803466797,-0.24872398376464844
1701886129349952800,3.049952880859375,-0.2798304557800293,-0.3498086929321289,-0.23470497131347656
1701886129366940400,3.0669404296875,-0.36577796936035156,-0.33208465576171875,-0.28208351135253906
1701886129383943200,3.083943115234375,-0.3781781792640686,-0.33974266052246094,-0.29062461853027344
1701886129400936000,3.10093603515625,-0.3313353359699249,-0.33959102630615234,-0.2551107406616211
1701886129417928000,3.117927978515625,-0.2973390221595764,-0.3383493423461914,-0.1897573471069336
1701886129434922200,3.134922119140625,-0.3234909176826477,-0.3048720359802246,-0.1538257598876953
1701886129451914200,3.151914306640625,-0.3717186152935028,-0.2731337547302246,-0.10834789276123047
1701886129468907000,3.168906982421875,-0.40446797013282776,-0.2526359558105469,-0.1077117919921875
1701886129485896200,3.185896240234375,-0.40748363733291626,-0.2810964584350586,-0.1220083236694336
1701886129502890500,3.202890380859375,-0.36375856399536133,-0.3089146614074707,-0.13178539276123047
1701886129519885300,3.21988525390625,-0.30639511346817017,-0.33447933197021484,-0.12093734741210938
1701886129536878600,3.236878662109375,-0.3087690472602844,-0.3226461410522461,-0.08594703674316406
1701886129553871400,3.253871337890625,-0.3248988687992096,-0.29240942001342773,-0.08034896850585938
1701886129570851300,3.270851318359375,-0.32821741700172424,-0.2551908493041992,-0.052191734313964844
1701886129587843000,3.287843017578125,-0.40098652243614197,-0.2541327476501465,-0.11579704284667969
1701886129604850200,3.30485009765625,-0.4065695106983185,-0.26236724853515625,-0.16553020477294922
1701886129621844200,3.32184423828125,-0.3165646195411682,-0.2925376892089844,-0.17684364318847656
1701886129638835700,3.338835693359375,-0.2155129462480545,-0.33052968978881836,-0.19677352905273438
1701886129655829200,3.355829345703125,-0.18313494324684143,-0.3099040985107422,-0.21574974060058594
1701886129672818000,3.37281787109375,-0.22196856141090393,-0.3210306167602539,-0.22311878204345703
1701886129689814300,3.389814208984375,-0.25807085633277893,-0.27380895614624023,-0.10116195678710938
1701886129706807000,3.40680712890625,-0.33101528882980347,-0.2200927734375,-0.03225135803222656
1701886129723800000,3.423800048828125,-0.39325588941574097,-0.22168684005737305,-0.07150554656982422
1701886129740791800,3.440791748046875,-0.4203456938266754,-0.22966527938842773,-0.11576175689697266
1701886129757786600,3.45778662109375,-0.32272258400917053,-0.2646937370300293,-0.1611766815185547
1701886129774776000,3.474776123046875,-0.23201221227645874,-0.30445384979248047,-0.1433258056640625
1701886129791773700,3.491773681640625,-0.1776806265115738,-0.3306865692138672,-0.19313907623291016
1701886129808764200,3.50876416015625,-0.17912611365318298,-0.34226179122924805,-0.2563056945800781
1701886129825757000,3.5257568359375,-0.15516161918640137,-0.3221745491027832,-0.2414875030517578
1701886129842749700,3.542749755859375,-0.17221203446388245,-0.2807011604309082,-0.17716598510742188
1701886129859742000,3.559741943359375,-0.21170490980148315,-0.2445993423461914,-0.13262557983398438
1701886129876725800,3.576725830078125,-0.2749967575073242,-0.2280721664428711,-0.10235118865966797
1701886129893728500,3.593728515625,-0.2900368571281433,-0.2424783706665039,-0.04474830627441406
1701886129910712000,3.610712158203125,-0.3216576874256134,-0.2585172653198242,-0.05939292907714844
1701886129927713500,3.627713623046875,-0.312757670879364,-0.28536415100097656,-0.11406230926513672
1701886129944707800,3.644707763671875,-0.24332481622695923,-0.31166791915893555,-0.1735076904296875
1701886129961697300,3.661697265625,-0.1829071342945099,-0.34197044372558594,-0.21342182159423828
1701886129978706400,3.67870654296875,-0.1550861895084381,-0.34751224517822266,-0.2329263687133789
1701886129995682600,3.6956826171875,-0.16781054437160492,-0.31372833251953125,-0.2178668975830078
1701886130012678400,3.712678466796875,-0.26075825095176697,-0.2997417449951172,-0.1932973861694336
1701886130029671400,3.72967138671875,-0.3256259858608246,-0.2756199836730957,-0.18310165405273438
1701886130046664200,3.746664306640625,-0.3101142346858978,-0.2806077003479004,-0.18802165985107422
1701886130063653600,3.763653564453125,-0.24803419411182404,-0.2960042953491211,-0.19452762603759766
1701886130080650000,3.78064990234375,-0.20001989603042603,-0.3013739585876465,-0.22863006591796875
1701886130097642800,3.797642822265625,-0.19010716676712036,-0.3103971481323242,-0.27146148681640625
1701886130114635500,3.814635498046875,-0.15533992648124695,-0.30226659774780273,-0.25130176544189453
1701886130131618300,3.831618408203125,-0.14020588994026184,-0.27828359603881836,-0.2154541015625
1701886130148621300,3.848621337890625,-0.1524835079908371,-0.2829737663269043,-0.15984630584716797
1701886130165614300,3.8656142578125,-0.22624650597572327,-0.2617173194885254,-0.07661151885986328
1701886130182603800,3.882603759765625,-0.2773589789867401,-0.23370838165283203,-0.0958547592163086
1701886130199597300,3.899597412109375,-0.2912721335887909,-0.25893449783325195,-0.11088085174560547
1701886130216595200,3.91659521484375,-0.18159988522529602,-0.2643709182739258,-0.12643814086914062
1701886130233579000,3.9335791015625,-0.0736304223537445,-0.2934532165527344,-0.15198993682861328
1701886130250578000,3.950577880859375,-0.03319266438484192,-0.3127436637878418,-0.16635608673095703
1701886130267569700,3.967569580078125,-0.07284486293792725,-0.30792236328125,-0.16149044036865234
1701886130284565800,3.984565673828125,-0.16514034569263458,-0.3037557601928711,-0.14650440216064453
1701886130301557000,4.001556884765625,-0.2320171445608139,-0.2952237129211426,-0.13682842254638672
1701886130318550300,4.01855029296875,-0.2869619131088257,-0.30183839797973633,-0.17057323455810547
1701886130335542800,4.035542724609375,-0.28118255734443665,-0.2993302345275879,-0.18592453002929688
1701886130352535600,4.05253564453125,-0.23425441980361938,-0.3108634948730469,-0.2306995391845703
1701886130369528300,4.0695283203125,-0.20955060422420502,-0.32654428482055664,-0.2743072509765625
1701886130386523000,4.08652294921875,-0.17313885688781738,-0.3587818145751953,-0.2502775192260742
1701886130403503900,4.10350390625,-0.165927454829216,-0.3506598472595215,-0.20068740844726562
1701886130420507100,4.120507080078125,-0.24488981068134308,-0.3241729736328125,-0.13620376586914062
1701886130437499000,4.137498779296875,-0.3633565902709961,-0.28464412689208984,-0.16271495819091797
1701886130454484700,4.154484619140625,-0.43244656920433044,-0.29729127883911133,-0.18513107299804688
1701886130471482600,4.171482666015625,-0.37658941745758057,-0.31853342056274414,-0.20857715606689453
1701886130488479200,4.188479248046875,-0.28283706307411194,-0.3245515823364258,-0.19300365447998047
1701886130505468200,4.20546826171875,-0.2234017252922058,-0.3142209053039551,-0.19587421417236328
1701886130522453500,4.22245361328125,-0.25757890939712524,-0.28916358947753906,-0.18306541442871094
1701886130539457000,4.23945703125,-0.31680139899253845,-0.24830102920532227,-0.13103771209716797
1701886130556447200,4.256447265625,-0.34209463000297546,-0.2174539566040039,-0.088531494140625
1701886130573442300,4.2734423828125,-0.3438420295715332,-0.2203216552734375,-0.023077011108398438
1701886130590433300,4.290433349609375,-0.39391714334487915,-0.20252275466918945,0.012363433837890625
1701886130607428600,4.3074287109375,-0.41699519753456116,-0.206085205078125,-0.029552459716796875
1701886130624424000,4.324423828125,-0.34910041093826294,-0.22435951232910156,-0.0779256820678711
1701886130641395200,4.341395263671875,-0.20543700456619263,-0.23758411407470703,-0.13632488250732422
1701886130658407000,4.358406982421875,-0.10844239592552185,-0.22603654861450195,-0.15544414520263672
1701886130675399700,4.375399658203125,-0.08347812294960022,-0.22845888137817383,-0.17885112762451172
1701886130692392700,4.392392822265625,-0.14519214630126953,-0.19117498397827148,-0.1715984344482422
1701886130709375000,4.409375,-0.24375517666339874,-0.20653867721557617,-0.11619758605957031
1701886130726378200,4.426378173828125,-0.3124594986438751,-0.198333740234375,-0.06580066680908203
1701886130743371500,4.44337158203125,-0.3390168845653534,-0.1949000358581543,-0.049201011657714844
1701886130760363300,4.46036328125,-0.30829158425331116,-0.16335725784301758,-0.0478515625
1701886130777357600,4.477357666015625,-0.26782894134521484,-0.14699554443359375,-0.057387351989746094
1701886130794350000,4.49435009765625,-0.25551822781562805,-0.18110990524291992,-0.043427467346191406
1701886130811342800,4.5113427734375,-0.30452507734298706,-0.22224950790405273,-0.035083770751953125
1701886130828335400,4.52833544921875,-0.3443875312805176,-0.2689981460571289,-0.08430194854736328
1701886130845328100,4.545328125,-0.27921780943870544,-0.2856154441833496,-0.11994075775146484
1701886130862321200,4.562321044921875,-0.20000168681144714,-0.2831711769104004,-0.1457347869873047
1701886130879314000,4.57931396484375,-0.1306953728199005,-0.2648196220397949,-0.1662588119506836
1701886130896304400,4.596304443359375,-0.08135372400283813,-0.24675512313842773,-0.16684246063232422
1701886130913302500,4.613302490234375,-0.11822560429573059,-0.26258325576782227,-0.17718982696533203
1701886130930290400,4.63029052734375,-0.1642407774925232,-0.2789907455444336,-0.17348098754882812
1701886130947287300,4.647287353515625,-0.21553392708301544,-0.27265119552612305,-0.20294857025146484
1701886130964279000,4.664279052734375,-0.23825472593307495,-0.2894148826599121,-0.23291492462158203
1701886130981268700,4.681268798828125,-0.19492024183273315,-0.313321590423584,-0.2715110778808594
1701886130998267000,4.698266845703125,-0.11546406149864197,-0.32051563262939453,-0.26129913330078125
1701886131015256800,4.7152568359375,-0.09824809432029724,-0.3167257308959961,-0.22643375396728516
1701886131032249900,4.732249755859375,-0.13677236437797546,-0.29341697692871094,-0.1902332305908203
1701886131049243000,4.749242919921875,-0.22125861048698425,-0.29953813552856445,-0.1445770263671875
1701886131066235600,4.766235595703125,-0.2780396044254303,-0.262296199798584,-0.12775230407714844
1701886131083225300,4.783225341796875,-0.3031156361103058,-0.24141168594360352,-0.10740470886230469
1701886131100220400,4.800220458984375,-0.3035880923271179,-0.23635196685791016,-0.1072530746459961
1701886131117214500,4.81721435546875,-0.28756529092788696,-0.21877670288085938,-0.11317253112792969
1701886131134208000,4.8342080078125,-0.2604316174983978,-0.22297143936157227,-0.096221923828125
1701886131151199700,4.85119970703125,-0.27366378903388977,-0.19759321212768555,-0.07560443878173828
1701886131168192800,4.86819287109375,-0.314657986164093,-0.22748851776123047,-0.1146688461303711
1701886131185185500,4.885185546875,-0.29376041889190674,-0.2427372932434082,-0.18736839294433594
1701886131202178800,4.9021787109375,-0.18001915514469147,-0.2728853225708008,-0.2399120330810547
1701886131219171300,4.91917138671875,-0.05125993490219116,-0.2640256881713867,-0.2363748550415039
1701886131236164000,4.9361640625,-0.018317073583602905,-0.20909881591796875,-0.24480152130126953
1701886131253157000,4.9531572265625,-0.07383330166339874,-0.1764988899230957,-0.18459224700927734
1701886131270149000,4.970149169921875,-0.21331539750099182,-0.1337871551513672,-0.10919666290283203
1701886131287143400,4.987143310546875,-0.3108592927455902,-0.12439107894897461,-0.06777572631835938
1701886131304135400,5.004135498046875,-0.32869669795036316,-0.13534116744995117,0.005995750427246094
1701886131321128700,5.021128662109375,-0.2954655587673187,-0.15853023529052734,0.015343666076660156
1701886131338120700,5.03812060546875,-0.2471916675567627,-0.16485023498535156,-0.0048847198486328125
1701886131355115300,5.055115234375,-0.19747577607631683,-0.19220495223999023,-0.021589279174804688
1701886131372096500,5.072096435546875,-0.15333203971385956,-0.20045757293701172,-0.06253337860107422
1701886131389100000,5.08910009765625,-0.10193315148353577,-0.1898360252380371,-0.10745620727539062
1701886131406092800,5.1060927734375,-0.08029882609844208,-0.16374969482421875,-0.15207862854003906
1701886131423085800,5.1230859375,-0.10603674501180649,-0.18172121047973633,-0.17296218872070312
1701886131440067800,5.14006787109375,-0.1355312317609787,-0.19965744018554688,-0.18906593322753906
1701886131457060900,5.157060791015625,-0.19783642888069153,-0.23617315292358398,-0.20401668548583984
1701886131474064100,5.174064208984375,-0.20752234756946564,-0.2134084701538086,-0.20939159393310547
1701886131491055000,5.19105517578125,-0.2060885727405548,-0.21786022186279297,-0.17096233367919922
1701886131508050000,5.2080498046875,-0.18523913621902466,-0.2032175064086914,-0.11340618133544922
1701886131525043000,5.22504296875,-0.17911556363105774,-0.23315095901489258,-0.03714466094970703
1701886131542035500,5.242035400390625,-0.16151957213878632,-0.22003459930419922,-0.02425384521484375
1701886131559028500,5.259028564453125,-0.17826567590236664,-0.24755144119262695,-0.034638404846191406
1701886131576021200,5.276021240234375,-0.16791942715644836,-0.2406458854675293,-0.10377025604248047
1701886131593011200,5.29301123046875,-0.14274373650550842,-0.24846601486206055,-0.1482534408569336
1701886131610007300,5.31000732421875,-0.1562560796737671,-0.2374129295349121,-0.1689300537109375
1701886131626999800,5.326999755859375,-0.22085805237293243,-0.24619340896606445,-0.21329784393310547
1701886131643993000,5.3439931640625,-0.2603495419025421,-0.2640399932861328,-0.24370861053466797
1701886131660985000,5.360985107421875,-0.23599034547805786,-0.2983546257019043,-0.22017574310302734
1701886131677979100,5.377979248046875,-0.17015548050403595,-0.29686737060546875,-0.19608116149902344
1701886131694971400,5.394971435546875,-0.15703228116035461,-0.28946399688720703,-0.14689254760742188
1701886131711964400,5.41196435546875,-0.17742905020713806,-0.25353384017944336,-0.11214733123779297
1701886131728957200,5.428957275390625,-0.22630345821380615,-0.23711299896240234,-0.09134578704833984
1701886131745950200,5.4459501953125,-0.2659773528575897,-0.2269134521484375,-0.09010601043701172
1701886131762942700,5.462942626953125,-0.2901996672153473,-0.2501401901245117,-0.09932422637939453
1701886131779935000,5.47993505859375,-0.27133896946907043,-0.2588353157043457,-0.11385631561279297
1701886131796929300,5.49692919921875,-0.22382283210754395,-0.25159454345703125,-0.12250423431396484
1701886131813910800,5.513910888671875,-0.1774509847164154,-0.24895381927490234,-0.11218929290771484
1701886131830909400,5.530909423828125,-0.20695070922374725,-0.23252391815185547,-0.10576152801513672
1701886131847906600,5.547906494140625,-0.27372410893440247,-0.19769573211669922,-0.1380319595336914
1701886131864900900,5.56490087890625,-0.3092019557952881,-0.19153594970703125,-0.1323375701904297
1701886131881892900,5.581892822265625,-0.30119621753692627,-0.20848894119262695,-0.0930471420288086
1701886131898875100,5.598875244140625,-0.29387345910072327,-0.2314138412475586,-0.07826519012451172
1701886131915875300,5.615875244140625,-0.23429164290428162,-0.249603271484375,-0.13619232177734375
1701886131932871400,5.632871337890625,-0.1279573291540146,-0.2522101402282715,-0.14562606811523438
1701886131949864200,5.6498642578125,-0.06026715040206909,-0.22510719299316406,-0.14467620849609375
1701886131966857500,5.666857421875,-0.05044679343700409,-0.1825118064880371,-0.1473522186279297
1701886131983847000,5.683846923828125,-0.1295253038406372,-0.1592884063720703,-0.14479351043701172
1701886132000843000,5.700843017578125,-0.18298566341400146,-0.15546035766601562,-0.13730525970458984
1701886132017835800,5.717835693359375,-0.20702111721038818,-0.17571592330932617,-0.05870819091796875
1701886132034828800,5.734828857421875,-0.233429417014122,-0.1724529266357422,-0.04219245910644531
1701886132051821600,5.751821533203125,-0.17902961373329163,-0.18984556198120117,-0.02759265899658203
1701886132068814600,5.768814697265625,-0.141002357006073,-0.1848616600036621,-0.057112693786621094
1701886132085807000,5.78580712890625,-0.07545290887355804,-0.18054771423339844,-0.11087703704833984
1701886132102797000,5.802797119140625,-0.043271973729133606,-0.20978641510009766,-0.14461994171142578
1701886132119784000,5.819783935546875,-0.04447299242019653,-0.20427608489990234,-0.16815471649169922
1701886132136786000,5.836785888671875,-0.09423039853572845,-0.17412948608398438,-0.195526123046875
1701886132153779000,5.853779052734375,-0.18056553602218628,-0.18279218673706055,-0.16544342041015625
1701886132170771000,5.87077099609375,-0.20048579573631287,-0.18110227584838867,-0.1645822525024414
1701886132187765000,5.887764892578125,-0.21082770824432373,-0.20344924926757812,-0.1254720687866211
1701886132204757200,5.90475732421875,-0.17414000630378723,-0.19775915145874023,-0.13036251068115234
1701886132221750300,5.921750244140625,-0.13722309470176697,-0.2061610221862793,-0.1297435760498047
1701886132238743000,5.938742919921875,-0.09186923503875732,-0.20282983779907227,-0.12412452697753906
1701886132255735800,5.95573583984375,-0.08080543577671051,-0.19930696487426758,-0.08397483825683594
1701886132272729000,5.97272900390625,-0.14662888646125793,-0.16354703903198242,-0.09142017364501953
1701886132289721600,5.9897216796875,-0.23520821332931519,-0.15657758712768555,-0.09444713592529297
1701886132306715000,6.00671484375,-0.3087218999862671,-0.1508464813232422,-0.10259723663330078
1701886132323707100,6.02370703125,-0.3097837567329407,-0.16995620727539062,-0.09776592254638672
1701886132340685600,6.040685546875,-0.2442091405391693,-0.17956972122192383,-0.1369457244873047
1701886132357681200,6.05768115234375,-0.16384252905845642,-0.19840002059936523,-0.13257312774658203
1701886132374688300,6.074688232421875,-0.10843387246131897,-0.18640947341918945,-0.1465768814086914
1701886132391679000,6.091678955078125,-0.12287786602973938,-0.18879365921020508,-0.08222484588623047
1701886132408661000,6.108660888671875,-0.17138448357582092,-0.15801620483398438,-0.03808403015136719
1701886132425661200,6.1256611328125,-0.2721174657344818,-0.15324640274047852,-0.017429351806640625
1701886132442657300,6.1426572265625,-0.30227330327033997,-0.14494609832763672,-0.05153942108154297
1701886132459650300,6.159650390625,-0.26467931270599365,-0.17030000686645508,-0.09143352508544922
1701886132476642800,6.176642822265625,-0.18381570279598236,-0.19576692581176758,-0.1358776092529297
1701886132493633000,6.193633056640625,-0.10357603430747986,-0.20922374725341797,-0.1650228500366211
1701886132510618400,6.210618408203125,-0.08048862218856812,-0.19765996932983398,-0.1496419906616211
1701886132527622000,6.227621826171875,-0.14675436913967133,-0.16747808456420898,-0.09537220001220703
1701886132544614400,6.244614501953125,-0.23014946281909943,-0.1481175422668457,-0.05163860321044922
1701886132561607400,6.261607421875,-0.27091121673583984,-0.1545701026916504,-0.05642890930175781
1701886132578600200,6.27860009765625,-0.24096591770648956,-0.1791210174560547,-0.06246185302734375
1701886132595593200,6.29559326171875,-0.13199889659881592,-0.19453191757202148,-0.08750057220458984
1701886132612586200,6.312586181640625,-0.033908307552337646,-0.19501304626464844,-0.14662933349609375
1701886132629576400,6.329576416015625,-0.04062241315841675,-0.1942291259765625,-0.17999744415283203
1701886132646574300,6.34657421875,-0.0985892117023468,-0.20805072784423828,-0.15487098693847656
1701886132663564500,6.363564453125,-0.20005783438682556,-0.22164487838745117,-0.16791725158691406
1701886132680556800,6.380556884765625,-0.172798752784729,-0.20495891571044922,-0.1526508331298828
1701886132697551000,6.397551025390625,-0.14594191312789917,-0.1928553581237793,-0.1273784637451172
1701886132714543000,6.414543212890625,-0.13346776366233826,-0.1847214698791504,-0.12145519256591797
1701886132731536000,6.431535888671875,-0.1481930911540985,-0.15198755264282227,-0.10446834564208984
1701886132748531000,6.448531005859375,-0.1666041612625122,-0.1479473114013672,-0.059067726135253906
1701886132765517300,6.465517333984375,-0.19036979973316193,-0.14889907836914062,-0.0140533447265625
1701886132782515700,6.482515625,-0.24774779379367828,-0.1427311897277832,0.016274452209472656
1701886132799508000,6.499508056640625,-0.33432209491729736,-0.15247678756713867,-0.007130622863769531
1701886132816500200,6.516500244140625,-0.3154759705066681,-0.1728534698486328,-0.03167247772216797
1701886132833493500,6.533493408203125,-0.2063142955303192,-0.1746978759765625,-0.05803680419921875
1701886132850486000,6.550486083984375,-0.10552108287811279,-0.201019287109375,-0.11759567260742188
1701886132867478000,6.56747802734375,-0.07812172174453735,-0.19781160354614258,-0.18538570404052734
1701886132884472800,6.584472900390625,-0.09819164872169495,-0.18779420852661133,-0.18513202667236328
1701886132901461500,6.60146142578125,-0.17386557161808014,-0.16341447830200195,-0.14124584197998047
1701886132918457600,6.61845751953125,-0.2380228191614151,-0.17380666732788086,-0.1312551498413086
1701886132935450400,6.635450439453125,-0.25483354926109314,-0.1926436424255371,-0.11681461334228516
1701886132952442000,6.652442138671875,-0.18201389908790588,-0.1866474151611328,-0.12162113189697266
1701886132969436200,6.669436279296875,-0.08651676774024963,-0.1837625503540039,-0.0923471450805664
1701886132986430000,6.686429931640625,-0.034527212381362915,-0.16203022003173828,-0.07726573944091797
1701886133003418600,6.703418701171875,-0.07303047180175781,-0.1453409194946289,-0.07069969177246094
1701886133020416000,6.720416015625,-0.18763162195682526,-0.1346726417541504,-0.08360862731933594
1701886133037407700,6.73740771484375,-0.2627699077129364,-0.13435125350952148,-0.05864238739013672
1701886133054398000,6.75439794921875,-0.28095003962516785,-0.13899469375610352,-0.0867147445678711
1701886133071395800,6.771395751953125,-0.21367621421813965,-0.14267587661743164,-0.10622787475585938
1701886133088386000,6.788385986328125,-0.11740666627883911,-0.15041160583496094,-0.10143089294433594
1701886133105388800,6.805388916015625,-0.011288076639175415,-0.14867210388183594,-0.09220314025878906
1701886133122374700,6.822374755859375,-0.029000431299209595,-0.14679956436157227,-0.07634258270263672
1701886133139364900,6.83936474609375,-0.07987901568412781,-0.1347675323486328,-0.06557941436767578
1701886133156358000,6.85635791015625,-0.15926091372966766,-0.11861658096313477,-0.049454689025878906
1701886133173350700,6.8733505859375,-0.21906457841396332,-0.13228654861450195,-0.00038433074951171875
1701886133190340600,6.890340576171875,-0.23798851668834686,-0.1046452522277832,-0.024877548217773438
1701886133207338800,6.9073388671875,-0.19439677894115448,-0.1303715705871582,-0.04526519775390625
1701886133224329000,6.924328857421875,-0.09668761491775513,-0.1515955924987793,-0.07180309295654297
1701886133241322000,6.941322021484375,-0.04701857268810272,-0.18257617950439453,-0.10172843933105469
1701886133258314000,6.95831396484375,-0.031199246644973755,-0.18380069732666016,-0.10298824310302734
1701886133275308500,6.97530859375,-0.08349987864494324,-0.19910621643066406,-0.09330558776855469
1701886133292300300,6.99230029296875,-0.13175860047340393,-0.18545913696289062,-0.10262680053710938
1701886133309301500,7.009301513671875,-0.18905362486839294,-0.1956930160522461,-0.10744857788085938
1701886133326286300,7.026286376953125,-0.1820717304944992,-0.1907644271850586,-0.09784984588623047
1701886133343279400,7.043279296875,-0.17935335636138916,-0.20049142837524414,-0.06450366973876953
1701886133360272100,7.060272216796875,-0.1676718294620514,-0.1822199821472168,-0.10808658599853516
1701886133377264000,7.07726416015625,-0.1846427619457245,-0.1828289031982422,-0.13178348541259766
1701886133394258400,7.094258544921875,-0.14997851848602295,-0.1728973388671875,-0.1421194076538086
1701886133411250700,7.111250732421875,-0.1570734679698944,-0.20242786407470703,-0.12792301177978516
1701886133428243700,7.12824365234375,-0.1593056321144104,-0.22178220748901367,-0.1424551010131836
1701886133445236500,7.145236572265625,-0.1274869292974472,-0.2402477264404297,-0.16644001007080078
1701886133462229200,7.162229248046875,-0.06292824447154999,-0.22870635986328125,-0.18526268005371094
1701886133479222000,7.179221923828125,-0.031949177384376526,-0.21918010711669922,-0.17813873291015625
1701886133496215000,7.196215087890625,-0.029433652758598328,-0.16042804718017578,-0.14638423919677734
1701886133513204500,7.21320458984375,-0.10199451446533203,-0.14159011840820312,-0.08108329772949219
1701886133530200800,7.230200927734375,-0.18758440017700195,-0.11954975128173828,-0.0647726058959961
1701886133547193300,7.247193359375,-0.24420836567878723,-0.1369767189025879,-0.010463714599609375
1701886133564186400,7.264186279296875,-0.1566564440727234,-0.12999296188354492,-0.015081405639648438
1701886133581176000,7.281176025390625,-0.04621535539627075,-0.14400672912597656,-0.040358543395996094
1701886133598175700,7.29817578125,0.011543288826942444,-0.15032625198364258,-0.11774349212646484
1701886133615165000,7.3151650390625,0.013265833258628845,-0.16462087631225586,-0.17549705505371094
1701886133632157700,7.33215771484375,0.01043902337551117,-0.15339422225952148,-0.16034221649169922
1701886133649150700,7.349150634765625,-0.016807779669761658,-0.13231945037841797,-0.13036251068115234
1701886133666143500,7.3661435546875,-0.09678024053573608,-0.11703252792358398,-0.10507774353027344
1701886133683138600,7.383138671875,-0.16276361048221588,-0.10749197006225586,-0.0997304916381836
1701886133700128800,7.400128662109375,-0.1332925260066986,-0.11728954315185547,-0.0950784683227539
1701886133717123000,7.417123046875,-0.061818912625312805,-0.1449909210205078,-0.08110332489013672
1701886133734114800,7.43411474609375,-0.023337259888648987,-0.14900875091552734,-0.038229942321777344
1701886133751105500,7.45110546875,-0.03279159963130951,-0.11550235748291016,-0.04301261901855469
1701886133768099800,7.468099853515625,-0.11398795247077942,-0.10652446746826172,-0.051987648010253906
1701886133785084000,7.485083984375,-0.1677965521812439,-0.09729480743408203,-0.051537513732910156
1701886133802086700,7.502086669921875,-0.21348519623279572,-0.09841442108154297,-0.08974838256835938
1701886133819079200,7.5190791015625,-0.2209337055683136,-0.11874723434448242,-0.12859249114990234
1701886133836072700,7.53607275390625,-0.20789942145347595,-0.1287822723388672,-0.16289520263671875
1701886133853065200,7.553065185546875,-0.16945813596248627,-0.1378631591796875,-0.13393688201904297
1701886133870058000,7.57005810546875,-0.16683970391750336,-0.1419978141784668,-0.08579444885253906
1701886133887050800,7.58705078125,-0.16394412517547607,-0.13625240325927734,-0.05664539337158203
1701886133904040200,7.604040283203125,-0.15763291716575623,-0.13463354110717773,-0.027128219604492188
1701886133921043500,7.62104345703125,-0.1479376256465912,-0.1284198760986328,0.0023221969604492188
1701886133938029600,7.638029541015625,-0.15813051164150238,-0.10872745513916016,-0.016539573669433594
1701886133955022600,7.655022705078125,-0.1901237815618515,-0.11867284774780273,-0.030817031860351562
1701886133972015000,7.67201513671875,-0.23005932569503784,-0.11394023895263672,-0.049457550048828125
1701886133989008100,7.689008056640625,-0.23203715682029724,-0.11391592025756836,-0.0638742446899414
1701886134006001200,7.706001220703125,-0.1955660879611969,-0.11822748184204102,-0.06938552856445312
1701886134022990800,7.722990966796875,-0.1788603663444519,-0.1086277961730957,-0.10771751403808594
1701886134039999500,7.73999951171875,-0.18035519123077393,-0.12260580062866211,-0.09323692321777344
1701886134056979700,7.756979736328125,-0.19033955037593842,-0.10914278030395508,-0.0545806884765625
1701886134073972500,7.773972412109375,-0.16685307025909424,-0.10552358627319336,-0.041500091552734375
1701886134090964700,7.79096484375,-0.14262866973876953,-0.11613798141479492,-0.04722023010253906
1701886134107959300,7.807959228515625,-0.10888209939002991,-0.11772537231445312,-0.07204914093017578
1701886134124951000,7.824950927734375,-0.057341352105140686,-0.11844921112060547,-0.07309150695800781
1701886134141943800,7.84194384765625,-0.044968076050281525,-0.12356328964233398,-0.07809257507324219
1701886134158936800,7.858936767578125,-0.038619473576545715,-0.09533119201660156,-0.09272289276123047
1701886134175929600,7.8759296875,-0.1315554976463318,-0.09217214584350586,-0.05948925018310547
1701886134192922600,7.892922607421875,-0.19495323300361633,-0.0918130874633789,-0.07525157928466797
1701886134209915400,7.909915283203125,-0.1809263974428177,-0.12445545196533203,-0.13026905059814453
1701886134226908700,7.92690869140625,-0.016114212572574615,-0.14091014862060547,-0.15202713012695312
1701886134243901200,7.943901123046875,0.08141018450260162,-0.16058731079101562,-0.12001419067382812
1701886134260894000,7.96089404296875,0.01479126513004303,-0.1319293975830078,-0.07158470153808594
1701886134277886000,7.977885986328125,-0.13756637275218964,-0.08213567733764648,-0.01319122314453125
1701886134294880300,7.99488037109375,-0.18587540090084076,-0.052362918853759766,-0.005496978759765625
1701886134311872800,8.011872802734375,-0.1715751737356186,-0.0813450813293457,-0.027193069458007812
1701886134328865300,8.028865234375,-0.15348687767982483,-0.12471342086791992,-0.06803321838378906
1701886134345855200,8.045855224609374,-0.11022253334522247,-0.14289617538452148,-0.07564640045166016
1701886134362851300,8.062851318359375,-0.10098983347415924,-0.15655851364135742,-0.1016378402709961
1701886134379845000,8.07984521484375,-0.08159232139587402,-0.16474676132202148,-0.12249374389648438
1701886134396836000,8.096836181640626,-0.04996803402900696,-0.16147518157958984,-0.14806079864501953
1701886134413826600,8.11382666015625,-0.07530251145362854,-0.16385459899902344,-0.15311908721923828
1701886134430813000,8.13081298828125,-0.11409993469715118,-0.1563420295715332,-0.19243907928466797
1701886134447815700,8.147815673828125,-0.13678500056266785,-0.176300048828125,-0.1832866668701172
1701886134464808400,8.164808349609375,-0.10770510137081146,-0.19039011001586914,-0.15444374084472656
1701886134481801200,8.18180126953125,-0.08339034020900726,-0.19415998458862305,-0.13538742065429688
1701886134498794000,8.1987939453125,-0.07471486926078796,-0.18708419799804688,-0.15337657928466797
1701886134515779000,8.215779052734375,-0.06611305475234985,-0.15910720825195312,-0.1561136245727539
1701886134532779500,8.232779541015624,-0.04833930730819702,-0.1488971710205078,-0.1294384002685547
1701886134549772800,8.249772705078126,-0.08299478143453598,-0.13349676132202148,-0.09716129302978516
1701886134566765800,8.266765869140626,-0.15982584655284882,-0.11947059631347656,-0.06050300598144531
1701886134583758600,8.283758544921875,-0.2178792506456375,-0.10109710693359375,-0.05786418914794922
1701886134600748800,8.300748779296875,-0.17483003437519073,-0.10234642028808594,-0.04230690002441406
1701886134617747000,8.317746826171875,-0.07522785663604736,-0.11282873153686523,-0.02209186553955078
1701886134634737200,8.334737060546875,-0.07085675001144409,-0.11538457870483398,0.007770538330078125
1701886134651730200,8.351730224609375,-0.12965275347232819,-0.1052999496459961,-0.001216888427734375
1701886134668722700,8.36872265625,-0.17426429688930511,-0.09943819046020508,0.009527206420898438
1701886134685715500,8.385715576171876,-0.1851915568113327,-0.08021926879882812,0.019158363342285156
1701886134702708700,8.402708740234376,-0.19073092937469482,-0.08605813980102539,-0.0100860595703125
1701886134719691000,8.41969091796875,-0.17103463411331177,-0.10193490982055664,-0.025223731994628906
1701886134736694500,8.436694580078125,-0.16559292376041412,-0.10445213317871094,-0.007366180419921875
1701886134753687000,8.45368701171875,-0.1848454624414444,-0.10825586318969727,-0.05237007141113281
1701886134770679800,8.4706796875,-0.18940310180187225,-0.11716985702514648,-0.10232734680175781
1701886134787672000,8.487672119140624,-0.1299796998500824,-0.13465070724487305,-0.10483646392822266
1701886134804666400,8.504666259765624,-0.09344607591629028,-0.1523284912109375,-0.11134624481201172
1701886134821658600,8.52165869140625,-0.08578242361545563,-0.15481901168823242,-0.12222003936767578
1701886134838651400,8.5386513671875,-0.05586928874254227,-0.15134668350219727,-0.1043558120727539
1701886134855644400,8.55564453125,-0.03720442205667496,-0.1564335823059082,-0.10450172424316406
1701886134872637400,8.572637451171875,-0.02788163721561432,-0.13722658157348633,-0.10446357727050781
1701886134889630200,8.589630126953125,-0.08812566101551056,-0.13268327713012695,-0.08008098602294922
1701886134906623200,8.606623291015625,-0.14826266467571259,-0.11484909057617188,-0.05114936828613281
1701886134923613000,8.623613037109376,-0.1675444096326828,-0.1258091926574707,-0.02791881561279297
1701886134940605700,8.640605712890626,-0.14149339497089386,-0.11354684829711914,-0.06243896484375
1701886134957604400,8.657604248046875,-0.09128084778785706,-0.14834880828857422,-0.11181831359863281
1701886134974594600,8.674594482421876,0.008037656545639038,-0.16683149337768555,-0.17998313903808594
1701886134991587300,8.69158740234375,0.04641637206077576,-0.15851116180419922,-0.1542816162109375
1701886135008567000,8.708567138671874,-0.039233990013599396,-0.12459945678710938,-0.11246776580810547
1701886135025576000,8.725575927734376,-0.1580810397863388,-0.07083272933959961,-0.0744924545288086
1701886135042566000,8.74256591796875,-0.2326211780309677,-0.055434226989746094,-0.023116111755371094
1701886135059559000,8.759558837890625,-0.22514110803604126,-0.04646158218383789,0.022339820861816406
1701886135076551400,8.776551513671874,-0.17089803516864777,-0.04747152328491211,0.03289794921875
1701886135093544700,8.793544677734374,-0.1547822654247284,-0.0748753547668457,0.023962974548339844
1701886135110526200,8.810526123046875,-0.12521706521511078,-0.08851194381713867,-0.00022029876708984375
1701886135127531000,8.827531005859376,-0.08566129952669144,-0.08751153945922852,-0.01917743682861328
1701886135144520400,8.8445205078125,-0.04205261915922165,-0.10659408569335938,-0.07241439819335938
1701886135161517000,8.86151708984375,0.00756266713142395,-0.08567571640014648,-0.08620071411132812
1701886135178508000,8.878508056640625,-0.015020102262496948,-0.08434152603149414,-0.08523941040039062
1701886135195502300,8.89550244140625,-0.0666915699839592,-0.07261848449707031,-0.08356189727783203
1701886135212494800,8.912494873046874,-0.11756543815135956,-0.07114362716674805,-0.038857460021972656
1701886135229487600,8.929487548828124,-0.1203688383102417,-0.06496047973632812,-0.028594970703125
1701886135246480600,8.946480712890626,-0.11404424160718918,-0.07356500625610352,-0.037705421447753906
1701886135263473400,8.963473388671876,-0.07459434866905212,-0.081451416015625,-0.0712747573852539
1701886135280466200,8.980466064453125,-0.039965733885765076,-0.0798807144165039,-0.09441852569580078
1701886135297458200,8.997458251953125,-0.0016279816627502441,-0.07193231582641602,-0.10329246520996094
1701886135314452500,9.014452392578125,-0.005644716322422028,-0.07764244079589844,-0.09654903411865234
1701886135331443000,9.03144287109375,-0.027971945703029633,-0.08311700820922852,-0.07502460479736328
1701886135348437500,9.0484375,-0.0832250714302063,-0.04972362518310547,-0.052916526794433594
1701886135365430500,9.065430419921874,-0.09426309168338776,-0.050783634185791016,0.0019025802612304688
1701886135382423300,9.08242333984375,-0.10075698792934418,-0.052620887756347656,-0.010984420776367188
1701886135399416300,9.099416259765626,-0.13353149592876434,-0.06924200057983398,-0.03304004669189453
1701886135416409300,9.116409423828125,-0.1161687970161438,-0.07033586502075195,-0.05535888671875
1701886135433398800,9.133398681640625,-0.08060906082391739,-0.05725908279418945,-0.07805824279785156
1701886135450395000,9.150394775390625,-0.0757298618555069,-0.058115482330322266,-0.0808267593383789
1701886135467387400,9.167387451171875,-0.1533038169145584,-0.022152423858642578,-0.035625457763671875
1701886135484370200,9.1843701171875,-0.2393655627965927,-0.016484737396240234,-0.010388374328613281
1701886135501372700,9.20137255859375,-0.21287685632705688,-0.024333953857421875,-0.019410133361816406
1701886135518367000,9.218366943359374,-0.11826267838478088,-0.03244304656982422,-0.038392066955566406
1701886135535358000,9.23535791015625,-0.004655599594116211,-0.040349483489990234,-0.07252979278564453
1701886135552353300,9.252353271484376,0.005970492959022522,-0.0391998291015625,-0.09140872955322266
1701886135569344800,9.2693447265625,-0.03266224265098572,-0.04414081573486328,-0.07626819610595703
1701886135586337500,9.286337646484375,-0.07567833364009857,-0.04890251159667969,-0.052376747131347656
1701886135603328800,9.303328857421874,-0.07001388818025589,-0.038898468017578125,-0.07131004333496094
1701886135620322800,9.32032275390625,0.015351250767707825,-0.04754304885864258,-0.0379180908203125
1701886135637317400,9.3373173828125,0.07552042603492737,-0.0519099235534668,-0.057735443115234375
1701886135654309000,9.35430908203125,0.07482577860355377,-0.05727243423461914,-0.067596435546875
1701886135671302100,9.37130224609375,0.015283636748790741,-0.07641458511352539,-0.0909109115600586
1701886135688294400,9.38829443359375,-0.030277498066425323,-0.07726860046386719,-0.09579849243164062
1701886135705286000,9.405285888671875,-0.03615069389343262,-0.11185026168823242,-0.09633731842041016
1701886135722283300,9.422283203125,0.02247539907693863,-0.08802604675292969,-0.1205911636352539
1701886135739273700,9.439273681640625,0.02704790234565735,-0.09108829498291016,-0.10588359832763672
1701886135756266800,9.456266845703125,0.00712207704782486,-0.06879663467407227,-0.07966136932373047
1701886135773259300,9.47325927734375,-0.05819264054298401,-0.05219125747680664,-0.058402061462402344
1701886135790252300,9.490252197265624,-0.09327906370162964,-0.040740013122558594,-0.019115447998046875
1701886135807244500,9.50724462890625,-0.16126328706741333,-0.059871673583984375,0.024898529052734375
1701886135824228000,9.52422802734375,-0.18834781646728516,-0.06525611877441406,0.029419898986816406
1701886135841229300,9.541229248046875,-0.18770727515220642,-0.0954737663269043,0.009561538696289062
1701886135858225000,9.558224853515625,-0.1451987624168396,-0.10605859756469727,-0.04923248291015625
1701886135875216100,9.575216064453125,-0.08117657899856567,-0.11228466033935547,-0.08403873443603516
1701886135892210200,9.592210205078125,-0.09213833510875702,-0.10356950759887695,-0.08385944366455078
1701886135909207600,9.60920751953125,-0.16535791754722595,-0.09927511215209961,-0.07451915740966797
1701886135926195200,9.6261953125,-0.20458680391311646,-0.09089946746826172,-0.05984687805175781
1701886135943177200,9.64317724609375,-0.2189185470342636,-0.1067662239074707,-0.027115821838378906
1701886135960172000,9.660172119140626,-0.19444012641906738,-0.11420679092407227,-0.07157325744628906
1701886135977165000,9.6771650390625,-0.15016834437847137,-0.13937759399414062,-0.10186290740966797
1701886135994156000,9.694156005859375,-0.05745825916528702,-0.14496994018554688,-0.1029043197631836
1701886136011158800,9.71115869140625,-0.02168944478034973,-0.14010047912597656,-0.07927608489990234
1701886136028153300,9.7281533203125,-0.061772316694259644,-0.12254858016967773,-0.07504653930664062
1701886136045145000,9.74514501953125,-0.13081465661525726,-0.11851644515991211,-0.0892343521118164
1701886136062138400,9.762138427734374,-0.12405496090650558,-0.10901308059692383,-0.04143238067626953
1701886136079131100,9.779131103515626,-0.07938665896654129,-0.10531044006347656,-0.02286052703857422
1701886136096124000,9.7961240234375,-0.03569786995649338,-0.09801149368286133,-0.06772518157958984
1701886136113116700,9.81311669921875,-0.01965053379535675,-0.09948062896728516,-0.09274864196777344
1701886136130109400,9.830109375,0.01084849238395691,-0.09107446670532227,-0.09815788269042969
1701886136147103000,9.84710302734375,0.01270093023777008,-0.11556148529052734,-0.08948802947998047
1701886136164095500,9.864095458984375,-0.03989556431770325,-0.11078071594238281,-0.0838003158569336
1701886136181088300,9.881088134765625,-0.08765140920877457,-0.08638858795166016,-0.049457550048828125
1701886136198080300,9.898080322265624,-0.0786367729306221,-0.05822181701660156,-0.04015827178955078
1701886136215074800,9.91507470703125,-0.05520264059305191,-0.0785818099975586,-0.03599071502685547
1701886136232066800,9.93206689453125,-0.03695939481258392,-0.08014154434204102,-0.0756692886352539
1701886136249057000,9.94905712890625,-0.04159768670797348,-0.10983037948608398,-0.08095836639404297
1701886136266052400,9.96605224609375,-0.05623412877321243,-0.11441469192504883,-0.09042167663574219
1701886136283045600,9.983045654296875,-0.10824000835418701,-0.11379241943359375,-0.05600738525390625
1701886136300038400,10.000038330078125,-0.16495728492736816,-0.10474443435668945,-0.03622913360595703
1701886136317031400,10.017031494140625,-0.17983169853687286,-0.1051626205444336,-0.03643512725830078
1701886136334021000,10.034021240234376,-0.13933077454566956,-0.12434196472167969,-0.05138206481933594
1701886136351017200,10.051017333984374,-0.09369568526744843,-0.13326358795166016,-0.06089496612548828
1701886136368009700,10.068009765625,-0.13400518894195557,-0.13874292373657227,-0.09473037719726562
1701886136385002800,10.085002685546876,-0.21516820788383484,-0.13077497482299805,-0.11379241943359375
1701886136401998800,10.101998779296874,-0.24155312776565552,-0.16996097564697266,-0.1382160186767578
1701886136418985700,10.11898583984375,-0.11694866418838501,-0.17727279663085938,-0.17148208618164062
1701886136435981300,10.135981201171875,-0.0019264891743659973,-0.17676591873168945,-0.1367645263671875
1701886136452974300,10.152974365234375,-0.012335136532783508,-0.10770082473754883,-0.14699649810791016
1701886136469967400,10.16996728515625,-0.09965752065181732,-0.08585596084594727,-0.08005523681640625
1701886136486959900,10.1869599609375,-0.15270504355430603,-0.039902687072753906,0.006123542785644531
1701886136503952600,10.20395263671875,-0.19196277856826782,-0.0383000373840332,0.09585189819335938
1701886136520945200,10.220945068359375,-0.1768474578857422,-0.014463424682617188,0.12220096588134766
1701886136537939500,10.237939453125,-0.18572646379470825,-0.022374629974365234,0.08954524993896484
1701886136554926600,10.254926513671874,-0.1509336233139038,-0.0079193115234375,0.007898330688476562
1701886136571924500,10.271924560546875,-0.10070151090621948,-0.037142276763916016,-0.05074787139892578
1701886136588917500,10.28891748046875,0.01672905683517456,-0.041765689849853516,-0.08989429473876953
1701886136605910000,10.305909912109374,0.06631098687648773,-0.05533933639526367,-0.10447216033935547
1701886136622902800,10.32290283203125,0.05819682776927948,-0.04848194122314453,-0.1082000732421875
1701886136639895800,10.339895751953126,0.0501633882522583,-0.04083538055419922,-0.0732269287109375
1701886136656889000,10.35688916015625,0.0032682493329048157,-0.02432537078857422,-0.03291797637939453
1701886136673881600,10.373881591796875,-0.03449881821870804,-0.012591361999511719,-0.012052536010742188
1701886136690874400,10.390874267578125,-0.04976441338658333,-0.01581287384033203,-0.011227607727050781
1701886136707866600,10.40786669921875,-0.04079947993159294,-0.015149116516113281,-0.02523326873779297
1701886136724872400,10.42487255859375,0.0010691061615943909,-0.01989459991455078,-0.05930137634277344
1701886136741853400,10.441853515625,0.018225356936454773,-0.042555809020996094,-0.0685110092163086
1701886136758846000,10.458845947265624,0.01588881015777588,-0.04064035415649414,-0.07226943969726562
1701886136775838700,10.475838623046876,-0.009784199297428131,-0.0533289909362793,-0.056702613830566406
1701886136792826000,10.492826171875,-0.05405072122812271,-0.04682588577270508,-0.012116432189941406
1701886136809824800,10.50982470703125,-0.09411987662315369,-0.0367889404296875,-0.03577899932861328
1701886136826817500,10.526817626953125,-0.09111294895410538,-0.055591583251953125,-0.030793190002441406
1701886136843807200,10.54380712890625,-0.04532640427350998,-0.05988788604736328,-0.03589439392089844
1701886136860803300,10.56080322265625,-0.04722440987825394,-0.07799959182739258,-0.03532981872558594
1701886136877796000,10.577796142578125,-0.05904165655374527,-0.07166051864624023,-0.044068336486816406
1701886136894788900,10.594788818359374,-0.10786812752485275,-0.07056570053100586,-0.014163970947265625
1701886136911780400,10.6117802734375,-0.20368275046348572,-0.06196928024291992,0.0006036758422851562
1701886136928776200,10.628776123046874,-0.22242127358913422,-0.06841373443603516,-0.024194717407226562
1701886136945762600,10.645762451171874,-0.15536263585090637,-0.10341691970825195,-0.03515911102294922
1701886136962760400,10.662760498046875,-0.04586351662874222,-0.10481452941894531,-0.0702962875366211
1701886136979751000,10.6797509765625,-0.02740451693534851,-0.13492155075073242,-0.109619140625
1701886136996748800,10.696748779296875,-0.0563938245177269,-0.13087224960327148,-0.1530780792236328
1701886137013739300,10.7137392578125,-0.12729382514953613,-0.13037729263305664,-0.15192127227783203
1701886137030731000,10.73073095703125,-0.14957839250564575,-0.10852479934692383,-0.1553192138671875
1701886137047725600,10.7477255859375,-0.13762198388576508,-0.09039115905761719,-0.10072898864746094
1701886137064717600,10.764717529296876,-0.1346217393875122,-0.058681488037109375,-0.06091117858886719
1701886137081706500,10.78170654296875,-0.09856466203927994,-0.042144775390625,-0.07416439056396484
1701886137098706700,10.798706787109374,-0.06387001276016235,-0.045302391052246094,-0.07812023162841797
1701886137115697400,10.815697509765625,-0.023186318576335907,-0.06348752975463867,-0.07856178283691406
1701886137132689200,10.832689208984375,0.05646838992834091,-0.08768510818481445,-0.1176300048828125
1701886137149681000,10.849680908203124,0.1401597261428833,-0.09025859832763672,-0.11741161346435547
1701886137166674000,10.866673828125,0.1691279411315918,-0.07671451568603516,-0.08662223815917969
1701886137183670500,10.88367041015625,0.1500532478094101,-0.0334467887878418,-0.06964683532714844
1701886137200661000,10.900660888671876,0.0830969363451004,0.008877754211425781,-0.018751144409179688
1701886137217652700,10.91765283203125,-0.008566461503505707,0.030343055725097656,0.03125476837158203
1701886137234645800,10.934645751953125,-0.06275278329849243,0.03044748306274414,0.055861473083496094
1701886137251641000,10.95164111328125,-0.051599569618701935,0.013877391815185547,0.01644420623779297
1701886137268632000,10.968632080078125,0.03986470401287079,-0.04079914093017578,-0.03394317626953125
1701886137285625000,10.985625,0.14475564658641815,-0.06609392166137695,-0.0690145492553711
1701886137302617900,11.002617919921875,0.18732264637947083,-0.07663774490356445,-0.0987701416015625
1701886137319611100,11.019611083984374,0.12085370719432831,-0.08550834655761719,-0.07380867004394531
1701886137336604000,11.03660400390625,-0.026411600410938263,-0.07636165618896484,-0.024277687072753906
1701886137353595000,11.053594970703125,-0.10954074561595917,-0.06133747100830078,-0.01844310760498047
1701886137370588000,11.070587890625,-0.15540683269500732,-0.0472712516784668,-0.008900642395019531
1701886137387582200,11.087582275390625,-0.14324815571308136,-0.06232452392578125,-0.018718719482421875
1701886137404571000,11.10457080078125,-0.10571642220020294,-0.05835771560668945,-0.029219627380371094
1701886137421564000,11.12156396484375,-0.1481332629919052,-0.06879615783691406,-0.04815387725830078
1701886137438562000,11.13856201171875,-0.2129732221364975,-0.0646204948425293,-0.052298545837402344
1701886137455551200,11.15555126953125,-0.23908184468746185,-0.06408500671386719,-0.02803802490234375
1701886137472549000,11.172549072265625,-0.21717554330825806,-0.06821584701538086,-0.0084991455078125
1701886137489539600,11.18953955078125,-0.22317448258399963,-0.06366395950317383,0.010542869567871094
1701886137506532600,11.20653271484375,-0.25630390644073486,-0.050641536712646484,-0.014103889465332031
1701886137523525600,11.223525634765625,-0.23959405720233917,-0.07091665267944336,-0.04345703125
1701886137540517400,11.240517333984375,-0.17549903690814972,-0.08071565628051758,-0.04452228546142578
1701886137557512000,11.257511962890625,-0.11160869896411896,-0.07691621780395508,-0.055253028869628906
1701886137574504000,11.27450390625,-0.08924604952335358,-0.07318305969238281,-0.04629039764404297
1701886137591490600,11.291490478515625,-0.10457390546798706,-0.0689992904663086,-0.07538986206054688
1701886137608491300,11.3084912109375,-0.08275388181209564,-0.058789730072021484,-0.06553173065185547
1701886137625483800,11.32548388671875,-0.01818758249282837,-0.03368806838989258,-0.041342735290527344
1701886137642475500,11.3424755859375,0.003810778260231018,-0.0476994514465332,-0.04181098937988281
1701886137659468300,11.35946826171875,0.016514405608177185,-0.047238826751708984,-0.03204917907714844
1701886137676461300,11.37646142578125,0.02840590476989746,-0.04651594161987305,-0.017353057861328125
1701886137693454300,11.393454345703125,0.048902153968811035,-0.0321044921875,-0.0029802322387695312
1701886137710447000,11.410447021484375,0.04942196607589722,-0.03729867935180664,-0.007988929748535156
1701886137727440100,11.427440185546875,0.011471256613731384,-0.028191089630126953,-0.008235931396484375
1701886137744427300,11.44442724609375,-0.007297113537788391,-0.05743408203125,-0.018090248107910156
1701886137761429500,11.461429443359375,-0.01272013783454895,-0.03789663314819336,-0.026856422424316406
1701886137778418200,11.478418212890626,-0.036184631288051605,-0.028584003448486328,-0.007533073425292969
1701886137795411500,11.495411376953125,-0.06484529376029968,-0.029392719268798828,0.01597118377685547
1701886137812404500,11.512404541015625,-0.11803177744150162,-0.02730083465576172,-0.008761405944824219
1701886137829397200,11.529397216796875,-0.11450327932834625,-0.05022239685058594,-0.03464698791503906
1701886137846390000,11.54639013671875,-0.08184345811605453,-0.0972747802734375,-0.08517837524414062
1701886137863379700,11.563379638671876,-0.005538076162338257,-0.10997533798217773,-0.1403799057006836
1701886137880376000,11.5803759765625,0.07057787477970123,-0.11572742462158203,-0.16094017028808594
1701886137897368800,11.597368896484374,0.055484771728515625,-0.11499214172363281,-0.15575695037841797
1701886137914361300,11.614361328125,0.007428348064422607,-0.0941009521484375,-0.15871620178222656
1701886137931353600,11.631353515625,-0.048948585987091064,-0.0803079605102539,-0.1032705307006836
1701886137948348200,11.64834814453125,-0.09062296152114868,-0.05641651153564453,0.0143890380859375
1701886137965340200,11.665340087890625,-0.142011359333992,-0.029527664184570312,0.09342002868652344
1701886137982333200,11.682333251953125,-0.18440622091293335,-0.015077590942382812,0.1084136962890625
1701886137999326000,11.699325927734375,-0.16976456344127655,-0.04648780822753906,0.04896068572998047
1701886138016319000,11.716319091796874,-0.08886416256427765,-0.0643000602722168,-0.020771026611328125
1701886138033311500,11.7333115234375,0.010826826095581055,-0.09612274169921875,-0.09988212585449219
1701886138050294300,11.750294189453125,0.038417965173721313,-0.07912588119506836,-0.15395832061767578
1701886138067297300,11.76729736328125,0.02465100586414337,-0.09520244598388672,-0.15933799743652344
1701886138084290600,11.78429052734375,-0.003700926899909973,-0.06156349182128906,-0.14969921112060547
1701886138101283300,11.801283447265625,-0.026722759008407593,-0.0746006965637207,-0.10055351257324219
1701886138118275000,11.818275146484375,-0.03144291788339615,-0.04973173141479492,-0.08092021942138672
1701886138135268900,11.835268798828125,-0.06273390352725983,-0.05956220626831055,-0.061626434326171875
1701886138152262700,11.8522626953125,-0.02715044468641281,-0.06343507766723633,-0.06149578094482422
1701886138169254700,11.869254638671874,0.0066964030265808105,-0.0867929458618164,-0.037872314453125
1701886138186251800,11.886251708984375,0.053113892674446106,-0.063232421875,-0.004532814025878906
1701886138203240400,11.903240478515626,0.030637145042419434,-0.03630685806274414,-0.058073997497558594
1701886138220233200,11.920233154296875,0.019881799817085266,-0.041968345642089844,-0.0680837631225586
1701886138237225200,11.93722509765625,0.010102376341819763,-0.04701042175292969,-0.053847312927246094
1701886138254217000,11.954217041015625,0.027824684977531433,-0.04738044738769531,-0.039661407470703125
1701886138271211800,11.971211669921875,0.007113277912139893,-0.05308723449707031,-0.044899940490722656
1701886138288205000,11.988205078125,-0.01835860311985016,-0.05812501907348633,-0.04440784454345703
1701886138305195000,12.005195068359376,-0.014868095517158508,-0.04930591583251953,0.012969970703125
1701886138322182700,12.0221826171875,-0.021164029836654663,-0.04204273223876953,0.045302391052246094
1701886138339183600,12.03918359375,-0.03856561332941055,-0.06482076644897461,0.019533157348632812
1701886138356176400,12.05617626953125,-0.08515526354312897,-0.10669088363647461,0.0033721923828125
1701886138373169200,12.073169189453125,-0.10805588960647583,-0.13311767578125,-0.026584625244140625
1701886138390162200,12.090162109375,-0.11955676227807999,-0.12475013732910156,-0.04631614685058594
1701886138407155200,12.1071552734375,-0.15848979353904724,-0.12093925476074219,-0.04621315002441406
1701886138424148000,12.12414794921875,-0.21635261178016663,-0.10260438919067383,-0.07953643798828125
1701886138441141000,12.14114111328125,-0.2444162666797638,-0.09436941146850586,-0.09428977966308594
1701886138458133200,12.15813330078125,-0.2383173704147339,-0.09386491775512695,-0.11351490020751953
1701886138475126500,12.17512646484375,-0.18674089014530182,-0.12131404876708984,-0.09437084197998047
1701886138492119600,12.19211962890625,-0.14063304662704468,-0.09958362579345703,-0.06914997100830078
1701886138509112300,12.2091123046875,-0.12155911326408386,-0.08727693557739258,-0.034300804138183594
1701886138526105300,12.226105224609375,-0.12029110640287399,-0.07477712631225586,-0.008940696716308594
1701886138543097900,12.243097900390625,-0.148559108376503,-0.06736993789672852,0.026151657104492188
1701886138560091000,12.2600908203125,-0.1523808091878891,-0.06571292877197266,0.03710460662841797
1701886138577084000,12.277083984375,-0.07572896778583527,-0.06457710266113281,-0.011159896850585938
1701886138594066200,12.294066162109376,0.02967476099729538,-0.062418460845947266,-0.030763626098632812
1701886138611069700,12.311069580078126,0.06652704626321793,-0.0301055908203125,-0.052867889404296875
1701886138628061700,12.328061767578125,0.03801640123128891,0.017307758331298828,-0.02613067626953125
1701886138645046800,12.345046875,-0.04978221654891968,0.03964567184448242,0.029008865356445312
1701886138662048300,12.36204833984375,-0.1516214907169342,0.05094432830810547,0.0887613296508789
1701886138679040000,12.3790400390625,-0.19243375957012177,0.04603433609008789,0.09372234344482422
1701886138696031500,12.396031494140624,-0.12233109772205353,0.050321102142333984,0.05422019958496094
1701886138713032700,12.41303271484375,-0.0038433820009231567,0.04305410385131836,-0.005466461181640625
1701886138730019800,12.430019775390624,0.11207598447799683,0.020944595336914062,-0.05165576934814453
1701886138747012600,12.4470126953125,0.17149849236011505,-0.02911233901977539,-0.0681304931640625
1701886138764002000,12.464001953125,0.19456340372562408,-0.04906415939331055,-0.06858444213867188
1701886138780998100,12.480998046875,0.1536116600036621,-0.044648170471191406,-0.04395103454589844
1701886138797991400,12.497991455078125,0.09632069617509842,-0.0012784004211425781,-0.0479888916015625
1701886138814984000,12.51498388671875,-0.003264479339122772,0.00801229476928711,-0.023298263549804688
1701886138831977000,12.53197705078125,-0.04536578431725502,0.03152322769165039,-0.018731117248535156
1701886138848969700,12.5489697265625,-0.044884007424116135,0.015340328216552734,-0.03405189514160156
1701886138865962800,12.565962646484374,-0.019656531512737274,-0.02055978775024414,-0.06881237030029297
1701886138882955800,12.582955810546874,0.013699691742658615,-0.03619050979614258,-0.08443450927734375
1701886138899947800,12.59994775390625,0.03187689930200577,-0.04952573776245117,-0.07942008972167969
1701886138916942300,12.6169423828125,0.007728271186351776,-0.04364824295043945,-0.04024982452392578
1701886138933934300,12.633934326171875,-0.0392446331679821,-0.02757883071899414,-0.005260467529296875
1701886138950926300,12.65092626953125,-0.10513558238744736,-0.01756572723388672,0.019806861877441406
1701886138967919900,12.667919921875,-0.147308811545372,-0.007842063903808594,0.044409751892089844
1701886138984906800,12.68490673828125,-0.15664157271385193,-0.014521598815917969,0.019486427307128906
1701886139001906000,12.701906005859374,-0.14083807170391083,-0.031929969787597656,-0.040144920349121094
1701886139018898000,12.71889794921875,-0.11504694819450378,-0.0485076904296875,-0.07481670379638672
1701886139035892500,12.735892578125,-0.07984121888875961,-0.057880401611328125,-0.08939361572265625
1701886139052884700,12.752884765625,-0.06876777857542038,-0.033542633056640625,-0.0652618408203125
1701886139069877200,12.769877197265625,-0.09933608770370483,-0.023499011993408203,-0.07938766479492188
1701886139086870300,12.786870361328125,-0.1615210622549057,-0.01822519302368164,-0.054320335388183594
1701886139103863000,12.803863037109375,-0.1135759949684143,-0.02207469940185547,0.012549400329589844
1701886139120856000,12.82085595703125,-0.06628291308879852,-0.02238321304321289,0.012368202209472656
1701886139137847800,12.837847900390624,-0.042734451591968536,-0.027852535247802734,0.002422332763671875
1701886139154832600,12.85483251953125,-0.01951519027352333,-0.022856712341308594,0.0016069412231445312
1701886139171834600,12.871834716796876,-0.021685995161533356,0.0003743171691894531,0.0021448135375976562
1701886139188825000,12.8888251953125,-0.06641945242881775,0.01849508285522461,0.0016031265258789062
1701886139205823000,12.905822998046874,-0.09533942490816116,0.03513956069946289,-0.01825237274169922
1701886139222803000,12.922802978515625,-0.08590586483478546,0.008338451385498047,-0.04368400573730469
1701886139239806000,12.939805908203125,-0.01386240217834711,-0.018048763275146484,-0.03152275085449219
1701886139256799200,12.95679931640625,0.03671589493751526,-0.03597450256347656,-0.048333168029785156
1701886139273781200,12.97378125,0.08282896876335144,-0.05418252944946289,-0.07964706420898438
1701886139290784500,12.990784423828124,0.1377432942390442,-0.07519817352294922,-0.10006999969482422
1701886139307775200,13.007775146484375,0.16574440896511078,-0.06628656387329102,-0.08665275573730469
1701886139324786000,13.024785888671875,0.11638754606246948,-0.03247404098510742,-0.09546375274658203
1701886139341756700,13.041756591796876,0.006810040213167667,-0.023012638092041016,-0.08922863006591797
1701886139358759700,13.058759765625,-0.05717058852314949,-0.013206958770751953,-0.05051231384277344
1701886139375749000,13.0757490234375,-0.0889609307050705,-0.022223472595214844,0.0030145645141601562
1701886139392742000,13.092741943359375,-0.06581155210733414,-0.022696495056152344,0.011743545532226562
1701886139409720800,13.109720947265625,-0.02415226399898529,-0.02966928482055664,-0.008533477783203125
1701886139426727000,13.126726806640624,0.0026442352682352066,-0.055683135986328125,-0.05837821960449219
1701886139443721500,13.143721435546874,0.011686352081596851,-0.08118247985839844,-0.06397819519042969
1701886139460713200,13.160713134765626,0.025463828817009926,-0.07161140441894531,-0.06876277923583984
1701886139477707300,13.177707275390626,-0.017321014776825905,-0.04702425003051758,-0.048679351806640625
1701886139494699500,13.194699462890625,-0.09757532924413681,-0.05226945877075195,-0.02408313751220703
1701886139511689700,13.211689697265625,-0.11605483293533325,-0.053141117095947266,-0.029320716857910156
1701886139528686800,13.228686767578125,-0.06847729533910751,-0.0779714584350586,-0.0064563751220703125
1701886139545678800,13.245678955078125,-0.012233652174472809,-0.08898210525512695,-0.026941299438476562
1701886139562670800,13.2626708984375,-0.0312446691095829,-0.10892915725708008,-0.06595230102539062
1701886139579664000,13.279663818359374,-0.06906501203775406,-0.09031391143798828,-0.10869979858398438
1701886139596657000,13.296656982421876,-0.08295533806085587,-0.09054183959960938,-0.11329269409179688
1701886139613649400,13.3136494140625,-0.07907839119434357,-0.08493185043334961,-0.11286449432373047
1701886139630642400,13.330642333984375,-0.09273187071084976,-0.07943010330200195,-0.09813880920410156
1701886139647635500,13.347635498046875,-0.08674637973308563,-0.05976676940917969,-0.10205650329589844
1701886139664625200,13.364625244140624,-0.08466652035713196,-0.06317949295043945,-0.09655952453613281
1701886139681621200,13.381621337890625,-0.02068552002310753,-0.0509037971496582,-0.0817098617553711
1701886139698611700,13.39861181640625,0.037663158029317856,-0.05387258529663086,-0.07179546356201172
1701886139715608800,13.41560888671875,0.06066281348466873,-0.03710317611694336,-0.09447383880615234
1701886139732599800,13.432599853515624,0.055146850645542145,-0.03372001647949219,-0.0975046157836914
1701886139749592600,13.449592529296876,0.026665732264518738,-0.010776042938232422,-0.062030792236328125
1701886139766585300,13.46658544921875,-0.005905210971832275,-0.012759208679199219,-0.01659393310546875
1701886139783566800,13.48356689453125,-0.0011019883677363396,0.009171009063720703,0.02313995361328125
1701886139800571400,13.5005712890625,0.002229454927146435,0.015410423278808594,0.019112586975097656
1701886139817564200,13.517564208984375,0.04311457276344299,0.011975765228271484,0.018904685974121094
1701886139834557000,13.534556884765625,0.08225484937429428,0.0032014846801757812,-0.014179229736328125
1701886139851548400,13.55154833984375,0.06751341372728348,0.018983840942382812,-0.04214668273925781
1701886139868543500,13.56854345703125,0.0200127512216568,0.016088008880615234,-0.036373138427734375
1701886139885535500,13.585535400390626,-0.04959994927048683,0.012447834014892578,-0.020503997802734375
1701886139902528500,13.602528564453126,-0.11353705823421478,0.022881507873535156,0.014048576354980469
1701886139919521300,13.619521240234375,-0.13500741124153137,0.032240867614746094,-0.0004138946533203125
1701886139936514300,13.636514404296875,-0.10471045970916748,0.007042884826660156,-0.015427589416503906
1701886139953510400,13.653510498046876,-0.006574802100658417,-0.01823902130126953,-0.05113506317138672
1701886139970492400,13.670492431640625,0.10101873427629471,-0.0518183708190918,-0.05208015441894531
1701886139987497000,13.6874970703125,0.10654555261135101,-0.04121828079223633,-0.017716407775878906
1701886140004468700,13.70446875,-0.012369077652692795,-0.005962371826171875,-0.00661468505859375
1701886140021475800,13.721475830078125,-0.13290655612945557,0.008826255798339844,0.023838043212890625
1701886140038470000,13.738469970703125,-0.19010035693645477,0.007502555847167969,0.05755805969238281
1701886140055466000,13.755466064453126,-0.16782689094543457,-0.0044384002685546875,0.05094623565673828
1701886140072457200,13.772457275390625,-0.10861726105213165,-0.03624248504638672,0.010152816772460938
1701886140089449700,13.78944970703125,-0.05409098416566849,-0.05852031707763672,-0.05459403991699219
1701886140106444300,13.8064443359375,-0.007705137133598328,-0.08515787124633789,-0.08950042724609375
1701886140123436000,13.82343603515625,0.005807455629110336,-0.09582090377807617,-0.0954446792602539
1701886140140428800,13.8404287109375,-0.029208790510892868,-0.05690813064575195,-0.0801544189453125
1701886140157421800,13.857421875,-0.08929409086704254,-0.03218507766723633,-0.06955528259277344
1701886140174411300,13.874411376953125,-0.13390623033046722,-0.04180145263671875,-0.0692596435546875
1701886140191407600,13.89140771484375,-0.10969027876853943,-0.04622316360473633,-0.045142173767089844
1701886140208400100,13.908400146484375,-0.08110274374485016,-0.05943918228149414,-0.06400394439697266
1701886140225393400,13.925393310546875,-0.037648361176252365,-0.0433354377746582,-0.07326602935791016
1701886140242386400,13.942386474609375,-0.02229560911655426,-0.045085906982421875,-0.03818798065185547
1701886140259379000,13.95937890625,-0.0027068518102169037,-0.013298511505126953,0.011270523071289062
1701886140276372200,13.976372314453124,-0.0507890060544014,0.00716400146484375,0.046367645263671875
1701886140293365000,13.993364990234374,-0.09430888295173645,0.017385005950927734,0.02756786346435547
1701886140310357800,14.010357666015626,-0.08024606108665466,-0.0015077590942382812,0.008557319641113281
1701886140327350800,14.027350830078126,-0.019026149064302444,-0.0006346702575683594,-0.0014677047729492188
1701886140344343600,14.044343505859375,0.0239037424325943,-0.005221366882324219,-0.015718460083007812
1701886140361335800,14.061335693359375,0.014285672456026077,0.004858493804931641,-0.020238876342773438
1701886140378330000,14.078330078125,-0.024239223450422287,0.019321918487548828,0.013317108154296875
1701886140395312600,14.095312744140625,-0.052592284977436066,0.018201351165771484,0.028001785278320312
1701886140412315100,14.112315185546874,-0.053246039897203445,0.007869243621826172,0.008462905883789062
1701886140429304600,14.1293046875,-0.03447417542338371,0.007721424102783203,0.0026922225952148438
1701886140446304500,14.146304443359375,0.00811423733830452,0.0018482208251953125,0.011697769165039062
1701886140463293700,14.163293701171876,0.002424027770757675,-0.013859748840332031,-0.012928009033203125
1701886140480286700,14.18028662109375,-0.027101438492536545,-0.024347782135009766,-0.022970199584960938
1701886140497279500,14.197279541015625,-0.07957743853330612,-0.031270503997802734,0.0007534027099609375
1701886140514272800,14.214272705078125,-0.08978493511676788,-0.03383493423461914,-0.0149383544921875
1701886140531265300,14.231265380859375,-0.08978377282619476,-0.041010379791259766,-0.04489421844482422
1701886140548246800,14.248246826171876,-0.04749418795108795,-0.05180931091308594,-0.07036876678466797
1701886140565251800,14.265251953125,0.0002763122320175171,-0.06232929229736328,-0.07085990905761719
1701886140582244000,14.282244140625,0.018894944339990616,-0.058005332946777344,-0.08605670928955078
1701886140599240000,14.299239990234375,-0.004318714141845703,-0.05322456359863281,-0.07589149475097656
1701886140616226800,14.316226806640625,-0.05658132955431938,-0.048906803131103516,-0.056992530822753906
1701886140633217800,14.3332177734375,-0.11355945467948914,-0.050136566162109375,-0.1001119613647461
1701886140650215400,14.35021533203125,-0.06972207874059677,-0.08425188064575195,-0.12017631530761719
1701886140667205600,14.36720556640625,0.06885815411806107,-0.09712600708007812,-0.1203155517578125
1701886140684201000,14.384200927734375,0.16829542815685272,-0.07538890838623047,-0.09562969207763672
1701886140701194000,14.401194091796874,0.11999167501926422,-0.03745412826538086,-0.08853435516357422
1701886140718187000,14.41818701171875,0.010857414454221725,-0.004000663757324219,-0.0414886474609375
1701886140735180000,14.435179931640626,-0.08855815976858139,0.02928924560546875,0.028807640075683594
1701886140752172500,14.452172607421875,-0.11794793605804443,0.04268646240234375,0.07448291778564453
1701886140769165600,14.46916552734375,-0.08633418381214142,0.058287620544433594,0.04582977294921875
1701886140786158300,14.486158447265625,-0.12426090240478516,0.0053768157958984375,0.0074024200439453125
1701886140803151000,14.503151123046875,-0.052392613142728806,0.011168479919433594,0.01749897003173828
1701886140820144400,14.520144287109375,0.0242127925157547,-0.002365589141845703,0.026589393615722656
1701886140837137200,14.53713720703125,0.0712997317314148,-0.002788543701171875,0.01141357421875
1701886140854130200,14.554130126953124,0.049933988600969315,0.0074329376220703125,-0.012163162231445312
1701886140871122400,14.571122314453126,-0.0051323287189006805,0.023003578186035156,0.00823211669921875
1701886140888116700,14.58811669921875,-0.05990983173251152,0.037500858306884766,-0.000652313232421875
1701886140905107000,14.60510693359375,-0.09387068450450897,0.026559829711914062,0.003734588623046875
1701886140922103300,14.622103271484375,-0.08484205603599548,0.030707836151123047,-0.030411720275878906
1701886140939095300,14.63909521484375,-0.05560602992773056,-0.00389862060546875,-0.041164398193359375
1701886140956088300,14.65608837890625,0.049748338758945465,-0.018036365509033203,-0.051532745361328125
1701886140973080000,14.673080078125,0.10118414461612701,-0.02669382095336914,-0.04207038879394531
1701886140990073300,14.6900732421875,0.08974411338567734,-0.02034759521484375,0.011716842651367188
1701886141007066400,14.70706640625,-0.0025367289781570435,-0.01406097412109375,0.05199909210205078
1701886141024059000,14.724058837890626,-0.10833486169576645,-0.004927635192871094,0.05747699737548828
1701886141041053400,14.741053466796876,-0.1444341242313385,-0.005785942077636719,-0.0051746368408203125
1701886141058042000,14.7580419921875,-0.07067225128412247,-0.011566162109375,-0.054444313049316406
1701886141075038500,14.77503857421875,0.011615976691246033,-0.03660154342651367,-0.12769699096679688
1701886141092030700,14.79203076171875,0.0808541551232338,-0.07017278671264648,-0.16659832000732422
1701886141109023200,14.809023193359375,0.11923231184482574,-0.07212352752685547,-0.1175689697265625
1701886141126016300,14.826016357421874,0.07372540235519409,-0.0691061019897461,-0.02475452423095703
1701886141143009000,14.843009033203124,0.02243524044752121,-0.018840312957763672,0.07791423797607422
1701886141160002000,14.860001953125,-0.06920129060745239,0.004750251770019531,0.08822917938232422
1701886141176985900,14.87698583984375,-0.0998874232172966,-0.006731986999511719,0.049556732177734375
1701886141193984500,14.893984619140625,-0.08962009847164154,-0.03299665451049805,-0.033905982971191406
1701886141210970000,14.91097021484375,-0.04987584799528122,-0.04996919631958008,-0.09746646881103516
1701886141227971800,14.927971923828125,-0.04602345451712608,-0.06051015853881836,-0.1314687728881836
1701886141244968400,14.944968505859375,-0.040262456983327866,-0.06889629364013672,-0.1117105484008789
1701886141261956400,14.961956298828126,-0.030133891850709915,-0.05187845230102539,-0.057674407958984375
1701886141278952200,14.9789521484375,-0.048097603023052216,-0.039623260498046875,0.020299911499023438
1701886141295945000,14.995945068359376,-0.04299796000123024,-0.019180774688720703,0.0449066162109375
1701886141312919300,15.012919189453125,-0.05638889968395233,-0.029279708862304688,0.059294700622558594
1701886141329931000,15.029930908203125,-0.03806379437446594,-0.015512943267822266,0.025177001953125
1701886141346923800,15.046923828125,-0.03473944216966629,-0.040853023529052734,-0.03298759460449219
1701886141363916000,15.063916015625,-0.03016432747244835,-0.03209114074707031,-0.0717000961303711
1701886141380909300,15.080909423828125,-0.052768126130104065,-0.03685426712036133,-0.07169723510742188
1701886141397903000,15.097903076171875,-0.08477076143026352,-0.03677701950073242,-0.052527427673339844
1701886141414895400,15.114895263671874,-0.06346996873617172,-0.051970481872558594,-0.052985191345214844
1701886141431888400,15.131888427734374,0.028128549456596375,-0.056476593017578125,-0.06332874298095703
1701886141448880400,15.14888037109375,0.10389723628759384,-0.05031728744506836,-0.0488433837890625
1701886141465875000,15.165875,0.10762917250394821,-0.038619041442871094,-0.05251121520996094
1701886141482867000,15.182866943359375,0.02773386240005493,-0.016543865203857422,-0.04559803009033203
1701886141499860000,15.19985986328125,-0.06180347874760628,0.0004520416259765625,-0.005023956298828125
1701886141516852700,15.216852783203125,-0.10904300957918167,0.021547317504882812,0.03998374938964844
1701886141533844200,15.23384423828125,-0.11453734338283539,0.021838665008544922,0.04492950439453125
1701886141550838300,15.25083837890625,-0.08732330799102783,0.015297889709472656,0.010514259338378906
1701886141567831000,15.2678310546875,-0.026154857128858566,-0.005290031433105469,-0.058150291442871094
1701886141584821800,15.28482177734375,0.05891020596027374,-0.02452707290649414,-0.0973968505859375
1701886141601817000,15.301817138671876,0.09787952154874802,-0.023638248443603516,-0.07838821411132812
1701886141618810000,15.31881005859375,0.05959440767765045,0.002762317657470703,-0.03820037841796875
1701886141635803000,15.335802978515625,-0.04140287637710571,0.038231849670410156,0.0020427703857421875
1701886141652795600,15.352795654296875,-0.10933512449264526,0.0435643196105957,0.017606735229492188
1701886141669788400,15.369788330078125,-0.11423475295305252,0.024763107299804688,0.027365684509277344
1701886141686781400,15.386781494140624,-0.06626369059085846,0.015300273895263672,0.02650737762451172
1701886141703771100,15.403771240234375,0.015016809105873108,0.009892463684082031,0.016005516052246094
1701886141720767500,15.420767578125,0.05285583436489105,0.004778385162353516,0.006267547607421875
1701886141737760000,15.437760009765626,0.026549503207206726,0.018978118896484375,-0.008154869079589844
1701886141754753000,15.4547529296875,-0.05128904804587364,0.023505687713623047,-0.007672309875488281
1701886141771742500,15.471742431640624,-0.1286107450723648,0.02239084243774414,-0.01690959930419922
1701886141788739600,15.488739501953125,-0.1758234202861786,0.02137136459350586,0.0022878646850585938
1701886141805731800,15.50573193359375,-0.13552501797676086,0.01035165786743164,0.010487556457519531
1701886141822724600,15.522724609375,-0.07286552339792252,0.009148120880126953,-0.0006380081176757812
1701886141839717600,15.539717529296874,0.013366684317588806,0.016685962677001953,-0.011881828308105469
1701886141856710700,15.556710693359374,0.028319455683231354,0.014638423919677734,-0.027317047119140625
1701886141873703400,15.573703369140626,-0.013773694634437561,0.003574371337890625,-0.04186725616455078
1701886141890696400,15.590696533203126,-0.07432176172733307,-0.01580333709716797,-0.02764415740966797
1701886141907691000,15.60769091796875,-0.09143473953008652,-0.01209115982055664,0.034905433654785156
1701886141924680400,15.624680419921875,-0.0653991773724556,0.0003299713134765625,0.04763221740722656
1701886141941672400,15.64167236328125,-0.04418259114027023,0.006416797637939453,0.05057525634765625
1701886141958669000,15.6586689453125,0.008672311902046204,0.007522106170654297,0.010048866271972656
1701886141975661300,15.675661376953125,0.0746813714504242,-0.010744571685791016,-0.021615028381347656
1701886141992643000,15.69264306640625,0.08309078961610794,-0.029782772064208984,-0.07728862762451172
1701886142009646300,15.709646240234376,0.010368771851062775,-0.04774951934814453,-0.14556598663330078
1701886142026639400,15.726639404296876,-0.023487430065870285,-0.06813383102416992,-0.1312541961669922
1701886142043632000,15.743632080078125,-0.01807960867881775,-0.04474496841430664,-0.08815193176269531
1701886142060625000,15.760625,-0.006979227066040039,-0.039476871490478516,-0.04483985900878906
1701886142077618000,15.777617919921875,-0.005312152206897736,-0.025191783905029297,-0.02095794677734375
1701886142094608000,15.79460791015625,-0.005144335329532623,-0.04035234451293945,-0.0022344589233398438
1701886142111604000,15.81160400390625,0.01304280012845993,-0.03690195083618164,-0.02744770050048828
1701886142128596500,15.828596435546874,0.007435046136379242,-0.0622406005859375,-0.032959938049316406
1701886142145589500,15.845589599609376,0.024948514997959137,-0.04818010330200195,-0.08127784729003906
1701886142162582500,15.86258251953125,0.005622372031211853,-0.048378944396972656,-0.06670475006103516
1701886142179575300,15.8795751953125,-0.02980029582977295,-0.032810211181640625,-0.06545734405517578
1701886142196568300,15.896568359375,-0.07867474853992462,-0.032534122467041016,-0.04616355895996094
1701886142213560800,15.913560791015625,-0.0826195701956749,-0.047104835510253906,-0.060638427734375
1701886142230551300,15.93055126953125,-0.02006060630083084,-0.05588722229003906,-0.05066108703613281
1701886142247549400,15.947549560546875,0.030902177095413208,-0.053444862365722656,-0.04040241241455078
1701886142264546600,15.964546630859376,0.039452530443668365,-0.022010326385498047,-0.0294036865234375
1701886142281528800,15.98152880859375,0.006742388010025024,0.00943136215209961,-0.017820358276367188
1701886142298524000,15.99852392578125,-0.05834744870662689,0.011990547180175781,0.026889801025390625
1701886142315509500,16.015509521484375,-0.10103815048933029,0.023857593536376953,0.08611392974853516
1701886142332508700,16.0325087890625,-0.13461309671401978,0.019016265869140625,0.062157630920410156
1701886142349506000,16.049506103515625,-0.12031233310699463,-0.0019397735595703125,0.032492637634277344
1701886142366494700,16.06649462890625,-0.03852195292711258,-0.01844167709350586,-0.017400741577148438
1701886142383492600,16.08349267578125,0.03310302644968033,-0.029722213745117188,-0.0718536376953125
1701886142400482800,16.10048291015625,0.08229615539312363,-0.025777816772460938,-0.08187580108642578
1701886142417476000,16.11747607421875,0.08770336955785751,-0.010455608367919922,-0.07659339904785156
1701886142434468600,16.134468505859374,0.06291794031858444,-0.00383758544921875,-0.056488037109375
1701886142451458600,16.15145849609375,-0.004603229463100433,0.006245613098144531,-0.04572868347167969
1701886142468453600,16.16845361328125,-0.03398309275507927,-0.0073299407958984375,-0.04531574249267578
1701886142485448000,16.185447998046875,-0.005525916814804077,-0.029707908630371094,-0.034934043884277344
1701886142502440200,16.202440185546877,0.04662793129682541,-0.0233612060546875,-0.02514171600341797
1701886142519433200,16.21943310546875,0.08866847306489944,-0.01151132583618164,-0.02485370635986328
1701886142536426000,16.236426025390625,0.0722065344452858,-0.00007390975952148438,-0.03283119201660156
1701886142553419000,16.2534189453125,0.021186739206314087,0.015812397003173828,-0.012546539306640625
1701886142570412000,16.270412109375,-0.04326960816979408,0.00793600082397461,0.0033245086669921875
1701886142587404500,16.287404541015626,-0.09694959223270416,0.013750076293945312,-0.009883880615234375
1701886142604391700,16.3043916015625,-0.09644026309251785,0.0043964385986328125,0.009684562683105469
1701886142621393000,16.321392822265626,-0.036148883402347565,0.0062923431396484375,0.004993438720703125
1701886142638383400,16.33838330078125,0.02804698795080185,0.007550716400146484,0.02422809600830078
1701886142655376000,16.3553759765625,0.030531182885169983,0.01266622543334961,0.0004978179931640625
1701886142672359000,16.37235888671875,-0.042032353579998016,0.003463268280029297,-0.0034875869750976562
1701886142689362200,16.389362060546876,-0.12278895080089569,-0.000759124755859375,0.007290840148925781
1701886142706355000,16.40635498046875,-0.14140699803829193,0.00034618377685546875,0.04615592956542969
1701886142723347500,16.423347412109376,-0.12228082120418549,0.00953054428100586,0.045945167541503906
1701886142740340700,16.4403408203125,-0.08279932290315628,0.0033168792724609375,0.02544403076171875
1701886142757331200,16.457331298828127,-0.058413293212652206,-0.01215219497680664,-0.008962631225585938
1701886142774329000,16.4743291015625,-0.03875970467925072,-0.023160934448242188,-0.028870582580566406
1701886142791318500,16.491318603515627,-0.041933268308639526,-0.02911090850830078,-0.048638343811035156
1701886142808302300,16.50830224609375,-0.054946549236774445,-0.020186424255371094,-0.0777120590209961
1701886142825294300,16.52529443359375,-0.07598388195037842,-0.02474832534790039,-0.0632619857788086
1701886142842298000,16.542298095703124,-0.06384215503931046,-0.02867412567138672,-0.038909912109375
1701886142859290000,16.5592900390625,-0.022279594093561172,-0.01843547821044922,-0.014659881591796875
1701886142876284400,16.576284423828124,0.004201531410217285,-0.01817941665649414,-0.010362625122070312
1701886142893266000,16.593265869140627,0.011206775903701782,-0.02303791046142578,-0.005633354187011719
1701886142910269700,16.610269775390623,0.022566698491573334,-0.023305416107177734,-0.029723167419433594
1701886142927262200,16.62726220703125,0.025037728250026703,-0.023771286010742188,-0.0347747802734375
1701886142944256000,16.644256103515627,0.032138288021087646,-0.029180049896240234,-0.03990650177001953
1701886142961248300,16.661248291015625,0.03858688473701477,-0.024692058563232422,-0.05474662780761719
1701886142978241300,16.6782412109375,0.03957681357860565,-0.039780616760253906,-0.05513477325439453
1701886142995234000,16.695234130859376,0.03477359563112259,-0.03545713424682617,-0.07930946350097656
1701886143012227000,16.71222705078125,0.006643272936344147,-0.05066394805908203,-0.07944679260253906
1701886143029230300,16.729230224609374,0.03075159341096878,-0.06380987167358398,-0.10305500030517578
1701886143046212600,16.746212646484373,0.1106334701180458,-0.051595211029052734,-0.09268856048583984
1701886143063205600,16.76320556640625,0.11284108459949493,-0.01882648468017578,-0.07140064239501953
1701886143080198700,16.78019873046875,0.030163653194904327,0.013955116271972656,-0.06387519836425781
1701886143097192200,16.797192138671875,-0.06964898109436035,0.04113054275512695,-0.041518211364746094
1701886143114180400,16.814180419921875,-0.1253879815340042,0.04454851150512695,0.022800445556640625
1701886143131170300,16.83117041015625,-0.10488350689411163,0.042818546295166016,0.1105489730834961
1701886143148159700,16.84815966796875,-0.07577437162399292,0.043662071228027344,0.1205596923828125
1701886143165163000,16.8651630859375,-0.07510954141616821,0.023612022399902344,0.09614849090576172
1701886143182150100,16.882150146484374,-0.048020683228969574,0.02752399444580078,0.032568931579589844
1701886143199151000,16.899151123046874,0.0023257285356521606,0.016177654266357422,-0.02099895477294922
1701886143216141800,16.916141845703127,0.04003548622131348,0.005527973175048828,-0.06076526641845703
1701886143233134600,16.933134521484376,0.03146582096815109,0.00036716461181640625,-0.060970306396484375
1701886143250127400,16.95012744140625,-0.010230854153633118,0.005192756652832031,-0.045684814453125
1701886143267120000,16.9671201171875,-0.019543692469596863,0.020496845245361328,-0.01647663116455078
1701886143284113400,16.984113525390626,-0.000023342669010162354,0.011411190032958984,0.012494087219238281
1701886143301105400,17.00110546875,-0.02915003150701523,0.006891727447509766,0.007854461669921875
1701886143318100000,17.018099853515626,-0.061915136873722076,-0.002899169921875,-0.01619720458984375
1701886143335092200,17.03509228515625,-0.05558641999959946,0.006510257720947266,-0.021079063415527344
1701886143352085000,17.0520849609375,0.007502883672714233,0.0016207695007324219,-0.0067844390869140625
1701886143369076700,17.06907666015625,0.06429558992385864,-0.012366294860839844,-0.012288093566894531
1701886143386071300,17.0860712890625,0.10672260820865631,-0.01226043701171875,-0.036754608154296875
1701886143403063300,17.103063232421874,0.08692105859518051,-0.015810012817382812,-0.04088592529296875
1701886143420056600,17.120056640625,0.06127258390188217,-0.017711639404296875,-0.03875541687011719
1701886143437049600,17.137049560546874,-0.007852472364902496,-0.004950523376464844,-0.0074253082275390625
1701886143454042400,17.15404248046875,-0.10545285046100616,0.025841712951660156,0.004169464111328125
1701886143471035100,17.17103515625,-0.1857580542564392,0.0320281982421875,0.03900146484375
1701886143488028200,17.188028076171875,-0.16889438033103943,0.013013839721679688,0.07255268096923828
1701886143505015300,17.205015380859376,-0.11485947668552399,-0.0025529861450195312,0.07608985900878906
1701886143522016500,17.2220166015625,-0.05664585530757904,-0.014492511749267578,0.05509471893310547
1701886143538999800,17.238999755859375,-0.013431869447231293,-0.007556915283203125,-0.008831024169921875
1701886143555999700,17.255999755859374,-0.012005183845758438,-0.02462911605834961,-0.06291961669921875
1701886143572992500,17.272992431640624,-0.020640958100557327,-0.03598213195800781,-0.07343864440917969
1701886143589985300,17.2899853515625,-0.03346066176891327,-0.042122840881347656,-0.10766315460205078
1701886143606978600,17.306978515625,-0.027231365442276,-0.032393455505371094,-0.11716556549072266
1701886143623966700,17.323966796875,0.00003565475344657898,-0.03076457977294922,-0.0732574462890625
1701886143640965000,17.340965087890623,0.013532254844903946,0.00042247772216796875,-0.014548301696777344
1701886143657961000,17.3579609375,-0.012171439826488495,0.012512683868408203,0.03462028503417969
1701886143674950000,17.374949951171875,-0.03845985233783722,0.03223085403442383,0.07410907745361328
1701886143691939800,17.39193994140625,-0.06591656804084778,0.050878047943115234,0.08341121673583984
1701886143708925000,17.408925048828124,-0.06512781977653503,0.03923797607421875,0.044028282165527344
1701886143725928700,17.4259287109375,-0.01599319651722908,0.04198169708251953,0.009129524230957031
1701886143742919000,17.4429189453125,0.005270134657621384,0.039214134216308594,-0.016866683959960938
1701886143759916800,17.459916748046876,0.01778491586446762,0.03745841979980469,-0.036945343017578125
1701886143776907300,17.4769072265625,0.030102059245109558,0.04132366180419922,-0.008728981018066406
1701886143793900000,17.493900146484375,0.014012925326824188,0.059581756591796875,0.024295806884765625
1701886143810893000,17.51089306640625,-0.011662110686302185,0.05237865447998047,0.04307079315185547
1701886143827885800,17.5278857421875,-0.08047753572463989,0.048929691314697266,0.056209564208984375
1701886143844878600,17.544878662109376,-0.10678181052207947,0.00956869125366211,0.014843940734863281
1701886143861858600,17.561858642578127,-0.02757212147116661,-0.02953195571899414,-0.047034263610839844
1701886143878866400,17.578866455078124,0.14154453575611115,-0.062235355377197266,-0.08413124084472656
1701886143895858200,17.595858154296874,0.22198832035064697,-0.05821657180786133,-0.08065319061279297
1701886143912850200,17.61285009765625,0.16859661042690277,-0.020716190338134766,-0.0657949447631836
1701886143929843200,17.62984326171875,0.01790306158363819,-0.0071887969970703125,-0.03122425079345703
1701886143946836500,17.64683642578125,-0.11187558621168137,-0.00817108154296875,0.022406578063964844
1701886143963829000,17.6638291015625,-0.18572279810905457,-0.015109062194824219,0.060477256774902344
1701886143980822000,17.680822021484374,-0.1620582789182663,-0.0325927734375,0.06303596496582031
1701886143997814500,17.697814453125,-0.08629373461008072,-0.05554485321044922,0.021859169006347656
1701886144014804700,17.7148046875,-0.015095049515366554,-0.07379627227783203,-0.057646751403808594
1701886144031800300,17.73180029296875,0.010168647393584251,-0.0862116813659668,-0.10219764709472656
1701886144048793300,17.74879345703125,-0.007179423701018095,-0.07252645492553711,-0.11690521240234375
1701886144065778000,17.76577783203125,-0.05814278498291969,-0.05257081985473633,-0.11110401153564453
1701886144082776800,17.78277685546875,-0.1313982903957367,-0.033490657806396484,-0.09108734130859375
1701886144099775000,17.79977490234375,-0.13693910837173462,-0.037856101989746094,-0.0717306137084961
1701886144116765000,17.816764892578124,-0.06505759805440903,-0.04641437530517578,-0.043091773986816406
1701886144133758200,17.83375830078125,-0.003093000268563628,-0.058649539947509766,-0.03272724151611328
1701886144150750700,17.850750732421876,0.016430534422397614,-0.03743600845336914,-0.012506484985351562
1701886144167743500,17.867743408203125,-0.006402171216905117,-0.021196842193603516,-0.0064258575439453125
1701886144184736500,17.884736572265624,-0.012142365798354149,-0.0039691925048828125,0.03336143493652344
1701886144201731300,17.9017314453125,-0.013413798063993454,0.007233142852783203,0.048575401306152344
1701886144218723300,17.918723388671875,-0.02474892884492874,0.021241188049316406,0.029855728149414062
1701886144235715000,17.935715087890625,-0.015891902148723602,0.015322208404541016,-0.009004592895507812
1701886144252706000,17.9527060546875,0.027473904192447662,0.009510993957519531,-0.019689559936523438
1701886144269701400,17.969701416015624,0.07881174981594086,0.004733085632324219,-0.06365108489990234
1701886144286696000,17.986696044921874,0.10043410956859589,-0.004461765289306641,-0.08258247375488281
1701886144303687000,18.00368701171875,0.10277006775140762,-0.0027894973754882812,-0.07213020324707031
1701886144320680000,18.020679931640625,0.06859089434146881,0.013216972351074219,-0.02339935302734375
1701886144337673000,18.0376728515625,0.020027846097946167,0.018192768096923828,0.015913009643554688
1701886144354665500,18.05466552734375,0.05116889625787735,0.02752065658569336,0.020587921142578125
1701886144371658200,18.071658203125,0.08012948930263519,0.012479782104492188,-0.018958091735839844
1701886144388648700,18.088648681640624,0.1168258935213089,-0.003231048583984375,-0.0723104476928711
1701886144405646800,18.105646728515627,0.10678740590810776,-0.02288675308227539,-0.10129451751708984
1701886144422637000,18.122636962890624,0.07332940399646759,-0.031209945678710938,-0.10064315795898438
1701886144439630000,18.139630126953126,0.025909774005413055,-0.02847146987915039,-0.060333251953125
1701886144456622600,18.15662255859375,-0.017209492623806,0.0025687217712402344,-0.0007905960083007812
1701886144473616100,18.1736162109375,-0.04692908748984337,0.01829814910888672,0.02863311767578125
1701886144490608600,18.190608642578123,-0.0568167120218277,0.017757892608642578,-0.0003643035888671875
1701886144507601700,18.2076015625,-0.04311995953321457,-0.003059864044189453,-0.03952312469482422
1701886144524591400,18.22459130859375,-0.0026208311319351196,-0.02268838882446289,-0.1172637939453125
1701886144541587500,18.24158740234375,0.046874258667230606,-0.04558610916137695,-0.13648033142089844
1701886144558580200,18.258580322265626,0.069194495677948,-0.02854156494140625,-0.1350870132446289
1701886144575573000,18.275572998046876,0.0029930658638477325,-0.005252838134765625,-0.0796823501586914
1701886144592566300,18.292566162109374,-0.056466761976480484,0.008427143096923828,0.019095420837402344
1701886144609547300,18.30954736328125,-0.060491614043712616,0.04936647415161133,0.08779430389404297
1701886144626553300,18.32655322265625,-0.057125091552734375,0.03570270538330078,0.09772109985351562
1701886144643535600,18.34353564453125,-0.03635972738265991,0.053385257720947266,0.00092315673828125
1701886144660539000,18.360538818359377,-0.03752164542675018,-0.006659507751464844,-0.08658790588378906
1701886144677530400,18.3775302734375,0.05737554281949997,-0.01562976837158203,-0.13564014434814453
1701886144694523400,18.3945234375,0.12210705876350403,-0.012127876281738281,-0.07699012756347656
1701886144711513600,18.411513671875,0.07215675711631775,0.040470123291015625,-0.030847549438476562
1701886144728510200,18.42851025390625,-0.05049239844083786,0.08652019500732422,0.048797607421875
1701886144745502200,18.445502197265625,-0.1102493405342102,0.11131858825683594,0.08367347717285156
1701886144762495200,18.4624951171875,-0.0712677389383316,0.09133100509643555,0.09758663177490234
1701886144779487200,18.4794873046875,0.02147062122821808,0.06923627853393555,0.05144977569580078
1701886144796481800,18.496481689453127,0.09881065040826797,0.01313924789428711,-0.046996116638183594
1701886144813474000,18.51347412109375,0.1568373590707779,-0.012715816497802734,-0.11114025115966797
1701886144830455800,18.530455810546876,0.19176387786865234,-0.021938323974609375,-0.11156749725341797
1701886144847459800,18.5474599609375,0.15017391741275787,-0.023839473724365234,-0.06639862060546875
1701886144864452600,18.56445263671875,0.05946039408445358,0.04589128494262695,-0.020998001098632812
1701886144881443600,18.581443603515623,-0.03129518777132034,0.061365604400634766,0.028345108032226562
1701886144898437600,18.598437744140625,-0.08997223526239395,0.046276092529296875,0.004626274108886719
1701886144915432200,18.61543212890625,-0.061825260519981384,-0.0028085708618164062,-0.02054595947265625
1701886144932424000,18.632423828125,0.00357831921428442,-0.03586244583129883,-0.0738668441772461
1701886144949417000,18.6494169921875,0.05950883775949478,-0.04258584976196289,-0.09720802307128906
1701886144966409700,18.66640966796875,0.06356444954872131,-0.024410247802734375,-0.08562469482421875
1701886144983403000,18.683403076171874,-0.0031723082065582275,-0.005836009979248047,-0.039414405822753906
1701886145000395800,18.700395751953124,-0.10370324552059174,0.02186298370361328,0.031096458435058594
1701886145017388800,18.717388916015626,-0.17152994871139526,0.028913021087646484,0.05176734924316406
1701886145034380300,18.73438037109375,-0.17182083427906036,0.011435508728027344,0.03830909729003906
1701886145051372500,18.75137255859375,-0.14246059954166412,-0.00090789794921875,0.010356903076171875
1701886145068367000,18.7683671875,-0.10753469914197922,-0.008161544799804688,-0.01293182373046875
1701886145085360000,18.785360107421877,-0.08645348250865936,-0.009335041046142578,-0.02058124542236328
1701886145102342700,18.8023427734375,-0.07961459457874298,0.01889514923095703,0.015209197998046875
1701886145119343400,18.81934326171875,-0.12785805761814117,0.02768564224243164,0.061004638671875
1701886145136341500,18.836341552734375,-0.15610235929489136,0.0582728385925293,0.09581375122070312
1701886145153331500,18.85333154296875,-0.19756866991519928,0.03496122360229492,0.14937591552734375
1701886145170324700,18.87032470703125,-0.16743451356887817,0.018880367279052734,0.11914348602294922
1701886145187317800,18.88731787109375,-0.09647321701049805,0.0015773773193359375,0.040093421936035156
1701886145204308500,18.90430859375,-0.0073212794959545135,-0.011423110961914062,-0.06313419342041016
1701886145221304600,18.9213046875,0.0064292289316654205,-0.03728294372558594,-0.15540122985839844
1701886145238297000,18.938297119140625,0.008440673351287842,-0.055611610412597656,-0.16515254974365234
1701886145255289000,18.9552890625,0.022366460412740707,-0.038752079010009766,-0.06303024291992188
1701886145272276500,18.9722763671875,0.05033576115965843,0.011495590209960938,0.0004329681396484375
1701886145289274000,18.989274169921874,0.05713227018713951,0.03180217742919922,0.029754638671875
1701886145306268700,19.0062685546875,0.07233120501041412,0.0412135124206543,0.03445148468017578
1701886145323260700,19.0232607421875,0.09574776887893677,0.03124094009399414,-0.009148597717285156
1701886145340253700,19.040253662109375,0.10873407125473022,0.01611948013305664,-0.03826427459716797
1701886145357246000,19.057245849609377,0.10736172646284103,0.020593643188476562,-0.06713485717773438
1701886145374240000,19.074239990234375,0.08642055094242096,0.0348210334777832,-0.05283927917480469
1701886145391232300,19.091232177734376,0.061083726584911346,0.06283187866210938,-0.03884696960449219
1701886145408225300,19.108225341796874,0.036836281418800354,0.032169342041015625,-0.01981639862060547
1701886145425212200,19.125212158203126,0.05941906198859215,0.0160064697265625,-0.01657581329345703
1701886145442213600,19.142213623046874,0.1466812938451767,0.0059261322021484375,-0.0033817291259765625
1701886145459204000,19.1592041015625,0.17007476091384888,0.0007505416870117188,-0.02270030975341797
1701886145476196900,19.17619677734375,0.09792371094226837,0.01956462860107422,-0.05096149444580078
1701886145493189400,19.193189453125,-0.0012355297803878784,0.01908254623413086,-0.050276756286621094
1701886145510169900,19.210169921875,-0.08468180894851685,0.01392984390258789,0.0031099319458007812
1701886145527177700,19.227177734375,-0.14097195863723755,0.01393270492553711,0.03185749053955078
1701886145544160300,19.24416015625,-0.11993689090013504,0.008282184600830078,0.060141563415527344
1701886145561161500,19.261161376953126,-0.07495902478694916,0.0011053085327148438,0.08701896667480469
1701886145578154500,19.278154541015624,-0.049775153398513794,-0.01622295379638672,0.03730583190917969
1701886145595147000,19.29514697265625,-0.048501379787921906,-0.02932262420654297,-0.017167091369628906
1701886145612129500,19.312129638671873,-0.04226190596818924,-0.02715015411376953,-0.0711660385131836
1701886145629133000,19.329133056640625,-0.05831453204154968,-0.028386592864990234,-0.0765838623046875
1701886145646125800,19.346125732421875,-0.08760958164930344,-0.02402973175048828,-0.07201385498046875
1701886145663118800,19.363118896484377,-0.09299047291278839,-0.019394397735595703,-0.05713176727294922
1701886145680101400,19.380101318359376,-0.08358754962682724,-0.01910400390625,-0.014497756958007812
1701886145697107500,19.397107421875,-0.07329350709915161,-0.004481792449951172,0.014353752136230469
1701886145714097400,19.414097412109374,-0.05722275376319885,-0.0045318603515625,0.03824043273925781
1701886145731090200,19.431090087890624,-0.07423927634954453,-0.0005021095275878906,0.04770660400390625
1701886145748083200,19.448083251953125,-0.06854556500911713,0.013649463653564453,0.038018226623535156
1701886145765076200,19.465076171875,-0.04534301534295082,0.018659591674804688,0.009107589721679688
1701886145782069200,19.4820693359375,-0.06473997980356216,0.03206491470336914,-0.015323638916015625
1701886145799061200,19.499061279296875,-0.029039576649665833,0.040459632873535156,-0.015962600708007812
1701886145816055600,19.5160556640625,-0.010666735470294952,0.020171165466308594,-0.0022382736206054688
1701886145833047600,19.533047607421874,0.03966250270605087,0.0337986946105957,0.011115074157714844
1701886145850040600,19.55004052734375,0.07867798954248428,0.02419424057006836,0.020664215087890625
1701886145867033600,19.56703369140625,0.10243489593267441,0.03926563262939453,0.02072620391845703
1701886145884024000,19.584024169921875,0.006417922675609589,0.02387857437133789,0.0067424774169921875
1701886145901022000,19.60102197265625,-0.06251547485589981,0.0029578208923339844,-0.11861705780029297
1701886145918012400,19.618012451171875,-0.07041387259960175,0.004602909088134766,-0.11238384246826172
1701886145934999600,19.63499951171875,0.06079193949699402,0.008748531341552734,-0.020793914794921875
1701886145951998500,19.65199853515625,0.09109687060117722,0.029305458068847656,0.04246997833251953
1701886145968993300,19.6689931640625,0.05951234698295593,0.010465145111083984,0.052188873291015625
1701886145985984000,19.68598388671875,0.016879506409168243,-0.004090309143066406,0.03772449493408203
1701886146002976800,19.702976806640624,-0.0028858110308647156,-0.013906002044677734,0.02384185791015625
1701886146019969800,19.7199697265625,-0.004179835319519043,-0.014182567596435547,-0.009797096252441406
1701886146036962600,19.736962646484375,-0.019070621579885483,-0.014141082763671875,-0.009771347045898438
1701886146053955600,19.75395556640625,-0.02893076092004776,-0.0003056526184082031,-0.014828681945800781
1701886146070948400,19.7709482421875,-0.029644161462783813,-0.0011382102966308594,-0.02962207794189453
1701886146087941400,19.78794140625,-0.015660274773836136,-0.011143684387207031,-0.039417266845703125
1701886146104934100,19.80493408203125,0.012701012194156647,-0.006263256072998047,-0.03039264678955078
1701886146121924000,19.821924072265624,0.0035589411854743958,-0.020568370819091797,-0.01122283935546875
1701886146138920000,19.838919921875,-0.04848729074001312,-0.011838436126708984,0.012862205505371094
1701886146155912700,19.85591259765625,-0.07663223147392273,-0.03427886962890625,0.006651878356933594
1701886146172906000,19.872906005859374,-0.032952215522527695,-0.06626081466674805,-0.048033714294433594
1701886146189899000,19.88989892578125,0.09598010033369064,-0.10166358947753906,-0.08882999420166016
1701886146206891800,19.906891845703125,0.17932435870170593,-0.10586977005004883,-0.12770557403564453
1701886146223884500,19.923884521484375,0.1718086153268814,-0.07964754104614258,-0.15041351318359375
1701886146240877600,19.940877685546877,0.0671103447675705,-0.028862953186035156,-0.10907936096191406
1701886146257870300,19.957870361328126,-0.07461004704236984,-0.010688304901123047,-0.052926063537597656
1701886146274863000,19.974863037109376,-0.15015879273414612,0.01154947280883789,0.02140331268310547
1701886146291856000,19.99185595703125,-0.15459474921226501,0.00823068618774414,0.060461997985839844
1701886146308848000,20.00884814453125,-0.08299019187688828,-0.021060466766357422,0.039813995361328125
1701886146325842700,20.0258427734375,0.02676912397146225,-0.045557498931884766,0.00031375885009765625
1701886146342834700,20.042834716796875,0.11181436479091644,-0.05493021011352539,-0.03398895263671875
1701886146359828000,20.059827880859373,0.11049050837755203,-0.04477691650390625,-0.04803276062011719
1701886146376820500,20.076820556640627,0.0481145977973938,-0.014729022979736328,-0.04672718048095703
1701886146393813500,20.0938134765625,-0.05776016414165497,0.004611968994140625,-0.0361328125
1701886146410818300,20.110818359375,-0.1154405027627945,0.014014720916748047,-0.054762840270996094
1701886146427799600,20.127799560546876,-0.10041289031505585,-0.014929771423339844,-0.06924915313720703
1701886146444789200,20.144789306640625,0.024429582059383392,-0.032448768615722656,-0.07469749450683594
1701886146461786000,20.1617861328125,0.11574218422174454,-0.03910398483276367,-0.059406280517578125
1701886146478777300,20.17877734375,0.14899028837680817,-0.010656356811523438,-0.0235137939453125
1701886146495771000,20.19577099609375,0.062162846326828,0.02698230743408203,0.01788330078125
1701886146512763600,20.212763671875,-0.062369152903556824,0.05829143524169922,0.059058189392089844
1701886146529753000,20.229753173828126,-0.12903428077697754,0.06899642944335938,0.06504535675048828
1701886146546745600,20.24674560546875,-0.1434643268585205,0.049163818359375,0.026391029357910156
1701886146563742500,20.263742431640626,-0.033334337174892426,0.029692649841308594,-0.013592720031738281
1701886146580735500,20.280735595703124,0.09681306034326553,0.020958423614501953,-0.018858909606933594
1701886146597726000,20.297725830078125,0.1675662398338318,0.02765941619873047,-0.023225784301757812
1701886146614723600,20.3147236328125,0.12403353303670883,0.054117679595947266,0.011623382568359375
1701886146631702800,20.331702880859375,-0.003995321691036224,0.07442569732666016,0.05682563781738281
1701886146648707800,20.348707763671875,-0.09817738831043243,0.06914806365966797,0.07182788848876953
1701886146665700000,20.3657001953125,-0.1354808211326599,0.05818796157836914,0.0812520980834961
1701886146682692900,20.38269287109375,-0.04041990637779236,0.04669761657714844,0.05479621887207031
1701886146699685000,20.39968505859375,0.04923320561647415,0.029314041137695312,0.023888587951660156
1701886146716679700,20.4166796875,0.10600369423627853,0.021895885467529297,-0.016702651977539062
1701886146733671400,20.43367138671875,0.05478421598672867,-0.0053253173828125,-0.01785564422607422
1701886146750662000,20.450661865234373,-0.010466493666172028,-0.00919342041015625,-0.023784637451171875
1701886146767660300,20.467660400390624,-0.057475682348012924,-0.01171875,-0.03469371795654297
1701886146784650200,20.484650146484373,-0.024776693433523178,-0.01798868179321289,-0.06418800354003906
1701886146801643300,20.501643310546875,0.018036261200904846,-0.013507843017578125,-0.06525897979736328
1701886146818633700,20.5186337890625,0.03808807581663132,-0.0048675537109375,-0.06097221374511719
