time,seconds_elapsed,z,y,x
1700931891079167700,0.180167724609375,-0.08938789367675781,0.050740718841552734,-0.03256848454475403
1700931891096173000,0.197173095703125,-0.06451702117919922,0.020847320556640625,0.0483643114566803
1700931891113159000,0.214158935546875,0.11007499694824219,-0.014087438583374023,0.06435829401016235
1700931891130155800,0.23115576171875,0.01771831512451172,0.0207827091217041,0.03611227869987488
1700931891147150600,0.248150634765625,-0.08389472961425781,0.004328489303588867,0.03494939208030701
1700931891164156200,0.26515625,-0.08696746826171875,-0.005275249481201172,0.09868942201137543
1700931891181133300,0.28213330078125,-0.16205120086669922,0.016986370086669922,0.1766975224018097
1700931891198130400,0.29913037109375,-0.2818479537963867,0.03299713134765625,0.185872420668602
1700931891215124000,0.3161240234375,-0.3206510543823242,0.02389669418334961,0.13531911373138428
1700931891232111900,0.33311181640625,-0.11942291259765625,-0.07172632217407227,0.06575620174407959
1700931891249096000,0.350095947265625,0.10621070861816406,-0.11771321296691895,0.00894966721534729
1700931891266099500,0.367099365234375,0.25448036193847656,-0.06197094917297363,0.0023277997970581055
1700931891283092000,0.384092041015625,0.2176370620727539,0.007318735122680664,0.047485023736953735
1700931891300084500,0.40108447265625,0.032299041748046875,-0.010143518447875977,0.04385879635810852
1700931891317082000,0.41808203125,-0.11917877197265625,-0.06980490684509277,0.05002579092979431
1700931891334070500,0.435070556640625,-0.3273029327392578,-0.00887918472290039,0.053820401430130005
1700931891351070500,0.452070556640625,-0.3184337615966797,-0.037381887435913086,0.032352298498153687
1700931891368060200,0.46906005859375,-0.05155467987060547,-0.05080223083496094,-0.015250533819198608
1700931891385052700,0.486052734375,0.25666332244873047,-0.04313349723815918,-0.03992825746536255
1700931891402034000,0.503033935546875,0.388427734375,-0.07332754135131836,-0.009003877639770508
1700931891419036200,0.5200361328125,0.4108572006225586,-0.11275124549865723,-0.03670939803123474
1700931891436031200,0.53703125,0.2911663055419922,-0.16570806503295898,-0.07455971837043762
1700931891453019400,0.554019287109375,0.13924217224121094,-0.1109921932220459,-0.1339377462863922
1700931891470016000,0.57101611328125,-0.06427669525146484,-0.038459062576293945,-0.04357832670211792
1700931891487008300,0.58800830078125,-0.17243194580078125,-0.04705524444580078,0.005040720105171204
1700931891503999500,0.60499951171875,-0.25578784942626953,-0.10368752479553223,-0.03324759006500244
1700931891520991700,0.62199169921875,-0.46032142639160156,-0.10697412490844727,0.06798039376735687
1700931891537989400,0.6389892578125,-0.41800403594970703,-0.09350991249084473,0.15294992923736572
1700931891554981400,0.6559814453125,-0.27111148834228516,-0.054085731506347656,0.256017804145813
1700931891571970300,0.67297021484375,-0.22297954559326172,0.02485036849975586,0.32312896847724915
1700931891588954600,0.68995458984375,-0.10402393341064453,-0.06954765319824219,0.3301330506801605
1700931891605960200,0.706960205078125,-0.18313026428222656,-0.0959322452545166,0.124966099858284
1700931891622948600,0.723948486328125,-0.20606040954589844,-0.14325571060180664,-0.005597114562988281
1700931891639934700,0.740934814453125,-0.318084716796875,-0.11742258071899414,0.06349530816078186
1700931891656936700,0.757936767578125,-0.5031232833862305,-0.0821828842163086,0.19384640455245972
1700931891673928400,0.774928466796875,-0.3246650695800781,-0.07114148139953613,0.14474788308143616
1700931891690923500,0.791923583984375,0.22333717346191406,-0.07350564002990723,-0.1157541573047638
1700931891707914200,0.808914306640625,0.5214996337890625,-0.07995891571044922,-0.1737271547317505
1700931891724911900,0.825911865234375,0.38786792755126953,-0.0650169849395752,-0.08075964450836182
1700931891741899300,0.842899169921875,0.18254756927490234,-0.0884084701538086,0.13499441742897034
1700931891758893300,0.859893310546875,0.033705711364746094,-0.004888057708740234,0.22891473770141602
1700931891775879700,0.876879638671875,0.23317527770996094,-0.003606081008911133,0.24766558408737183
1700931891792875000,0.893875,0.5567798614501953,0.05941176414489746,0.19876185059547424
1700931891809884200,0.91088427734375,0.8027019500732422,0.028609752655029297,0.20076477527618408
1700931891826861600,0.927861572265625,0.7984991073608398,0.0814976692199707,0.2547282576560974
1700931891843844000,0.944843994140625,0.5741825103759766,0.04917597770690918,0.2834928035736084
1700931891860854500,0.9618544921875,0.13005352020263672,-0.0336453914642334,0.20997458696365356
1700931891877843200,0.97884326171875,0.19675350189208984,-0.09899544715881348,-0.005358278751373291
1700931891894838800,0.9958388671875,-0.30012989044189453,0.21418356895446777,-0.15528219938278198
1700931891911828700,1.012828857421875,-0.215179443359375,0.07111382484436035,-0.03352034091949463
1700931891928824000,1.029823974609375,-0.06017589569091797,0.11973285675048828,0.09494474530220032
1700931891945818000,1.046818115234375,0.0072383880615234375,0.09605050086975098,0.21263691782951355
1700931891962807300,1.063807373046875,-0.0019893646240234375,0.06288361549377441,0.16242535412311554
1700931891979802000,1.080802001953125,-0.058098793029785156,-0.16785550117492676,-0.03769847750663757
1700931891996796700,1.097796630859375,0.20175457000732422,-0.39800405502319336,-0.25866690278053284
1700931892013785600,1.11478564453125,0.1364574432373047,-0.08575725555419922,-0.2721957862377167
1700931892030769700,1.131769775390625,-0.052062034606933594,0.002750873565673828,-0.02978655695915222
1700931892047774000,1.14877392578125,-0.1085042953491211,0.010427474975585938,0.10939483344554901
1700931892064768300,1.165768310546875,-0.3480186462402344,0.015346527099609375,0.13907954096794128
1700931892081757700,1.1827578125,-0.4221982955932617,0.011404037475585938,0.14079397916793823
1700931892098752800,1.199752685546875,-0.30349063873291016,-0.0072977542877197266,0.12195813655853271
1700931892115747600,1.21674755859375,-0.045668601989746094,-0.04332900047302246,0.2305370718240738
1700931892132735700,1.23373583984375,0.09449100494384766,-0.044669151306152344,0.2566787898540497
1700931892149731300,1.2507314453125,0.13892364501953125,-0.0733637809753418,0.18916723132133484
1700931892166726000,1.267725830078125,0.13662433624267578,-0.032578468322753906,0.16346606612205505
1700931892183714800,1.28471484375,0.10761260986328125,0.020134687423706055,0.19635507464408875
1700931892200724700,1.301724853515625,0.16261863708496094,0.0906670093536377,0.19054782390594482
1700931892217701000,1.318701171875,0.08942317962646484,0.05241894721984863,0.2746896743774414
1700931892234699300,1.33569921875,-0.06704902648925781,0.003624439239501953,0.34458330273628235
1700931892251686400,1.352686279296875,-0.20736980438232422,-0.021474361419677734,0.3156241178512573
1700931892268681500,1.369681396484375,-0.18785667419433594,-0.02140021324157715,0.26839375495910645
1700931892285676300,1.38667626953125,-0.10710430145263672,0.040560245513916016,0.2509295344352722
1700931892302665000,1.4036650390625,-0.037957191467285156,0.08839082717895508,0.30225884914398193
1700931892319660500,1.42066064453125,-0.060512542724609375,0.08939027786254883,0.32548025250434875
1700931892336654600,1.437654541015625,0.004367828369140625,0.027494192123413086,0.30946093797683716
1700931892353655300,1.4546552734375,0.043061256408691406,-0.031916141510009766,0.19662931561470032
1700931892370640000,1.471639892578125,0.12033939361572266,-0.07510995864868164,0.14273914694786072
1700931892387632400,1.48863232421875,0.2490549087524414,-0.10149526596069336,0.14992332458496094
1700931892404626200,1.505626220703125,0.2140817642211914,-0.08791780471801758,0.19431346654891968
1700931892421615400,1.522615478515625,0.13803863525390625,-0.11763978004455566,0.2443544864654541
1700931892438612000,1.539612060546875,0.011466026306152344,-0.10224604606628418,0.3073301911354065
1700931892455604200,1.556604248046875,0.05001068115234375,-0.06533122062683105,0.43254101276397705
1700931892472592600,1.573592529296875,0.07526111602783203,-0.08821582794189453,0.44956302642822266
1700931892489589200,1.59058935546875,0.0054149627685546875,-0.11355900764465332,0.3716796636581421
1700931892506583800,1.607583740234375,-0.06743144989013672,-0.09386086463928223,0.38487592339515686
1700931892523573200,1.6245732421875,-0.15053272247314453,-0.07991361618041992,0.43380698561668396
1700931892540568600,1.641568603515625,-0.1826305389404297,-0.11116909980773926,0.39983442425727844
1700931892557561000,1.65856103515625,-0.1228017807006836,-0.14034485816955566,0.40090101957321167
1700931892574555600,1.6755556640625,-0.015160560607910156,-0.15867233276367188,0.4386166036128998
1700931892591541500,1.69254150390625,0.14875221252441406,-0.1254291534423828,0.3853412866592407
1700931892608542700,1.709542724609375,0.17216968536376953,-0.021395444869995117,0.2658487856388092
1700931892625519600,1.72651953125,0.10189247131347656,-0.027731895446777344,0.2220306247472763
1700931892642520600,1.7435205078125,0.05171680450439453,-0.059207916259765625,0.19963449239730835
1700931892659521300,1.760521240234375,0.01948070526123047,-0.05826616287231445,0.2235925793647766
1700931892676513000,1.777512939453125,0.04853343963623047,-0.05142521858215332,0.29853153228759766
1700931892693502000,1.794501953125,0.11968517303466797,-0.034131765365600586,0.29120591282844543
1700931892710498000,1.811498046875,0.0755453109741211,-0.05610156059265137,0.24354568123817444
1700931892727490600,1.828490478515625,-0.052646636962890625,-0.07604336738586426,0.15896093845367432
1700931892744484400,1.845484375,-0.04007720947265625,-0.08054733276367188,0.15981286764144897
1700931892761473500,1.8624736328125,-0.005908012390136719,-0.055318355560302734,0.23803208768367767
1700931892778468900,1.87946875,-0.05108451843261719,-0.04057598114013672,0.20223501324653625
1700931892795466500,1.896466552734375,-0.15076923370361328,-0.02291393280029297,0.24411214888095856
1700931892812445200,1.913445068359375,-0.10819149017333984,-0.034682273864746094,0.29648974537849426
1700931892829449200,1.93044921875,0.069671630859375,-0.0643923282623291,0.324989378452301
1700931892846440400,1.9474404296875,0.12871742248535156,-0.0673520565032959,0.30082106590270996
1700931892863431200,1.96443115234375,0.12171077728271484,-0.0664525032043457,0.23334524035453796
1700931892880426800,1.9814267578125,0.04583930969238281,-0.0778350830078125,0.18111486732959747
1700931892897421300,1.99842138671875,-0.004984855651855469,-0.061403751373291016,0.19432544708251953
1700931892914414000,2.0154140625,0.027672767639160156,-0.043476104736328125,0.24216286838054657
1700931892931402800,2.03240283203125,0.0442962646484375,-0.03803372383117676,0.32711637020111084
1700931892948402700,2.049402587890625,-0.014124870300292969,-0.07652950286865234,0.3260611593723297
1700931892965382100,2.066382080078125,0.02805614471435547,-0.10559272766113281,0.26915982365608215
1700931892982377500,2.08337744140625,0.11096000671386719,-0.11446976661682129,0.24042323231697083
1700931892999362600,2.100362548828125,0.1815338134765625,-0.09274649620056152,0.22415435314178467
1700931893016376300,2.117376220703125,0.1067657470703125,-0.06212759017944336,0.18615053594112396
1700931893033362700,2.13436279296875,-0.035119056701660156,-0.09335970878601074,0.17955151200294495
1700931893050357000,2.15135693359375,-0.014883995056152344,-0.12611055374145508,0.18179450929164886
1700931893067348500,2.168348388671875,0.0054779052734375,-0.13353347778320312,0.2125556766986847
1700931893084342500,2.185342529296875,0.1163625717163086,-0.12593293190002441,0.2158948928117752
1700931893101332200,2.202332275390625,0.16401386260986328,-0.08513665199279785,0.21608172357082367
1700931893118326800,2.219326904296875,0.10035419464111328,-0.07487869262695312,0.24609428644180298
1700931893135321900,2.23632177734375,-0.03658103942871094,-0.0665287971496582,0.19998115301132202
1700931893152310000,2.25331005859375,-0.1221914291381836,-0.10141181945800781,0.21522925794124603
1700931893169305600,2.2703056640625,-0.02667999267578125,-0.1242682933807373,0.2169555276632309
1700931893186300200,2.287300048828125,0.06586837768554688,-0.1075446605682373,0.2143619954586029
1700931893203289300,2.304289306640625,0.13509178161621094,-0.10351967811584473,0.20738670229911804
1700931893220285000,2.321284912109375,0.18149852752685547,-0.0818185806274414,0.1958259791135788
1700931893237267700,2.338267822265625,0.15712356567382812,-0.04713582992553711,0.21139146387577057
1700931893254271700,2.355271728515625,-0.016440391540527344,-0.004240751266479492,0.21639932692050934
1700931893271262200,2.37226220703125,-0.23369789123535156,-0.03793621063232422,0.225066676735878
1700931893288238600,2.389238525390625,-0.21401214599609375,-0.04130053520202637,0.17759840190410614
1700931893305252400,2.40625244140625,-0.18669509887695312,-0.034935712814331055,0.21713456511497498
1700931893322239500,2.423239501953125,-0.06678199768066406,-0.11609601974487305,0.23993203043937683
1700931893339236600,2.440236572265625,0.15919113159179688,-0.07485532760620117,0.21042464673519135
1700931893356231200,2.457231201171875,0.1486339569091797,-0.07076263427734375,0.16763922572135925
1700931893373216000,2.474216064453125,0.05264759063720703,-0.036028385162353516,0.13157983124256134
1700931893390221800,2.491221923828125,0.00637054443359375,-0.018725872039794922,0.15955331921577454
1700931893407207200,2.508207275390625,-0.08938312530517578,-0.01776432991027832,0.11509379744529724
1700931893424201000,2.525200927734375,-0.1266622543334961,-0.05347037315368652,0.07645642757415771
1700931893441189600,2.542189697265625,-0.030145645141601562,-0.08003544807434082,0.084236741065979
1700931893458185200,2.559185302734375,0.0928802490234375,-0.03277897834777832,0.09293070435523987
1700931893475180000,2.576179931640625,0.09714126586914062,0.00040221214294433594,0.08926907181739807
1700931893492163800,2.593163818359375,0.010460853576660156,-0.010740041732788086,0.07406902313232422
1700931893509168000,2.610168212890625,-0.06393718719482422,-0.017330169677734375,0.08283063769340515
1700931893526142700,2.627142822265625,-0.05089282989501953,-0.009887933731079102,0.0647348165512085
1700931893543146000,2.64414599609375,-0.0928030014038086,0.001373291015625,0.07804420590400696
1700931893560141000,2.66114111328125,-0.0020227432250976562,0.02101421356201172,0.13499437272548676
1700931893577136000,2.67813623046875,0.14110279083251953,0.0406336784362793,0.17783063650131226
1700931893594158800,2.695158935546875,0.23253440856933594,0.016051292419433594,0.09331604838371277
1700931893611123700,2.712123779296875,0.16530609130859375,-0.011815071105957031,0.09512445330619812
1700931893628113400,2.729113525390625,0.07108688354492188,-0.04161691665649414,0.16122376918792725
1700931893645109200,2.746109130859375,-0.15035057067871094,-0.033055782318115234,0.2052690088748932
1700931893662098400,2.763098388671875,-0.19270706176757812,-0.0536501407623291,0.1886681616306305
1700931893679089700,2.780089599609375,-0.17659854888916016,-0.029404401779174805,0.16256149113178253
1700931893696084500,2.79708447265625,-0.035576820373535156,-0.0008924007415771484,0.1512678861618042
1700931893713066200,2.814066162109375,0.023118972778320312,0.013210296630859375,0.13869167864322662
1700931893730065700,2.831065673828125,-0.0429229736328125,-0.008863449096679688,0.10908772051334381
1700931893747071700,2.84807177734375,-0.0890960693359375,-0.018706083297729492,0.1027713268995285
1700931893764056800,2.865056884765625,-0.0899190902709961,-0.008767127990722656,0.1495550125837326
1700931893781051600,2.8820517578125,-0.0261383056640625,-0.0044558048248291016,0.12908387184143066
1700931893798035000,2.899034912109375,0.10385608673095703,0.036357879638671875,0.10694536566734314
1700931893815038000,2.916037841796875,0.20070552825927734,0.0784456729888916,0.1226595863699913
1700931893832026000,2.933026123046875,0.2439422607421875,0.06339621543884277,0.11853152513504028
1700931893849020700,2.950020751953125,0.172607421875,0.04933738708496094,0.08110547810792923
1700931893866016500,2.9670166015625,0.0245361328125,-0.015832901000976562,0.1330205798149109
1700931893883005400,2.98400537109375,0.02219104766845703,-0.011362314224243164,0.10807185620069504
1700931893900001300,3.001001220703125,0.051598548889160156,-0.03860950469970703,0.09306715428829193
1700931893916993500,3.01799365234375,0.0781097412109375,-0.036468505859375,0.11876823008060455
1700931893933984800,3.03498486328125,0.07789039611816406,-0.03527688980102539,0.16223791241645813
1700931893950980600,3.051980712890625,-0.01787090301513672,-0.01824331283569336,0.14433063566684723
1700931893967971800,3.068971923828125,-0.1585865020751953,-0.08142304420471191,0.1304774284362793
1700931893984954600,3.08595458984375,-0.12441349029541016,-0.13163447380065918,0.14839164912700653
1700931894001959000,3.102958984375,-0.051955223083496094,-0.11507129669189453,0.11023115366697311
1700931894018952200,3.1199521484375,0.006484031677246094,-0.09932899475097656,0.11246982961893082
1700931894035944700,3.13694482421875,0.009930610656738281,-0.10488605499267578,0.17133289575576782
1700931894052937700,3.153937744140625,-0.02722930908203125,-0.07231402397155762,0.19577506184577942
1700931894069930800,3.1709306640625,-0.059441566467285156,-0.06097221374511719,0.15528720617294312
1700931894086923800,3.187923828125,-0.03023242950439453,-0.039089202880859375,0.13428743183612823
1700931894103916300,3.204916259765625,0.05438995361328125,-0.03358006477355957,0.1472182273864746
1700931894120905000,3.221905029296875,0.02642822265625,-0.02769637107849121,0.15000732243061066
1700931894137890800,3.238890869140625,0.023548126220703125,-0.036051273345947266,0.17305098474025726
1700931894154880800,3.255880859375,-0.033743858337402344,-0.026979446411132812,0.18181554973125458
1700931894171882000,3.272882080078125,0.01599407196044922,-0.05492043495178223,0.24662086367607117
1700931894188881000,3.289880859375,0.06130218505859375,-0.032134294509887695,0.21826055645942688
1700931894205874200,3.306874267578125,0.14861297607421875,-0.02286815643310547,0.1453150063753128
1700931894222857000,3.32385693359375,0.1842803955078125,-0.03436994552612305,0.15941831469535828
1700931894239849000,3.340848876953125,0.2249736785888672,-0.03681540489196777,0.18602120876312256
1700931894256852700,3.357852783203125,0.21414852142333984,-0.03761911392211914,0.18102480471134186
1700931894273839400,3.37483935546875,0.09941864013671875,-0.04456186294555664,0.190726175904274
1700931894290838500,3.391838623046875,-0.10182380676269531,-0.044447898864746094,0.181528702378273
1700931894307831000,3.4088310546875,-0.22271251678466797,-0.06077289581298828,0.20314481854438782
1700931894324824300,3.42582421875,-0.22092819213867188,-0.04730558395385742,0.15250515937805176
1700931894341817000,3.442817138671875,-0.1566925048828125,-0.050133705139160156,0.09856192767620087
1700931894358810400,3.459810302734375,-0.07553958892822266,-0.04149580001831055,0.10117420554161072
1700931894375802600,3.476802734375,0.031172752380371094,-0.04671144485473633,0.1558884084224701
1700931894392796000,3.4937958984375,0.16339397430419922,-0.03721451759338379,0.17432984709739685
1700931894409772000,3.51077197265625,0.23584938049316406,-0.03182387351989746,0.13843749463558197
1700931894426782000,3.527781982421875,0.14487171173095703,-0.03781723976135254,0.11032482981681824
1700931894443774200,3.544774169921875,0.030404090881347656,-0.06964683532714844,0.15547886490821838
1700931894460768000,3.56176806640625,-0.0140533447265625,-0.03877544403076172,0.1732339859008789
1700931894477760300,3.57876025390625,-0.07754707336425781,-0.021428346633911133,0.14072632789611816
1700931894494753500,3.59575341796875,-0.15177249908447266,-0.06559133529663086,0.13430453836917877
1700931894511746000,3.61274609375,-0.07353591918945312,-0.07109808921813965,0.14606088399887085
1700931894528739000,3.629739013671875,0.09199905395507812,-0.06589889526367188,0.15958687663078308
1700931894545732000,3.646732177734375,0.16813182830810547,-0.07414531707763672,0.187887042760849
1700931894562725400,3.663725341796875,0.13833141326904297,-0.06899380683898926,0.20795993506908417
1700931894579717400,3.68071728515625,0.08627033233642578,-0.0529477596282959,0.17913392186164856
1700931894596702000,3.697701904296875,-0.09679317474365234,-0.04076647758483887,0.17136363685131073
1700931894613702000,3.714701904296875,-0.22211265563964844,-0.052430152893066406,0.18588405847549438
1700931894630682600,3.7316826171875,-0.15040302276611328,-0.04800009727478027,0.2344672530889511
1700931894647689200,3.748689208984375,0.0653390884399414,0.005177974700927734,0.20694632828235626
1700931894664682500,3.7656826171875,0.22891521453857422,0.019338130950927734,0.14517533779144287
1700931894681675300,3.78267529296875,0.29839134216308594,-0.010738372802734375,0.08476661145687103
1700931894698668500,3.79966845703125,0.1719684600830078,-0.022454023361206055,0.0763273686170578
1700931894715658200,3.816658203125,-0.10833072662353516,-0.030588865280151367,0.09166502952575684
1700931894732656600,3.83365673828125,-0.29607391357421875,-0.012953996658325195,0.04191994667053223
1700931894749646800,3.850646728515625,-0.3293619155883789,-0.009436607360839844,0.04782384634017944
1700931894766640400,3.867640380859375,-0.12581634521484375,0.015033483505249023,0.021338939666748047
1700931894783632400,3.88463232421875,0.07404327392578125,0.05083322525024414,0.016922712326049805
1700931894800625700,3.901625732421875,0.11169910430908203,0.01187896728515625,0.1150040328502655
1700931894817618400,3.918618408203125,0.10729122161865234,-0.016577959060668945,0.175764799118042
1700931894834603500,3.935603515625,0.0750885009765625,-0.045330047607421875,0.21410490572452545
1700931894851604000,3.95260400390625,0.12730884552001953,-0.04115438461303711,0.2620210647583008
1700931894868597200,3.96959716796875,0.19509506225585938,-0.007065534591674805,0.24941937625408173
1700931894885590000,3.986590087890625,0.21798419952392578,-0.008140802383422852,0.1926177740097046
1700931894902583600,4.00358349609375,0.1838092803955078,-0.015746116638183594,0.11885949969291687
1700931894919575800,4.020575927734375,-0.03550910949707031,-0.007680416107177734,0.1158989667892456
1700931894936568800,4.03756884765625,-0.21257305145263672,-0.0188448429107666,0.09028106927871704
1700931894953559000,4.05455908203125,-0.1997509002685547,-0.02054452896118164,0.06515097618103027
1700931894970557700,4.0715576171875,-0.11108207702636719,-0.04097342491149902,0.07322879135608673
1700931894987547400,4.08854736328125,-0.02109813690185547,-0.046381473541259766,0.0890316367149353
1700931895004530000,4.105530029296875,0.019608497619628906,-0.0747992992401123,0.1437816321849823
1700931895021528600,4.122528564453125,0.009543418884277344,-0.05787825584411621,0.06342419981956482
1700931895038523400,4.1395234375,-0.0050716400146484375,-0.08360648155212402,0.0513681024312973
1700931895055522000,4.15652197265625,0.09689617156982422,-0.0758981704711914,0.10607795417308807
1700931895072512300,4.17351220703125,0.20439815521240234,-0.06458163261413574,0.1461130976676941
1700931895089505000,4.190505126953125,0.26982879638671875,-0.07500123977661133,0.09772522747516632
1700931895106498300,4.207498291015625,0.19109439849853516,-0.07771539688110352,0.11501137912273407
1700931895123490600,4.224490478515625,0.0064849853515625,-0.0981442928314209,0.1799631416797638
1700931895140483800,4.24148388671875,-0.16214656829833984,-0.11218094825744629,0.1790006011724472
1700931895157476600,4.2584765625,-0.1612567901611328,-0.09255266189575195,0.1988256871700287
1700931895174470000,4.275469970703125,-0.05107688903808594,-0.03637814521789551,0.18985730409622192
1700931895191459600,4.29245947265625,0.07673835754394531,-0.03653073310852051,0.1957307606935501
1700931895208458000,4.3094580078125,0.13321208953857422,-0.024506568908691406,0.196888267993927
1700931895225448400,4.326448486328125,0.11717700958251953,-0.04880666732788086,0.14917360246181488
1700931895242441500,4.34344140625,0.07731342315673828,-0.07119607925415039,0.08093352615833282
1700931895259433700,4.360433837890625,0.059638023376464844,-0.09051227569580078,0.10065032541751862
1700931895276427000,4.377427001953125,-0.03723716735839844,-0.06359720230102539,0.1547250747680664
1700931895293419800,4.394419677734375,-0.08286762237548828,-0.07177066802978516,0.1171397864818573
1700931895310413000,4.4114130859375,-0.07763957977294922,-0.07083487510681152,0.07442305237054825
1700931895327405600,4.428405517578125,-0.023357391357421875,-0.08877301216125488,0.07305645197629929
1700931895344399400,4.4453994140625,0.0011625289916992188,-0.12608909606933594,0.06968127191066742
1700931895361390800,4.462390869140625,0.005553245544433594,-0.15257763862609863,0.07286182045936584
1700931895378384600,4.479384521484375,-0.05235767364501953,-0.13401508331298828,0.10051881521940231
1700931895395377200,4.496377197265625,-0.023807525634765625,-0.12788629531860352,0.13664580881595612
1700931895412370200,4.5133701171875,0.07030582427978516,-0.0853888988494873,0.14300310611724854
1700931895429363200,4.53036328125,0.12937641143798828,-0.07198834419250488,0.156901553273201
1700931895446356500,4.5473564453125,0.11410236358642578,-0.06413483619689941,0.10971277952194214
1700931895463337000,4.5643369140625,0.051115989685058594,-0.056778907775878906,0.1164856031537056
1700931895480329500,4.58132958984375,-0.008263587951660156,-0.0523838996887207,0.1756649911403656
1700931895497335000,4.5983349609375,-0.03058338165283203,-0.033429861068725586,0.1801581084728241
1700931895514327800,4.615327880859375,0.012898445129394531,-0.004606485366821289,0.18196220695972443
1700931895531320300,4.6323203125,0.05472373962402344,0.01117253303527832,0.1829356551170349
1700931895548303400,4.649303466796875,0.041510581970214844,0.012755632400512695,0.15613146126270294
1700931895565306400,4.666306396484375,0.02830028533935547,0.004083871841430664,0.11982652544975281
1700931895582299600,4.683299560546875,0.040787696838378906,0.007755756378173828,0.08088139444589615
1700931895599291400,4.70029150390625,0.025373458862304688,-0.01144266128540039,0.056773990392684937
1700931895616285000,4.717284912109375,0.05070972442626953,-0.03803586959838867,0.0787278264760971
1700931895633278000,4.73427783203125,0.08368682861328125,-0.018268108367919922,0.12455407530069351
1700931895650268700,4.7512685546875,0.12023735046386719,-0.031368255615234375,0.11410538852214813
1700931895667268900,4.768268798828125,0.1261749267578125,-0.07851052284240723,0.057376109063625336
1700931895684254000,4.78525390625,0.10501384735107422,-0.09076738357543945,0.037437595427036285
1700931895701230600,4.802230712890625,0.04581737518310547,-0.12226271629333496,-0.003679513931274414
1700931895718242800,4.819242919921875,0.20363807678222656,-0.15125823020935059,-0.08020588010549545
1700931895735232500,4.836232421875,0.4664878845214844,-0.0854177474975586,-0.07328785210847855
1700931895752231200,4.853231201171875,0.4580240249633789,0.008402109146118164,-0.12727227807044983
1700931895769221400,4.870221435546875,-0.5085821151733398,-0.04860281944274902,0.05753624066710472
1700931895786214400,4.88721435546875,-0.9255599975585938,-0.18137431144714355,0.19054657220840454
1700931895803216400,4.90421630859375,-0.9176511764526367,-0.18632030487060547,-0.10286233574151993
1700931895820200000,4.921199951171875,-0.46155357360839844,-0.09836864471435547,-0.015920210629701614
1700931895837193000,4.93819287109375,0.037750244140625,0.09633135795593262,0.18247076869010925
1700931895854186000,4.95518603515625,0.07027626037597656,0.1717216968536377,0.3760533928871155
1700931895871168300,4.972168212890625,0.12565231323242188,0.18120288848876953,0.6507206559181213
1700931895888171800,4.989171875,0.2839517593383789,0.23002266883850098,0.5621665120124817
1700931895905164500,5.00616455078125,0.2832975387573242,0.0948188304901123,0.3338286876678467
1700931895922147600,5.023147705078125,0.20001697540283203,-0.08411693572998047,0.21416792273521423
1700931895939147500,5.0401474609375,0.10915660858154297,-0.17163777351379395,0.17842809855937958
1700931895956145700,5.057145751953125,0.1561717987060547,-0.13414382934570312,0.1298213005065918
1700931895973136100,5.07413623046875,0.2559833526611328,-0.09372472763061523,0.016098614782094955
1700931895990129400,5.09112939453125,0.10294437408447266,-0.05869412422180176,-0.06662306934595108
1700931896007121700,5.10812158203125,-0.22687816619873047,-0.055791616439819336,0.017774660140275955
1700931896024114700,5.12511474609375,-0.3214263916015625,-0.0018873214721679688,0.08856201171875
1700931896041107700,5.142107666015625,-0.16284751892089844,0.04633665084838867,0.07793868333101273
1700931896058100700,5.159100830078125,0.05618000030517578,0.043219566345214844,0.08342655003070831
1700931896075093200,5.17609326171875,0.2018270492553711,-0.008192777633666992,0.1367107331752777
1700931896092086500,5.19308642578125,0.2835502624511719,-0.059190988540649414,0.17150235176086426
1700931896109079300,5.210079345703125,0.25588512420654297,-0.08169388771057129,0.17468947172164917
1700931896126070000,5.227070068359375,0.1891317367553711,-0.06684017181396484,0.1378387063741684
1700931896143067400,5.2440673828125,0.07879829406738281,-0.010967016220092773,0.15709486603736877
1700931896160058000,5.26105810546875,-0.006474494934082031,0.0030705928802490234,0.16838829219341278
1700931896177051000,5.27805078125,-0.1175241470336914,-0.03755927085876465,0.08512811362743378
1700931896194033700,5.29503369140625,-0.12960433959960938,-0.1055762767791748,0.02348492667078972
1700931896211036400,5.312036376953125,0.010053634643554688,-0.12427854537963867,-0.03132770210504532
1700931896228029700,5.32902978515625,0.24208450317382812,-0.08589458465576172,-0.008090570569038391
1700931896245022700,5.346022705078125,0.2997913360595703,-0.009345531463623047,0.06801801919937134
1700931896262015700,5.363015625,0.045897483825683594,0.011336803436279297,0.03690198063850403
1700931896279008000,5.380008056640625,-0.2355365753173828,-0.017559528350830078,0.05141080915927887
1700931896296001800,5.397001708984375,-0.34733009338378906,-0.04737257957458496,0.10579928755760193
1700931896312994000,5.413994140625,-0.2775259017944336,-0.027756929397583008,0.10714080929756165
1700931896329990700,5.43099072265625,-0.15584373474121094,-0.008766412734985352,0.13505613803863525
1700931896346979800,5.447979736328125,-0.0390167236328125,-0.019302845001220703,0.1560610681772232
1700931896363972900,5.464972900390625,0.0869903564453125,0.014748334884643555,0.1871093064546585
1700931896380956200,5.4819560546875,0.12764453887939453,0.05362439155578613,0.2372497320175171
1700931896397956600,5.49895654296875,0.058834075927734375,0.04550671577453613,0.19927282631397247
1700931896414954000,5.5159541015625,-0.15003490447998047,0.053666114807128906,0.1632763147354126
1700931896431944700,5.53294482421875,-0.3211183547973633,-0.06509518623352051,0.24754610657691956
1700931896448937500,5.5499375,-0.34386253356933594,-0.07585859298706055,0.21429623663425446
1700931896465930500,5.566930419921875,-0.16558074951171875,-0.08082699775695801,0.047656357288360596
1700931896482923000,5.583923095703125,0.010374069213867188,-0.12209081649780273,-0.08907102048397064
1700931896499916500,5.60091650390625,0.24985694885253906,-0.0695335865020752,0.0071564167737960815
1700931896516907000,5.617906982421875,0.3372640609741211,-0.017737150192260742,0.15555348992347717
1700931896533901300,5.6349013671875,0.13630390167236328,0.016315460205078125,0.15463021397590637
1700931896550897400,5.6518974609375,-0.06360340118408203,-0.0033376216888427734,0.1679956614971161
1700931896567881200,5.668881103515625,-0.06672000885009766,0.010792255401611328,0.23379424214363098
1700931896584860400,5.6858603515625,0.03393840789794922,0.005711793899536133,0.16660644114017487
1700931896601876500,5.70287646484375,-0.4696941375732422,-0.07637238502502441,0.06247350573539734
1700931896618866200,5.7198662109375,-0.11373424530029297,-0.0413060188293457,0.5413281917572021
1700931896635859500,5.736859375,0.33395862579345703,0.270047664642334,0.8338640332221985
1700931896652852200,5.753852294921875,0.6143083572387695,0.5036730766296387,0.9606487154960632
1700931896669845500,5.770845458984375,0.16501140594482422,0.27347254753112793,0.8787053823471069
1700931896686837800,5.787837646484375,0.0189208984375,-0.14281964302062988,0.5714628100395203
1700931896703831000,5.8048310546875,0.2558555603027344,-0.3045055866241455,0.15328891575336456
1700931896720823800,5.82182373046875,0.24052715301513672,-0.4100799560546875,-0.5109160542488098
1700931896737817000,5.838817138671875,0.2964620590209961,-0.34660768508911133,-0.9562208652496338
1700931896754799000,5.855799072265625,0.28556346893310547,-0.32017970085144043,-0.6961233615875244
1700931896771803100,5.87280322265625,0.007237434387207031,-0.10532402992248535,-0.3663622736930847
1700931896788795100,5.889795166015625,-0.4311962127685547,0.07159090042114258,-0.19375821948051453
1700931896805788700,5.90678857421875,-0.7505702972412109,0.24949431419372559,-0.03359095752239227
1700931896822781200,5.92378125,-1.050445556640625,0.29869556427001953,0.16648969054222107
1700931896839774500,5.9407744140625,-1.1144323348999023,0.18125033378601074,0.28134679794311523
1700931896856767500,5.957767578125,-0.6162204742431641,0.0041811466217041016,0.36209437251091003
1700931896873760000,5.974760009765625,0.058868408203125,-0.09816336631774902,0.3442516326904297
1700931896890752800,5.991752685546875,0.5995244979858398,-0.1403641700744629,0.284309059381485
1700931896907746000,6.00874609375,0.8826980590820312,-0.20416760444641113,0.25195977091789246
1700931896924738800,6.02573876953125,0.9163532257080078,-0.19466710090637207,0.21594275534152985
1700931896941731800,6.04273193359375,0.7760810852050781,-0.12307119369506836,0.1467265635728836
1700931896958722600,6.05972265625,0.4635019302368164,-0.07345318794250488,0.06535498797893524
1700931896975719200,6.07671923828125,0.17794513702392578,-0.08860015869140625,-0.034716054797172546
1700931896992707800,6.093707763671875,0.045020103454589844,-0.09115004539489746,-0.03865696117281914
1700931897009706200,6.110706298828125,-0.007084846496582031,-0.044266700744628906,0.04227564111351967
1700931897026686000,6.12768603515625,-0.09415435791015625,-0.01910400390625,0.15391764044761658
1700931897043689000,6.14468896484375,-0.2527046203613281,-0.017700910568237305,0.14806275069713593
1700931897060682000,6.161681884765625,-0.4117002487182617,-0.0208895206451416,0.1031850054860115
1700931897077675300,6.17867529296875,-0.4314603805541992,-0.027091503143310547,0.06496336311101913
1700931897094667500,6.19566748046875,-0.3734445571899414,-0.013878822326660156,0.09438583254814148
1700931897111660800,6.212660888671875,-0.1864948272705078,0.007462978363037109,0.09339924156665802
1700931897128653600,6.229653564453125,0.06621646881103516,0.003358602523803711,0.11553128808736801
1700931897145646800,6.246646728515625,0.2557039260864258,0.04714679718017578,0.11023819446563721
1700931897162639400,6.263639404296875,0.28389930725097656,0.04994058609008789,0.11871133744716644
1700931897179632400,6.28063232421875,0.1452198028564453,0.05298900604248047,0.1470211297273636
1700931897196616000,6.297615966796875,0.012778282165527344,0.0344386100769043,0.15877977013587952
1700931897213620700,6.314620849609375,-0.03806781768798828,0.0028820037841796875,0.15065941214561462
1700931897230612200,6.3316123046875,-0.074127197265625,-0.034110307693481445,0.11277943849563599
1700931897247605000,6.34860498046875,-0.07266044616699219,-0.08598875999450684,0.08484604209661484
1700931897264597000,6.365596923828125,-0.01771831512451172,-0.08360767364501953,0.10844087600708008
1700931897281590000,6.382590087890625,0.087554931640625,-0.05286693572998047,0.15175648033618927
1700931897298582500,6.39958251953125,0.153900146484375,-0.05633807182312012,0.13009336590766907
1700931897315576000,6.416576171875,0.03496551513671875,-0.08131909370422363,0.09240053594112396
1700931897332568600,6.433568603515625,-0.09395694732666016,-0.13175749778747559,0.12765301764011383
1700931897349551000,6.450551025390625,-0.11771297454833984,-0.12394332885742188,0.09611916542053223
1700931897366554400,6.467554443359375,0.03044605255126953,-0.09617447853088379,0.09921586513519287
1700931897383547100,6.484547119140625,0.10034656524658203,-0.06300735473632812,0.10252337902784348
1700931897400540200,6.5015400390625,0.02688884735107422,-0.05582451820373535,0.08002015948295593
1700931897417533200,6.518533203125,-0.061493873596191406,-0.06618523597717285,0.0682743713259697
1700931897434525700,6.535525634765625,-0.13032913208007812,-0.04567718505859375,0.09637261927127838
1700931897451519000,6.55251904296875,-0.023764610290527344,-0.04375815391540527,0.12662473320960999
1700931897468503300,6.56950341796875,0.1443958282470703,-0.017637252807617188,0.10543709993362427
1700931897485502700,6.586502685546875,0.19452667236328125,-0.0097808837890625,0.08737441152334213
1700931897502499800,6.603499755859375,0.11919498443603516,-0.015994548797607422,0.10453636199235916
1700931897519490600,6.620490478515625,0.05630970001220703,-0.018681764602661133,0.16660909354686737
1700931897536481000,6.63748095703125,0.10776901245117188,0.02725696563720703,0.18738539516925812
1700931897553482200,6.654482177734375,0.13395404815673828,0.015494585037231445,0.1749693602323532
1700931897570465500,6.671465576171875,0.03269004821777344,0.009222030639648438,0.0870141088962555
1700931897587462000,6.6884619140625,-0.070068359375,0.012577533721923828,0.03145352751016617
1700931897604444400,6.7054443359375,-0.10717296600341797,0.04107999801635742,0.057279493659734726
1700931897621448200,6.7224482421875,-0.09204578399658203,0.06433558464050293,0.1465294510126114
1700931897638440400,6.7394404296875,-0.07067012786865234,0.0037984848022460938,0.1851951777935028
1700931897655435300,6.756435302734375,-0.0034284591674804688,-0.029819726943969727,0.10955225676298141
1700931897672424000,6.773423828125,0.09102725982666016,-0.06673717498779297,0.051353685557842255
1700931897689422000,6.790422119140625,0.13182449340820312,-0.10385417938232422,0.02383096143603325
1700931897706412000,6.807412109375,0.08086585998535156,-0.1246640682220459,0.05577433109283447
1700931897723406800,6.82440673828125,-0.05472278594970703,-0.10602831840515137,0.13183747231960297
1700931897740398300,6.8413984375,-0.14751529693603516,-0.09874820709228516,0.20523710548877716
1700931897757391000,6.85839111328125,-0.09761714935302734,-0.09929895401000977,0.21494044363498688
1700931897774383600,6.875383544921875,0.010174751281738281,-0.08921170234680176,0.18547989428043365
1700931897791376600,6.892376708984375,0.030202865600585938,-0.059003353118896484,0.13882885873317719
1700931897808370000,6.909369873046875,-0.05568122863769531,-0.054486751556396484,0.1102638840675354
1700931897825363000,6.926363037109375,-0.11805343627929688,-0.053225040435791016,0.09525639563798904
1700931897842354400,6.9433544921875,-0.12283706665039062,-0.027095794677734375,0.11937558650970459
1700931897859344000,6.96034375,-0.018202781677246094,-0.029176712036132812,0.08813351392745972
1700931897876345900,6.977345947265625,0.06037712097167969,-0.012518167495727539,0.05701783671975136
1700931897893334500,6.99433447265625,0.046466827392578125,-0.023415327072143555,0.07879549264907837
1700931897910326800,7.011326904296875,0.0169219970703125,-0.011217355728149414,0.08310491591691971
1700931897927310300,7.028310302734375,-0.006888389587402344,-0.02150440216064453,0.09139736741781235
1700931897944310000,7.04531005859375,-0.0302581787109375,-0.034110069274902344,0.0799511969089508
1700931897961309000,7.062308837890625,-0.04069805145263672,-0.01779937744140625,0.10050785541534424
1700931897978298400,7.07929833984375,-0.016343116760253906,0.021923065185546875,0.12236931174993515
1700931897995289000,7.0962890625,0.06606197357177734,0.03582596778869629,0.12697117030620575
1700931898012287200,7.113287353515625,0.1446208953857422,0.030186891555786133,0.08777837455272675
1700931898029278000,7.13027783203125,0.1787567138671875,-0.004506587982177734,0.06054505705833435
1700931898046270200,7.147270263671875,0.10881614685058594,-0.02363896369934082,0.06345392763614655
1700931898063276500,7.164276611328125,0.0146331787109375,-0.02985835075378418,0.08115212619304657
1700931898080256300,7.18125634765625,-0.056427001953125,-0.03060770034790039,0.11125151067972183
1700931898097247000,7.1982470703125,-0.05349445343017578,-0.01111602783203125,0.1526312232017517
1700931898114244400,7.215244384765625,-0.000942230224609375,0.005578756332397461,0.1695338785648346
1700931898131235000,7.232235107421875,0.04977989196777344,-0.014174222946166992,0.16156429052352905
1700931898148227800,7.249227783203125,0.09697914123535156,-0.038550376892089844,0.1545010805130005
1700931898165220900,7.266220947265625,0.07365608215332031,-0.05413937568664551,0.09444151073694229
1700931898182213600,7.283213623046875,0.01761627197265625,-0.08379125595092773,0.05010553076863289
1700931898199206700,7.30020654296875,0.05232715606689453,-0.0681755542755127,0.08848883211612701
1700931898216199400,7.317199462890625,0.1160421371459961,-0.009133338928222656,0.19181081652641296
1700931898233192700,7.334192626953125,0.1155538558959961,0.02326488494873047,0.19502227008342743
1700931898250174500,7.351174560546875,0.039544105529785156,-0.0027468204498291016,0.1366266906261444
1700931898267190800,7.368190673828125,-0.07010746002197266,-0.035234928131103516,0.05167420953512192
1700931898284171300,7.385171142578125,-0.18847370147705078,-0.055661916732788086,0.01138058491051197
1700931898301164300,7.402164306640625,-0.22957706451416016,-0.07545900344848633,0.03423372656106949
1700931898318151200,7.419151123046875,-0.0980386734008789,-0.03968977928161621,0.04117869585752487
1700931898335149800,7.43614990234375,0.044918060302734375,0.0021343231201171875,0.0769452229142189
1700931898352142800,7.453142822265625,0.1764850616455078,-0.005419015884399414,0.12689591944217682
1700931898369125400,7.47012548828125,0.19896602630615234,-0.018629789352416992,0.15167993307113647
1700931898386128100,7.487128173828125,0.1730966567993164,-0.03670835494995117,0.17730087041854858
1700931898403121400,7.504121337890625,0.09974288940429688,-0.054260969161987305,0.15053606033325195
1700931898420114200,7.5211142578125,-0.0196685791015625,-0.09316158294677734,0.11953224986791611
1700931898437107500,7.538107421875,-0.09541130065917969,-0.11307811737060547,0.13422435522079468
1700931898454099700,7.555099609375,-0.08172130584716797,-0.07717514038085938,0.14503271877765656
1700931898471093000,7.572093017578125,-0.012017250061035156,-0.054212093353271484,0.08921997994184494
1700931898488083500,7.58908349609375,0.0651998519897461,-0.05875134468078613,0.06893067061901093
1700931898505081600,7.60608154296875,0.06629371643066406,-0.05526924133300781,0.06486336886882782
1700931898522071300,7.6230712890625,-0.04259490966796875,-0.045237064361572266,0.09545788168907166
1700931898539064600,7.640064697265625,-0.12927532196044922,-0.021158695220947266,0.12365105748176575
1700931898556057300,7.657057373046875,-0.10452938079833984,-0.020772218704223633,0.1495540291070938
1700931898573050600,7.674050537109375,0.01104736328125,-0.022248506546020508,0.1486750692129135
1700931898590043000,7.69104296875,0.11031341552734375,-0.036382436752319336,0.14828158915042877
1700931898607036200,7.7080361328125,0.11182117462158203,-0.03466677665710449,0.16487370431423187
1700931898624029200,7.725029296875,0.11806297302246094,-0.03417634963989258,0.18797074258327484
1700931898641022200,7.742022216796875,0.07230186462402344,-0.04325580596923828,0.15838101506233215
1700931898658014500,7.759014404296875,0.038616180419921875,-0.06260991096496582,0.14369182288646698
1700931898675008000,7.776008056640625,-0.0029659271240234375,-0.052507638931274414,0.13103356957435608
1700931898691997000,7.792996826171875,-0.0659637451171875,-0.05223512649536133,0.11930627375841141
1700931898708994800,7.809994873046875,-0.04919624328613281,-0.024846553802490234,0.10442564636468887
1700931898725988900,7.82698876953125,0.0044727325439453125,-0.02400064468383789,0.048895444720983505
1700931898742961000,7.8439609375,0.055469512939453125,-0.05761837959289551,0.0022448846139013767
1700931898759969500,7.860969482421875,0.07352828979492188,-0.06032109260559082,0.04497900977730751
1700931898776968000,7.877968017578125,-0.0027370452880859375,-0.04381585121154785,0.09942150861024857
1700931898793948000,7.894947998046875,-0.050080299377441406,-0.04551553726196289,0.1209852322936058
1700931898810951000,7.911950927734375,-0.05954933166503906,-0.040062665939331055,0.12982581555843353
1700931898827943700,7.928943603515625,-0.055840492248535156,-0.047197818756103516,0.10428056120872498
1700931898844937200,7.945937255859375,-0.022553443908691406,-0.053685903549194336,0.07849816232919693
1700931898861929500,7.962929443359375,0.024150848388671875,-0.04886436462402344,0.07490424066781998
1700931898878922500,7.979922607421875,0.05808448791503906,-0.02898097038269043,0.07885497808456421
1700931898895915500,7.99691552734375,0.07415962219238281,-0.024176597595214844,0.11086849868297577
1700931898912908500,8.013908447265624,0.0675363540649414,-0.04337930679321289,0.09014012664556503
1700931898929906200,8.03090625,0.047412872314453125,-0.040129661560058594,0.07510286569595337
1700931898946893300,8.047893310546876,-0.028177261352539062,-0.03652024269104004,0.1139216348528862
1700931898963888000,8.06488818359375,-0.09815025329589844,-0.05269813537597656,0.13187360763549805
1700931898980877600,8.081877685546875,-0.10987377166748047,-0.05166292190551758,0.09909316897392273
1700931898997875500,8.09887548828125,-0.07159137725830078,-0.05055975914001465,0.10578703880310059
1700931899014865000,8.115864990234375,-0.014959335327148438,-0.040602922439575195,0.1494866907596588
1700931899031859000,8.13285888671875,0.05392932891845703,-0.017736434936523438,0.1503238081932068
1700931899048851500,8.1498515625,0.12046146392822266,-0.00823521614074707,0.08636938780546188
1700931899065844200,8.16684423828125,0.11077880859375,0.010084867477416992,0.07033341377973557
1700931899082837200,8.183837158203126,0.032416343688964844,-0.011358261108398438,0.09867645055055618
1700931899099819800,8.20081982421875,-0.047989845275878906,-0.02420949935913086,0.09590049833059311
1700931899116822300,8.217822265625,-0.08035755157470703,-0.014340877532958984,0.053485751152038574
1700931899133817000,8.234817138671875,-0.06619071960449219,-0.009220600128173828,0.017711840569972992
1700931899150808800,8.251808837890625,-0.005314826965332031,-0.007699728012084961,-0.02078135311603546
1700931899167801900,8.2688017578125,0.1057596206665039,-0.007681369781494141,-0.02411767840385437
1700931899184795000,8.285794921875,0.19208908081054688,-0.010569334030151367,0.08217810839414597
1700931899201787600,8.30278759765625,0.17553424835205078,0.005483388900756836,0.1504090428352356
1700931899218780400,8.319780517578126,0.07749652862548828,-0.0038747787475585938,0.1460101157426834
1700931899235773400,8.3367734375,-0.03281402587890625,-0.02122044563293457,0.13808628916740417
1700931899252766700,8.3537666015625,-0.10013866424560547,-0.022249937057495117,0.10221803188323975
1700931899269759000,8.370759033203125,-0.08688545227050781,-0.05442452430725098,0.082914337515831
1700931899286752300,8.387752197265625,-0.051090240478515625,-0.08565115928649902,0.07749621570110321
1700931899303745300,8.404745361328125,-0.012015342712402344,-0.08487677574157715,0.10921284556388855
1700931899320738300,8.42173828125,0.058836936950683594,-0.03965497016906738,0.16583658754825592
1700931899337730600,8.43873046875,0.11900997161865234,0.016173839569091797,0.1630367934703827
1700931899354723800,8.455723876953124,0.08735847473144531,0.00879979133605957,0.08565480262041092
1700931899371716600,8.472716552734376,-0.029659271240234375,-0.0411229133605957,0.010085895657539368
1700931899388710000,8.4897099609375,-0.1272745132446289,-0.0935523509979248,0.032460957765579224
1700931899405702100,8.5067021484375,-0.11250019073486328,-0.08998775482177734,0.07874438911676407
1700931899422681000,8.52368115234375,-0.010149002075195312,-0.058066368103027344,0.0909406766295433
1700931899439688200,8.540688232421875,0.04337596893310547,-0.023053646087646484,0.12444564700126648
1700931899456681700,8.557681640625,0.06646251678466797,0.00048804283142089844,0.1192944347858429
1700931899473673700,8.574673828125,0.11851692199707031,-0.009309053421020508,0.07729748636484146
1700931899490667000,8.5916669921875,0.126800537109375,-0.019934654235839844,0.06684298813343048
1700931899507657500,8.608657470703125,0.05393028259277344,-0.01960611343383789,0.04962965101003647
1700931899524655600,8.625655517578124,-0.04758167266845703,-0.02410745620727539,0.03064526617527008
1700931899541645300,8.642645263671875,-0.09913825988769531,-0.03197002410888672,0.054350245743989944
1700931899558638600,8.659638671875,-0.0885772705078125,-0.03596854209899902,0.10310260206460953
1700931899575631400,8.67663134765625,-0.049475669860839844,-0.022646427154541016,0.08546306937932968
1700931899592624600,8.693624755859375,0.01953125,-0.03388524055480957,0.09585035592317581
1700931899609617200,8.7106171875,0.07047271728515625,-0.023575782775878906,0.09489569067955017
1700931899626610200,8.727610107421874,0.06508636474609375,-0.028663158416748047,0.0855412483215332
1700931899643589400,8.74458935546875,-0.022269248962402344,-0.0353999137878418,0.11253301799297333
1700931899660596500,8.761596435546876,-0.09370136260986328,-0.02263164520263672,0.12180434912443161
1700931899677588500,8.77858837890625,-0.050746917724609375,-0.007447719573974609,0.11456304788589478
1700931899694581800,8.795581787109375,0.03175640106201172,0.013961076736450195,0.09572471678256989
1700931899711574800,8.81257470703125,0.1238241195678711,0.0005135536193847656,0.06310516595840454
1700931899728567600,8.829567626953125,0.14774227142333984,0.0002503395080566406,-0.0007032454013824463
1700931899745560000,8.84656005859375,0.04555034637451172,-0.016157865524291992,-0.020730741322040558
1700931899762553300,8.86355322265625,-0.11226081848144531,-0.026400327682495117,-0.036225028336048126
1700931899779546000,8.880546142578124,-0.19198989868164062,-0.051587820053100586,0.029295504093170166
1700931899796529000,8.89752880859375,-0.1436443328857422,-0.06394648551940918,0.09101822972297668
1700931899813531000,8.91453076171875,0.057559967041015625,-0.06711363792419434,0.11926212906837463
1700931899830526200,8.931526123046876,0.21190834045410156,-0.03013777732849121,0.13243357837200165
1700931899847517700,8.948517578125,0.26042842864990234,-0.0202484130859375,0.1470406949520111
1700931899864511200,8.96551123046875,0.13316631317138672,-0.0314183235168457,0.12775714695453644
1700931899881503500,8.98250341796875,-0.005038261413574219,-0.05822181701660156,0.06047312170267105
1700931899898494500,8.999494384765624,-0.044734954833984375,-0.050783634185791016,0.047988370060920715
1700931899915491800,9.016491943359375,-0.014165878295898438,-0.042163848876953125,0.062134481966495514
1700931899932482600,9.033482666015624,0.0064716339111328125,-0.0323026180267334,0.08009003102779388
1700931899949475000,9.05047509765625,-0.017274856567382812,-0.023634910583496094,0.09167122840881348
1700931899966468000,9.067468017578125,-0.06378555297851562,-0.031438589096069336,0.05775543674826622
1700931899983458300,9.084458251953125,-0.09000873565673828,-0.05917501449584961,0.02285771071910858
1700931900000457200,9.101457275390626,-0.055281639099121094,-0.05818581581115723,0.06434552371501923
1700931900017446700,9.11844677734375,0.00026035308837890625,-0.07328915596008301,0.07369182258844376
1700931900034439700,9.135439697265625,-0.013883590698242188,-0.06545019149780273,0.09327059239149094
1700931900051433500,9.15243359375,-0.04877471923828125,-0.04796099662780762,0.14473889768123627
1700931900068425000,9.169425048828124,-0.05982017517089844,-0.0008034706115722656,0.1616920679807663
1700931900085418200,9.186418212890626,-0.015475273132324219,0.014713287353515625,0.14699432253837585
1700931900102411500,9.20341162109375,0.03792762756347656,0.0012602806091308594,0.10198578983545303
1700931900119415000,9.2204150390625,0.048870086669921875,-0.025083303451538086,0.056741416454315186
1700931900136397600,9.2373974609375,0.08609676361083984,-0.03302168846130371,0.04530772566795349
1700931900153389800,9.254389892578125,0.060581207275390625,-0.028312206268310547,0.04970080032944679
1700931900170383400,9.27138330078125,-0.023006439208984375,-0.0470120906829834,0.04959293454885483
1700931900187375900,9.2883759765625,-0.07747364044189453,-0.042761802673339844,0.12019942700862885
1700931900204369200,9.305369140625,-0.07622814178466797,-0.004567384719848633,0.10345904529094696
1700931900221361400,9.322361328125,-0.008501052856445312,0.001313924789428711,0.06970289349555969
1700931900238354400,9.3393544921875,0.04418659210205078,-0.00891876220703125,0.043594714254140854
1700931900255355600,9.356355712890625,0.09583568572998047,-0.013116598129272461,0.054367050528526306
1700931900272340700,9.3733408203125,0.08343124389648438,-0.012287378311157227,0.032212771475315094
1700931900289333000,9.3903330078125,0.027425765991210938,-0.026795387268066406,0.00345052033662796
1700931900306325000,9.407324951171875,-0.04485893249511719,-0.03569531440734863,0.05956371873617172
1700931900323319600,9.424319580078125,-0.08323192596435547,-0.030089616775512695,0.09604371339082718
1700931900340312000,9.44131201171875,-0.06369590759277344,-0.02235102653503418,0.1164829283952713
1700931900357312300,9.458312255859376,-0.03339672088623047,-0.007631540298461914,0.06763114780187607
1700931900374297900,9.4752978515625,-0.05319976806640625,-0.020768404006958008,0.016166068613529205
1700931900391290600,9.49229052734375,-0.05573463439941406,-0.022858619689941406,0.015107586979866028
1700931900408283600,9.50928369140625,-0.058757781982421875,-0.015613794326782227,0.045824769884347916
1700931900425276400,9.5262763671875,0.009690284729003906,-0.01634073257446289,0.09205665439367294
1700931900442269400,9.54326953125,0.04651832580566406,-0.01839447021484375,0.09318236261606216
1700931900459262500,9.560262451171875,0.0949859619140625,-0.040856122970581055,0.12030870467424393
1700931900476255200,9.577255126953125,0.07641792297363281,-0.035329341888427734,0.16195501387119293
1700931900493247700,9.594247802734374,-0.06556892395019531,-0.013717889785766602,0.1285397857427597
1700931900510241500,9.611241455078124,-0.1721363067626953,0.00041484832763671875,0.12183895707130432
1700931900527221200,9.62822119140625,-0.12118816375732422,0.007603645324707031,0.13969773054122925
1700931900544218600,9.645218505859376,0.10788536071777344,0.009643793106079102,0.14227169752120972
1700931900561219300,9.66221923828125,0.34489917755126953,0.026134729385375977,0.099266417324543
1700931900578212600,9.679212646484375,0.34859752655029297,0.013380765914916992,0.05322101712226868
1700931900595203300,9.696203369140624,0.17846202850341797,0.0028846263885498047,0.04798249900341034
1700931900612200700,9.71320068359375,0.029994964599609375,0.0224761962890625,0.01749931275844574
1700931900629188600,9.730188720703126,-0.02725696563720703,0.03131890296936035,-0.016299203038215637
1700931900646186800,9.747186767578125,-0.0812215805053711,0.03183388710021973,0.01512221246957779
1700931900663177000,9.764177001953126,-0.09630584716796875,-0.012825250625610352,0.04495325684547424
1700931900680170200,9.781170166015626,-0.04193878173828125,-0.050605058670043945,0.05065051466226578
1700931900697162800,9.798162841796875,0.04607963562011719,-0.07822251319885254,0.04111774265766144
1700931900714155800,9.81515576171875,0.06496429443359375,-0.08084535598754883,0.04621326923370361
1700931900731148500,9.8321484375,0.006786346435546875,-0.08999276161193848,0.07169238477945328
1700931900748128800,9.849128662109376,-0.09288215637207031,-0.07096457481384277,0.09644860774278641
1700931900765126400,9.86612646484375,-0.1262807846069336,-0.0630333423614502,0.08626517653465271
1700931900782127400,9.88312744140625,-0.11176681518554688,-0.06505393981933594,0.06658488512039185
1700931900799118300,9.900118408203125,-0.017699241638183594,-0.05456805229187012,0.05754682421684265
1700931900816115500,9.917115478515624,0.04384803771972656,-0.03458094596862793,0.06505098193883896
1700931900833106200,9.934106201171875,0.0471343994140625,-0.01996612548828125,0.09976080060005188
1700931900850099000,9.951098876953125,0.027840614318847656,-0.01513051986694336,0.1324428766965866
1700931900867091700,9.968091796875,0.044157981872558594,0.008467674255371094,0.14297597110271454
1700931900884085000,9.9850849609375,0.06889629364013672,0.021375417709350586,0.09742249548435211
1700931900901079000,10.0020791015625,0.06543731689453125,-0.0026826858520507812,0.07710990309715271
1700931900918058200,10.019058349609375,0.0076141357421875,-0.03055262565612793,0.09004013985395432
1700931900935064800,10.03606494140625,-0.01987457275390625,-0.05254960060119629,0.124809131026268
1700931900952056600,10.053056640625,0.03581523895263672,-0.02474379539489746,0.16781704127788544
1700931900969048800,10.070048828125,0.10257911682128906,0.014438629150390625,0.13228534162044525
1700931900986042000,10.0870419921875,0.11386394500732422,0.008141279220581055,0.07707138359546661
1700931901003035100,10.10403515625,0.03084087371826172,-0.07228422164916992,0.06855541467666626
1700931901020028200,10.121028076171875,-0.08665275573730469,-0.10760140419006348,0.03513776510953903
1700931901037020700,10.138020751953125,-0.1660604476928711,-0.08970093727111816,0.03379340469837189
1700931901054013700,10.155013671875,-0.19664859771728516,-0.06643295288085938,0.0562138631939888
1700931901071006500,10.17200634765625,-0.16195106506347656,-0.06981325149536133,0.06519940495491028
1700931901088000000,10.189,-0.004741668701171875,-0.07370638847351074,0.07032258063554764
1700931901104992000,10.205991943359376,0.27255916595458984,-0.05072450637817383,0.0873260498046875
1700931901121985300,10.2229853515625,0.4793243408203125,-0.02103281021118164,0.0927414521574974
1700931901138984400,10.239984375,0.4792013168334961,-0.007688999176025391,0.10968758165836334
1700931901155964400,10.25696435546875,0.21720504760742188,-0.01584172248840332,0.10196691751480103
1700931901172963800,10.2739638671875,-0.11189842224121094,-0.03350710868835449,0.06839597225189209
1700931901189954300,10.290954345703126,-0.3147573471069336,-0.05045795440673828,0.08739493787288666
1700931901206952400,10.307952392578125,-0.3071737289428711,-0.04699277877807617,0.13701961934566498
1700931901223934200,10.324934326171874,-0.12907886505126953,-0.051923274993896484,0.15217360854148865
1700931901240935400,10.341935302734376,0.08553504943847656,-0.05431532859802246,0.08080495148897171
1700931901257928400,10.358928466796876,0.22347068786621094,-0.04784035682678223,0.04058205336332321
1700931901274921500,10.37592138671875,0.23503398895263672,-0.024703502655029297,0.020192787051200867
1700931901291914500,10.39291455078125,0.034699440002441406,-0.02863621711730957,0.03273957222700119
1700931901308907000,10.409906982421875,-0.12589073181152344,-0.06844520568847656,0.07005299627780914
1700931901325899500,10.4268994140625,-0.15543651580810547,-0.08767843246459961,0.07363979518413544
1700931901342893800,10.443893798828125,-0.058063507080078125,-0.08851933479309082,0.05646511912345886
1700931901359886000,10.460885986328124,0.06492042541503906,-0.056359291076660156,0.05597681552171707
1700931901376883000,10.477883056640625,0.1639842987060547,-0.047141313552856445,0.06038176268339157
1700931901393873400,10.494873291015624,0.13274860382080078,-0.04364347457885742,0.0655767172574997
1700931901410862800,10.51186279296875,-0.015073776245117188,-0.047626495361328125,0.07010774314403534
1700931901427857700,10.528857666015625,-0.12992000579833984,-0.05094313621520996,0.08198385685682297
1700931901444850400,10.545850341796875,-0.1535968780517578,-0.046076297760009766,0.07951384782791138
1700931901461843200,10.56284326171875,-0.10623645782470703,-0.040854692459106445,0.04662349075078964
1700931901478836200,10.579836181640625,0.023729324340820312,-0.028179168701171875,0.020047996193170547
1700931901495829500,10.59682958984375,0.17672157287597656,-0.015715599060058594,0.03321850299835205
1700931901512821800,10.61382177734375,0.21259117126464844,-0.008410215377807617,0.07780875265598297
1700931901529814800,10.630814697265626,0.0845632553100586,-0.010690450668334961,0.1066221296787262
1700931901546807800,10.647807861328126,-0.047492027282714844,-0.031124353408813477,0.11159385740756989
1700931901563800800,10.66480078125,-0.1455078125,-0.019466876983642578,0.08960254490375519
1700931901580793300,10.68179345703125,-0.13669109344482422,-0.0426025390625,0.052146751433610916
1700931901597786600,10.69878662109375,-0.04438495635986328,-0.04041123390197754,-0.030787885189056396
1700931901614776800,10.71577685546875,0.007916450500488281,-0.04185128211975098,0.0023714564740657806
1700931901631773200,10.732773193359375,-0.015432357788085938,-0.04159355163574219,0.102479949593544
1700931901648766700,10.7497666015625,-0.007245063781738281,-0.017565488815307617,0.1203233152627945
1700931901665758000,10.766758056640626,0.055755615234375,-0.014707565307617188,0.09564149379730225
1700931901682751000,10.7837509765625,0.10013294219970703,-0.013672351837158203,0.05451412498950958
1700931901699744300,10.800744140625,0.09542179107666016,-0.045418500900268555,-0.01834159716963768
1700931901716736500,10.817736572265625,0.01732349395751953,-0.052373409271240234,-0.024152908474206924
1700931901733729800,10.834729736328125,-0.07900142669677734,-0.031293392181396484,-0.023217037320137024
1700931901750722600,10.85172265625,-0.07477378845214844,-0.018001317977905273,0.01290762796998024
1700931901767715600,10.868715576171875,0.026001930236816406,0.008905649185180664,0.03290504217147827
1700931901784708000,10.8857080078125,0.118133544921875,0.002052783966064453,0.06205812841653824
1700931901801701400,10.902701416015624,0.1126871109008789,-0.0056569576263427734,0.05296861007809639
1700931901818694100,10.919694091796876,0.000202178955078125,-0.014238834381103516,0.0773848369717598
1700931901835687400,10.9366875,-0.09619522094726562,-0.02064967155456543,0.08666683733463287
1700931901852680000,10.953679931640625,-0.09309673309326172,-0.021340131759643555,0.07217974960803986
1700931901869673000,10.9706728515625,0.015821456909179688,-0.026706218719482422,0.09137026965618134
1700931901886663200,10.9876630859375,0.1158132553100586,-0.017971277236938477,0.13000567257404327
1700931901903661600,11.00466162109375,0.1470499038696289,-0.005743980407714844,0.1466675102710724
1700931901920651300,11.0216513671875,0.09647464752197266,-0.0065310001373291016,0.10422876477241516
1700931901937644500,11.03864453125,0.021935462951660156,0.007317543029785156,0.06357698142528534
1700931901954637600,11.055637451171876,-0.04199028015136719,-0.003812551498413086,0.034292783588171005
1700931901971630600,11.072630615234376,-0.0938100814819336,-0.014019250869750977,0.028388611972332
1700931901988622800,11.089622802734375,-0.014619827270507812,-0.0013093948364257812,0.048802442848682404
1700931902005616000,11.1066162109375,0.11267662048339844,0.007498741149902344,0.08362135291099548
1700931902022608100,11.123608154296875,0.2056589126586914,0.012110710144042969,0.08188920468091965
1700931902039599400,11.140599365234374,0.17844295501708984,-0.01346731185913086,0.08180185407400131
1700931902056597200,11.15759716796875,0.0595703125,-0.043331146240234375,0.10055063664913177
1700931902073584000,11.174584228515625,-0.06962108612060547,-0.036879539489746094,0.12413721531629562
1700931902090583800,11.191583740234375,-0.09633731842041016,-0.02989029884338379,0.12445475161075592
1700931902107576000,11.208576171875,-0.05160045623779297,-0.061276912689208984,0.0900544822216034
1700931902124563700,11.225563720703125,0.012253761291503906,-0.10657310485839844,0.06837242841720581
1700931902141559300,11.242559326171875,0.02205371856689453,-0.07180643081665039,0.08958952128887177
1700931902158552000,11.259552001953125,-0.03490161895751953,-0.03360247611999512,0.09306900203227997
1700931902175545300,11.27654541015625,-0.060194969177246094,-0.03106832504272461,0.04400695860385895
1700931902192537600,11.29353759765625,-0.08123302459716797,-0.04170060157775879,0.07535474002361298
1700931902209531000,11.31053076171875,-0.02266979217529297,-0.04781460762023926,0.08569435030221939
1700931902226513700,11.327513671875,-0.07700824737548828,-0.08192133903503418,0.07028403878211975
1700931902243515600,11.344515625,-0.17276859283447266,-0.03702521324157715,0.0705181360244751
1700931902260510500,11.361510498046876,-0.18508243560791016,-0.01645350456237793,0.1125866174697876
1700931902277502500,11.37850244140625,-0.03498649597167969,-0.0496518611907959,0.08218918740749359
1700931902294492700,11.39549267578125,0.2337503433227539,-0.06589627265930176,0.0022433847188949585
1700931902311491000,11.412490966796875,0.23398113250732422,-0.015875577926635742,0.03481262922286987
1700931902328480800,11.429480712890625,0.1006765365600586,0.06883811950683594,0.08627002686262131
1700931902345474000,11.44647412109375,-0.04073619842529297,0.054590702056884766,0.10923327505588531
1700931902362467000,11.463467041015624,-0.048727989196777344,-0.03865242004394531,0.0795540064573288
1700931902379460000,11.480460205078124,0.0398101806640625,-0.07015013694763184,0.020007923245429993
1700931902396462300,11.49746240234375,0.10749626159667969,-0.05733752250671387,0.07403670251369476
1700931902413445600,11.514445556640625,0.09966278076171875,-0.027658462524414062,0.13300928473472595
1700931902430438400,11.5314384765625,-0.07133197784423828,-0.024549245834350586,0.1424376517534256
1700931902447433200,11.54843310546875,-0.16057682037353516,-0.032904863357543945,0.09757839888334274
1700931902464422400,11.56542236328125,-0.09993171691894531,-0.02374744415283203,0.06296345591545105
1700931902481417200,11.582417236328125,0.0452423095703125,-0.03527498245239258,0.04330442100763321
1700931902498407700,11.59940771484375,0.13454818725585938,-0.037558794021606445,-0.0032545775175094604
1700931902515395600,11.6163955078125,0.03095531463623047,-0.05168318748474121,0.020380116999149323
1700931902532398300,11.6333984375,-0.13187789916992188,-0.05737924575805664,0.05917554348707199
1700931902549388800,11.650388916015626,-0.20096778869628906,-0.04011893272399902,0.04234351962804794
1700931902566381600,11.667381591796875,-0.08812904357910156,-0.03801536560058594,0.05030497908592224
1700931902583374800,11.684374755859375,0.0755472183227539,-0.018653154373168945,0.021615855395793915
1700931902600356900,11.70135693359375,0.18884658813476562,-0.05703592300415039,0.03850879520177841
1700931902617360600,11.718360595703125,0.13206195831298828,-0.04727053642272949,0.0773945227265358
1700931902634353200,11.735353271484374,-0.0062084197998046875,-0.022826194763183594,0.09979461133480072
1700931902651344000,11.75234375,-0.14925765991210938,-0.0006585121154785156,0.1084800511598587
1700931902668341200,11.76934130859375,-0.1379098892211914,-0.011462688446044922,0.13266780972480774
1700931902685332200,11.786332275390626,0.02355480194091797,0.003457307815551758,0.15296387672424316
1700931902702322400,11.803322509765625,0.20566940307617188,0.033304452896118164,0.16302277147769928
1700931902719320600,11.820320556640626,0.204193115234375,0.012809991836547852,0.16608747839927673
1700931902736310500,11.837310546875,0.013154983520507812,-0.011364459991455078,0.1478460729122162
1700931902753303600,11.854303466796875,-0.1942453384399414,-0.029636621475219727,0.10385867953300476
1700931902770296600,11.871296630859375,-0.27263832092285156,-0.003941059112548828,0.06427621096372604
1700931902787289600,11.88828955078125,-0.18329715728759766,-0.004518985748291016,0.07074040919542313
1700931902804282000,11.9052822265625,0.011185646057128906,-0.012093067169189453,0.06081277132034302
1700931902821275100,11.922275146484376,0.2505760192871094,0.03787803649902344,0.00988595187664032
1700931902838268200,11.93926806640625,0.3209209442138672,0.03730893135070801,0.022402219474315643
1700931902855261400,11.956261474609375,0.1980724334716797,0.005144834518432617,0.07466192543506622
1700931902872256500,11.973256591796876,-0.044096946716308594,-0.05226778984069824,0.03214186429977417
1700931902889244200,11.990244140625,-0.1646738052368164,-0.09648704528808594,0.054912928491830826
1700931902906239700,12.00723974609375,-0.08974170684814453,-0.048557281494140625,0.08291185647249222
1700931902923232800,12.024232666015624,0.16169357299804688,0.04779934883117676,0.08498064428567886
1700931902940222700,12.04122265625,0.3200540542602539,0.09937310218811035,0.06313624233007431
1700931902957220900,12.058220947265625,0.23810672760009766,0.027255535125732422,0.090690478682518
1700931902974211600,12.075211669921876,0.05257225036621094,-0.06042003631591797,0.10772232711315155
1700931902991204400,12.092204345703125,-0.039585113525390625,-0.11374902725219727,0.08007395267486572
1700931903008196900,12.10919677734375,-0.010507583618164062,-0.11647891998291016,0.09961365908384323
1700931903025190100,12.126190185546875,-0.037235260009765625,-0.08251333236694336,0.14785659313201904
1700931903042183000,12.143182861328125,0.02846813201904297,-0.005422830581665039,0.1324658989906311
1700931903059176200,12.16017626953125,0.11530590057373047,0.07088685035705566,0.13455170392990112
1700931903076168700,12.177168701171874,0.07601642608642578,0.006818294525146484,0.16235056519508362
1700931903093161700,12.19416162109375,-0.050637245178222656,-0.09944915771484375,0.10086856037378311
1700931903110146300,12.211146240234376,-0.18169498443603516,-0.17441296577453613,0.045839764177799225
1700931903127146800,12.228146728515625,-0.18734455108642578,-0.21044158935546875,0.046514689922332764
1700931903144140000,12.24514013671875,-0.16444015502929688,-0.1500098705291748,0.08162778615951538
1700931903161133300,12.26213330078125,-0.15468215942382812,-0.09933924674987793,0.11736200004816055
1700931903178126300,12.279126220703125,-0.2048482894897461,-0.09816551208496094,0.1388724148273468
1700931903195120400,12.296120361328125,-0.2886161804199219,-0.10024070739746094,0.09970192611217499
1700931903212110300,12.3131103515625,-0.2838897705078125,-0.10527992248535156,0.16497966647148132
1700931903229105000,12.33010498046875,-0.07415962219238281,-0.05908966064453125,0.24017606675624847
1700931903246097700,12.34709765625,0.1505126953125,-0.054387807846069336,0.1250426471233368
1700931903263091000,12.364091064453126,0.22101974487304688,-0.008984804153442383,0.012177161872386932
1700931903280083200,12.381083251953125,0.12482166290283203,0.022670507431030273,-0.017813362181186676
1700931903297076500,12.398076416015625,-0.05536079406738281,-0.00921773910522461,-0.04011499136686325
1700931903314069200,12.4150693359375,-0.08409404754638672,0.0014986991882324219,-0.038021817803382874
1700931903331061500,12.4320615234375,-0.0098724365234375,0.05227518081665039,-0.003319159150123596
1700931903348046800,12.449046875,0.049411773681640625,0.0627906322479248,0.033730678260326385
1700931903365047300,12.46604736328125,0.10348224639892578,0.06349945068359375,0.03331891447305679
1700931903382041900,12.483041748046874,0.1279144287109375,0.047803401947021484,0.03303249552845955
1700931903399037200,12.500037109375,0.08701038360595703,0.036787986755371094,0.09158539026975632
1700931903416026400,12.5170263671875,0.07485389709472656,0.02021312713623047,0.1291460394859314
1700931903433017300,12.534017333984375,0.07462215423583984,-0.01253819465637207,0.14870335161685944
1700931903450015000,12.551014892578126,0.10071372985839844,-0.030118465423583984,0.1345992386341095
1700931903467005700,12.568005615234375,0.05288982391357422,-0.008019685745239258,0.13056384027004242
1700931903483998200,12.584998291015625,-0.009159088134765625,-0.0005533695220947266,0.1579691469669342
1700931903500991200,12.6019912109375,-0.04592132568359375,-0.03826093673706055,0.09873771667480469
1700931903517984300,12.618984375,0.03148460388183594,-0.07404947280883789,0.03995508328080177
1700931903534977300,12.635977294921876,0.17500019073486328,-0.04326128959655762,0.0937473475933075
1700931903551959600,12.65295947265625,0.2500171661376953,0.029556751251220703,0.1681772917509079
1700931903568963000,12.669963134765625,0.1592397689819336,0.04665780067443848,0.1921968311071396
1700931903585955600,12.68695556640625,-0.0284423828125,0.010135412216186523,0.17716464400291443
1700931903602948900,12.703948974609375,-0.171295166015625,-0.031207561492919922,0.17060354351997375
1700931903619941400,12.72094140625,-0.07007122039794922,-0.07984304428100586,0.1809203326702118
1700931903636934400,12.737934326171874,0.1587963104248047,-0.07374024391174316,0.2008020579814911
1700931903653927400,12.754927490234374,0.33591747283935547,-0.04510688781738281,0.195696622133255
1700931903670920400,12.77192041015625,0.2698945999145508,-0.04466414451599121,0.1808442324399948
1700931903687913000,12.788912841796876,-0.019212722778320312,-0.09949588775634766,0.16450102627277374
1700931903704906000,12.805906005859375,-0.37975215911865234,-0.13174867630004883,0.12361791729927063
1700931903721887200,12.82288720703125,-0.5234918594360352,-0.1726241111755371,0.1112549677491188
1700931903738889200,12.83988916015625,-0.3198213577270508,-0.14248037338256836,0.11401672661304474
1700931903755884500,12.856884521484375,0.040012359619140625,-0.06436300277709961,0.08871296048164368
1700931903772887300,12.87388720703125,0.2724800109863281,-0.01845717430114746,0.04654715955257416
1700931903789870600,12.89087060546875,0.2512474060058594,-0.00991511344909668,0.00380011647939682
1700931903806863600,12.907863525390624,0.03064250946044922,-0.026209354400634766,-0.04118363931775093
1700931903823856000,12.924856201171876,-0.1760425567626953,-0.04217195510864258,-0.051119763404130936
1700931903840849200,12.94184912109375,-0.2038135528564453,-0.031957149505615234,-0.05437047779560089
1700931903857841700,12.958841552734375,-0.0765829086303711,-0.042054176330566406,-0.05412975698709488
1700931903874835500,12.97583544921875,0.0725412368774414,-0.025700807571411133,-0.055936411023139954
1700931903891827700,12.99282763671875,0.14489364624023438,0.01100015640258789,-0.04515530914068222
1700931903908821000,13.009821044921875,0.111328125,0.023384809494018555,-0.02959044650197029
1700931903925813800,13.026813720703124,0.05234050750732422,0.0501103401184082,-0.05631466209888458
1700931903942807000,13.04380712890625,0.06310749053955078,0.049330711364746094,-0.08309245109558105
1700931903959799300,13.06079931640625,0.12126731872558594,0.03240966796875,-0.11023885011672974
1700931903976792300,13.077792236328126,0.2000446319580078,-0.0015819072723388672,-0.11460603773593903
1700931903993780500,13.094780517578124,0.2001800537109375,-0.02278304100036621,-0.0813191831111908
1700931904010792200,13.111792236328125,0.13623714447021484,-0.022877931594848633,-0.03891712427139282
1700931904027770600,13.1287705078125,0.025368690490722656,-0.009616613388061523,-0.001842781901359558
1700931904044761900,13.145761962890624,-0.05905342102050781,-0.014336347579956055,-0.05942052975296974
1700931904061756700,13.162756591796875,-0.058876991271972656,-0.019770145416259766,-0.08463533967733383
1700931904078752800,13.179752685546875,-0.06565093994140625,-0.031679391860961914,-0.036779358983039856
1700931904095742500,13.196742431640626,-0.07954788208007812,-0.0476531982421875,-0.022543536499142647
1700931904112735700,13.21373583984375,-0.05804729461669922,-0.09157395362854004,0.009913910180330276
1700931904129728500,13.230728515625,-0.01630687713623047,-0.07285261154174805,0.030500240623950958
1700931904146721800,13.2477216796875,0.023244857788085938,-0.07176017761230469,-0.01072713267058134
1700931904163714000,13.264714111328125,0.02179718017578125,-0.06999063491821289,-0.059373531490564346
1700931904180707000,13.28170703125,-0.02083110809326172,-0.05712080001831055,-0.06911204755306244
1700931904197700400,13.298700439453125,-0.00028133392333984375,-0.04478049278259277,-0.06380830705165863
1700931904214693400,13.315693359375,0.029999732971191406,-0.009797811508178711,-0.038100022822618484
1700931904231685600,13.332685546875,0.016516685485839844,0.0027990341186523438,-0.03219515085220337
1700931904248676400,13.34967626953125,0.03169536590576172,0.007472991943359375,-0.030919769778847694
1700931904265674000,13.366674072265624,0.06756019592285156,0.0013637542724609375,-0.03455747291445732
1700931904282665000,13.3836650390625,-0.02290630340576172,-0.03271961212158203,-0.043680526316165924
1700931904299657500,13.400657470703125,-0.08838081359863281,-0.05504179000854492,-0.0007797218859195709
1700931904316650500,13.417650390625,-0.11775875091552734,-0.03963327407836914,0.07740075886249542
1700931904333643300,13.434643310546875,-0.13589859008789062,-0.02268218994140625,0.06722743064165115
1700931904350636500,13.451636474609375,-0.16002750396728516,-0.05843234062194824,0.04712577909231186
1700931904367628800,13.46862890625,-0.22029876708984375,-0.09023785591125488,0.011940443888306618
1700931904384622000,13.4856220703125,-0.15530967712402344,-0.14270663261413574,0.06340938806533813
1700931904401612300,13.5026123046875,0.07187938690185547,-0.1120748519897461,0.1129160225391388
1700931904418610700,13.519610595703124,0.28208160400390625,-0.043561458587646484,0.08539726585149765
1700931904435587800,13.536587890625,0.34500598907470703,-0.01458120346069336,0.044101111590862274
1700931904452592000,13.553592041015625,0.20122146606445312,-0.026075363159179688,-0.00380622036755085
1700931904469571000,13.570571044921875,-0.08119678497314453,-0.02712869644165039,-0.04621722549200058
1700931904486579700,13.587579833984375,-0.2540874481201172,-0.04238104820251465,-0.0403849259018898
1700931904503574800,13.60457470703125,-0.2292318344116211,-0.004817485809326172,-0.003130515106022358
1700931904520562400,13.6215625,-0.051398277282714844,0.04341864585876465,0.011639012023806572
1700931904537569800,13.63856982421875,0.061942100524902344,0.0868079662322998,-0.03515797108411789
1700931904554551300,13.65555126953125,0.017604827880859375,0.05107927322387695,-0.07797937840223312
1700931904571543600,13.67254345703125,-0.08064842224121094,-0.0044918060302734375,-0.07845540344715118
1700931904588536800,13.689536865234375,-0.027879714965820312,-0.00781559944152832,-0.026103081181645393
1700931904605529900,13.70652978515625,0.06299877166748047,0.006924867630004883,0.029112212359905243
1700931904622523000,13.72352294921875,0.12410640716552734,0.014562368392944336,0.0273270346224308
1700931904639515400,13.740515380859375,0.12166690826416016,-0.00006723403930664062,0.056521061807870865
1700931904656508400,13.75750830078125,-0.0000972747802734375,-0.027428150177001953,0.07308807969093323
1700931904673504300,13.774504150390625,-0.11447715759277344,-0.059796810150146484,0.05803520232439041
1700931904690491600,13.79149169921875,-0.08979129791259766,-0.04805421829223633,0.07166591286659241
1700931904707487000,13.808487060546875,0.03323650360107422,0.012317895889282227,0.07734041661024094
1700931904724480000,13.82547998046875,0.11233997344970703,0.03658151626586914,0.055740829557180405
1700931904741473000,13.84247314453125,0.08844566345214844,0.0047342777252197266,0.05171822011470795
1700931904758466300,13.85946630859375,-0.01303863525390625,-0.0627131462097168,0.13074633479118347
1700931904775458600,13.87645849609375,-0.029521942138671875,0.026150226593017578,0.06129923462867737
1700931904792449800,13.89344970703125,0.006670951843261719,-0.02863788604736328,0.11067190021276474
1700931904809444600,13.910444580078124,0.03363609313964844,-0.024219512939453125,0.089765265583992
1700931904826432800,13.927432861328125,0.06984138488769531,0.06993436813354492,-0.00949183851480484
1700931904843429600,13.9444296875,0.11817169189453125,0.07124996185302734,0.06270496547222137
1700931904860423700,13.961423583984375,0.20090579986572266,0.05132722854614258,0.05783341825008392
1700931904877405400,13.978405517578125,0.14886093139648438,0.02569746971130371,0.10290086269378662
1700931904894409200,13.9954091796875,-0.0116729736328125,0.0434727668762207,0.042004480957984924
1700931904911410700,14.01241064453125,0.006960868835449219,-0.06630611419677734,0.027606800198554993
1700931904928395000,14.02939501953125,0.100128173828125,-0.0347747802734375,0.01586194336414337
1700931904945387500,14.046387451171874,-0.09862709045410156,-0.12127566337585449,-0.012322336435317993
1700931904962381000,14.063381103515624,0.4213142395019531,-0.07929301261901855,-0.2137995958328247
1700931904979373300,14.080373291015626,0.20925235748291016,0.038045406341552734,-0.048224255442619324
1700931904996366600,14.09736669921875,-0.0036020278930664062,-0.011511564254760742,0.07845281064510345
1700931905013359400,14.114359375,-0.19637680053710938,0.014475822448730469,0.0251542329788208
1700931905030352600,14.1313525390625,-0.26524925231933594,-0.012973785400390625,-0.011710837483406067
1700931905047345000,14.148344970703125,-0.1823587417602539,-0.0574343204498291,0.031072787940502167
1700931905064338200,14.165338134765625,0.0148162841796875,-0.06179094314575195,0.061785049736499786
1700931905081343700,14.18234375,0.23681354522705078,-0.040094614028930664,0.026745416224002838
1700931905098324200,14.19932421875,0.2847890853881836,-0.07280111312866211,0.07645008713006973
1700931905115316500,14.21631640625,0.3653888702392578,-0.3034396171569824,0.09506066888570786
1700931905132313000,14.23331298828125,0.3772087097167969,-0.05365872383117676,0.017155952751636505
1700931905149302500,14.250302490234375,-0.16421127319335938,0.16529297828674316,0.15057650208473206
1700931905166295800,14.2672958984375,-0.584996223449707,0.08290505409240723,0.2339770793914795
1700931905183288000,14.2842880859375,-0.7237405776977539,0.07136034965515137,0.13059735298156738
1700931905200281300,14.30128125,-0.4648914337158203,0.040125131607055664,0.0067713260650634766
1700931905217274000,14.318274169921875,0.046721458435058594,-0.03672504425048828,-0.052374787628650665
1700931905234267400,14.335267333984374,0.44846534729003906,-0.07803893089294434,0.044926322996616364
1700931905251259600,14.352259765625,0.5204858779907227,-0.05562019348144531,0.10286402702331543
1700931905268253000,14.3692529296875,0.24898052215576172,0.00019741058349609375,0.06067598611116409
1700931905285246700,14.386246826171876,-0.08646583557128906,-0.00020766258239746094,0.06878796219825745
1700931905302227700,14.403227783203125,-0.21577739715576172,-0.01863408088684082,0.08458402752876282
1700931905319218200,14.42021826171875,-0.20497703552246094,-0.03293752670288086,0.02423354983329773
1700931905336223700,14.4372236328125,-0.0757455825805664,-0.0690762996673584,0.0019521564245224
1700931905353220600,14.454220703125,0.04081439971923828,-0.05493879318237305,-0.021053358912467957
1700931905370210600,14.47121044921875,0.11944961547851562,-0.06469893455505371,-0.014891013503074646
1700931905387201500,14.488201416015626,0.09192180633544922,-0.03247499465942383,0.0008468478918075562
1700931905404197600,14.50519775390625,-0.048358917236328125,-0.028499603271484375,0.04242703318595886
1700931905421188900,14.52218896484375,-0.13332843780517578,-0.03330707550048828,0.051548220217227936
1700931905438182100,14.53918212890625,-0.16377830505371094,-0.0507054328918457,0.07035096734762192
1700931905455174700,14.556174560546875,-0.05403709411621094,-0.02700185775756836,0.061817467212677
1700931905472168000,14.57316796875,0.05534648895263672,-0.010726451873779297,0.015017561614513397
1700931905489160700,14.59016064453125,0.00148773193359375,-0.022707700729370117,-0.03406494855880737
1700931905506153700,14.60715380859375,-0.14934635162353516,-0.0069484710693359375,-0.07055984437465668
1700931905523132400,14.62413232421875,-0.25586605072021484,0.02329707145690918,-0.03948454558849335
1700931905540141800,14.641141845703125,-0.2114114761352539,0.010508537292480469,0.022847041487693787
1700931905557132000,14.658132080078126,-0.20302867889404297,0.020714521408081055,0.08608417958021164
1700931905574125300,14.675125244140625,-0.03707599639892578,0.06860685348510742,0.13338527083396912
1700931905591117800,14.692117919921875,0.09293460845947266,0.0508427619934082,0.1561005711555481
1700931905608110800,14.70911083984375,0.13444900512695312,0.0560302734375,0.13163502514362335
1700931905625104000,14.726103759765625,0.16846370697021484,0.009692907333374023,0.10808151215314865
1700931905642103800,14.743103759765624,0.18915939331054688,-0.01156759262084961,0.08051730692386627
1700931905659089200,14.760089111328124,0.17048931121826172,0.004377126693725586,0.06725365668535233
1700931905676082400,14.77708251953125,0.18494510650634766,0.017846107482910156,-0.0013463348150253296
1700931905693077500,14.794077392578124,0.1942291259765625,0.030076026916503906,-0.05003787577152252
1700931905710068500,14.811068359375,0.20144939422607422,0.04925060272216797,-0.07852037250995636
1700931905727061000,14.82806103515625,0.1942272186279297,0.0866248607635498,-0.05717054009437561
1700931905744054000,14.845053955078125,0.10550975799560547,0.06796550750732422,-0.053266510367393494
1700931905761040600,14.86204052734375,0.00472259521484375,0.0022563934326171875,-0.027061015367507935
1700931905778050800,14.87905078125,-0.07839775085449219,-0.05876755714416504,0.03445221483707428
1700931905795032600,14.896032470703124,-0.07670116424560547,-0.11548709869384766,0.075249582529068
1700931905812025900,14.91302587890625,-0.02056121826171875,-0.1529688835144043,0.06981967389583588
1700931905829018600,14.9300185546875,0.016519546508789062,-0.14080810546875,0.04077380895614624
1700931905846012000,14.947011962890626,-0.0019702911376953125,-0.10259342193603516,-0.006601870059967041
1700931905863004200,14.964004150390625,-0.10406112670898438,-0.07718873023986816,0.008384913206100464
1700931905879997400,14.98099755859375,-0.1751394271850586,-0.06899476051330566,0.0511171817779541
1700931905896990500,14.997990478515625,-0.16284656524658203,-0.05991005897521973,0.10688406229019165
1700931905913983500,15.0149833984375,-0.07290840148925781,-0.09678149223327637,0.08199508488178253
1700931905930975700,15.031975830078125,0.07038593292236328,-0.12542271614074707,0.006840705871582031
1700931905947969000,15.048968994140624,0.20237255096435547,-0.13030791282653809,-0.04457995295524597
1700931905964957700,15.065957763671875,0.2150440216064453,-0.12391114234924316,-0.048953860998153687
1700931905981955300,15.082955322265626,0.146636962890625,-0.10556864738464355,-0.005872845649719238
1700931905998947600,15.099947509765625,0.06087684631347656,-0.053015947341918945,-0.008963733911514282
1700931906015940600,15.116940673828125,0.11211299896240234,-0.0363008975982666,-0.0287896990776062
1700931906032934000,15.133933837890625,0.11845111846923828,-0.06101727485656738,-0.019820481538772583
1700931906049926700,15.1509267578125,0.09758853912353516,-0.08805394172668457,0.004614472389221191
1700931906066919000,15.1679189453125,0.09442138671875,-0.10867023468017578,0.01498037576675415
1700931906083912400,15.184912353515625,0.1427898406982422,-0.1278092861175537,-0.036121100187301636
1700931906100917000,15.2019169921875,0.2010049819946289,-0.09778428077697754,-0.07416859269142151
1700931906117899300,15.218899169921874,0.1452178955078125,-0.0631248950958252,-0.1283280849456787
1700931906134889700,15.2358896484375,-0.005305290222167969,-0.08019447326660156,-0.13534528017044067
1700931906151883800,15.2528837890625,-0.10214614868164062,-0.09382057189941406,-0.09244212508201599
1700931906168876500,15.26987646484375,-0.09782600402832031,-0.1197061538696289,-0.05111664533615112
1700931906185870000,15.2868701171875,-0.028367042541503906,-0.1577625274658203,-0.022163331508636475
1700931906202861000,15.303861083984375,0.10992908477783203,-0.15049982070922852,-0.011225968599319458
1700931906219852800,15.320852783203126,0.2371807098388672,-0.09895086288452148,0.02315087616443634
1700931906236850700,15.3378505859375,0.22730541229248047,-0.06711173057556152,0.10678011178970337
1700931906253841400,15.35484130859375,0.11078357696533203,-0.06278610229492188,0.14088580012321472
1700931906270834000,15.371833984375,-0.049017906188964844,-0.07626485824584961,0.09500941634178162
1700931906287827000,15.388826904296875,-0.12566661834716797,-0.11899447441101074,0.0838644951581955
1700931906304819700,15.40581982421875,-0.07082462310791016,-0.11394643783569336,0.07069559395313263
1700931906321813000,15.42281298828125,0.08409309387207031,-0.07607817649841309,0.037969186902046204
1700931906338805500,15.439805419921875,0.1660308837890625,-0.046065568923950195,0.015092164278030396
1700931906355798800,15.456798828125,0.11705493927001953,-0.023878097534179688,0.04364696145057678
1700931906372791600,15.47379150390625,0.07383918762207031,-0.043360233306884766,0.05395708233118057
1700931906389784800,15.490784912109374,0.07058048248291016,-0.09952569007873535,-0.0024020373821258545
1700931906406772700,15.507772705078125,0.04536724090576172,-0.03548860549926758,0.05754105746746063
1700931906423768300,15.524768310546875,0.12389278411865234,-0.06736993789672852,0.06287922710180283
1700931906440765200,15.54176513671875,0.0904083251953125,-0.07821321487426758,0.05978484824299812
1700931906457756200,15.558756103515625,0.0009918212890625,-0.07507753372192383,0.0437922328710556
1700931906474748700,15.575748779296875,-0.09508419036865234,-0.09474325180053711,0.05911825969815254
1700931906491731200,15.592731201171874,-0.23170852661132812,-0.09259343147277832,0.08735570311546326
1700931906508734700,15.609734619140625,-0.2731037139892578,-0.0939633846282959,0.0810990110039711
1700931906525727700,15.626727783203124,-0.28029823303222656,-0.10392594337463379,0.09199601411819458
1700931906542720300,15.64372021484375,-0.1987152099609375,-0.05599379539489746,0.09866447746753693
1700931906559713500,15.660713623046876,-0.1063222885131836,-0.0706944465637207,0.10803047567605972
1700931906576706300,15.677706298828125,-0.014096260070800781,-0.07634234428405762,0.12628363072872162
1700931906593695700,15.69469580078125,0.08263969421386719,-0.10322046279907227,0.277983158826828
1700931906610695200,15.711695068359376,0.07405853271484375,-0.07891559600830078,0.3102436363697052
1700931906627681500,15.728681640625,0.052184104919433594,-0.12812519073486328,0.2949502468109131
1700931906644678000,15.745677978515625,0.07781505584716797,-0.10053849220275879,0.35226643085479736
1700931906661672200,15.762672119140625,0.13027477264404297,-0.09256553649902344,0.36917513608932495
1700931906678662400,15.779662353515626,0.15534496307373047,-0.09955048561096191,0.40130507946014404
1700931906695657000,15.796656982421876,0.09617042541503906,-0.016350507736206055,0.36112505197525024
1700931906712649500,15.8136494140625,0.0602569580078125,0.003985404968261719,0.3244067132472992
1700931906729642800,15.830642822265625,0.011404991149902344,-0.006035804748535156,0.3607410788536072
1700931906746635300,15.84763525390625,-0.020028114318847656,-0.0382227897644043,0.39361268281936646
1700931906763628000,15.8646279296875,-0.00485992431640625,-0.09263801574707031,0.3853100836277008
1700931906780621000,15.88162109375,-0.009200096130371094,-0.10583662986755371,0.2914276123046875
1700931906797614600,15.898614501953125,-0.02321910858154297,-0.08976507186889648,0.17823751270771027
1700931906814605300,15.915605224609376,-0.06281280517578125,-0.13937044143676758,0.03295227885246277
1700931906831599900,15.932599853515624,-0.1278972625732422,-0.03944730758666992,0.06161367893218994
1700931906848592600,15.949592529296876,-0.0127410888671875,0.0048809051513671875,0.20170515775680542
1700931906865578000,15.966577880859376,0.048775672912597656,-0.007479190826416016,-0.018776245415210724
1700931906882573800,15.98357373046875,0.0154571533203125,-0.01682567596435547,-0.12483267486095428
1700931906899563800,16.000563720703123,-0.029671669006347656,-0.0031795501708984375,-0.20434582233428955
1700931906916558600,16.01755859375,-0.06774044036865234,-0.01199197769165039,-0.14653581380844116
1700931906933560000,16.03456005859375,-0.07019996643066406,-0.054407596588134766,-0.2103632092475891
1700931906950539500,16.05153955078125,-0.022797584533691406,-0.04141378402709961,-0.31288716197013855
1700931906967543000,16.06854296875,0.058685302734375,0.03216266632080078,-0.27482181787490845
1700931906984536000,16.0855361328125,0.10720539093017578,0.0781412124633789,-0.21596327424049377
1700931907001528800,16.10252880859375,0.08796882629394531,0.08396720886230469,-0.163026362657547
1700931907018521600,16.119521484375,-0.05871391296386719,0.013197898864746094,-0.173786461353302
1700931907035514600,16.1365146484375,-0.16951274871826172,-0.08115911483764648,-0.24484875798225403
1700931907052504800,16.1535048828125,-0.2401561737060547,-0.11346149444580078,-0.24417857825756073
1700931907069503200,16.170503173828124,-0.11815738677978516,-0.11577606201171875,-0.13895225524902344
1700931907086493200,16.1874931640625,0.12241935729980469,-0.11223411560058594,-0.026126638054847717
1700931907103486500,16.204486572265626,0.2664928436279297,-0.11202335357666016,-0.06823588907718658
1700931907120479200,16.221479248046876,0.2705860137939453,-0.14098310470581055,-0.16440393030643463
1700931907137472500,16.238472412109374,0.04094696044921875,-0.1736435890197754,-0.18559835851192474
1700931907154462200,16.255462158203127,-0.2522449493408203,-0.09857702255249023,-0.0871029943227768
1700931907171460600,16.272460693359374,-0.3742790222167969,-0.023801326751708984,-0.03825102746486664
1700931907188448300,16.2894482421875,-0.34175872802734375,0.040187835693359375,-0.052282094955444336
1700931907205446700,16.30644677734375,-0.027274131774902344,0.09437417984008789,-0.052467040717601776
1700931907222436400,16.323436279296875,0.21724414825439453,0.11959314346313477,-0.1645280122756958
1700931907239429600,16.3404296875,0.3448944091796875,0.08740997314453125,-0.2787938714027405
1700931907256422700,16.357422607421874,0.2598590850830078,0.07954216003417969,-0.3207022547721863
1700931907273415400,16.37441552734375,-0.04591178894042969,0.08524131774902344,-0.2478523850440979
1700931907290408000,16.391407958984374,-0.20375537872314453,0.14369773864746094,-0.2347356677055359
1700931907307410000,16.408409912109374,-0.1964282989501953,0.17087697982788086,-0.2325006127357483
1700931907324394000,16.42539404296875,0.010974884033203125,0.15781736373901367,-0.15873506665229797
1700931907341387300,16.44238720703125,0.2459716796875,0.1467757225036621,-0.181385338306427
1700931907358379800,16.4593798828125,0.33022212982177734,0.048288822174072266,-0.2762952744960785
1700931907375372800,16.476372802734375,0.1939239501953125,-0.03321361541748047,-0.35777297616004944
1700931907392363000,16.493363037109376,-0.08023643493652344,-0.12493658065795898,-0.277019739151001
1700931907409361400,16.510361328125,-0.3490476608276367,-0.1271533966064453,-0.16285789012908936
1700931907426351000,16.52735107421875,-0.4761238098144531,-0.1151432991027832,-0.05435458943247795
1700931907443343400,16.54434326171875,-0.39335060119628906,-0.06562137603759766,0.021579720079898834
1700931907460336400,16.56133642578125,-0.22307491302490234,-0.03385305404663086,-0.0011179745197296143
1700931907477332500,16.57833251953125,-0.0329437255859375,-0.05860567092895508,-0.07633604854345322
1700931907494323000,16.595322998046875,0.08225822448730469,-0.10875487327575684,-0.09879519045352936
1700931907511313700,16.612313720703124,-0.06318283081054688,-0.12482190132141113,-0.04370064288377762
1700931907528311600,16.6293115234375,-0.28211307525634766,-0.13553237915039062,0.09346912801265717
1700931907545302000,16.646302001953124,-0.34031200408935547,-0.11936712265014648,0.21385198831558228
1700931907562294500,16.66329443359375,-0.25464725494384766,0.021224021911621094,0.24736422300338745
1700931907579287600,16.68028759765625,-0.09200859069824219,0.14555954933166504,0.22619302570819855
1700931907596270800,16.697270751953123,-0.060021400451660156,0.15556669235229492,0.17052364349365234
1700931907613273600,16.714273681640623,-0.11493492126464844,0.10727596282958984,0.15245527029037476
1700931907630266000,16.73126611328125,-0.17445659637451172,0.1345970630645752,0.20761442184448242
1700931907647259100,16.748259033203126,-0.12668132781982422,0.14241671562194824,0.18262630701065063
1700931907664252200,16.765252197265625,0.0075321197509765625,0.1179506778717041,0.03797003626823425
1700931907681245200,16.7822451171875,0.043061256408691406,0.18992400169372559,-0.00837362464517355
1700931907698237700,16.79923779296875,0.17285537719726562,0.1504676342010498,0.02811606228351593
1700931907715231000,16.81623095703125,0.2953834533691406,0.06578874588012695,0.07738400995731354
1700931907732223700,16.8332236328125,0.28971004486083984,0.06580567359924316,0.10974989831447601
1700931907749216800,16.850216796875,0.18602371215820312,0.03789806365966797,0.14406141638755798
1700931907766209300,16.867209228515627,-0.09883975982666016,0.00042057037353515625,0.19946928322315216
1700931907783189800,16.884189697265626,-0.41008663177490234,-0.058746337890625,0.3104134202003479
1700931907800195600,16.901195556640626,-0.41897106170654297,-0.08880233764648438,0.403889536857605
1700931907817188600,16.918188720703125,-0.1451854705810547,-0.08933830261230469,0.48871445655822754
1700931907834180900,16.935180908203126,0.34215354919433594,-0.0910651683807373,0.4519442617893219
1700931907851174100,16.952174072265624,0.7207880020141602,-0.0760185718536377,0.26520055532455444
1700931907868167000,16.9691669921875,0.8450784683227539,-0.09021782875061035,0.14616721868515015
1700931907885160200,16.98616015625,0.6479263305664062,-0.09113049507141113,0.205524742603302
1700931907902166800,17.003166748046876,0.3136758804321289,-0.12396550178527832,0.29571622610092163
1700931907919143000,17.020142822265626,0.010820388793945312,-0.10826349258422852,0.36144766211509705
1700931907936137700,17.0371376953125,0.009282112121582031,-0.07897281646728516,0.3254861831665039
1700931907953113600,17.054113525390626,0.24304771423339844,-0.03399777412414551,0.23856082558631897
1700931907970124300,17.071124267578124,0.45470333099365234,0.007605791091918945,0.14025844633579254
1700931907987117300,17.088117431640626,0.4496593475341797,0.017199039459228516,0.10936664044857025
1700931908004110000,17.105110107421876,0.2804603576660156,0.000015020370483398438,0.09341637790203094
1700931908021103400,17.122103271484374,0.0702667236328125,-0.020286083221435547,0.044957906007766724
1700931908038095600,17.139095703125,-0.06786251068115234,-0.03884291648864746,-0.04849308729171753
1700931908055089000,17.1560888671875,0.0242767333984375,-0.04754948616027832,-0.07658684253692627
1700931908072082000,17.17308203125,0.16013717651367188,-0.028577804565429688,-0.1561596393585205
1700931908089075000,17.190074951171876,0.2841787338256836,-0.04603886604309082,-0.1244162768125534
1700931908106067200,17.207067138671874,0.2728586196899414,-0.020172119140625,-0.13005027174949646
1700931908123060500,17.224060546875,0.17911720275878906,-0.024894237518310547,-0.24215711653232574
1700931908140050700,17.24105078125,0.02028179168701172,-0.08992481231689453,-0.30448096990585327
1700931908157049000,17.258049072265624,-0.15584564208984375,-0.116546630859375,-0.37190723419189453
1700931908174039000,17.2750390625,-0.20162296295166016,-0.13080072402954102,-0.3302733898162842
1700931908191022000,17.29202197265625,-0.07691287994384766,-0.08673667907714844,-0.30047231912612915
1700931908208025000,17.309025146484377,-0.0855712890625,-0.07610940933227539,-0.3949896991252899
1700931908225018000,17.32601806640625,-0.02263641357421875,-0.09217262268066406,-0.45744824409484863
1700931908242010600,17.3430107421875,0.19606781005859375,-0.06975793838500977,-0.4772394895553589
1700931908259003600,17.360003662109374,0.1586151123046875,-0.07213139533996582,-0.5103335976600647
1700931908275996700,17.37699658203125,-0.06290149688720703,-0.0798501968383789,-0.41726720333099365
1700931908292980700,17.393980712890624,-0.2828998565673828,-0.05422687530517578,-0.33805200457572937
1700931908309982200,17.410982177734375,-0.2808561325073242,-0.06645584106445312,-0.3807387948036194
1700931908326975200,17.427975341796873,-0.0035181045532226562,-0.05639028549194336,-0.4379628896713257
1700931908343968300,17.44496826171875,0.1737203598022461,-0.09528088569641113,-0.4244546890258789
1700931908360961500,17.46196142578125,0.037906646728515625,-0.14394903182983398,-0.3659937381744385
1700931908377954300,17.478954345703126,-0.28986263275146484,-0.2136368751525879,-0.24058780074119568
1700931908394947000,17.495947021484376,-0.507843017578125,-0.20741772651672363,-0.05364953354001045
1700931908411939800,17.51293994140625,-0.4698753356933594,-0.13765811920166016,0.01809217780828476
1700931908428933000,17.52993310546875,-0.2219839096069336,-0.08129358291625977,-0.021861005574464798
1700931908445928400,17.546928466796874,0.06267547607421875,-0.05914163589477539,0.07522793859243393
1700931908462911500,17.563911376953126,0.27075672149658203,-0.06957459449768066,0.24399369955062866
1700931908479915800,17.580915771484374,0.46157073974609375,-0.06464266777038574,0.36309492588043213
1700931908496895700,17.597895751953125,0.4848814010620117,-0.04793691635131836,0.48230665922164917
1700931908513897000,17.61489697265625,0.20814037322998047,0.005002021789550781,0.5607691407203674
1700931908530890200,17.63189013671875,-0.1787862777709961,-0.023125171661376953,0.5269826650619507
1700931908547883000,17.648883056640624,-0.532496452331543,-0.04147791862487793,0.4155574440956116
1700931908564876300,17.665876220703126,-0.5791397094726562,-0.10923957824707031,0.24386262893676758
1700931908581868800,17.682868896484376,-0.33832263946533203,-0.17795085906982422,0.09807497262954712
1700931908598861800,17.69986181640625,0.13312244415283203,-0.1868741512298584,0.08988629281520844
1700931908615852500,17.7168525390625,0.4873380661010742,-0.18808197975158691,0.11283433437347412
1700931908632849000,17.733848876953125,0.48280906677246094,-0.20117974281311035,0.1966308057308197
1700931908649842000,17.750842041015623,0.19440269470214844,-0.22098922729492188,0.38386714458465576
1700931908666833400,17.76783349609375,-0.0769805908203125,-0.2694847583770752,0.4244323968887329
1700931908683826400,17.784826416015626,-0.19379615783691406,-0.29833984375,0.3870105445384979
1700931908700819700,17.80181982421875,-0.2047433853149414,-0.283740758895874,0.3885631859302521
1700931908717812000,17.81881201171875,-0.09281730651855469,-0.2133932113647461,0.49016305804252625
1700931908734805200,17.83580517578125,-0.016214370727539062,-0.1333026885986328,0.5218828320503235
1700931908751798000,17.852798095703125,0.0364990234375,-0.06054830551147461,0.48552170395851135
1700931908768791300,17.869791259765623,0.21579647064208984,-0.020575523376464844,0.39105337858200073
1700931908785783600,17.886783447265625,0.21140670776367188,-0.02227473258972168,0.30557405948638916
1700931908802776800,17.90377685546875,0.07373237609863281,-0.06731653213500977,0.2936899960041046
1700931908819769600,17.92076953125,-0.02317523956298828,-0.15023279190063477,0.40230944752693176
1700931908836762600,17.9377626953125,-0.05314350128173828,-0.19162821769714355,0.4396040737628937
1700931908853755100,17.954755126953124,0.0675039291381836,-0.23287177085876465,0.40726107358932495
1700931908870748200,17.971748046875,0.19085216522216797,-0.22585535049438477,0.3710741102695465
1700931908887741400,17.988741455078124,0.2013072967529297,-0.19748473167419434,0.31629478931427
1700931908904734500,18.005734375,-0.007720947265625,-0.19184637069702148,0.2780904173851013
1700931908921726700,18.022726806640627,-0.2924966812133789,-0.1049501895904541,0.2534632682800293
1700931908938720000,18.039719970703125,-0.44317626953125,-0.040730953216552734,0.19042755663394928
1700931908955712800,18.056712646484375,-0.592341423034668,0.032616615295410156,0.2568685710430145
1700931908972705800,18.073705810546876,-0.4768352508544922,-0.0056285858154296875,0.46291565895080566
1700931908989703200,18.090703125,-0.25455379486083984,0.1963639259338379,0.432245135307312
1700931909006689000,18.10768896484375,0.1810007095336914,0.08572816848754883,0.20380891859531403
1700931909023686100,18.12468603515625,0.13150787353515625,0.12867450714111328,0.12507015466690063
1700931909040678400,18.141678466796876,-0.011809349060058594,0.11658763885498047,-0.003793291747570038
1700931909057670000,18.158669921875,-0.13229751586914062,0.10849881172180176,-0.1616346389055252
1700931909074663200,18.1756630859375,-0.10158824920654297,0.06961774826049805,-0.33877184987068176
1700931909091645400,18.1926455078125,0.045029640197753906,-0.00976705551147461,-0.5135698914527893
1700931909108649200,18.209649169921875,0.15333080291748047,-0.02024221420288086,-0.6278939247131348
1700931909125641500,18.226641357421876,0.2408609390258789,0.011083602905273438,-0.6108537912368774
1700931909142632400,18.243632568359374,0.26407814025878906,0.06920528411865234,-0.684931755065918
1700931909159630300,18.26063037109375,0.2864236831665039,0.09225058555603027,-0.6518564224243164
1700931909176620800,18.277620849609374,0.20377540588378906,0.18614554405212402,-0.5829054713249207
1700931909193613300,18.29461328125,0.08489990234375,0.21811985969543457,-0.5923635959625244
1700931909210606300,18.3116064453125,-0.022835731506347656,0.20783042907714844,-0.6704087257385254
1700931909227596800,18.3285966796875,0.010333061218261719,0.21562409400939941,-0.5301222801208496
1700931909244595000,18.345594970703125,0.013004302978515625,0.2357802391052246,-0.3660375475883484
1700931909261584600,18.362584716796874,-0.011935234069824219,0.2050034999847412,-0.2315162718296051
1700931909278578000,18.379577880859376,-0.05825328826904297,0.18598389625549316,-0.19835850596427917
1700931909295571000,18.396571044921874,0.08252143859863281,0.10684370994567871,-0.19529707729816437
1700931909312564000,18.41356396484375,0.35544395446777344,0.08208537101745605,-0.1450956165790558
1700931909329556500,18.430556396484373,0.5122880935668945,0.05063986778259277,-0.03464497625827789
1700931909346549800,18.4475498046875,0.3820228576660156,-0.002339601516723633,0.07701326161623001
1700931909363542500,18.46454248046875,0.06319999694824219,-0.05460000038146973,0.22555813193321228
1700931909380535800,18.481535888671875,-0.17084407806396484,-0.09316086769104004,0.32042157649993896
1700931909397526500,18.498526611328124,-0.16552448272705078,-0.09278440475463867,0.38545942306518555
1700931909414523000,18.51552294921875,-0.015755653381347656,-0.09629988670349121,0.3401696979999542
1700931909431514000,18.53251416015625,0.03672504425048828,-0.09550929069519043,0.25360724329948425
1700931909448507400,18.54950732421875,0.12898540496826172,-0.09766387939453125,0.2674030363559723
1700931909465495600,18.56649560546875,-0.061676979064941406,-0.0733335018157959,0.2689499855041504
1700931909482493000,18.583492919921873,-0.06643390655517578,-0.010526895523071289,0.16757768392562866
1700931909499475200,18.60047509765625,0.033293724060058594,0.09124255180358887,0.08101950585842133
1700931909516479000,18.61747900390625,0.1168212890625,0.07369875907897949,0.05153077095746994
1700931909533471200,18.63447119140625,0.09026241302490234,0.0010521411895751953,0.07342676818370819
1700931909550454300,18.651454345703126,-0.09763526916503906,-0.026141643524169922,0.080712229013443
1700931909567457300,18.668457275390626,-0.2695589065551758,-0.08260416984558105,0.044851914048194885
1700931909584447700,18.68544775390625,-0.27959537506103516,-0.08686399459838867,0.05826456844806671
1700931909601446000,18.70244580078125,-0.1808481216430664,-0.09663510322570801,0.0762663334608078
1700931909618436000,18.71943603515625,-0.109375,-0.12420535087585449,0.11568030714988708
1700931909635428900,18.736428955078125,-0.07279396057128906,-0.13019824028015137,0.18480002880096436
1700931909652422400,18.75342236328125,-0.042654991149902344,-0.14032626152038574,0.21445097029209137
1700931909669411800,18.770411865234376,0.00014209747314453125,-0.15538263320922852,0.1876017153263092
1700931909686400500,18.787400390625,0.009119033813476562,-0.1591193675994873,0.17935870587825775
1700931909703398100,18.804398193359376,-0.07145404815673828,-0.15155434608459473,0.1688968986272812
1700931909720396300,18.821396240234375,-0.09738731384277344,-0.1378335952758789,0.1277349591255188
1700931909737390300,18.838390380859376,-0.04546165466308594,-0.09596490859985352,0.09267124533653259
1700931909754379500,18.855379638671874,-0.06845378875732422,-0.03197002410888672,0.027364686131477356
1700931909771369700,18.87236962890625,-0.037384986877441406,0.010280609130859375,-0.0007478222250938416
1700931909788368000,18.889367919921874,0.01421356201171875,0.035643815994262695,0.030127570033073425
1700931909805357800,18.90635791015625,-0.0030374526977539062,0.09832358360290527,0.038265764713287354
1700931909822350800,18.923350830078125,-0.09947490692138672,0.1142435073852539,0.03534368425607681
1700931909839343900,18.94034375,-0.13898277282714844,0.14227056503295898,0.010509811341762543
1700931909856327000,18.957326904296874,0.025363922119140625,0.20728492736816406,-0.05944448709487915
1700931909873329400,18.974329345703126,0.3002805709838867,0.27451109886169434,-0.1918165385723114
1700931909890322700,18.99132275390625,0.5300960540771484,0.23869800567626953,-0.32802510261535645
1700931909907315500,19.0083154296875,0.7399473190307617,0.1330547332763672,-0.3195623755455017
1700931909924308700,19.025308837890623,0.6988258361816406,0.09007978439331055,-0.2835052013397217
1700931909941300200,19.04230029296875,0.4800233840942383,-0.02045917510986328,-0.2201135754585266
1700931909958295300,19.05929541015625,0.10383415222167969,-0.0742340087890625,-0.14104154706001282
1700931909975287000,19.076287109375,-0.16036319732666016,-0.12135601043701172,-0.059109002351760864
1700931909992279300,19.093279296875,-0.1973276138305664,-0.1703963279724121,0.07327377051115036
1700931910009273600,19.110273681640624,-0.09198570251464844,-0.2554154396057129,0.14013446867465973
1700931910026265900,19.127265869140626,-0.043984413146972656,-0.30820441246032715,0.20403096079826355
1700931910043250700,19.144250732421874,-0.11606216430664062,-0.32030653953552246,0.31171271204948425
1700931910060252000,19.161251953125,-0.24669361114501953,-0.3128032684326172,0.38077548146247864
1700931910077244200,19.178244140625,-0.35504627227783203,-0.256467342376709,0.46403542160987854
1700931910094224600,19.195224609375,-0.3148202896118164,-0.2246084213256836,0.4958280324935913
1700931910111232500,19.212232421875,-0.3267707824707031,-0.16945648193359375,0.3842783570289612
1700931910128214300,19.22921435546875,-0.21589088439941406,-0.15145039558410645,0.22988717257976532
1700931910145216300,19.24621630859375,-0.0030488967895507812,-0.1727309226989746,0.20679718255996704
1700931910162208800,19.263208740234376,0.11173343658447266,-0.12650394439697266,0.2768712043762207
1700931910179201800,19.280201904296874,0.009393692016601562,-0.1159207820892334,0.24657881259918213
1700931910196191200,19.297191162109375,-0.262237548828125,-0.14280390739440918,0.12494253367185593
1700931910213187600,19.3141875,-0.377777099609375,-0.14005422592163086,0.05697062611579895
1700931910230180600,19.3311806640625,-0.18924713134765625,-0.06817364692687988,0.06960611790418625
1700931910247170300,19.34817041015625,0.11508560180664062,-0.02643752098083496,0.06490163505077362
1700931910264164000,19.3651640625,0.27851295471191406,-0.01561427116394043,-0.02335537038743496
1700931910281161700,19.38216162109375,0.27904605865478516,0.009670257568359375,-0.10240986198186874
1700931910298152400,19.39915234375,0.11449718475341797,0.05517172813415527,-0.13302981853485107
1700931910315145200,19.416145263671876,-0.09212684631347656,0.06810712814331055,-0.11339457333087921
1700931910332138200,19.43313818359375,-0.12212657928466797,0.028348207473754883,-0.09867673367261887
1700931910349130800,19.450130859375,0.02257823944091797,-0.02132868766784668,-0.08119941502809525
1700931910366116900,19.467116943359375,0.24236392974853516,-0.023651123046875,-0.02044176682829857
1700931910383116800,19.48411669921875,0.4280986785888672,-0.02160477638244629,-0.033543478697538376
1700931910400107500,19.501107421875,0.22677230834960938,0.041042327880859375,-0.0917394608259201
1700931910417105000,19.51810498046875,-0.04936790466308594,0.08099865913391113,-0.06530600786209106
1700931910434095400,19.535095458984376,-0.21356201171875,0.03907203674316406,-0.010227188467979431
1700931910451088400,19.55208837890625,-0.15471267700195312,-0.0631551742553711,-0.0020203934982419014
1700931910468081700,19.56908154296875,0.0406951904296875,-0.1019442081451416,-0.08465268462896347
1700931910485074000,19.586073974609373,0.19747257232666016,-0.07671236991882324,-0.08756738156080246
1700931910502067200,19.603067138671875,0.2330169677734375,-0.07211685180664062,-0.09825890511274338
1700931910519060200,19.620060302734377,0.1531229019165039,-0.05250048637390137,-0.11535629630088806
1700931910536053200,19.63705322265625,-0.0005846023559570312,-0.0556640625,-0.12018981575965881
1700931910553045800,19.654045654296876,-0.2275533676147461,-0.022014141082763672,-0.10656952112913132
1700931910570038800,19.671038818359374,-0.3967437744140625,-0.044952392578125,-0.04409535974264145
1700931910587031800,19.68803173828125,-0.4148750305175781,-0.07412958145141602,-0.06141102686524391
1700931910604024800,19.70502490234375,-0.3615760803222656,-0.05896306037902832,-0.0588296540081501
1700931910621017300,19.722017333984375,-0.22144126892089844,-0.06464481353759766,-0.06891727447509766
1700931910638010400,19.73901025390625,-0.0061798095703125,-0.036620140075683594,-0.10568030923604965
1700931910655003100,19.756003173828127,0.20980262756347656,0.03937053680419922,-0.14659151434898376
1700931910671996700,19.77299658203125,0.30185890197753906,0.04292798042297363,-0.12118275463581085
1700931910688989000,19.789989013671875,0.25769615173339844,0.03662896156311035,-0.017089059576392174
1700931910705982000,19.80698193359375,0.10438251495361328,0.0020537376403808594,0.09855994582176208
1700931910722975200,19.823975341796874,0.03155231475830078,0.02446293830871582,0.15759369730949402
1700931910739968000,19.840968017578124,0.06847286224365234,0.0319061279296875,0.1425439715385437
1700931910756960500,19.85796044921875,0.24329185485839844,0.04102349281311035,0.04691893607378006
1700931910773953800,19.874953857421875,0.33669281005859375,0.06483602523803711,-0.009621111676096916
1700931910790946600,19.891946533203125,0.28553009033203125,0.06131625175476074,0.004205047152936459
1700931910807939800,19.90893994140625,0.15012836456298828,0.06788015365600586,0.023346897214651108
1700931910824932400,19.925932373046876,-0.018795013427734375,0.0312502384185791,0.06308605521917343
1700931910841925400,19.94292529296875,-0.1632833480834961,-0.017974376678466797,0.02824486792087555
1700931910858915000,19.9599150390625,-0.21204090118408203,-0.03342485427856445,-0.0008929483592510223
1700931910875911400,19.976911376953126,-0.15962696075439453,-0.06812477111816406,-0.01925870031118393
1700931910892903700,19.993903564453124,-0.08285140991210938,-0.03201794624328613,-0.004367504268884659
1700931910909897000,20.01089697265625,0.015933990478515625,0.00019693374633789062,0.002009322866797447
1700931910926889700,20.0278896484375,0.10052871704101562,0.025736570358276367,0.03075534477829933
1700931910943883000,20.044883056640625,0.18266868591308594,0.0212857723236084,-0.019445495679974556
1700931910960875300,20.061875244140627,0.03089427947998047,0.03197312355041504,0.0013864338397979736
1700931910977868800,20.078868896484376,-0.3429298400878906,-0.26305723190307617,0.07001645117998123
1700931910994861300,20.095861328125,0.016511917114257812,-0.0005741119384765625,-0.30925309658050537
1700931911011854600,20.1128544921875,-0.1961956024169922,0.007075309753417969,-0.06693543493747711
1700931911028847000,20.12984716796875,-0.1551370620727539,-0.053681135177612305,0.11319848895072937
1700931911045840400,20.14684033203125,0.03237628936767578,-0.007494449615478516,-0.07067438960075378
1700931911062844700,20.1638447265625,0.061745643615722656,-0.034618377685546875,-0.048275887966156006
1700931911079824400,20.180824462890627,0.02886486053466797,0.020934104919433594,0.13818322122097015
1700931911096820700,20.19782080078125,-0.03632164001464844,0.04019784927368164,0.21036970615386963
1700931911113811700,20.214811767578126,0.07092571258544922,0.0611262321472168,0.10091610252857208
1700931911130804700,20.2318046875,0.24644851684570312,0.17189383506774902,0.03353419899940491
1700931911147789300,20.248789306640624,0.2649974822998047,0.1488325595855713,0.11238439381122589
1700931911164790300,20.265790283203124,0.2995624542236328,-0.037566423416137695,0.042487338185310364
1700931911181783600,20.282783447265626,0.24623966217041016,0.00023937225341796875,-0.09680874645709991
1700931911198776600,20.299776611328124,-0.16765403747558594,0.17087101936340332,-0.09510961174964905
1700931911215766800,20.316766845703125,-0.3824586868286133,0.1310117244720459,-0.03425763547420502
1700931911232755000,20.3337548828125,-0.37940311431884766,0.012620210647583008,0.023856833577156067
1700931911249755000,20.3507548828125,-0.17119121551513672,-0.025694608688354492,-0.05648379772901535
1700931911266750500,20.36775048828125,0.04631614685058594,0.009267091751098633,-0.18326547741889954
1700931911283739000,20.38473876953125,0.16398334503173828,-0.06874918937683105,-0.08095094561576843
1700931911300733700,20.401733642578126,0.09604835510253906,-0.11629962921142578,0.0401969850063324
1700931911317726500,20.4187265625,-0.10532093048095703,-0.09231400489807129,0.035780444741249084
1700931911334719000,20.435718994140625,-0.2123403549194336,-0.024692296981811523,0.06745074689388275
1700931911351712800,20.452712646484375,0.01175689697265625,0.036025047302246094,0.04695291817188263
1700931911368705500,20.46970556640625,0.15785503387451172,0.011891365051269531,0.03254014253616333
1700931911385693400,20.486693359375,0.2976875305175781,-0.030307292938232422,0.02317291498184204
1700931911402691000,20.503691162109376,0.128265380859375,-0.06671857833862305,-0.005597248673439026
1700931911419684400,20.520684326171875,-0.14833450317382812,-0.09942102432250977,0.04726894199848175
1700931911436676900,20.5376767578125,-0.1172800064086914,-0.04274129867553711,0.097054123878479
1700931911453670000,20.554669921875,-0.0001125335693359375,0.031103849411010742,0.057958200573921204
1700931911470662700,20.57166259765625,0.04520893096923828,0.017929792404174805,0.03013037145137787
1700931911487653400,20.5886533203125,0.0032491683959960938,0.005317211151123047,0.011735275387763977
1700931911504640500,20.605640625,-0.10596752166748047,-0.05605649948120117,0.05094517767429352
1700931911521628000,20.6226279296875,-0.15722179412841797,-0.08874154090881348,0.05663256347179413
1700931911538632400,20.639632568359374,-0.1682147979736328,-0.07228231430053711,0.0537838339805603
1700931911555629300,20.65662939453125,-0.08578205108642578,-0.019171953201293945,0.055382028222084045
1700931911572619800,20.673619873046874,0.08572578430175781,0.04485893249511719,0.04474732279777527
1700931911589613300,20.69061328125,0.1676797866821289,0.048322439193725586,0.04528909921646118
1700931911606603500,20.707603515625,0.18575477600097656,-0.005396366119384766,0.000515475869178772
1700931911623602000,20.724601806640624,0.06048107147216797,-0.014114856719970703,-0.009028881788253784
1700931911640591600,20.741591552734373,-0.030363082885742188,-0.0200502872467041,0.015543773770332336
1700931911657584600,20.758584716796875,-0.01987171173095703,-0.00981450080871582,0.009397059679031372
1700931911674579500,20.775579345703125,0.04913520812988281,-0.010713338851928711,0.04253378510475159
