time,seconds_elapsed,z,y,x
1701886077369038800,0.156038818359375,-0.8778743743896484,-0.5288228988647461,-0.22765177488327026
1701886077386026500,0.173026611328125,-0.7922878265380859,-0.6149196624755859,-0.5568830966949463
1701886077403022000,0.19002197265625,-0.8485903739929199,-0.7166576385498047,-0.6424583792686462
1701886077420008000,0.207008056640625,-0.9331765174865723,-0.9071254730224609,-0.5996798276901245
1701886077437003000,0.2240029296875,-1.040524959564209,-1.0811569690704346,-0.5877082347869873
1701886077453999900,0.240999755859375,-1.1137309074401855,-1.1834044456481934,-0.7465327978134155
1701886077470992600,0.25799267578125,-1.507608413696289,-1.303703784942627,-0.8677648305892944
1701886077487986000,0.27498583984375,-2.004896640777588,-1.4101781845092773,-0.6720683574676514
1701886077504967400,0.291967529296875,-2.2995433807373047,-1.4114491939544678,-0.8759205341339111
1701886077521973200,0.30897314453125,-2.4121737480163574,-1.4996895790100098,-0.8472492694854736
1701886077538965500,0.325965576171875,-1.9872994422912598,-1.716639518737793,-0.9433026313781738
1701886077555943200,0.342943115234375,-1.286330223083496,-1.8608357906341553,-0.792630672454834
1701886077572949500,0.359949462890625,-1.067467212677002,-1.7124440670013428,-0.7262358665466309
1701886077589943000,0.376943115234375,-1.5470046997070312,-1.506258249282837,-0.34143543243408203
1701886077606932500,0.393932373046875,-2.222202777862549,-1.4978902339935303,-0.03323650360107422
1701886077623927800,0.410927734375,-2.083299160003662,-1.7098939418792725,-0.029046058654785156
1701886077640920600,0.427920654296875,-0.9758548736572266,-1.845613718032837,-0.42505598068237305
1701886077657913300,0.444913330078125,0.3896913528442383,-2.0725855827331543,-0.5868282318115234
1701886077674904000,0.461904052734375,0.7904157638549805,-1.9502253532409668,-0.643099308013916
1701886077691897300,0.4788974609375,0.1431102752685547,-1.7988309860229492,0.07253074645996094
1701886077708903700,0.495903564453125,-0.5526890754699707,-1.6627885103225708,0.6941981315612793
1701886077725878500,0.51287841796875,-0.7610411643981934,-1.6827583312988281,0.4950580596923828
1701886077742876700,0.529876708984375,-0.35498523712158203,-1.9740989208221436,-0.12182044982910156
1701886077759870200,0.5468701171875,0.271237850189209,-2.0953540802001953,-0.6758880615234375
1701886077776859600,0.563859619140625,0.48767781257629395,-2.2101707458496094,-0.7630853652954102
1701886077793854700,0.580854736328125,0.30555057525634766,-2.086116313934326,-0.44075584411621094
1701886077810847500,0.597847412109375,-0.3648186922073364,-2.0522470474243164,-0.14954471588134766
1701886077827840000,0.614840087890625,-0.688592791557312,-2.354759931564331,0.25650691986083984
1701886077844832300,0.631832275390625,-0.14626991748809814,-2.326502799987793,0.4864997863769531
1701886077861824800,0.64882470703125,0.7868865728378296,-2.249189853668213,0.5888509750366211
1701886077878820000,0.665820068359375,1.1998207569122314,-2.0783729553222656,0.6151142120361328
1701886077895805200,0.68280517578125,0.9332717061042786,-1.9981509447097778,0.7772254943847656
1701886077912806400,0.699806396484375,0.530399739742279,-2.063455820083618,1.259918212890625
1701886077929797000,0.716797119140625,0.17495805025100708,-2.068089246749878,1.6804771423339844
1701886077946786800,0.733786865234375,0.30889880657196045,-1.7437262535095215,1.7209959030151367
1701886077963778600,0.750778564453125,0.2735362946987152,-1.6913321018218994,1.6270904541015625
1701886077980774700,0.767774658203125,0.18289656937122345,-1.6639578342437744,1.5740633010864258
1701886077997768200,0.784768310546875,0.38383790850639343,-1.6229979991912842,1.5650978088378906
1701886078014757400,0.80175732421875,0.7299943566322327,-1.6344470977783203,1.9823617935180664
1701886078031751700,0.818751708984375,0.9024150967597961,-1.5187971591949463,2.6291751861572266
1701886078048747300,0.835747314453125,0.7450072765350342,-1.1761376857757568,3.0308570861816406
1701886078065734700,0.852734619140625,0.2724267244338989,-0.697587251663208,3.282179832458496
1701886078082730800,0.869730712890625,-0.25803425908088684,-0.1581745147705078,3.492311477661133
1701886078099724300,0.886724365234375,-0.572243332862854,0.4001808166503906,3.8136672973632812
1701886078116714000,0.9037138671875,-0.6787203550338745,0.8617398738861084,3.994415283203125
1701886078133695700,0.92069580078125,-0.7380515336990356,1.191462755203247,3.998432159423828
1701886078150715400,0.93771533203125,-0.8890496492385864,1.3932137489318848,3.754232406616211
1701886078167692500,0.954692626953125,-1.0282788276672363,1.3882193565368652,3.3562679290771484
1701886078184687400,0.971687255859375,-1.1235870122909546,1.3725433349609375,2.9989423751831055
1701886078201668900,0.9886689453125,-0.8561784625053406,1.4162087440490723,2.557919502258301
1701886078218673400,1.00567333984375,-0.6114437580108643,1.307466983795166,2.232579231262207
1701886078235662800,1.022662841796875,-0.34714174270629883,1.0412240028381348,2.082855224609375
1701886078252658000,1.039657958984375,-0.1291470229625702,0.8988871574401855,1.8446521759033203
1701886078269651700,1.056651611328125,-0.08758056163787842,0.6677069664001465,1.6356868743896484
1701886078286641000,1.073640869140625,-0.07876768708229065,0.5337924957275391,1.2276430130004883
1701886078303637500,1.090637451171875,0.08565780520439148,0.44701099395751953,0.9051246643066406
1701886078320619000,1.107618896484375,0.37379562854766846,0.45568370819091797,0.7864389419555664
1701886078337621500,1.12462158203125,0.5998245477676392,0.7191905975341797,0.5798616409301758
1701886078354616800,1.141616943359375,0.6314154863357544,0.8189239501953125,0.2807464599609375
1701886078371591700,1.158591796875,0.5320337414741516,0.7127037048339844,0.004881858825683594
1701886078388598500,1.1755986328125,0.5126024484634399,0.5230264663696289,-0.15049171447753906
1701886078405592300,1.19259228515625,0.4664437472820282,0.2693510055541992,-0.18569087982177734
1701886078422595000,1.209594970703125,0.33704057335853577,0.08674383163452148,-0.10418033599853516
1701886078439578600,1.22657861328125,0.11904002726078033,-0.0007739067077636719,0.009533882141113281
1701886078456568300,1.243568359375,-0.030777618288993835,-0.02789783477783203,-0.038501739501953125
1701886078473560000,1.26056005859375,-0.14762665331363678,-0.07269668579101562,-0.06642818450927734
1701886078490556700,1.277556640625,-0.23360002040863037,-0.16881179809570312,-0.041222572326660156
1701886078507559000,1.294558837890625,-0.19218328595161438,-0.25455713272094727,-0.011244773864746094
1701886078524532200,1.3115322265625,-0.1207112967967987,-0.38701915740966797,0.07891845703125
1701886078541522400,1.3285224609375,-0.00818713754415512,-0.4131307601928711,0.0045757293701171875
1701886078558530600,1.345530517578125,0.21578538417816162,-0.4502992630004883,-0.3109416961669922
1701886078575519200,1.362519287109375,0.3293086886405945,-0.5999040603637695,-0.5493831634521484
1701886078592502800,1.379502685546875,0.39510682225227356,-0.72991943359375,-0.7597246170043945
1701886078609506300,1.39650634765625,0.42695850133895874,-0.7898573875427246,-0.9156126976013184
1701886078626495200,1.4134951171875,0.40909260511398315,-0.8130550384521484,-0.948824405670166
1701886078643479600,1.4304794921875,0.33525350689888,-0.8010649681091309,-0.8972616195678711
1701886078660483000,1.447483154296875,0.19332964718341827,-0.7858462333679199,-0.8531570434570312
1701886078677476600,1.4644765625,-0.030887454748153687,-0.8372740745544434,-0.7697086334228516
1701886078694466300,1.48146630859375,-0.29052579402923584,-0.8763525485992432,-0.7567157745361328
1701886078711457000,1.49845703125,-0.4283710718154907,-0.8702702522277832,-0.8179998397827148
1701886078728454700,1.51545458984375,-0.4394679069519043,-0.8684301376342773,-0.8714313507080078
1701886078745437000,1.53243701171875,-0.3339471220970154,-0.8456873893737793,-0.8058500289916992
1701886078762439400,1.549439453125,-0.2168228179216385,-0.8450539112091064,-0.6652908325195312
1701886078779428600,1.5664287109375,-0.14945706725120544,-0.8268358707427979,-0.5424365997314453
1701886078796426800,1.5834267578125,-0.2529027760028839,-0.8042364120483398,-0.43239879608154297
1701886078813417200,1.600417236328125,-0.27580544352531433,-0.6964218616485596,-0.45250988006591797
1701886078830410200,1.61741015625,-0.30164963006973267,-0.6440198421478271,-0.5677213668823242
1701886078847403500,1.634403564453125,-0.306842565536499,-0.6756372451782227,-0.6275453567504883
1701886078864394800,1.651394775390625,-0.2008446455001831,-0.7029156684875488,-0.5600004196166992
1701886078881387500,1.668387451171875,-0.06690233945846558,-0.6605696678161621,-0.4408254623413086
1701886078898382600,1.685382568359375,-0.07965384423732758,-0.6027517318725586,-0.34378814697265625
1701886078915370200,1.702370361328125,-0.20519967377185822,-0.5201058387756348,-0.25455570220947266
1701886078932366600,1.71936669921875,-0.36485499143600464,-0.4322834014892578,-0.24153614044189453
1701886078949359900,1.73635986328125,-0.43118447065353394,-0.40516090393066406,-0.18993854522705078
1701886078966336800,1.753336669921875,-0.41654878854751587,-0.35269737243652344,-0.07106685638427734
1701886078983335700,1.770335693359375,-0.29355156421661377,-0.3009181022644043,0.0611724853515625
1701886079000337400,1.78733740234375,-0.1306377500295639,-0.2582526206970215,0.18106746673583984
1701886079017323800,1.80432373046875,-0.013302117586135864,-0.23370838165283203,0.22125625610351562
1701886079034320600,1.821320556640625,0.058335743844509125,-0.2386646270751953,0.17233562469482422
1701886079051314200,1.838314208984375,0.08630789816379547,-0.22447633743286133,0.1650228500366211
1701886079068307500,1.855307373046875,0.03805958107113838,-0.17056655883789062,0.08487224578857422
1701886079085302000,1.872302001953125,0.03026522323489189,-0.13236141204833984,0.04146099090576172
1701886079102293800,1.889293701171875,-0.0006237998604774475,-0.12717437744140625,0.04439830780029297
1701886079119282700,1.90628271484375,0.009925715625286102,-0.1282515525817871,0.022115707397460938
1701886079136276500,1.9232763671875,0.06469330191612244,-0.1368393898010254,0.017932891845703125
1701886079153273000,1.940273193359375,0.09682279080152512,-0.1699509620666504,-0.049378395080566406
1701886079170263800,1.957263916015625,0.16227495670318604,-0.17467546463012695,-0.02089691162109375
1701886079187250400,1.97425048828125,0.2184448540210724,-0.14389705657958984,-0.10928821563720703
1701886079204252200,1.991252197265625,0.1898760199546814,-0.18633413314819336,-0.10628318786621094
1701886079221236200,2.008236328125,0.12034627795219421,-0.14522457122802734,-0.154541015625
1701886079238233600,2.025233642578125,0.04849553108215332,-0.16068410873413086,-0.16406536102294922
1701886079255226000,2.04222607421875,0.056629251688718796,-0.11864566802978516,-0.16932106018066406
1701886079272217900,2.0592177734375,0.07436037063598633,-0.12923765182495117,-0.1553812026977539
1701886079289212200,2.076212158203125,0.07106822729110718,-0.15465164184570312,-0.050415992736816406
1701886079306206200,2.093206298828125,0.05448998510837555,-0.14736223220825195,-0.0036029815673828125
1701886079323197200,2.110197265625,0.0004127025604248047,-0.15796804428100586,-0.00077056884765625
1701886079340192500,2.127192626953125,-0.057052478194236755,-0.16657781600952148,-0.014018058776855469
1701886079357182200,2.14418212890625,-0.07204030454158783,-0.2315211296081543,-0.06797504425048828
1701886079374174200,2.16117431640625,0.04972060024738312,-0.2625141143798828,-0.16146564483642578
1701886079391175400,2.178175537109375,0.14995545148849487,-0.3155679702758789,-0.14812850952148438
1701886079408154600,2.195154541015625,0.1845179945230484,-0.3204035758972168,-0.1534290313720703
1701886079425151700,2.21215185546875,0.12330973893404007,-0.2963409423828125,-0.18135833740234375
1701886079442143200,2.229143310546875,0.014274276793003082,-0.31105566024780273,-0.17572498321533203
1701886079459138800,2.246138916015625,-0.08018322288990021,-0.30713701248168945,-0.1649465560913086
1701886079476128800,2.263128662109375,-0.11416049301624298,-0.3370704650878906,-0.21324634552001953
1701886079493126000,2.2801259765625,-0.11038117110729218,-0.3648509979248047,-0.2847175598144531
1701886079510118700,2.29711865234375,-0.036554425954818726,-0.3649106025695801,-0.3549652099609375
1701886079527108900,2.31410888671875,0.0766620934009552,-0.34735870361328125,-0.3276386260986328
1701886079544105200,2.331105224609375,0.1360551416873932,-0.3429598808288574,-0.24227046966552734
1701886079561096000,2.348095947265625,0.05818294733762741,-0.31771373748779297,-0.21907520294189453
1701886079578091500,2.365091552734375,-0.13193218410015106,-0.3330812454223633,-0.219696044921875
1701886079595079000,2.382078857421875,-0.23893342912197113,-0.30850696563720703,-0.2928123474121094
1701886079612077000,2.3990771484375,-0.2180185765028,-0.3146095275878906,-0.29341793060302734
1701886079629068000,2.416068115234375,-0.0932082086801529,-0.3270878791809082,-0.25092220306396484
1701886079646058800,2.433058837890625,0.06039029359817505,-0.3110990524291992,-0.2363729476928711
1701886079663053000,2.450052978515625,0.1482989341020584,-0.31382322311401367,-0.2416210174560547
1701886079680046300,2.46704638671875,0.1833011507987976,-0.3160243034362793,-0.2594871520996094
1701886079697035500,2.484035400390625,0.20398741960525513,-0.3258805274963379,-0.21423625946044922
1701886079714032000,2.5010322265625,0.24033892154693604,-0.2820148468017578,-0.19303417205810547
1701886079731023000,2.518023193359375,0.2009439915418625,-0.2731337547302246,-0.14263153076171875
1701886079748017700,2.535017578125,0.13565197587013245,-0.2644023895263672,-0.235870361328125
1701886079765006800,2.5520068359375,0.07153534144163132,-0.2870602607727051,-0.22340774536132812
1701886079782002400,2.56900244140625,0.035037994384765625,-0.27109193801879883,-0.16683578491210938
1701886079798995200,2.5859951171875,-0.006443202495574951,-0.24605941772460938,-0.13053321838378906
1701886079815985200,2.602985107421875,-0.039789244532585144,-0.2506895065307617,-0.13687992095947266
1701886079832992500,2.619992431640625,-0.049577198922634125,-0.2500491142272949,-0.15852928161621094
1701886079849973800,2.636973876953125,0.010773517191410065,-0.26369524002075195,-0.17566967010498047
1701886079866962200,2.653962158203125,0.07657358050346375,-0.24652719497680664,-0.17771053314208984
1701886079883950000,2.6709501953125,0.10351774096488953,-0.22772502899169922,-0.1876211166381836
1701886079900949800,2.68794970703125,0.07506556063890457,-0.20739221572875977,-0.14410686492919922
1701886079917948200,2.7049482421875,-0.021821357309818268,-0.19776535034179688,-0.032924652099609375
1701886079934933200,2.721933349609375,-0.11317364871501923,-0.1528620719909668,0.05736255645751953
1701886079951929300,2.738929443359375,-0.16564735770225525,-0.1414170265197754,0.03974628448486328
1701886079968923000,2.7559228515625,-0.19818156957626343,-0.16210603713989258,-0.03277873992919922
1701886079985912300,2.772912353515625,-0.12896528840065002,-0.2021479606628418,-0.09193706512451172
1701886080002906600,2.78990673828125,0.029546275734901428,-0.22659540176391602,-0.12238788604736328
1701886080019901700,2.806901611328125,0.15339651703834534,-0.23538684844970703,-0.09897232055664062
1701886080036889300,2.823889404296875,0.18052056431770325,-0.2163219451904297,-0.06613445281982422
1701886080053876200,2.840876220703125,0.08475974947214127,-0.1904587745666504,-0.027774810791015625
1701886080070879700,2.857879638671875,-0.008836492896080017,-0.17669677734375,-0.08244037628173828
1701886080087870500,2.874870361328125,-0.052368976175785065,-0.2115035057067871,-0.1326436996459961
1701886080104862000,2.891862060546875,0.0736154317855835,-0.22931575775146484,-0.17408466339111328
1701886080121856500,2.9088564453125,0.21222782135009766,-0.2548999786376953,-0.16203594207763672
1701886080138838800,2.9258388671875,0.30010104179382324,-0.24634599685668945,-0.177520751953125
1701886080155840500,2.942840576171875,0.26962897181510925,-0.27066755294799805,-0.158599853515625
1701886080172833800,2.959833740234375,0.177479088306427,-0.2526254653930664,-0.1247701644897461
1701886080189829000,2.9768291015625,0.14326795935630798,-0.22501325607299805,-0.14864635467529297
1701886080206816500,2.99381640625,0.1198917031288147,-0.2591991424560547,-0.13462257385253906
1701886080223814100,3.010814208984375,0.12866835296154022,-0.2588076591491699,-0.1535806655883789
1701886080240804900,3.027804931640625,0.1434231847524643,-0.24741411209106445,-0.1479511260986328
1701886080257793000,3.04479296875,0.12256064265966415,-0.24520540237426758,-0.1277933120727539
1701886080274788600,3.06178857421875,0.04678709805011749,-0.23138666152954102,-0.05543994903564453
1701886080291784700,3.07878466796875,-0.019239291548728943,-0.21566152572631836,-0.09004878997802734
1701886080308765700,3.095765625,-0.06390642374753952,-0.26723670959472656,-0.1253814697265625
1701886080325770200,3.112770263671875,-0.01810527592897415,-0.2885732650756836,-0.15578842163085938
1701886080342761700,3.12976171875,0.016243547201156616,-0.28484535217285156,-0.12284088134765625
1701886080359755800,3.146755859375,-0.014564141631126404,-0.3053112030029297,-0.07566070556640625
1701886080376747500,3.16374755859375,-0.09694980084896088,-0.31326770782470703,-0.07154464721679688
1701886080393738000,3.180738037109375,-0.2117321789264679,-0.29454708099365234,-0.06303596496582031
1701886080410732500,3.197732666015625,-0.1906200349330902,-0.26738739013671875,-0.1047210693359375
1701886080427726600,3.2147265625,-0.1496729552745819,-0.28558826446533203,-0.1669635772705078
1701886080444718300,3.23171826171875,-0.09858987480401993,-0.3176283836364746,-0.3153572082519531
1701886080461708000,3.2487080078125,-0.005122072994709015,-0.35561609268188477,-0.39017772674560547
1701886080478704600,3.26570458984375,0.08541024476289749,-0.3610234260559082,-0.33869171142578125
1701886080495697200,3.282697265625,0.1596495807170868,-0.3076329231262207,-0.3341226577758789
1701886080512676600,3.299676513671875,0.16676247119903564,-0.27089357376098633,-0.2846794128417969
1701886080529686500,3.3166865234375,0.12592297792434692,-0.25179433822631836,-0.22883129119873047
1701886080546674400,3.33367431640625,0.10987015068531036,-0.24491214752197266,-0.15846824645996094
1701886080563668200,3.350668212890625,0.11308442801237106,-0.24261093139648438,-0.08321094512939453
1701886080580659000,3.367658935546875,0.12569397687911987,-0.18511438369750977,-0.008742332458496094
1701886080597643800,3.384643798828125,0.15667250752449036,-0.1827998161315918,0.011548995971679688
1701886080614645500,3.4016455078125,0.15607422590255737,-0.1399822235107422,-0.06542587280273438
1701886080631639000,3.41863916015625,0.1567075252532959,-0.21244525909423828,-0.06575870513916016
1701886080648629800,3.435629638671875,0.13889071345329285,-0.21191930770874023,-0.12294864654541016
1701886080665625000,3.452625,0.07311581820249557,-0.22084999084472656,-0.10264396667480469
1701886080682605800,3.469605712890625,0.003264516592025757,-0.19220304489135742,-0.11167526245117188
1701886080699594200,3.48659423828125,-0.021902702748775482,-0.1449732780456543,-0.06892967224121094
1701886080716600600,3.5036005859375,-0.018564246594905853,-0.13173389434814453,-0.06470298767089844
1701886080733594400,3.520594482421875,0.02314237505197525,-0.1278519630432129,-0.09386444091796875
1701886080750588400,3.53758837890625,0.08928942680358887,-0.13704204559326172,-0.10414314270019531
1701886080767581000,3.554580810546875,0.13772183656692505,-0.16070556640625,-0.1237478256225586
1701886080784569300,3.5715693359375,0.13884392380714417,-0.18285226821899414,-0.14201068878173828
1701886080801566200,3.588566162109375,0.09201306104660034,-0.17889404296875,-0.13946819305419922
1701886080818558000,3.605557861328125,0.05487048253417015,-0.17843389511108398,-0.10788631439208984
1701886080835552000,3.622552001953125,0.022355742752552032,-0.15417718887329102,0.005283355712890625
1701886080852543500,3.63954345703125,-0.07011692225933075,-0.1201620101928711,0.006413459777832031
1701886080869537300,3.656537353515625,-0.1431383490562439,-0.1555485725402832,-0.036991119384765625
1701886080886528800,3.67352880859375,-0.09562806785106659,-0.19674205780029297,-0.07729816436767578
1701886080903520300,3.690520263671875,0.014839380979537964,-0.25607967376708984,-0.09407806396484375
1701886080920513500,3.707513427734375,0.1793840527534485,-0.2605876922607422,-0.14808940887451172
1701886080937502700,3.724502685546875,0.2563960552215576,-0.2482767105102539,-0.19552135467529297
1701886080954499600,3.74149951171875,0.21159568428993225,-0.2863173484802246,-0.1930713653564453
1701886080971488800,3.75848876953125,0.13548734784126282,-0.24454212188720703,-0.09954452514648438
1701886080988488000,3.775488037109375,0.06548139452934265,-0.23535966873168945,-0.12305068969726562
1701886081005479000,3.79247900390625,-0.008012712001800537,-0.30298566818237305,-0.15594005584716797
1701886081022470700,3.809470703125,0.0005487650632858276,-0.29631519317626953,-0.1215219497680664
1701886081039464700,3.826464599609375,0.04437414929270744,-0.2707242965698242,-0.12641620635986328
1701886081056456200,3.843456298828125,0.050109006464481354,-0.27043771743774414,-0.17893600463867188
1701886081073449700,3.86044970703125,0.03757255896925926,-0.30121898651123047,-0.2350454330444336
1701886081090441500,3.87744140625,0.05721770226955414,-0.30468225479125977,-0.23685264587402344
1701886081107425000,3.894425048828125,0.04001437500119209,-0.2740941047668457,-0.2144451141357422
1701886081124427000,3.911427001953125,0.0017087161540985107,-0.2676267623901367,-0.22499942779541016
1701886081141421600,3.928421630859375,-0.08082685619592667,-0.2746696472167969,-0.16782379150390625
1701886081158411500,3.94541162109375,-0.10952138900756836,-0.23264741897583008,-0.13488101959228516
1701886081175407000,3.962406982421875,-0.09112668037414551,-0.19638490676879883,-0.11676979064941406
1701886081192397800,3.979397705078125,-0.013658802956342697,-0.17985916137695312,-0.09475040435791016
1701886081209391400,3.996391357421875,0.049494821578264236,-0.20588254928588867,-0.06767559051513672
1701886081226383600,4.013383544921875,0.07762108743190765,-0.19287490844726562,-0.04472160339355469
1701886081243377000,4.030376953125,0.04352986067533493,-0.18378019332885742,0.000804901123046875
1701886081260368600,4.04736865234375,-0.003322657197713852,-0.1731243133544922,-0.026755332946777344
1701886081277352000,4.06435205078125,-0.027935877442359924,-0.20158672332763672,-0.055314064025878906
1701886081294351400,4.081351318359375,-0.006255641579627991,-0.19585943222045898,-0.07396125793457031
1701886081311348000,4.098347900390625,0.04386017844080925,-0.19025325775146484,-0.08370113372802734
1701886081328339500,4.11533935546875,0.09770092368125916,-0.18899011611938477,-0.12642192840576172
1701886081345333200,4.132333251953125,0.112977035343647,-0.22550296783447266,-0.12612152099609375
1701886081362324700,4.14932470703125,0.07080498337745667,-0.19534015655517578,-0.08650684356689453
1701886081379318500,4.166318603515625,0.062231771647930145,-0.1857609748840332,-0.12477493286132812
1701886081396310500,4.183310546875,0.051089055836200714,-0.2041182518005371,-0.11956787109375
1701886081413304000,4.200303955078125,0.09571459889411926,-0.18303346633911133,-0.1377115249633789
1701886081430295800,4.2172958984375,0.12586688995361328,-0.19012022018432617,-0.1268768310546875
1701886081447289600,4.23428955078125,0.12713280320167542,-0.18816804885864258,-0.14980697631835938
1701886081464279000,4.251279052734375,0.09985384345054626,-0.22815227508544922,-0.16738033294677734
1701886081481276400,4.2682763671875,0.024952389299869537,-0.21453428268432617,-0.09264945983886719
1701886081498267400,4.285267333984375,-0.04133208096027374,-0.19681644439697266,-0.05206298828125
1701886081515260700,4.3022607421875,-0.03625645488500595,-0.1571640968322754,-0.08007526397705078
1701886081532241700,4.31924169921875,-0.01837945729494095,-0.1857609748840332,-0.06622886657714844
1701886081549246200,4.33624609375,0.060396406799554825,-0.18541383743286133,-0.09564018249511719
1701886081566236700,4.353236572265625,0.14345505833625793,-0.20960760116577148,-0.12027835845947266
1701886081583232300,4.370232177734375,0.1586352437734604,-0.22735118865966797,-0.15335750579833984
1701886081600214500,4.387214599609375,0.12598243355751038,-0.23070049285888672,-0.12839508056640625
1701886081617216500,4.404216552734375,0.04070623964071274,-0.2251605987548828,-0.10258197784423828
1701886081634209500,4.42120947265625,-0.03436894714832306,-0.1915116310119629,-0.07317924499511719
1701886081651202300,4.438202392578125,-0.049734823405742645,-0.19379949569702148,-0.08386707305908203
1701886081668191500,4.45519140625,0.005916804075241089,-0.21487903594970703,-0.1380472183227539
1701886081685190400,4.4721904296875,0.10840341448783875,-0.2484269142150879,-0.13416099548339844
1701886081702179300,4.489179443359375,0.1645815372467041,-0.24737882614135742,-0.18717575073242188
1701886081719173400,4.50617333984375,0.15859545767307281,-0.22561359405517578,-0.19064807891845703
1701886081736164900,4.523164794921875,0.044855110347270966,-0.21387386322021484,-0.11626625061035156
1701886081753159000,4.540158935546875,-0.07244592905044556,-0.17649030685424805,-0.08708572387695312
1701886081770150400,4.557150390625,-0.13014298677444458,-0.21346569061279297,-0.14052486419677734
1701886081787144400,4.57414453125,-0.06866198033094406,-0.24354934692382812,-0.20905780792236328
1701886081804132900,4.5911328125,0.09970388561487198,-0.2703547477722168,-0.22392845153808594
1701886081821129500,4.60812939453125,0.21299520134925842,-0.24188709259033203,-0.24228382110595703
1701886081838122500,4.62512255859375,0.20270758867263794,-0.21679210662841797,-0.2434549331665039
1701886081855115000,4.642114990234375,0.12027841806411743,-0.16158008575439453,-0.21993160247802734
1701886081872106500,4.6591064453125,0.017900660634040833,-0.14038848876953125,-0.1290130615234375
1701886081889100500,4.6761005859375,-0.024929746985435486,-0.1424732208251953,-0.06703662872314453
1701886081906092300,4.69309228515625,-0.029977858066558838,-0.15636587142944336,-0.035195350646972656
1701886081923085800,4.7100859375,0.024163708090782166,-0.18042993545532227,-0.06231689453125
1701886081940077300,4.727077392578125,0.03665686398744583,-0.1734299659729004,-0.061130523681640625
1701886081957066000,4.74406591796875,0.11733101308345795,-0.1632061004638672,-0.09520244598388672
1701886081974062800,4.761062744140625,0.17221280932426453,-0.13419818878173828,-0.16207218170166016
1701886081991056000,4.778055908203125,0.18154089152812958,-0.10921573638916016,-0.123260498046875
1701886082008049200,4.795049072265625,0.13878053426742554,-0.104400634765625,-0.14715862274169922
1701886082025042200,4.812042236328125,0.04576908051967621,-0.1301722526550293,-0.13280391693115234
1701886082042034000,4.829033935546875,0.004305124282836914,-0.13805103302001953,-0.10984516143798828
1701886082059027200,4.846027099609375,0.08851595222949982,-0.12726545333862305,-0.13653278350830078
1701886082076020200,4.863020263671875,0.16301868855953217,-0.16013193130493164,-0.13928985595703125
1701886082093006000,4.880006103515625,0.23214870691299438,-0.1533641815185547,-0.17037677764892578
1701886082110004700,4.897004638671875,0.23560528457164764,-0.18439006805419922,-0.1524362564086914
1701886082126998500,4.91399853515625,0.21059593558311462,-0.21394920349121094,-0.13375377655029297
1701886082143990300,4.930990234375,0.14051254093647003,-0.2150411605834961,-0.10475444793701172
1701886082160984000,4.947984130859375,0.09193480759859085,-0.21099567413330078,-0.10521888732910156
1701886082177975000,4.96497509765625,0.06205938011407852,-0.1880345344543457,-0.11956214904785156
1701886082194967800,4.9819677734375,0.008290231227874756,-0.18466901779174805,-0.11049461364746094
1701886082211962600,4.998962646484375,-0.007344625890254974,-0.17070913314819336,-0.13411235809326172
1701886082228956000,5.015955810546875,-0.01625315099954605,-0.19043588638305664,-0.12489509582519531
1701886082245946400,5.0329462890625,-0.018702499568462372,-0.21028518676757812,-0.09717750549316406
1701886082262940400,5.0499404296875,-0.013125479221343994,-0.2160954475402832,-0.11688423156738281
1701886082279932200,5.06693212890625,-0.03973754495382309,-0.23086929321289062,-0.1123514175415039
1701886082296926000,5.083926025390625,-0.07180655747652054,-0.21229314804077148,-0.09772396087646484
1701886082313914400,5.100914306640625,-0.07492780685424805,-0.19927167892456055,-0.07929801940917969
1701886082330911500,5.117911376953125,-0.015486568212509155,-0.19632673263549805,-0.10479068756103516
1701886082347903200,5.1349033203125,0.034847013652324677,-0.21132469177246094,-0.13953781127929688
1701886082364896500,5.151896484375,0.06691860407590866,-0.22528362274169922,-0.15848827362060547
1701886082381885400,5.168885498046875,0.043633606284856796,-0.22881555557250977,-0.11956405639648438
1701886082398882000,5.185882080078125,0.009814247488975525,-0.1990981101989746,-0.11815357208251953
1701886082415874000,5.2028740234375,-0.07547539472579956,-0.20228052139282227,-0.09280776977539062
1701886082432867600,5.21986767578125,-0.06542405486106873,-0.21617555618286133,-0.09257030487060547
1701886082449859600,5.236859619140625,0.010562106966972351,-0.22052907943725586,-0.12644481658935547
1701886082466852900,5.253852783203125,0.1328323930501938,-0.22278213500976562,-0.14103031158447266
1701886082483844600,5.2708447265625,0.15561982989311218,-0.1900629997253418,-0.14887714385986328
1701886082500838000,5.287837890625,0.08954231441020966,-0.1768331527709961,-0.15088176727294922
1701886082517843000,5.304843017578125,-0.0030949190258979797,-0.15256357192993164,-0.10425949096679688
1701886082534823400,5.321823486328125,-0.07649069279432297,-0.13729047775268555,-0.00470733642578125
1701886082551815700,5.338815673828125,-0.06660652905702591,-0.10922098159790039,0.03569984436035156
1701886082568808700,5.35580859375,-0.03383558243513107,-0.11779260635375977,0.040988922119140625
1701886082585802000,5.372802001953125,0.012654304504394531,-0.11488533020019531,-0.027881622314453125
1701886082602794800,5.389794677734375,0.0510382205247879,-0.14212465286254883,-0.09686946868896484
1701886082619786500,5.406786376953125,0.09481646120548248,-0.16458988189697266,-0.15178966522216797
1701886082636787200,5.423787109375,0.13904795050621033,-0.16531038284301758,-0.1817646026611328
1701886082653754600,5.440754638671875,0.13867606222629547,-0.15481901168823242,-0.16694068908691406
1701886082670766600,5.4577666015625,0.09538953006267548,-0.15811920166015625,-0.1413583755493164
1701886082687757000,5.474757080078125,0.08403600752353668,-0.12217330932617188,-0.1161947250366211
1701886082704748000,5.491748046875,0.027013547718524933,-0.13002490997314453,-0.07134532928466797
1701886082721742800,5.508742919921875,0.01650199294090271,-0.11879968643188477,-0.09442996978759766
1701886082738734000,5.525734130859375,0.016944073140621185,-0.1464986801147461,-0.05562591552734375
1701886082755731000,5.54273095703125,0.03929410129785538,-0.13188505172729492,-0.07943153381347656
1701886082772722000,5.559721923828125,0.0338243693113327,-0.16036319732666016,-0.06496810913085938
1701886082789714000,5.5767138671875,0.03600858896970749,-0.11763858795166016,-0.06038665771484375
1701886082806705000,5.593704833984375,0.02292834222316742,-0.09967708587646484,-0.08495235443115234
1701886082823693600,5.610693603515625,0.024937152862548828,-0.11896800994873047,-0.09493160247802734
1701886082840693000,5.62769287109375,0.052059996873140335,-0.13396120071411133,-0.0952749252319336
1701886082857685000,5.64468505859375,0.07559411972761154,-0.15309381484985352,-0.10544204711914062
1701886082874678500,5.661678466796875,0.09498286247253418,-0.1662454605102539,-0.08089351654052734
1701886082891666200,5.678666259765625,0.08046279102563858,-0.13988780975341797,-0.07007598876953125
1701886082908655400,5.6956552734375,0.0037381723523139954,-0.14227056503295898,-0.020094871520996094
1701886082925655800,5.71265576171875,-0.07892519980669022,-0.10784053802490234,0.024344444274902344
1701886082942649300,5.7296494140625,-0.1464686244726181,-0.09059667587280273,0.023960113525390625
1701886082959641300,5.746641357421875,-0.16022449731826782,-0.10887622833251953,-0.030684471130371094
1701886082976635100,5.76363525390625,-0.10631943494081497,-0.14191055297851562,-0.06219482421875
1701886082993627000,5.780626953125,-0.004657313227653503,-0.15492486953735352,-0.11270332336425781
1701886083010620200,5.7976201171875,0.03575211018323898,-0.17178821563720703,-0.12862205505371094
1701886083027612000,5.81461181640625,0.011488586664199829,-0.18411874771118164,-0.11054801940917969
1701886083044605700,5.831605712890625,-0.013745024800300598,-0.16677522659301758,-0.09707069396972656
1701886083061586700,5.848586669921875,-0.024441570043563843,-0.1450667381286621,-0.08800411224365234
1701886083078590500,5.865590576171875,-0.021567687392234802,-0.1526789665222168,-0.10854911804199219
1701886083095584500,5.88258447265625,0.0017264112830162048,-0.16074132919311523,-0.11077117919921875
1701886083112575500,5.899575439453125,0.048358723521232605,-0.16356849670410156,-0.13639163970947266
1701886083129558500,5.91655859375,0.05708479881286621,-0.19602489471435547,-0.16217517852783203
1701886083146562000,5.93356201171875,0.141439750790596,-0.21812772750854492,-0.22255516052246094
1701886083163553800,5.9505537109375,0.2252398431301117,-0.2330641746520996,-0.22820091247558594
1701886083180547300,5.96754736328125,0.27754396200180054,-0.20660066604614258,-0.19820117950439453
1701886083197539000,5.9845390625,0.20607158541679382,-0.15959835052490234,-0.16689300537109375
1701886083214530000,6.001530029296875,0.11771829426288605,-0.12273788452148438,-0.12118053436279297
1701886083231513600,6.018513671875,0.021805785596370697,-0.11460351943969727,-0.05571269989013672
1701886083248521200,6.035521240234375,0.015160515904426575,-0.12105751037597656,0.008116722106933594
1701886083265510400,6.052510498046875,0.028617560863494873,-0.1488204002380371,0.017563819885253906
1701886083282504000,6.06950390625,0.04432486742734909,-0.1396317481994629,-0.025743484497070312
1701886083299494400,6.086494384765625,0.04622194916009903,-0.13667678833007812,-0.07935142517089844
1701886083316493800,6.103493896484375,0.04432157427072525,-0.1391773223876953,-0.11892986297607422
1701886083333475000,6.12047509765625,0.052547387778759,-0.13587665557861328,-0.12478923797607422
1701886083350478800,6.137478759765625,0.06602314114570618,-0.1470193862915039,-0.13995742797851562
1701886083367466500,6.154466552734375,0.05573147535324097,-0.1479325294494629,-0.15478992462158203
1701886083384460300,6.171460205078125,0.05457661300897598,-0.15248584747314453,-0.17860698699951172
1701886083401448000,6.188447998046875,0.049803875386714935,-0.15980768203735352,-0.15354156494140625
1701886083418436400,6.205436279296875,0.03052566945552826,-0.16139698028564453,-0.127685546875
1701886083435437600,6.2224375,0.006434336304664612,-0.13272476196289062,-0.08160400390625
1701886083452431400,6.239431396484375,-0.02687568962574005,-0.1048884391784668,-0.04132652282714844
1701886083469423000,6.256423095703125,-0.01297016441822052,-0.0833439826965332,-0.006603240966796875
1701886083486417000,6.2734169921875,-0.018419474363327026,-0.07749509811401367,-0.02521038055419922
1701886083503408400,6.290408447265625,0.004279635846614838,-0.09165287017822266,-0.0634002685546875
1701886083520402200,6.307402099609375,0.03697513788938522,-0.10531139373779297,-0.08278656005859375
1701886083537394200,6.324394287109375,0.08072830736637115,-0.10785818099975586,-0.10108280181884766
1701886083554386700,6.34138671875,0.029679611325263977,-0.10101890563964844,-0.047066688537597656
1701886083571380500,6.35838037109375,0.0015200600028038025,-0.07005977630615234,-0.03573799133300781
1701886083588374300,6.375374267578125,-0.03518514335155487,-0.07328510284423828,-0.02535533905029297
1701886083605364000,6.392364013671875,-0.06656384468078613,-0.07867097854614258,0.0135498046875
1701886083622357800,6.409357666015625,-0.042052678763866425,-0.08083486557006836,-0.012072563171386719
1701886083639351000,6.42635107421875,0.02445923537015915,-0.09260034561157227,-0.056572914123535156
1701886083656354800,6.443354736328125,0.10464631021022797,-0.10884428024291992,-0.07819175720214844
1701886083673325000,6.460324951171875,0.15247176587581635,-0.12963581085205078,-0.08861064910888672
1701886083690317300,6.4773173828125,0.13905799388885498,-0.13979721069335938,-0.08411216735839844
1701886083707312000,6.49431201171875,0.07429789751768112,-0.12613487243652344,-0.0596160888671875
1701886083724314400,6.511314453125,-0.010940901935100555,-0.12166643142700195,-0.049594879150390625
1701886083741296000,6.528296142578125,-0.05864588916301727,-0.11397123336791992,-0.02632617950439453
1701886083758300400,6.545300537109375,-0.04110191762447357,-0.11549043655395508,-0.046573638916015625
1701886083775292200,6.562292236328125,-0.028544217348098755,-0.13256549835205078,-0.07669353485107422
1701886083792285700,6.57928564453125,0.023123115301132202,-0.12563467025756836,-0.11214637756347656
1701886083809277700,6.596277587890625,0.06215028464794159,-0.13695573806762695,-0.10854911804199219
1701886083826271500,6.613271484375,0.05349171161651611,-0.14430952072143555,-0.12419605255126953
1701886083843263000,6.630262939453125,0.0025856494903564453,-0.18550443649291992,-0.1492767333984375
1701886083860256800,6.6472568359375,0.0321064367890358,-0.20480823516845703,-0.1735820770263672
1701886083877248000,6.664248046875,0.0797068178653717,-0.20302772521972656,-0.13021373748779297
1701886083894242800,6.681242919921875,0.07415518164634705,-0.1578502655029297,-0.10462379455566406
1701886083911233000,6.69823291015625,0.022632800042629242,-0.13266944885253906,-0.1323709487915039
1701886083928228400,6.715228271484375,-0.011846952140331268,-0.13492727279663086,-0.10650920867919922
1701886083945219300,6.73221923828125,-0.017942026257514954,-0.1326918601989746,-0.038333892822265625
1701886083962213000,6.749213134765625,-0.002618536353111267,-0.11794185638427734,-0.028547286987304688
1701886083979204000,6.7662041015625,-0.006195545196533203,-0.1379532814025879,-0.048117637634277344
1701886083996199400,6.783199462890625,0.032772526144981384,-0.14414215087890625,-0.05419921875
1701886084013190400,6.8001904296875,0.10462207347154617,-0.14024066925048828,-0.08844470977783203
1701886084030184000,6.817183837890625,0.10578452050685883,-0.13631296157836914,-0.07451629638671875
1701886084047176000,6.834176025390625,0.07706478238105774,-0.10409832000732422,-0.0892171859741211
1701886084064169200,6.851169189453125,0.020601831376552582,-0.10487508773803711,-0.08421611785888672
1701886084081150700,6.868150634765625,0.0070915669202804565,-0.10095548629760742,-0.10378742218017578
1701886084098154200,6.885154296875,0.020914651453495026,-0.11552858352661133,-0.09911823272705078
1701886084115147500,6.9021474609375,0.05408906936645508,-0.12513208389282227,-0.09973716735839844
1701886084132140500,6.919140625,0.054688408970832825,-0.11056184768676758,-0.10440635681152344
1701886084149129500,6.93612939453125,0.051730021834373474,-0.11435365676879883,-0.09908485412597656
1701886084166121700,6.953121826171875,0.020225025713443756,-0.10312652587890625,-0.06412029266357422
1701886084183104500,6.9701044921875,-0.013467475771903992,-0.09254121780395508,-0.04924964904785156
1701886084200111400,6.987111328125,0.00942404568195343,-0.09221220016479492,-0.06345462799072266
1701886084217100500,7.0041005859375,0.018546290695667267,-0.10177087783813477,-0.058670997619628906
1701886084234096000,7.02109619140625,0.04310717433691025,-0.11666345596313477,-0.0643167495727539
1701886084251095800,7.038095703125,0.03405274450778961,-0.11237192153930664,-0.07831001281738281
1701886084268077600,7.05507763671875,0.03917752206325531,-0.09816837310791016,-0.10709667205810547
1701886084285078500,7.07207861328125,0.06670204550027847,-0.10217618942260742,-0.11718463897705078
1701886084302064600,7.089064697265625,0.1195441484451294,-0.10182905197143555,-0.097869873046875
1701886084319059500,7.1060595703125,0.1388147920370102,-0.1204533576965332,-0.07905864715576172
1701886084336053000,7.123052978515625,0.09597727656364441,-0.12488698959350586,-0.0779733657836914
1701886084353045000,7.140044921875,0.04832141846418381,-0.11846256256103516,-0.048427581787109375
1701886084370038800,7.157038818359375,0.03271611034870148,-0.09328413009643555,-0.04242420196533203
1701886084387030500,7.174030517578125,0.012727461755275726,-0.09318161010742188,-0.02803802490234375
1701886084404024000,7.191024169921875,-0.004079490900039673,-0.094940185546875,-0.04810810089111328
1701886084421015300,7.208015380859375,0.008422113955020905,-0.12139368057250977,-0.07813739776611328
1701886084437997300,7.224997314453125,0.035365425050258636,-0.14331960678100586,-0.1232461929321289
1701886084455004000,7.24200390625,0.07683991640806198,-0.16774320602416992,-0.15253162384033203
1701886084471984400,7.258984375,0.1135936826467514,-0.1524658203125,-0.1383228302001953
1701886084488986000,7.275986083984375,0.08317652344703674,-0.14551687240600586,-0.12228965759277344
1701886084505975000,7.29297509765625,0.015699252486228943,-0.1346759796142578,-0.058548927307128906
1701886084522975000,7.30997509765625,-0.06260944902896881,-0.10107755661010742,-0.05761909484863281
1701886084539966000,7.326966064453125,-0.10209212452173233,-0.09673166275024414,-0.06743144989013672
1701886084556958000,7.3439580078125,-0.0824730321764946,-0.1368112564086914,-0.11170673370361328
1701886084573951500,7.360951416015625,0.028768524527549744,-0.17724132537841797,-0.18126964569091797
1701886084590943000,7.37794287109375,0.16317181289196014,-0.2010354995727539,-0.18269824981689453
1701886084607938600,7.3949384765625,0.2226293683052063,-0.19327592849731445,-0.1907825469970703
1701886084624924000,7.411923828125,0.187662273645401,-0.15449953079223633,-0.11603260040283203
1701886084641922600,7.428922607421875,0.09664737433195114,-0.09576225280761719,-0.044429779052734375
1701886084658914300,7.445914306640625,-0.03064880520105362,-0.06717586517333984,0.054576873779296875
1701886084675907800,7.462907958984375,-0.1056438758969307,-0.0615544319152832,0.09421062469482422
1701886084692899300,7.4798994140625,-0.14864683151245117,-0.1014094352722168,0.06529045104980469
1701886084709893000,7.49689306640625,-0.05556526035070419,-0.12329769134521484,0.0001468658447265625
1701886084726885000,7.513885009765625,0.04201020300388336,-0.15074920654296875,-0.06480026245117188
1701886084743875600,7.53087548828125,0.1457483321428299,-0.15346050262451172,-0.13887977600097656
1701886084760870400,7.547870361328125,0.16009528934955597,-0.15944147109985352,-0.14905357360839844
1701886084777864000,7.564864013671875,0.12648352980613708,-0.14885425567626953,-0.1246175765991211
1701886084794855700,7.581855712890625,0.07689689099788666,-0.11910200119018555,-0.11872291564941406
1701886084811856400,7.5988564453125,-0.00046394020318984985,-0.1276378631591797,-0.10294914245605469
1701886084828841200,7.61584130859375,-0.024397417902946472,-0.11111783981323242,-0.10662841796875
1701886084845835300,7.632835205078125,-0.022573672235012054,-0.10359668731689453,-0.1004190444946289
1701886084862815700,7.649815673828125,0.012415118515491486,-0.10473823547363281,-0.088958740234375
1701886084879820500,7.666820556640625,0.04533638805150986,-0.09045982360839844,-0.05844306945800781
1701886084896801500,7.683801513671875,0.0137983039021492,-0.08606719970703125,-0.041266441345214844
1701886084913806000,7.70080615234375,-0.01661302149295807,-0.053862571716308594,-0.053849220275878906
1701886084930799000,7.717799072265625,-0.0391630083322525,-0.06008481979370117,-0.018614768981933594
1701886084947791400,7.734791259765625,-0.03231564909219742,-0.0711507797241211,-0.012104988098144531
1701886084964783000,7.751783203125,-0.0016061067581176758,-0.07761716842651367,-0.0009050369262695312
1701886084981777000,7.76877685546875,0.03702929615974426,-0.07904291152954102,0.0002346038818359375
1701886084998767900,7.785767822265625,0.05528309941291809,-0.06105613708496094,0.016457557678222656
1701886085015763000,7.802762939453125,0.007557660341262817,-0.034833431243896484,0.04725933074951172
1701886085032754700,7.819754638671875,-0.04386821389198303,-0.009555816650390625,0.04857063293457031
1701886085049747700,7.836747802734375,-0.09887286275625229,-0.00002574920654296875,0.04439544677734375
1701886085066722000,7.85372216796875,-0.11718284338712692,0.00347137451171875,-0.013680458068847656
1701886085083733200,7.870733154296875,-0.12204458564519882,-0.037328243255615234,-0.0825643539428711
1701886085100725000,7.88772509765625,-0.040018580853939056,-0.062351226806640625,-0.15101051330566406
1701886085117719000,7.904718994140625,0.09671367704868317,-0.08347892761230469,-0.1175394058227539
1701886085134710500,7.92171044921875,0.18600350618362427,-0.030197620391845703,0.009723663330078125
1701886085151701500,7.938701416015625,0.10819277912378311,0.012577056884765625,0.08956336975097656
1701886085168696000,7.955696044921875,-0.050146594643592834,0.03866863250732422,0.08267974853515625
1701886085185689900,7.97268994140625,-0.11499355733394623,0.06284093856811523,0.09339332580566406
1701886085202681600,7.989681640625,-0.0878419429063797,-0.006503582000732422,0.14971542358398438
1701886085219675000,8.0066748046875,-0.04580995440483093,-0.02675342559814453,0.08840560913085938
1701886085236667000,8.0236669921875,-0.03331689536571503,-0.08901596069335938,0.00214385986328125
1701886085253661000,8.040660888671875,0.018377572298049927,-0.1327228546142578,-0.12835693359375
1701886085270651400,8.0576513671875,0.1526319980621338,-0.15452289581298828,-0.17665672302246094
1701886085287647200,8.074647216796874,0.2477329969406128,-0.1492137908935547,-0.16053009033203125
1701886085304627200,8.091627197265625,0.2233840823173523,-0.1338028907775879,-0.16654586791992188
1701886085321627600,8.108627685546875,0.11900708079338074,-0.11461162567138672,-0.15359783172607422
1701886085338624300,8.125624267578125,0.03944888710975647,-0.14401769638061523,-0.15536975860595703
1701886085355606500,8.1426064453125,0.015039727091789246,-0.17822933197021484,-0.14851665496826172
1701886085372608800,8.15960888671875,0.041651830077171326,-0.20336580276489258,-0.17066001892089844
1701886085389602600,8.1766025390625,0.13678520917892456,-0.22235631942749023,-0.2223644256591797
1701886085406594300,8.19359423828125,0.21284858882427216,-0.25841331481933594,-0.2389373779296875
1701886085423588000,8.210588134765626,0.26860105991363525,-0.25917768478393555,-0.2632780075073242
1701886085440579800,8.227579833984375,0.24196556210517883,-0.23806476593017578,-0.2527618408203125
1701886085457573600,8.24457373046875,0.15777432918548584,-0.21597766876220703,-0.22650623321533203
1701886085474565000,8.261565185546875,0.06375802308320999,-0.1880030632019043,-0.21435165405273438
1701886085491559000,8.278558837890625,0.0032745152711868286,-0.16033124923706055,-0.1924600601196289
1701886085508549600,8.295549560546876,-0.032456278800964355,-0.15520000457763672,-0.19406986236572266
1701886085525545000,8.312544921875,-0.02406845986843109,-0.14885759353637695,-0.17171669006347656
1701886085542536200,8.3295361328125,0.02250458300113678,-0.14623117446899414,-0.11591053009033203
1701886085559530000,8.346530029296876,0.02001836895942688,-0.1052999496459961,-0.06429576873779297
1701886085576521500,8.363521484375,-0.0026179105043411255,-0.08908319473266602,-0.036705970764160156
1701886085593515500,8.380515625,-0.042768895626068115,-0.05828142166137695,-0.01346588134765625
1701886085610507000,8.397507080078125,-0.081122487783432,-0.04224252700805664,0.004830360412597656
1701886085627500800,8.414500732421875,-0.051651328802108765,-0.031040668487548828,0.02670001983642578
1701886085644489500,8.431489501953125,-0.03390802443027496,-0.015485286712646484,0.020216941833496094
1701886085661483500,8.4484833984375,-0.0022492259740829468,-0.0007767677307128906,0.03242301940917969
1701886085678468000,8.465468017578125,-0.012368947267532349,0.012395381927490234,0.06299018859863281
1701886085695473200,8.48247314453125,-0.0551970899105072,0.02313995361328125,0.049846649169921875
1701886085712465000,8.49946484375,-0.059443652629852295,0.033095359802246094,0.0261383056640625
1701886085729456000,8.5164560546875,-0.03893458843231201,0.014303207397460938,0.02096271514892578
1701886085746449000,8.533448974609374,0.029615730047225952,0.019153118133544922,0.020425796508789062
1701886085763442700,8.550442626953124,0.06444309651851654,0.024001121520996094,0.01061248779296875
1701886085780423400,8.56742333984375,0.0994781032204628,0.004338741302490234,-0.013555526733398438
1701886085797428500,8.584428466796876,0.08128572255373001,-0.01534891128540039,0.01966571807861328
1701886085814420000,8.601419921875,0.018237948417663574,-0.013352394104003906,0.019107818603515625
1701886085831411200,8.6184111328125,-0.012498512864112854,-0.0018210411071777344,-0.02545928955078125
1701886085848408000,8.635407958984375,-0.023651495575904846,-0.004426002502441406,-0.03162860870361328
1701886085865399000,8.65239892578125,0.046167321503162384,-0.0019550323486328125,-0.05290699005126953
1701886085882388200,8.66938818359375,0.05979686975479126,-0.000029087066650390625,-0.04961872100830078
1701886085899386400,8.686386474609375,0.03498804569244385,-0.0027904510498046875,-0.04627799987792969
1701886085916377000,8.703377197265626,-0.004292890429496765,-0.03932762145996094,-0.061631202697753906
1701886085933370000,8.7203701171875,0.0187985897064209,-0.052715301513671875,-0.07857418060302734
1701886085950359300,8.737359375,0.04966101795434952,-0.07082271575927734,-0.0757761001586914
1701886085967364600,8.754364501953125,0.055108264088630676,-0.07403373718261719,-0.0966482162475586
1701886085984347100,8.77134716796875,0.04253965616226196,-0.057517051696777344,-0.11240100860595703
1701886086001341200,8.788341064453125,0.04784223437309265,-0.06817150115966797,-0.06510448455810547
1701886086018332000,8.805331787109376,0.05369564890861511,-0.08267784118652344,0.0018157958984375
1701886086035327500,8.822327392578124,0.014321818947792053,-0.07913064956665039,0.05408763885498047
1701886086052318200,8.839318115234375,-0.08424274623394012,-0.0739278793334961,0.07182788848876953
1701886086069311700,8.856311767578125,-0.13656361401081085,-0.09022760391235352,0.0019130706787109375
1701886086086303500,8.873303466796875,-0.10117872059345245,-0.14030885696411133,-0.04091358184814453
1701886086103297500,8.890297607421875,-0.046208009123802185,-0.1510934829711914,-0.09756183624267578
1701886086120289000,8.9072890625,0.02797834575176239,-0.14612388610839844,-0.1579608917236328
1701886086137283300,8.924283447265625,0.06048203259706497,-0.123779296875,-0.18300914764404297
1701886086154270700,8.941270751953125,0.06020667403936386,-0.0948476791381836,-0.120697021484375
1701886086171268400,8.958268310546876,0.007435962557792664,-0.0669088363647461,-0.07713031768798828
1701886086188260000,8.975260009765625,-0.08205284178256989,-0.08298921585083008,-0.053165435791015625
1701886086205243600,8.99224365234375,-0.151605024933815,-0.0946507453918457,-0.06318187713623047
1701886086222240000,9.009239990234375,-0.08859701454639435,-0.10163545608520508,-0.07923507690429688
1701886086239240000,9.026239990234375,0.022316567599773407,-0.1262373924255371,-0.05654144287109375
1701886086256231200,9.043231201171874,0.11419457197189331,-0.11260747909545898,-0.03835105895996094
1701886086273224700,9.060224609375,0.12171383947134018,-0.12215423583984375,-0.028736114501953125
1701886086290216200,9.07721630859375,0.048065945506095886,-0.0978097915649414,-0.003948211669921875
1701886086307209500,9.09420947265625,0.0028138309717178345,-0.0703125,0.0011625289916992188
1701886086324201500,9.111201416015625,-0.009932756423950195,-0.05782127380371094,-0.009332656860351562
1701886086341196000,9.128196044921875,0.009025022387504578,-0.07016468048095703,-0.04992485046386719
1701886086358174500,9.145174560546875,0.03804173320531845,-0.07923364639282227,-0.09515857696533203
1701886086375181300,9.162181396484375,0.025181680917739868,-0.09321451187133789,-0.10694408416748047
1701886086392170500,9.17917041015625,0.04118695110082626,-0.12061309814453125,-0.1230325698852539
1701886086409168400,9.19616845703125,0.08086492866277695,-0.1316051483154297,-0.1099700927734375
1701886086426167600,9.21316748046875,0.11529648303985596,-0.1259913444519043,-0.1002655029296875
1701886086443152100,9.230152099609375,0.14973567426204681,-0.10497188568115234,-0.06580924987792969
1701886086460143900,9.247143798828125,0.11645017564296722,-0.08429574966430664,-0.03122234344482422
1701886086477137700,9.2641376953125,0.040547020733356476,-0.07349300384521484,-0.03955841064453125
1701886086494129200,9.281129150390624,-0.02912093698978424,-0.07936477661132812,-0.02960968017578125
1701886086511123200,9.298123291015624,-0.0609259158372879,-0.10031890869140625,-0.04007148742675781
1701886086528109300,9.315109375,0.006128042936325073,-0.10631370544433594,-0.0750722885131836
1701886086545105200,9.332105224609375,0.0672081932425499,-0.10733461380004883,-0.08995628356933594
1701886086562100500,9.3491005859375,0.09402051568031311,-0.08847856521606445,-0.11405467987060547
1701886086579094000,9.366093994140625,0.06965839862823486,-0.10722160339355469,-0.16201019287109375
1701886086596069600,9.383069580078125,0.06642404943704605,-0.12110662460327148,-0.1566638946533203
1701886086613079600,9.40007958984375,0.11339114606380463,-0.10811042785644531,-0.15105724334716797
1701886086630059000,9.41705908203125,0.08735381811857224,-0.0889439582824707,-0.12891292572021484
1701886086647067100,9.434067138671875,0.05736175924539566,-0.054866790771484375,-0.11154556274414062
1701886086664053500,9.451053466796875,0.01088765263557434,-0.019959449768066406,-0.04078960418701172
1701886086681064200,9.468064208984375,-0.022027119994163513,-0.006046295166015625,0.004803657531738281
1701886086698042000,9.4850419921875,-0.03297775983810425,-0.012364864349365234,-0.007916450500488281
1701886086715036000,9.502035888671875,-0.06920212507247925,-0.024135112762451172,-0.03953075408935547
1701886086732024300,9.5190244140625,-0.05214405059814453,-0.031132221221923828,-0.04842090606689453
1701886086749021400,9.536021484375,-0.005678638815879822,-0.023380279541015625,-0.008649826049804688
1701886086766013200,9.55301318359375,-0.05533422529697418,-0.020417213439941406,0.04068565368652344
1701886086783006700,9.5700068359375,-0.13961850106716156,-0.009229660034179688,0.018442153930664062
1701886086799998500,9.58699853515625,-0.1322101205587387,0.0022864341735839844,-0.00003337860107421875
1701886086816992500,9.603992431640625,-0.012967720627784729,-0.015852928161621094,0.023795127868652344
1701886086833984300,9.620984375,0.07180968672037125,-0.009875774383544922,0.01870250701904297
1701886086850977800,9.637977783203125,0.07152726501226425,-0.028294086456298828,0.00949859619140625
1701886086867969800,9.6549697265625,-0.00894927978515625,-0.02337360382080078,0.010487556457519531
1701886086884966100,9.671966064453125,-0.05890744924545288,-0.008653640747070312,0.02028179168701172
1701886086901954300,9.688954345703126,-0.06147994101047516,-0.004719734191894531,0.03483295440673828
1701886086918947800,9.70594775390625,-0.02605903148651123,-0.03540325164794922,0.018898963928222656
1701886086935930600,9.7229306640625,0.04130946844816208,-0.041872501373291016,-0.04505729675292969
1701886086952934400,9.739934326171875,0.10405667871236801,-0.05299091339111328,-0.0703573226928711
1701886086969925600,9.756925537109375,0.11859250068664551,-0.043731689453125,-0.09952449798583984
1701886086986920000,9.773919921875,0.1290905773639679,-0.024562358856201172,-0.11385154724121094
1701886087003911700,9.79091162109375,0.11582531034946442,-0.03330659866333008,-0.08469486236572266
1701886087020905000,9.807905029296874,0.06910095363855362,-0.03766918182373047,-0.04529094696044922
1701886087037898500,9.8248984375,0.02556528151035309,-0.02309417724609375,-0.04039955139160156
1701886087054877200,9.841877197265624,0.029528789222240448,-0.018620014190673828,-0.05492115020751953
1701886087071877600,9.858877685546876,0.10164386034011841,-0.038077354431152344,-0.04132652282714844
1701886087088876300,9.875876220703125,0.16721560060977936,-0.04289817810058594,-0.03270435333251953
1701886087105867800,9.89286767578125,0.17336273193359375,-0.06264591217041016,-0.056990623474121094
1701886087122861600,9.909861572265624,0.09820010513067245,-0.07323408126831055,-0.06144905090332031
1701886087139850800,9.926850830078125,0.06677956134080887,-0.06404256820678711,-0.06587505340576172
1701886087156849400,9.943849365234374,0.04136441648006439,-0.07374048233032227,-0.042044639587402344
1701886087173838600,9.960838623046875,0.03851449489593506,-0.07342386245727539,-0.051497459411621094
1701886087190832400,9.977832275390625,0.00617537647485733,-0.07744884490966797,-0.027245521545410156
1701886087207819800,9.99481982421875,-0.03212118148803711,-0.06351184844970703,-0.031411170959472656
1701886087224818200,10.011818115234375,-0.12257049232721329,-0.05442237854003906,-0.04546928405761719
1701886087241804000,10.028803955078125,-0.16238120198249817,-0.0891413688659668,-0.07004356384277344
1701886087258806000,10.045805908203125,-0.07328943908214569,-0.09450531005859375,-0.12868213653564453
1701886087275784700,10.06278466796875,0.04949309676885605,-0.11701154708862305,-0.12947845458984375
1701886087292789000,10.0797890625,0.10482637584209442,-0.10912561416625977,-0.1333017349243164
1701886087309780700,10.09678076171875,0.05675594508647919,-0.08614730834960938,-0.09215259552001953
1701886087326774300,10.113774169921875,0.0003018006682395935,-0.05739784240722656,-0.03643035888671875
1701886087343766300,10.130766357421875,-0.046035438776016235,-0.04779481887817383,0.057877540588378906
1701886087360757500,10.147757568359374,-0.042474165558815,-0.03868293762207031,0.10315513610839844
1701886087377754600,10.164754638671875,-0.03067777305841446,-0.037073612213134766,0.0800313949584961
1701886087394745300,10.181745361328124,-0.008225448429584503,-0.03325080871582031,0.02150440216064453
1701886087411726600,10.1987265625,0.011296585202217102,-0.044569969177246094,-0.03711891174316406
1701886087428730000,10.215730224609375,0.016172237694263458,-0.05142354965209961,-0.09081840515136719
1701886087445723400,10.232723388671875,0.0337582528591156,-0.06591510772705078,-0.12530517578125
1701886087462716200,10.249716064453125,0.08956043422222137,-0.07049226760864258,-0.13956928253173828
1701886087479695000,10.266695068359375,0.1607949286699295,-0.08792972564697266,-0.11537456512451172
1701886087496704300,10.283704345703125,0.17813539505004883,-0.08946990966796875,-0.08560752868652344
1701886087513683000,10.300682861328125,0.11899098753929138,-0.09009027481079102,-0.011112213134765625
1701886087530687200,10.317687255859376,0.03470911085605621,-0.06348180770874023,0.005496025085449219
1701886087547679200,10.33467919921875,-0.015430644154548645,-0.06163835525512695,0.05517864227294922
1701886087564669400,10.35166943359375,-0.05996324121952057,-0.05656576156616211,0.06009101867675781
1701886087581662500,10.368662353515624,-0.07213076204061508,-0.05784463882446289,0.012154579162597656
1701886087598658300,10.385658203125,-0.07296165078878403,-0.08853864669799805,-0.02297687530517578
1701886087615650000,10.402650146484374,-0.040841542184352875,-0.11408615112304688,-0.09590721130371094
1701886087632643800,10.419643798828124,-0.02154635637998581,-0.1442246437072754,-0.10202693939208984
1701886087649635300,10.43663525390625,-0.01604326069355011,-0.16893720626831055,-0.11199569702148438
1701886087666624800,10.453624755859375,-0.011273406445980072,-0.1963644027709961,-0.11611652374267578
1701886087683620900,10.470620849609375,-0.006594724953174591,-0.1838064193725586,-0.06193828582763672
1701886087700612900,10.48761279296875,-0.02123115211725235,-0.1515488624572754,-0.06968116760253906
1701886087717608200,10.504608154296875,-0.0538027361035347,-0.12780046463012695,-0.047545433044433594
1701886087734587100,10.521587158203126,-0.08525215834379196,-0.10939550399780273,-0.021193504333496094
1701886087751590700,10.538590576171876,-0.12643083930015564,-0.07757949829101562,-0.04288673400878906
1701886087768586500,10.55558642578125,-0.12396220117807388,-0.08015012741088867,-0.09434223175048828
1701886087785577700,10.57257763671875,-0.07421950995922089,-0.08618736267089844,-0.15080642700195312
1701886087802571000,10.589571044921875,-0.008827604353427887,-0.09090137481689453,-0.18682861328125
1701886087819562000,10.60656201171875,0.05418192595243454,-0.09437131881713867,-0.16504383087158203
1701886087836557300,10.623557373046875,0.09719982743263245,-0.0765371322631836,-0.1277637481689453
1701886087853550000,10.640550048828125,0.1119418814778328,-0.05762481689453125,-0.03189373016357422
1701886087870539300,10.657539306640626,0.08749829977750778,-0.020373821258544922,0.05489635467529297
1701886087887534000,10.6745341796875,0.04242692142724991,0.015814781188964844,0.0929555892944336
1701886087904516900,10.691516845703125,0.010480411350727081,0.011050701141357422,0.08625602722167969
1701886087921509400,10.70850927734375,0.09585718810558319,0.015497207641601562,0.04940032958984375
1701886087938512400,10.725512451171875,0.16362065076828003,0.01983356475830078,-0.0019083023071289062
1701886087955505700,10.742505615234375,0.11669006943702698,0.04334068298339844,-0.061263084411621094
1701886087972498400,10.75949853515625,0.03366994857788086,0.06748819351196289,-0.09631538391113281
1701886087989490400,10.776490478515624,0.01160409301519394,0.09186124801635742,-0.054924964904785156
1701886088006484000,10.79348388671875,0.019377149641513824,0.08367347717285156,0.020163536071777344
1701886088023476000,10.81047607421875,0.059487298130989075,0.06954288482666016,0.08923721313476562
1701886088040469800,10.8274697265625,0.11621101200580597,0.06739282608032227,0.07628154754638672
1701886088057461200,10.844461181640625,0.12125100195407867,0.0498504638671875,0.07713890075683594
1701886088074452000,10.861451904296874,0.11642326414585114,0.026761531829833984,0.0817718505859375
1701886088091441700,10.878441650390625,0.09133319556713104,0.03684854507446289,0.07784461975097656
1701886088108443000,10.89544287109375,0.0369608998298645,0.06475687026977539,0.058846473693847656
1701886088125432300,10.912432373046874,-0.002820611000061035,0.06693124771118164,0.014369010925292969
1701886088142422800,10.9294228515625,-0.042073510587215424,0.034578800201416016,-0.020473480224609375
1701886088159417600,10.94641748046875,-0.023303411900997162,0.011608600616455078,-0.051825523376464844
1701886088176411600,10.96341162109375,0.005326822400093079,-0.011309146881103516,-0.07296562194824219
1701886088193403100,10.980403076171875,0.002981811761856079,-0.029249191284179688,-0.09397411346435547
1701886088210397000,10.99739697265625,0.0006566494703292847,-0.055843353271484375,-0.07680702209472656
1701886088227388400,11.014388427734374,0.010115154087543488,-0.057929039001464844,-0.03963756561279297
1701886088244382200,11.03138232421875,0.022050201892852783,-0.07435846328735352,-0.021636962890625
1701886088261372200,11.0483720703125,0.03795634210109711,-0.07159948348999023,-0.03232574462890625
1701886088278367500,11.065367431640626,0.01194588840007782,-0.06452035903930664,-0.03845024108886719
1701886088295362000,11.082362060546876,-0.0023923292756080627,-0.0673980712890625,-0.0734710693359375
1701886088312353500,11.099353515625,-0.026551559567451477,-0.07954025268554688,-0.10772228240966797
1701886088329334000,11.116333984375,-0.04090441018342972,-0.08218002319335938,-0.10433006286621094
1701886088346339600,11.133339599609375,-0.04557660222053528,-0.09023284912109375,-0.12997913360595703
1701886088363330300,11.150330322265624,-0.05425095558166504,-0.10796976089477539,-0.13174819946289062
1701886088380324400,11.167324462890624,-0.04397042095661163,-0.11012887954711914,-0.14722251892089844
1701886088397315800,11.18431591796875,0.017533697187900543,-0.13231277465820312,-0.15201377868652344
1701886088414310000,11.201309814453126,0.10537484288215637,-0.09953546524047852,-0.0930938720703125
1701886088431301600,11.218301513671875,0.10735908150672913,-0.048253536224365234,-0.06261253356933594
1701886088448293000,11.235293212890625,0.0027017444372177124,-0.018091678619384766,-0.05076408386230469
1701886088465289700,11.252289794921875,-0.09563448280096054,-0.027260303497314453,-0.025690078735351562
1701886088482277400,11.26927734375,-0.11155908554792404,-0.02268695831298828,-0.054526329040527344
1701886088499277000,11.286277099609375,-0.035405419766902924,-0.028361797332763672,-0.0846853256225586
1701886088516266200,11.303266357421874,0.057762958109378815,-0.01600503921508789,-0.17765045166015625
1701886088533255400,11.32025537109375,0.10121525824069977,-0.07455825805664062,-0.22705650329589844
1701886088550251500,11.33725146484375,0.1379941701889038,-0.09296226501464844,-0.25121307373046875
1701886088567245300,11.354245361328125,0.1701347976922989,-0.0932621955871582,-0.2153615951538086
1701886088584234800,11.37123486328125,0.17257581651210785,-0.05126619338989258,-0.10084915161132812
1701886088601228800,11.388228759765624,0.1016305610537529,0.03848409652709961,-0.0237579345703125
1701886088618222800,11.405222900390624,-0.0500052273273468,0.11120462417602539,0.06780624389648438
1701886088635204000,11.4222041015625,-0.14840194582939148,0.1509695053100586,0.12689876556396484
1701886088652205000,11.439205078125,-0.1833454966545105,0.13415956497192383,0.063018798828125
1701886088669200000,11.456199951171875,-0.11811212450265884,0.08102703094482422,-0.02688312530517578
1701886088686193000,11.47319287109375,0.049679823219776154,0.03707122802734375,-0.04578971862792969
1701886088703186400,11.4901865234375,0.21209730207920074,0.0033059120178222656,-0.059578895568847656
1701886088720179500,11.507179443359375,0.272943913936615,-0.02969217300415039,-0.04812812805175781
1701886088737171000,11.5241708984375,0.27254509925842285,-0.004603385925292969,-0.05069446563720703
1701886088754164500,11.54116455078125,0.19634202122688293,0.01014852523803711,-0.014173507690429688
1701886088771156500,11.558156494140626,0.10555510222911835,0.0033316612243652344,-0.01688098907470703
1701886088788150000,11.57514990234375,0.0722748339176178,-0.031975746154785156,-0.019768714904785156
1701886088805141800,11.592141845703125,0.07595358788967133,-0.06693410873413086,-0.02843952178955078
1701886088822135600,11.609135498046875,0.11609663814306259,-0.07183122634887695,-0.06960105895996094
1701886088839126500,11.62612646484375,0.10965271294116974,-0.08120059967041016,-0.09112739562988281
1701886088856121900,11.643121826171875,0.056456275284290314,-0.08577680587768555,-0.07434844970703125
1701886088873112800,11.66011279296875,0.012393761426210403,-0.07169580459594727,-0.08082294464111328
1701886088890106600,11.677106689453124,-0.005302537232637405,-0.07496976852416992,-0.08246326446533203
1701886088907098400,11.694098388671875,0.024486936628818512,-0.08662271499633789,-0.04576587677001953
1701886088924092200,11.711092041015625,-0.0066879987716674805,-0.0738978385925293,-0.022583961486816406
1701886088941084200,11.728084228515625,-0.07447526603937149,-0.06589221954345703,-0.008343696594238281
1701886088958077400,11.745077392578125,-0.13726870715618134,-0.03883028030395508,-0.03211498260498047
1701886088975065900,11.76206591796875,-0.18235859274864197,-0.024928569793701172,-0.022640228271484375
1701886088992063000,11.77906298828125,-0.198021799325943,-0.021463871002197266,-0.0034437179565429688
1701886089009055000,11.796054931640626,-0.28085094690322876,-0.03440141677856445,0.00957489013671875
1701886089026039000,11.8130390625,-0.3305071294307709,-0.04234457015991211,0.0420684814453125
1701886089043040300,11.830040283203125,-0.3485410213470459,-0.06035757064819336,0.04973793029785156
1701886089060034000,11.847033935546875,-0.27588459849357605,-0.08410358428955078,0.032375335693359375
1701886089077025500,11.864025634765625,-0.13744239509105682,-0.10680103302001953,0.005101203918457031
1701886089094019800,11.881019775390625,0.03827458620071411,-0.12861347198486328,0.0019168853759765625
1701886089111011000,11.898010986328124,0.14383651316165924,-0.10960721969604492,-0.01079559326171875
1701886089128002300,11.915002197265625,0.2071666717529297,-0.1383199691772461,-0.01897716522216797
1701886089144999400,11.93199951171875,0.2084343433380127,-0.1569523811340332,-0.030765533447265625
1701886089161987600,11.948987548828125,0.15917807817459106,-0.1740403175354004,-0.06086254119873047
1701886089178971600,11.9659716796875,0.15060164034366608,-0.19464445114135742,-0.09506702423095703
1701886089195976000,11.982975830078125,0.19398261606693268,-0.17994403839111328,-0.13790321350097656
1701886089212967700,11.9999677734375,0.20237183570861816,-0.17020797729492188,-0.14515399932861328
1701886089229961500,12.01696142578125,0.14053064584732056,-0.12985515594482422,-0.09756755828857422
1701886089246953200,12.033953125,-0.004363611340522766,-0.0881352424621582,-0.03435230255126953
1701886089263947000,12.050947021484374,-0.123077891767025,-0.06129932403564453,0.03784942626953125
1701886089280938800,12.067938720703125,-0.21680091321468353,-0.030547618865966797,0.09492301940917969
1701886089297932800,12.084932861328125,-0.24413657188415527,-0.039539337158203125,0.1222238540649414
1701886089314924300,12.10192431640625,-0.17799533903598785,-0.044714927673339844,0.09010505676269531
1701886089331917800,12.118917724609375,-0.06387835741043091,-0.07949686050415039,0.09521961212158203
1701886089348909000,12.135908935546874,0.00428539514541626,-0.0792684555053711,0.0857381820678711
1701886089365904400,12.152904296875,0.012161239981651306,-0.06544351577758789,0.008507728576660156
1701886089382895000,12.16989501953125,-0.012175425887107849,-0.08514595031738281,-0.005898475646972656
1701886089399889000,12.186888916015626,0.0004855245351791382,-0.09801483154296875,-0.01983928680419922
1701886089416880600,12.203880615234375,0.05321356654167175,-0.08665275573730469,-0.04344367980957031
1701886089433874700,12.220874755859375,0.005424335598945618,-0.08464479446411133,-0.05196952819824219
1701886089450866200,12.2378662109375,-0.07058646529912949,-0.053737640380859375,-0.10708332061767578
1701886089467860000,12.25485986328125,-0.14256438612937927,-0.04701995849609375,-0.1154012680053711
1701886089484848600,12.2718486328125,-0.10751622915267944,-0.03913307189941406,-0.1090860366821289
1701886089501845500,12.288845458984374,-0.03937782347202301,-0.053802490234375,-0.08380126953125
1701886089518837000,12.3058369140625,0.02232365310192108,-0.044835567474365234,-0.0720968246459961
1701886089535830800,12.322830810546876,0.045646362006664276,-0.012180328369140625,-0.07009124755859375
1701886089552822500,12.339822509765625,0.051798269152641296,-0.017096996307373047,-0.0683126449584961
1701886089569816300,12.35681640625,0.08488993346691132,0.0078105926513671875,-0.046189308166503906
1701886089586807800,12.373807861328125,0.09727141261100769,0.013669013977050781,-0.028781890869140625
1701886089603800300,12.39080029296875,0.0986337661743164,0.05737733840942383,-0.04508781433105469
1701886089620795100,12.407795166015624,0.08790273219347,0.0622406005859375,-0.037166595458984375
1701886089637787100,12.424787109375,0.07275436818599701,0.048061370849609375,-0.02022552490234375
1701886089654779000,12.44177880859375,0.10422229021787643,0.0542144775390625,-0.0032367706298828125
1701886089671769600,12.45876953125,0.1442137062549591,0.05130815505981445,0.028998374938964844
1701886089688764700,12.4757646484375,0.11547178030014038,0.06718826293945312,0.027565956115722656
1701886089705758500,12.492758544921875,0.10101251304149628,0.08303499221801758,0.016549110412597656
1701886089722750000,12.50975,0.04397071152925491,0.09358072280883789,0.07796573638916016
1701886089739743000,12.526742919921874,0.02040330320596695,0.12051820755004883,0.12802982330322266
1701886089756735200,12.5437353515625,0.010150767862796783,0.11129140853881836,0.0851430892944336
1701886089773730600,12.56073046875,0.04316321015357971,0.07726478576660156,0.06991100311279297
1701886089790720800,12.577720703125,0.07946553826332092,0.06736183166503906,0.03054523468017578
1701886089807714800,12.59471484375,0.030709803104400635,0.0512537956237793,0.01617908477783203
1701886089824706600,12.61170654296875,-0.011026673018932343,0.0252532958984375,-0.013052940368652344
1701886089841700400,12.628700439453125,-0.009630359709262848,-0.009624004364013672,-0.00482940673828125
1701886089858691600,12.645691650390624,0.013051822781562805,-0.005215644836425781,-0.0050182342529296875
1701886089875686700,12.662686767578125,0.024956397712230682,0.01980304718017578,-0.01909637451171875
1701886089892677400,12.679677490234376,-0.0032405704259872437,0.03471088409423828,-0.04273509979248047
1701886089909671200,12.696671142578126,-0.04745826870203018,0.0342097282409668,0.005742073059082031
1701886089926663000,12.713662841796875,-0.0723281130194664,0.010312080383300781,0.05359172821044922
1701886089943657000,12.730656982421875,-0.07675060629844666,-0.000499725341796875,0.08196544647216797
1701886089960648400,12.7476484375,-0.07788734138011932,-0.013009071350097656,0.05647468566894531
1701886089977631700,12.7646318359375,-0.08576355874538422,-0.026934146881103516,-0.0036096572875976562
1701886089994628000,12.781628173828125,-0.06288935989141464,-0.050995826721191406,-0.05890655517578125
1701886090011630300,12.79863037109375,-0.006323233246803284,-0.06789684295654297,-0.09949493408203125
1701886090028619300,12.815619384765625,0.06237558275461197,-0.05932474136352539,-0.10542106628417969
1701886090045613000,12.832613037109375,0.08082114160060883,-0.059357643127441406,-0.11501026153564453
1701886090062592800,12.8495927734375,0.06728048622608185,-0.06303882598876953,-0.13835620880126953
1701886090079593700,12.86659375,0.0371495857834816,-0.06072998046875,-0.10784053802490234
1701886090096590600,12.883590576171875,-0.025627141818404198,-0.05812883377075195,-0.07206439971923828
1701886090113584400,12.90058447265625,-0.05575164407491684,-0.04521608352661133,-0.05116844177246094
1701886090130576100,12.917576171875,-0.02839457429945469,-0.04194307327270508,-0.025513648986816406
1701886090147559000,12.934558837890625,0.02126925438642502,-0.029279708862304688,-0.0005464553833007812
1701886090164561700,12.951561767578125,0.05619432032108307,-0.022156238555908203,0.010264396667480469
1701886090181551900,12.9685517578125,0.05742983892560005,-0.024462223052978516,-0.022240638732910156
1701886090198558700,12.985558837890625,0.03362670913338661,-0.022092342376708984,-0.04969310760498047
1701886090215541000,13.002541015625,0.01563544198870659,-0.015498638153076172,-0.04362773895263672
1701886090232532000,13.019531982421874,0.007887277752161026,-0.008371829986572266,-0.0666360855102539
1701886090249525800,13.03652587890625,-0.02615160122513771,-0.02215290069580078,-0.04149913787841797
1701886090266518800,13.053518798828126,-0.017722520977258682,-0.0456085205078125,-0.012545585632324219
1701886090283511800,13.07051171875,0.06368373334407806,-0.048975467681884766,-0.027062416076660156
1701886090300503300,13.08750341796875,0.13774967193603516,-0.0481562614440918,-0.04156970977783203
1701886090317497000,13.1044970703125,0.1540808230638504,-0.03699541091918945,-0.09905815124511719
1701886090334487800,13.12148779296875,0.1154448539018631,-0.040477752685546875,-0.09743976593017578
1701886090351481000,13.138481201171874,0.07212673127651215,-0.03718376159667969,-0.0956735610961914
1701886090368474600,13.155474609375,0.017309460788965225,-0.0378265380859375,-0.08327007293701172
1701886090385463600,13.172463623046875,-0.0040258243680000305,-0.01933765411376953,-0.09061336517333984
1701886090402462000,13.1894619140625,-0.009133029729127884,-0.02102804183959961,-0.05990886688232422
1701886090419453700,13.20645361328125,-0.004209976643323898,-0.02257394790649414,-0.02945232391357422
1701886090436447200,13.223447265625,0.005384739488363266,-0.005456447601318359,-0.008820533752441406
1701886090453429800,13.2404296875,0.008813831955194473,0.006036281585693359,-0.0029916763305664062
1701886090470431000,13.257430908203125,0.0025751516222953796,-0.0023779869079589844,0.016782760620117188
1701886090487422200,13.274422119140626,-0.02701697312295437,-0.0019283294677734375,0.0032711029052734375
1701886090504416000,13.291416015625,-0.06577751040458679,-0.035578250885009766,-0.0015926361083984375
1701886090521410300,13.308410400390626,-0.02734207548201084,-0.059691429138183594,-0.031004905700683594
1701886090538402000,13.325402099609375,0.04379703477025032,-0.06337928771972656,-0.040904998779296875
1701886090555395600,13.3423955078125,0.09075653553009033,-0.04243659973144531,-0.03514385223388672
1701886090572384500,13.359384521484374,0.04199663922190666,-0.01111602783203125,-0.05227947235107422
1701886090589381400,13.37638134765625,-0.0279864389449358,0.0018939971923828125,-0.01600360870361328
1701886090606372900,13.393372802734374,-0.0706256851553917,0.025903701782226562,0.039272308349609375
1701886090623366700,13.41036669921875,-0.08896888792514801,0.03370332717895508,0.09925556182861328
1701886090640358100,13.427358154296876,-0.10736711323261261,0.03478860855102539,0.13333988189697266
1701886090657352200,13.444352294921876,-0.13829326629638672,0.02752971649169922,0.10805416107177734
1701886090674344000,13.461343994140625,-0.13120564818382263,-0.0010800361633300781,0.028934478759765625
1701886090691337500,13.47833740234375,-0.04256613925099373,-0.029003143310546875,-0.026803970336914062
1701886090708329200,13.4953291015625,0.06401954591274261,-0.027225971221923828,-0.10114860534667969
1701886090725323000,13.512322998046875,0.13386499881744385,-0.042572021484375,-0.1169729232788086
1701886090742316500,13.529316650390625,0.1453927755355835,-0.03268623352050781,-0.10723876953125
1701886090759306200,13.54630615234375,0.10572803765535355,-0.018405437469482422,-0.030394554138183594
1701886090776301300,13.56330126953125,-0.0013538766652345657,-0.004939079284667969,-0.03415203094482422
1701886090793294000,13.580294189453125,-0.055828191339969635,-0.0101165771484375,-0.03437328338623047
1701886090810285800,13.597285888671875,-0.010275241918861866,-0.02003765106201172,-0.03935432434082031
1701886090827278000,13.614278076171875,0.06262274831533432,-0.043116092681884766,-0.044605255126953125
1701886090844259600,13.631259521484376,0.11989554762840271,-0.04252481460571289,-0.04009723663330078
1701886090861266700,13.6482666015625,0.10455803573131561,-0.036455631256103516,-0.044189453125
1701886090878248000,13.665248046875,0.05068274587392807,-0.020410537719726562,-0.028319358825683594
1701886090895235600,13.682235595703125,-0.026007991284132004,-0.01481008529663086,-0.022170066833496094
1701886090912242700,13.69924267578125,-0.060051336884498596,0.0005860328674316406,-0.031180381774902344
1701886090929236200,13.716236328125,-0.06812921166419983,0.0011258125305175781,-0.01653289794921875
1701886090946227700,13.733227783203125,-0.02417726442217827,-0.008629798889160156,-0.02620983123779297
1701886090963221500,13.750221435546875,0.010829664766788483,-0.013484001159667969,-0.045989036560058594
1701886090980213500,13.767213623046874,0.0450916662812233,-0.01670980453491211,-0.04068756103515625
1701886090997206500,13.78420654296875,0.06880763173103333,-0.024585723876953125,-0.030199050903320312
1701886091014199800,13.80119970703125,0.011654157191514969,-0.023040294647216797,-0.00989532470703125
1701886091031192800,13.81819287109375,-0.012127267196774483,-0.015894412994384766,0.020694732666015625
1701886091048184600,13.8351845703125,-0.06462377309799194,-0.00064849853515625,0.02688312530517578
1701886091065178000,13.85217822265625,-0.07279524207115173,0.009618282318115234,0.012576103210449219
1701886091082166800,13.869166748046876,-0.042736537754535675,-0.0004558563232421875,-0.021798133850097656
1701886091099163600,13.88616357421875,0.015317987650632858,-0.005530357360839844,-0.03152751922607422
1701886091116155600,13.90315576171875,0.021061409264802933,-0.02017498016357422,-0.02749919891357422
1701886091133149000,13.92014892578125,-0.015619863756000996,-0.016324520111083984,-0.032195091247558594
1701886091150141000,13.937140869140626,-0.051877208054065704,-0.021488666534423828,-0.04197406768798828
1701886091167134700,13.954134765625,-0.039083484560251236,-0.025787830352783203,-0.02735614776611328
1701886091184126500,13.97112646484375,0.02501036785542965,-0.019921302795410156,-0.008228302001953125
1701886091201120000,13.9881201171875,0.059294551610946655,-0.013549327850341797,-0.026836395263671875
1701886091218112000,14.005112060546875,0.05573159083724022,-0.012984275817871094,-0.011850357055664062
1701886091235100400,14.022100341796875,0.013208082877099514,0.006442070007324219,-0.0063114166259765625
1701886091252097300,14.03909716796875,-0.043360739946365356,0.014579296112060547,-0.04537487030029297
1701886091269090300,14.05609033203125,-0.05468648299574852,-0.03096294403076172,-0.07064151763916016
1701886091286081300,14.073081298828125,0.03350626677274704,-0.06105470657348633,-0.12016677856445312
1701886091303068700,14.090068603515626,0.14972707629203796,-0.07425880432128906,-0.11089134216308594
1701886091320068400,14.107068359375,0.16885505616664886,-0.056849002838134766,-0.09009552001953125
1701886091337062000,14.124061767578125,0.15939489006996155,-0.014456748962402344,-0.05883312225341797
1701886091354053600,14.1410537109375,0.07933647930622101,0.018267154693603516,0.0016946792602539062
1701886091371047700,14.158047607421874,-0.025024952366948128,0.045258522033691406,0.07666397094726562
1701886091388039700,14.175039794921876,-0.11074903607368469,0.046398162841796875,0.09642601013183594
1701886091405030000,14.19202978515625,-0.130498006939888,0.025278091430664062,0.06723403930664062
1701886091422025000,14.20902490234375,-0.07336617261171341,-0.017032623291015625,0.016592979431152344
1701886091439018800,14.226018798828125,0.0447879359126091,-0.04933977127075195,-0.034732818603515625
1701886091456010500,14.243010498046875,0.13916994631290436,-0.047454833984375,-0.10901069641113281
1701886091473005000,14.260005126953125,0.14873477816581726,-0.03856658935546875,-0.1288471221923828
1701886091490006000,14.277006103515625,0.09722651541233063,-0.02394866943359375,-0.08949947357177734
1701886091506989800,14.29398974609375,0.010016068816184998,-0.004288673400878906,-0.05001068115234375
1701886091523978500,14.310978515625,-0.06822539120912552,0.0007166862487792969,-0.049294471740722656
1701886091540978200,14.327978271484374,-0.07265899330377579,-0.018812179565429688,-0.035147666931152344
1701886091557964300,14.34496435546875,-0.009553943760693073,-0.01983165740966797,-0.045867919921875
1701886091574963500,14.36196337890625,0.04539429396390915,-0.039150238037109375,-0.05167102813720703
1701886091591949300,14.37894921875,0.09334079921245575,-0.029471874237060547,-0.042041778564453125
1701886091608946200,14.3959462890625,0.10129649937152863,-0.005530357360839844,-0.027678489685058594
1701886091625938000,14.41293798828125,0.07024023681879044,-0.01500701904296875,-0.05155467987060547
1701886091642931700,14.429931640625,0.03486902639269829,-0.024649620056152344,-0.03691387176513672
1701886091659922700,14.446922607421875,0.0336264930665493,-0.019115924835205078,-0.02693653106689453
1701886091676918000,14.46391796875,0.009577261283993721,-0.00886678695678711,-0.01639842987060547
1701886091693910300,14.48091015625,0.008298439905047417,0.006377220153808594,-0.02548980712890625
1701886091710901500,14.497901611328125,0.0495992936193943,-0.005802154541015625,-0.039587974548339844
1701886091727888400,14.514888427734375,0.06078353524208069,-0.0180206298828125,-0.0288543701171875
1701886091744888000,14.53188818359375,0.06270816922187805,-0.0107421875,-0.0035686492919921875
1701886091761881300,14.54888134765625,0.01728210225701332,0.0003838539123535156,0.007174491882324219
1701886091778871600,14.56587158203125,-0.07381761074066162,0.020209789276123047,0.032996177673339844
1701886091795866000,14.5828662109375,-0.1261889785528183,0.029665470123291016,0.037718772888183594
1701886091812859400,14.599859375,-0.10186080634593964,0.02373361587524414,0.037095069885253906
1701886091829851100,14.61685107421875,-0.03480155020952225,-0.006037712097167969,0.02602672576904297
1701886091846845200,14.63384521484375,0.021895840764045715,-0.0028247833251953125,-0.004138946533203125
1701886091863836400,14.65083642578125,0.03151391074061394,-0.013133525848388672,-0.014109611511230469
1701886091880830200,14.667830322265624,0.022420335561037064,0.01090240478515625,-0.008667945861816406
1701886091897822000,14.684822021484376,-0.008730318397283554,0.010221004486083984,0.053170204162597656
1701886091914812700,14.701812744140625,-0.03529300168156624,0.022165775299072266,0.04707622528076172
1701886091931807500,14.718807373046875,-0.08577630668878555,0.0038781166076660156,0.02193737030029297
1701886091948790300,14.735790283203125,-0.02733118087053299,-0.008701801300048828,-0.004543304443359375
1701886091965782300,14.7527822265625,0.03636447712779045,-0.031200885772705078,-0.01652812957763672
1701886091982783500,14.769783447265626,0.07599098980426788,-0.04265260696411133,-0.017868995666503906
1701886091999778300,14.7867783203125,0.04923008754849434,-0.05038881301879883,-0.0095672607421875
1701886092016772000,14.803772216796874,0.01759174093604088,-0.028811931610107422,-0.024595260620117188
1701886092033761500,14.820761474609375,-0.03373181074857712,-0.03168439865112305,-0.01178741455078125
1701886092050760200,14.83776025390625,-0.024676281958818436,-0.020369529724121094,-0.046927452087402344
1701886092067749600,14.85474951171875,-0.010178426280617714,-0.05301618576049805,-0.07297134399414062
1701886092084743400,14.871743408203125,0.05216294527053833,-0.08970832824707031,-0.1569652557373047
1701886092101731000,14.88873095703125,0.13828933238983154,-0.1330118179321289,-0.17715072631835938
1701886092118729500,14.9057294921875,0.15695950388908386,-0.13474607467651367,-0.1426095962524414
1701886092135704600,14.92270458984375,0.10021005570888519,-0.08220911026000977,-0.08174419403076172
1701886092152703500,14.939703369140625,-0.024175385013222694,-0.04352378845214844,0.018283843994140625
1701886092169701600,14.95670166015625,-0.10490120947360992,0.003371715545654297,0.12209415435791016
1701886092186704400,14.973704345703124,-0.14969539642333984,0.020509719848632812,0.20555400848388672
1701886092203681300,14.990681396484375,-0.1546272486448288,0.023745059967041016,0.18078899383544922
1701886092220685000,15.00768505859375,-0.12201310694217682,0.004775047302246094,0.06790637969970703
1701886092237671400,15.02467138671875,-0.09704770147800446,-0.011472225189208984,-0.05592632293701172
1701886092254670800,15.0416708984375,-0.07840128242969513,-0.050868988037109375,-0.12641143798828125
1701886092271662300,15.058662353515626,-0.059050314128398895,-0.03596019744873047,-0.1765270233154297
1701886092288656400,15.075656494140626,-0.013233315199613571,-0.032956600189208984,-0.14455890655517578
1701886092305645000,15.09264501953125,0.033243246376514435,-0.033641815185546875,-0.09225082397460938
1701886092322642000,15.109641845703125,0.07534701377153397,-0.03891706466674805,-0.020689964294433594
1701886092339633700,15.126633544921875,0.10135017335414886,-0.02527141571044922,0.016653060913085938
1701886092356627200,15.143627197265625,0.12913459539413452,-0.03600120544433594,0.006487846374511719
1701886092373619000,15.160618896484374,0.13125714659690857,-0.03260183334350586,-0.013382911682128906
1701886092390612700,15.17761279296875,0.15958093106746674,-0.023746490478515625,-0.06193733215332031
1701886092407616800,15.19461669921875,0.13674670457839966,-0.029395580291748047,-0.09589099884033203
1701886092424595200,15.21159521484375,0.1135224997997284,-0.019472122192382812,-0.1052694320678711
1701886092441590000,15.228590087890625,0.0802019014954567,-0.023360729217529297,-0.08472537994384766
1701886092458584000,15.245583984375,0.046470873057842255,-0.01220846176147461,-0.06952857971191406
1701886092475575800,15.262575927734375,0.026598554104566574,-0.0013089179992675781,-0.06822013854980469
1701886092492566300,15.279566162109376,0.03638911992311478,0.009655475616455078,-0.038758277893066406
1701886092509561000,15.29656103515625,0.05188161879777908,0.0017380714416503906,-0.014537811279296875
1701886092526554600,15.3135546875,0.047581326216459274,0.0034189224243164062,0.010293960571289062
1701886092543550700,15.33055078125,0.0416373535990715,-0.000011444091796875,0.011011123657226562
1701886092560543000,15.34754296875,0.015593014657497406,-0.013783931732177734,0.017015457153320312
1701886092577521400,15.364521484375,0.004512559622526169,-0.01773977279663086,0.0030965805053710938
1701886092594526000,15.38152587890625,-0.015728160738945007,-0.0120391845703125,-0.02034282684326172
1701886092611515400,15.398515380859376,-0.020332548767328262,-0.014707565307617188,-0.033883094787597656
1701886092628511200,15.41551123046875,-0.04371168091893196,-0.008929729461669922,-0.0043125152587890625
1701886092645503000,15.4325029296875,-0.040460385382175446,0.0021514892578125,-0.013079643249511719
1701886092662497300,15.449497314453126,-0.027220264077186584,0.00872039794921875,0.0022335052490234375
1701886092679487700,15.46648779296875,-0.04079890251159668,0.0009374618530273438,0.012768745422363281
1701886092696484900,15.48348486328125,-0.034594133496284485,0.007573604583740234,0.013776779174804688
1701886092713474300,15.500474365234375,-0.037913884967565536,0.004274845123291016,0.009802818298339844
1701886092730468000,15.517468017578125,-0.03814956545829773,0.005734920501708984,-0.027692794799804688
1701886092747459800,15.5344599609375,-0.04758578911423683,-0.0023713111877441406,-0.00775909423828125
1701886092764453400,15.551453369140624,-0.04655082896351814,0.023047447204589844,-0.016516685485839844
1701886092781442800,15.56844287109375,-0.06250899285078049,0.024962425231933594,0.01863384246826172
1701886092798428200,15.58542822265625,-0.07316754013299942,0.045542240142822266,0.04336833953857422
1701886092815427800,15.602427734375,-0.050066374242305756,0.050681114196777344,0.06272697448730469
1701886092832424200,15.619424072265625,-0.020013518631458282,0.044953346252441406,0.032921791076660156
1701886092849416200,15.636416259765625,-0.00604373961687088,0.05316591262817383,-0.03512763977050781
1701886092866410200,15.65341015625,-0.014348559081554413,0.012341976165771484,-0.0891256332397461
1701886092883401700,15.670401611328124,0.041637521237134933,-0.007943153381347656,-0.14773273468017578
1701886092900395500,15.6873955078125,0.14012669026851654,-0.014069080352783203,-0.13241195678710938
1701886092917387300,15.70438720703125,0.1656968891620636,0.010799407958984375,-0.02881336212158203
1701886092934381000,15.721381103515625,0.11383776366710663,0.06868553161621094,0.013234138488769531
1701886092951372800,15.738372802734375,0.034772809594869614,0.09738349914550781,0.0837545394897461
1701886092968366600,15.75536669921875,-0.011725887656211853,0.1148996353149414,0.14350223541259766
1701886092985358300,15.7723583984375,-0.0391264408826828,0.1047353744506836,0.15787029266357422
1701886093002345000,15.789344970703125,-0.05261336266994476,0.06809329986572266,0.12267875671386719
1701886093019343600,15.806343505859376,-0.020247675478458405,0.036168575286865234,0.038659095764160156
1701886093036337400,15.82333740234375,0.029963694512844086,0.018948078155517578,-0.015877723693847656
1701886093053329200,15.8403291015625,0.055669691413640976,0.015900611877441406,-0.06599903106689453
1701886093070323000,15.857322998046875,0.031122833490371704,0.032937049865722656,-0.09047603607177734
1701886093087307000,15.87430712890625,-0.02080996334552765,0.026334285736083984,-0.04327678680419922
1701886093104308500,15.89130859375,-0.05758943408727646,0.024394512176513672,-0.02457714080810547
1701886093121300500,15.908300537109374,-0.07498660683631897,0.011481285095214844,-0.02636432647705078
1701886093138294000,15.9252939453125,-0.044317446649074554,-0.011147022247314453,-0.0377960205078125
1701886093155285800,15.94228564453125,0.019128508865833282,-0.023227214813232422,-0.06876564025878906
1701886093172279300,15.959279296875,0.06819240748882294,-0.035089969635009766,-0.0705862045288086
1701886093189261000,15.976260986328125,0.10234798491001129,-0.022769927978515625,-0.05253410339355469
1701886093206265600,15.993265625,0.0709809809923172,-0.0021386146545410156,0.007922172546386719
1701886093223256600,16.010256591796875,-0.03422510623931885,0.009870529174804688,-0.003916740417480469
1701886093240250600,16.027250732421876,-0.10506168007850647,-0.016879558563232422,-0.059967994689941406
1701886093257248000,16.044248046875,-0.06278291344642639,-0.05658292770385742,-0.08297348022460938
1701886093274236700,16.061236572265624,0.08977005630731583,-0.07897663116455078,-0.1005849838256836
1701886093291227400,16.078227294921874,0.1912190318107605,-0.06584739685058594,-0.1213388442993164
1701886093308221700,16.0952216796875,0.1776295006275177,-0.041461944580078125,-0.1594219207763672
1701886093325210000,16.112210205078124,0.094656802713871,-0.029343605041503906,-0.12845325469970703
1701886093342207200,16.129207275390623,-0.005744576454162598,-0.020668506622314453,-0.044119834899902344
1701886093359199000,16.146198974609376,-0.06544334441423416,0.0020623207092285156,0.01579761505126953
1701886093376192800,16.16319287109375,-0.09757550805807114,0.008760452270507812,-0.011331558227539062
1701886093393184500,16.1801845703125,-0.04903232306241989,-0.014394760131835938,-0.030694007873535156
1701886093410178000,16.197177978515626,0.03814682736992836,-0.027042865753173828,-0.05465507507324219
1701886093427167200,16.214167236328127,0.09291879832744598,-0.03928041458129883,-0.03022003173828125
1701886093444163300,16.231163330078125,0.07548856735229492,-0.02739238739013672,-0.019433021545410156
1701886093461158400,16.248158447265624,-0.01704488694667816,-0.006863117218017578,-0.0034313201904296875
1701886093478149400,16.2651494140625,-0.076525017619133,0.003914833068847656,0.01215362548828125
1701886093495141000,16.28214111328125,-0.08917368948459625,0.004489421844482422,0.0076541900634765625
1701886093512130300,16.29913037109375,-0.02615075558423996,0.004672527313232422,-0.0024499893188476562
1701886093529127700,16.316127685546874,0.02781423181295395,-0.009584426879882812,-0.03205108642578125
1701886093546120200,16.3331201171875,0.030829884111881256,-0.014442920684814453,-0.05124187469482422
1701886093563111700,16.350111572265625,0.0063432492315769196,-0.018039703369140625,-0.040436744689941406
1701886093580105000,16.36710498046875,-0.01792174205183983,-0.00749969482421875,-0.01567363739013672
1701886093597098500,16.384098388671877,-0.02394462376832962,0.003055095672607422,0.032700538635253906
1701886093614091000,16.401091064453126,-0.03625068813562393,0.012377262115478516,-0.0009450912475585938
1701886093631082800,16.418082763671876,-0.018879812210798264,-0.0022726058959960938,-0.02536773681640625
1701886093648077000,16.4350771484375,0.04153084382414818,-0.04594612121582031,-0.055008888244628906
1701886093665062400,16.4520625,0.14886242151260376,-0.05380058288574219,-0.04604911804199219
1701886093682062000,16.46906201171875,0.11622157692909241,-0.02712535858154297,-0.03921222686767578
1701886093699053000,16.486052978515627,-0.019994929432868958,-0.00041294097900390625,-0.05055999755859375
1701886093716048400,16.50304833984375,-0.11067424714565277,0.017073631286621094,-0.009669303894042969
1701886093733039400,16.520039306640626,-0.13892842829227448,0.03890419006347656,0.0590972900390625
1701886093750033200,16.537033203125,-0.1296950876712799,0.04471778869628906,0.08836174011230469
1701886093767025700,16.554025634765626,-0.10168234258890152,0.039089202880859375,0.05408477783203125
1701886093784018700,16.571018798828124,-0.02977723628282547,0.01733875274658203,0.01858234405517578
1701886093801010400,16.588010498046874,0.060406189411878586,-0.008514404296875,-0.031230926513671875
1701886093818004200,16.605004150390624,0.12244708836078644,-0.03300619125366211,-0.06116676330566406
1701886093834993200,16.6219931640625,0.15450581908226013,-0.013190746307373047,-0.07516860961914062
1701886093851992800,16.638992919921876,0.09625598788261414,0.012804508209228516,-0.045345306396484375
1701886093868984000,16.655984130859373,0.009155463427305222,0.04279279708862305,-0.009648323059082031
1701886093885975600,16.6729755859375,-0.04447595402598381,0.04354143142700195,0.015001296997070312
1701886093902964000,16.6899638671875,-0.04587753117084503,0.04388427734375,0.019965171813964844
1701886093919960800,16.7069609375,-0.003858085721731186,0.02955484390258789,0.010085105895996094
1701886093936952600,16.72395263671875,0.04894247278571129,0.03844165802001953,-0.0052394866943359375
1701886093953943300,16.740943359375,0.05807346850633621,0.01459360122680664,-0.0004119873046875
1701886093970935600,16.757935546875,0.06078393757343292,0.034496307373046875,-0.00001239776611328125
1701886093987934200,16.774934326171874,0.00602634996175766,0.030321121215820312,0.020050048828125
1701886094004924000,16.791923828125,-0.03435796499252319,0.05850982666015625,0.02008056640625
1701886094021913600,16.80891357421875,-0.07800004631280899,0.06233072280883789,0.024941444396972656
1701886094038899500,16.8258994140625,-0.07277234643697739,0.05597066879272461,0.04323768615722656
1701886094055903000,16.842903076171876,-0.048704955726861954,0.03949785232543945,0.036711692810058594
1701886094072894500,16.85989453125,-0.0015542618930339813,0.027892589569091797,0.04040050506591797
1701886094089900000,16.876900146484374,0.030711490660905838,0.017389297485351562,0.03897380828857422
1701886094106881000,16.893881103515625,0.024797331541776657,0.02052021026611328,0.04765129089355469
1701886094123871700,16.910871826171874,-0.013225840404629707,0.022354602813720703,0.051766395568847656
1701886094140867800,16.927867919921876,-0.06624744832515717,0.028587818145751953,0.030829429626464844
1701886094157856800,16.944856689453125,-0.09910613298416138,0.010005950927734375,0.0052318572998046875
1701886094174854000,16.96185400390625,-0.07524458318948746,-0.0036492347717285156,-0.045411109924316406
1701886094191844900,16.978844970703125,-0.022766828536987305,-0.015735626220703125,-0.07100772857666016
1701886094208836900,16.9958369140625,0.020418547093868256,-0.017958641052246094,-0.07757759094238281
1701886094225827300,17.012827392578124,0.031007252633571625,-0.014194011688232422,-0.07812309265136719
1701886094242822400,17.029822509765626,0.022857457399368286,-0.019165515899658203,-0.044719696044921875
1701886094259816200,17.046816162109376,-0.009454455226659775,-0.014147281646728516,-0.034422874450683594
1701886094276795000,17.063794921875,-0.05609465390443802,-0.015050411224365234,-0.0010833740234375
1701886094293802200,17.08080224609375,-0.05927874147891998,-0.007151603698730469,-0.001972198486328125
1701886094310796000,17.097796142578126,-0.042184725403785706,-0.02426290512084961,-0.008220672607421875
1701886094327787000,17.114787109375,0.007380247116088867,-0.04539012908935547,-0.019761085510253906
1701886094344776000,17.13177587890625,0.11690159142017365,-0.036931514739990234,-0.045200347900390625
1701886094361775900,17.14877587890625,0.16323484480381012,-0.03333568572998047,-0.04644203186035156
1701886094378761500,17.165761474609376,0.1130821481347084,-0.0104827880859375,-0.07992267608642578
1701886094395758300,17.18275830078125,-0.01142294704914093,-0.0028676986694335938,-0.0794525146484375
1701886094412746800,17.199746826171875,-0.08196684718132019,-0.03397321701049805,-0.08937740325927734
1701886094429743600,17.21674365234375,-0.014336351305246353,-0.06794214248657227,-0.1150665283203125
1701886094446735400,17.2337353515625,0.10923849046230316,-0.071258544921875,-0.08648967742919922
1701886094463729200,17.250729248046873,0.1505293995141983,-0.05426788330078125,-0.0713357925415039
1701886094480721000,17.267720947265627,0.11761994659900665,-0.05161237716674805,0.0027837753295898438
1701886094497716500,17.284716552734373,0.03830241784453392,-0.04991483688354492,0.0811767578125
1701886094514705000,17.301704833984374,-0.03870641067624092,-0.07775068283081055,0.12531280517578125
1701886094531700000,17.318699951171876,-0.0808127298951149,-0.06395483016967773,0.0962839126586914
1701886094548690000,17.33568994140625,-0.09223857522010803,-0.06579875946044922,-0.00042629241943359375
1701886094565688000,17.35268798828125,-0.06853938102722168,-0.08109760284423828,-0.111328125
1701886094582677500,17.369677490234373,-0.041334718465805054,-0.10962963104248047,-0.17882919311523438
1701886094599670500,17.38667041015625,-0.022482777014374733,-0.11068010330200195,-0.1915111541748047
1701886094616651300,17.4036513671875,-0.025734076276421547,-0.09076929092407227,-0.16907596588134766
1701886094633655300,17.4206552734375,-0.058154165744781494,-0.04862499237060547,-0.11120033264160156
1701886094650650000,17.437650146484376,-0.08876274526119232,-0.020684242248535156,-0.024794578552246094
1701886094667642000,17.45464208984375,-0.12336525321006775,0.002303600311279297,0.037888526916503906
1701886094684634000,17.471634033203124,-0.12898029386997223,-0.0005884170532226562,0.0944681167602539
1701886094701617200,17.4886171875,-0.08740724623203278,0.010619640350341797,0.07848739624023438
1701886094718619400,17.505619384765627,-0.03728444129228592,0.020247936248779297,0.06138134002685547
1701886094735610000,17.522610107421876,0.021861180663108826,0.025760650634765625,0.034743309020996094
1701886094752605000,17.53960498046875,0.0471804253757,0.04505348205566406,0.03264617919921875
1701886094769588200,17.556588134765626,0.025409234687685966,0.05960512161254883,0.02579498291015625
1701886094786590700,17.5735908203125,-0.015118617564439774,0.09248971939086914,0.024216651916503906
1701886094803584500,17.59058447265625,-0.030950505286455154,0.08208894729614258,0.02160358428955078
1701886094820576000,17.607575927734374,0.005724046379327774,0.08620357513427734,0.037899017333984375
1701886094837569800,17.62456982421875,0.02870945632457733,0.07933807373046875,0.0633230209350586
1701886094854561500,17.6415615234375,0.046451929956674576,0.10535335540771484,0.07824516296386719
1701886094871555300,17.658555419921875,0.04074685275554657,0.0818629264831543,0.11233139038085938
1701886094888544500,17.67554443359375,0.05204073339700699,0.08605384826660156,0.10244941711425781
1701886094905543700,17.692543701171875,0.05711578205227852,0.06482648849487305,0.06270217895507812
1701886094922529500,17.709529541015623,0.046891286969184875,0.041933536529541016,-0.01591014862060547
1701886094939528200,17.726528076171874,0.0328453853726387,0.029413700103759766,-0.08451271057128906
1701886094956516400,17.743516357421875,0.04805656895041466,0.028445720672607422,-0.12363910675048828
1701886094973502500,17.76050244140625,0.06855335831642151,0.02776956558227539,-0.10006904602050781
1701886094990503700,17.777503662109375,0.09869512170553207,0.022725582122802734,-0.11515331268310547
1701886095007510300,17.79451025390625,0.09996923059225082,0.014002799987792969,-0.09075546264648438
1701886095024489500,17.811489501953126,0.11568743735551834,0.011365890502929688,-0.06564712524414062
1701886095041480200,17.828480224609375,0.10602964460849762,0.004383087158203125,-0.006487846374511719
1701886095058475000,17.84547509765625,0.07156478613615036,0.007711887359619141,0.024631500244140625
1701886095075468800,17.86246875,-0.0020605623722076416,0.01435089111328125,0.040907859802246094
1701886095092460300,17.879460205078125,-0.04887479543685913,0.034906864166259766,0.01772785186767578
1701886095109453300,17.896453369140627,-0.05148499086499214,0.030680179595947266,-0.0011262893676757812
1701886095126446300,17.9134462890625,-0.03371069207787514,0.031090736389160156,-0.02037811279296875
1701886095143440000,17.93043994140625,-0.009556181728839874,0.030794620513916016,-0.025323867797851562
1701886095160431600,17.947431640625,0.004676792770624161,0.044997215270996094,-0.03976631164550781
1701886095177424600,17.964424560546874,-0.03365510702133179,0.024272918701171875,-0.006809234619140625
1701886095194418000,17.98141796875,-0.04364685341715813,0.0034742355346679688,-0.06068134307861328
1701886095211410400,17.998410400390625,0.03328362852334976,-0.03176403045654297,-0.08136463165283203
1701886095228402700,18.015402587890627,0.10963760316371918,-0.04055070877075195,-0.07707786560058594
1701886095245393000,18.032392822265624,0.15964607894420624,-0.018686771392822266,-0.0905599594116211
1701886095262386000,18.049385986328126,0.14270058274269104,0.023762226104736328,-0.07334327697753906
1701886095279381800,18.0663818359375,0.07048796117305756,0.046774864196777344,-0.012882232666015625
1701886095296373200,18.083373291015626,-0.03949059173464775,0.08824634552001953,0.056784629821777344
1701886095313367000,18.100366943359376,-0.13002543151378632,0.0753469467163086,0.10157489776611328
1701886095330359000,18.117359130859374,-0.14023640751838684,0.07441520690917969,0.12558746337890625
1701886095347352800,18.134352783203123,-0.06872484087944031,0.06600522994995117,0.0796051025390625
1701886095364342500,18.151342529296876,0.06880984455347061,0.027744293212890625,0.003688812255859375
1701886095381340000,18.16833984375,0.16629408299922943,-0.000020503997802734375,-0.043015480041503906
1701886095398339800,18.18533984375,0.20097792148590088,0.007137298583984375,-0.07817935943603516
1701886095415324000,18.202323974609374,0.11764268577098846,0.018768310546875,-0.05482769012451172
1701886095432312600,18.2193125,0.011654525995254517,0.03496980667114258,-0.036370277404785156
1701886095449309400,18.236309326171874,-0.05584792047739029,0.02688741683959961,-0.0037508010864257812
1701886095466301200,18.25330126953125,-0.02852042019367218,0.028477191925048828,-0.010609626770019531
1701886095483294700,18.270294677734373,0.050842780619859695,-0.0003294944763183594,-0.033011436462402344
1701886095500286000,18.287285888671875,0.13087786734104156,-0.03836202621459961,-0.0316162109375
1701886095517282600,18.304282470703125,0.18529605865478516,-0.04719114303588867,-0.04399299621582031
1701886095534271000,18.32127099609375,0.1757279634475708,-0.05040884017944336,-0.040970802307128906
1701886095551255300,18.33825537109375,0.07881136238574982,-0.033782958984375,-0.07046699523925781
1701886095568257000,18.355257080078125,0.0019448716193437576,-0.036065101623535156,-0.08036327362060547
1701886095585252400,18.37225244140625,-0.03944571316242218,-0.023310184478759766,-0.06149768829345703
1701886095602243300,18.389243408203125,-0.051714904606342316,-0.035503387451171875,-0.04856109619140625
1701886095619236000,18.406236083984375,-0.030660001561045647,-0.05209493637084961,-0.06472969055175781
1701886095636229400,18.4232294921875,0.01261281780898571,-0.07696247100830078,-0.06583786010742188
1701886095653222400,18.440222412109375,0.06378579884767532,-0.06190633773803711,-0.04185771942138672
1701886095670214400,18.45721435546875,0.02017970010638237,-0.06670331954956055,-0.017609596252441406
1701886095687207000,18.47420703125,-0.06083626300096512,-0.051770687103271484,-0.01669597625732422
1701886095704200700,18.49120068359375,-0.11639199405908585,-0.056572914123535156,0.012934684753417969
1701886095721191000,18.50819091796875,-0.11946174502372742,-0.056405067443847656,0.027391433715820312
1701886095738188000,18.52518798828125,-0.09958801418542862,-0.05276966094970703,0.017206192016601562
1701886095755176000,18.542176025390624,-0.09803883731365204,-0.04868125915527344,-0.0457000732421875
1701886095772170800,18.559170654296874,-0.08121705800294876,-0.05838966369628906,-0.07986736297607422
1701886095789164500,18.57616455078125,-0.030927909538149834,-0.0568995475769043,-0.0790567398071289
1701886095806156500,18.593156494140626,-0.022278103977441788,-0.05022287368774414,-0.054100990295410156
1701886095823146800,18.610146728515623,-0.05072706192731857,-0.038701534271240234,-0.019544601440429688
1701886095840141800,18.627141845703125,-0.1018950417637825,-0.023030757904052734,0.020369529724121094
1701886095857135900,18.644135986328124,-0.10911396145820618,-0.021618366241455078,0.04984283447265625
1701886095874127600,18.661127685546877,-0.055511169135570526,-0.010724544525146484,0.054741859436035156
1701886095891121200,18.67812109375,0.02554246596992016,0.0046901702880859375,0.049605369567871094
1701886095908103200,18.695103271484374,0.0494595468044281,0.013969898223876953,0.006374359130859375
1701886095925097000,18.712096923828124,0.051334165036678314,0.00357818603515625,0.0011415481567382812
1701886095942095400,18.729095458984375,-0.013708390295505524,0.007434844970703125,0.006015777587890625
1701886095959092500,18.746092529296874,-0.08011568337678909,0.011092185974121094,-0.013139724731445312
1701886095976084000,18.763083984375,-0.056254737079143524,-0.004725456237792969,-0.06238842010498047
1701886095993077800,18.780077880859373,0.07838298380374908,-0.024107933044433594,-0.08736991882324219
1701886096010058000,18.79705810546875,0.18432030081748962,-0.022449016571044922,-0.05449390411376953
1701886096027064000,18.81406396484375,0.17042067646980286,-0.015407562255859375,-0.03320789337158203
1701886096044052200,18.83105224609375,0.06961104273796082,0.03147602081298828,-0.0018291473388671875
1701886096061051600,18.8480517578125,-0.028747359290719032,0.06261014938354492,0.05782890319824219
1701886096078041000,18.865041015625,-0.0694517269730568,0.0778203010559082,0.11185550689697266
1701886096095034000,18.8820341796875,-0.07349123060703278,0.06233406066894531,0.14952850341796875
1701886096112024600,18.899024658203125,-0.06040259450674057,0.0441279411315918,0.10437202453613281
1701886096129020700,18.916020751953123,-0.038003481924533844,-0.018224716186523438,0.04335594177246094
1701886096146008300,18.93300830078125,0.000292167067527771,-0.028514385223388672,0.0020923614501953125
1701886096163005200,18.950005126953126,0.0016493070870637894,-0.06152153015136719,-0.015181541442871094
1701886096179997200,18.9669970703125,-0.007122121285647154,-0.0361480712890625,-0.049887657165527344
1701886096196991000,18.983990966796874,-0.029080385342240334,-0.03386831283569336,-0.036884307861328125
1701886096213982700,19.000982666015624,-0.03811201453208923,-0.031548500061035156,-0.04778480529785156
1701886096230976500,19.0179765625,-0.06474603712558746,-0.0534510612487793,-0.054058074951171875
1701886096247968500,19.034968505859375,-0.06665776669979095,-0.07004976272583008,-0.08876514434814453
1701886096264959000,19.051958984375,-0.07781806588172913,-0.07142829895019531,-0.1128387451171875
1701886096281951200,19.068951171875,-0.04001733660697937,-0.07640790939331055,-0.1135416030883789
1701886096298950100,19.0859501953125,-0.006499357987195253,-0.07446813583374023,-0.08378314971923828
1701886096315939300,19.102939208984374,0.006522958166897297,-0.052206993103027344,-0.04860401153564453
1701886096332930000,19.119929931640623,-0.01397174596786499,-0.02440166473388672,-0.013014793395996094
1701886096349925000,19.136925048828125,-0.06226172670722008,-0.002318859100341797,0.018212318420410156
1701886096366918700,19.153918701171875,-0.07611667364835739,0.023897171020507812,0.038598060607910156
1701886096383910400,19.170910400390625,-0.07502176612615585,0.029353618621826172,0.03957557678222656
1701886096400893700,19.187893798828124,-0.03146183863282204,-0.00032711029052734375,0.02890300750732422
1701886096417896000,19.20489599609375,0.01517515629529953,-0.010686874389648438,-0.010712623596191406
1701886096434876400,19.22187646484375,0.08504337817430496,-0.006125450134277344,-0.03953361511230469
1701886096451874000,19.2388740234375,0.1125950962305069,0.014615058898925781,-0.05392932891845703
1701886096468877000,19.255876953125,0.07956953346729279,0.03506946563720703,-0.0379180908203125
1701886096485867000,19.272866943359375,0.012473773211240768,0.06037616729736328,0.011305809020996094
1701886096502860500,19.289860595703125,-0.03106217086315155,0.06876754760742188,0.0014486312866210938
1701886096519851300,19.306851318359374,-0.007822446525096893,0.05328941345214844,-0.01859569549560547
1701886096536847400,19.323847412109377,0.09081695973873138,0.027330398559570312,-0.04419231414794922
1701886096553837800,19.340837890625,0.19299712777137756,0.016644001007080078,-0.055268287658691406
1701886096570838800,19.3578388671875,0.19902238249778748,0.0014424324035644531,-0.056311607360839844
1701886096587823400,19.3748232421875,0.16641631722450256,-0.0032262802124023438,-0.060428619384765625
1701886096604817400,19.3918173828125,0.10951194167137146,0.011662006378173828,-0.035292625427246094
1701886096621809200,19.40880908203125,0.04262872040271759,0.022281169891357422,-0.005421638488769531
1701886096638802000,19.425802001953127,0.008062668144702911,0.022464275360107422,0.0045623779296875
1701886096655791400,19.442791259765624,0.002226896584033966,0.01758432388305664,0.0284271240234375
1701886096672788200,19.459788330078126,0.02243918552994728,0.012612342834472656,0.008839607238769531
1701886096689776000,19.476776123046875,0.04187089949846268,0.011789321899414062,-0.016160964965820312
1701886096706775300,19.493775390625,0.022097069770097733,0.0068073272705078125,-0.03544044494628906
1701886096723768000,19.51076806640625,-0.06326892226934433,0.025626659393310547,-0.0628347396850586
1701886096740744400,19.527744384765626,-0.15075014531612396,-0.002864360809326172,-0.07169628143310547
1701886096757751300,19.544751220703127,-0.1162290945649147,-0.02631521224975586,-0.08160209655761719
1701886096774745000,19.5617451171875,-0.015402495861053467,-0.047120094299316406,-0.028196334838867188
1701886096791736600,19.578736572265626,0.01666390895843506,-0.014122486114501953,0.0022182464599609375
1701886096808730400,19.59573046875,-0.027724280953407288,0.029073238372802734,0.02014636993408203
1701886096825722400,19.612722412109374,-0.10381045937538147,0.08763313293457031,0.05745124816894531
1701886096842713000,19.629713134765623,-0.15418024361133575,0.12096643447875977,0.13745498657226562
1701886096859708000,19.6467080078125,-0.19492730498313904,0.14212799072265625,0.18733787536621094
1701886096876701400,19.663701416015623,-0.21668972074985504,0.1410832405090332,0.17721176147460938
1701886096893694000,19.68069384765625,-0.18969646096229553,0.11376333236694336,0.10328865051269531
1701886096910687200,19.697687255859375,-0.08429564535617828,0.05681133270263672,0.061181068420410156
1701886096927676400,19.714676513671876,0.02581832930445671,0.014225482940673828,0.03436565399169922
1701886096944675600,19.731675537109375,0.1071576476097107,0.03105306625366211,0.032230377197265625
1701886096961654000,19.748654052734373,0.09279577434062958,0.03410148620605469,0.06482601165771484
1701886096978658600,19.765658447265626,0.024972006678581238,0.06474781036376953,0.09295463562011719
1701886096995650000,19.782650146484375,-0.004272453486919403,0.07547998428344727,0.10120296478271484
1701886097012643800,19.799643798828125,-0.0056731924414634705,0.07019758224487305,0.08403682708740234
1701886097029634800,19.816634765625,0.02217380702495575,0.05894756317138672,0.03693389892578125
1701886097046630100,19.833630126953125,0.035102538764476776,0.03414201736450195,-0.028600692749023438
1701886097063620900,19.850620849609374,0.051666174083948135,0.02349233627319336,-0.065216064453125
1701886097080614700,19.86761474609375,0.0348893404006958,0.017422199249267578,-0.08757305145263672
1701886097097605600,19.884605712890625,0.02395886927843094,-0.0028967857360839844,-0.10986328125
1701886097114601200,19.901601318359376,0.03758461773395538,-0.022407054901123047,-0.12213516235351562
1701886097131592400,19.918592529296873,0.09304332733154297,-0.04043388366699219,-0.11508369445800781
1701886097148586000,19.9355859375,0.17539624869823456,-0.04245424270629883,-0.08356285095214844
1701886097165574700,19.95257470703125,0.19479376077651978,-0.04496908187866211,-0.08011436462402344
1701886097182571300,19.9695712890625,0.1570723056793213,-0.04761457443237305,-0.07581806182861328
1701886097199563000,19.98656298828125,0.10422267764806747,-0.06791353225708008,-0.04294586181640625
1701886097216556800,20.003556884765626,0.016930364072322845,-0.07409906387329102,-0.028436660766601562
1701886097233548800,20.020548828125,-0.05207076668739319,-0.06106090545654297,-0.03813648223876953
1701886097250540000,20.0375400390625,-0.09236861765384674,-0.03873729705810547,-0.0862569808959961
1701886097267534300,20.054534423828127,-0.025881782174110413,-0.03499269485473633,-0.10177230834960938
1701886097284527900,20.07152783203125,0.05835418030619621,-0.03508186340332031,-0.10753631591796875
1701886097301517300,20.088517333984374,0.08113108575344086,-0.0358424186706543,-0.1229104995727539
1701886097318513400,20.105513427734376,0.042565807700157166,-0.04073286056518555,-0.14628887176513672
1701886097335505200,20.122505126953126,0.010317601263523102,-0.04433250427246094,-0.15043258666992188
1701886097352500500,20.13950048828125,0.02128114551305771,-0.06096649169921875,-0.11080455780029297
1701886097369491000,20.156490966796873,0.036267898976802826,-0.05763959884643555,-0.0468292236328125
1701886097386484700,20.173484619140623,0.06000203639268875,-0.03529071807861328,-0.016419410705566406
1701886097403476200,20.190476318359377,0.07484081387519836,-0.02319192886352539,0.042670249938964844
1701886097420469200,20.20746923828125,0.059820227324962616,-0.0013508796691894531,0.06802845001220703
1701886097437462800,20.224462890625,0.029307201504707336,0.00965738296508789,0.0783376693725586
1701886097454455600,20.24145556640625,0.006431102752685547,-0.014983177185058594,0.015712738037109375
1701886097471445000,20.258445068359375,0.027516961097717285,-0.029425621032714844,-0.04210186004638672
1701886097488441600,20.275441650390626,0.02965380996465683,-0.047403812408447266,-0.041510581970214844
1701886097505422300,20.29242236328125,0.011939994990825653,-0.006371974945068359,-0.044548988342285156
1701886097522424600,20.309424560546876,-0.04661097377538681,0.021662235260009766,-0.0034894943237304688
1701886097539416600,20.32641650390625,-0.11211483180522919,0.029767513275146484,0.05663871765136719
1701886097556416800,20.343416748046874,-0.13745948672294617,0.03792715072631836,0.13025283813476562
1701886097573393700,20.3603935546875,-0.15498116612434387,0.030094623565673828,0.1608257293701172
1701886097590397700,20.377397705078124,-0.11220446974039078,0.03625011444091797,0.15106773376464844
1701886097607389700,20.3943896484375,-0.07476897537708282,0.04967451095581055,0.09314346313476562
1701886097624383200,20.41138330078125,-0.07306806743144989,0.028730392456054688,0.0347747802734375
1701886097641375200,20.428375244140625,-0.061041586101055145,0.038369178771972656,-0.04263496398925781
1701886097658369300,20.445369384765623,-0.04266471415758133,0.025127410888671875,-0.02285003662109375
1701886097675357400,20.462357421875,-0.023244082927703857,0.012561798095703125,-0.012255668640136719
1701886097692354600,20.4793544921875,0.012265503406524658,0.015259265899658203,0.03711700439453125
1701886097709346000,20.496345947265624,-0.0066042616963386536,0.032906532287597656,0.08201217651367188
1701886097726339800,20.51333984375,-0.05027119070291519,0.07777118682861328,0.09352397918701172
1701886097743328500,20.53032861328125,-0.08452121913433075,0.09763813018798828,0.07962322235107422
1701886097760321800,20.54732177734375,-0.05986413359642029,0.08692216873168945,0.05516338348388672
1701886097777321700,20.56432177734375,-0.026010572910308838,0.06162834167480469,0.011126518249511719
1701886097794311200,20.581311279296877,0.040467724204063416,0.06015348434448242,-0.023683547973632812
