time,seconds_elapsed,z,y,x
1700931841611717000,0.198717041015625,-0.085723876953125,0.06231498718261719,-0.16397175192832947
1700931841628702500,0.215702392578125,-0.13214492797851562,-0.09884023666381836,-0.05285105109214783
1700931841645700400,0.232700439453125,0.07840538024902344,-0.12406325340270996,0.22447052597999573
1700931841662691300,0.24969140625,0.1657581329345703,-0.08020186424255371,0.3701210021972656
1700931841679687200,0.266687255859375,0.14895057678222656,-0.0901646614074707,0.20425711572170258
1700931841696674800,0.2836748046875,-0.06566905975341797,-0.11469817161560059,0.04297575354576111
1700931841713671400,0.30067138671875,-0.36577320098876953,-0.10420680046081543,0.03171762824058533
1700931841730665000,0.3176650390625,-0.7723407745361328,-0.08381414413452148,-0.03594774007797241
1700931841747652400,0.33465234375,-1.1246662139892578,-0.13285589218139648,-0.08155691623687744
1700931841764651500,0.351651611328125,-0.7550201416015625,-0.16998720169067383,0.09984540939331055
1700931841781645000,0.36864501953125,-0.09550666809082031,-0.13688206672668457,0.3622857928276062
1700931841798633200,0.38563330078125,0.4141426086425781,-0.1243443489074707,0.26997289061546326
1700931841815630300,0.40263037109375,0.5970621109008789,-0.13199639320373535,-0.0726051926612854
1700931841832620800,0.419620849609375,0.3842611312866211,-0.12453389167785645,-0.19318976998329163
1700931841849617000,0.436616943359375,-0.014448165893554688,-0.047428131103515625,-0.06878304481506348
1700931841866604800,0.453604736328125,-0.17110252380371094,0.01151132583618164,0.11644250154495239
1700931841883601400,0.470601318359375,0.23311710357666016,0.12393617630004883,0.21817032992839813
1700931841900594700,0.4875947265625,0.9056215286254883,0.1927025318145752,0.3336784541606903
1700931841917584600,0.504584716796875,1.2284584045410156,0.2006969451904297,0.2695956826210022
1700931841934579200,0.5215791015625,0.8433437347412109,0.22474098205566406,0.179414764046669
1700931841951575000,0.538574951171875,0.061293601989746094,0.2226264476776123,0.3039792776107788
1700931841968562400,0.5555625,-0.648045539855957,0.1780543327331543,0.39983272552490234
1700931841985551000,0.572551025390625,-0.8646421432495117,0.04707074165344238,0.3624913692474365
1700931842002551000,0.589551025390625,-0.43126583099365234,-0.02296614646911621,0.4467756152153015
1700931842019547100,0.606547119140625,0.28125858306884766,0.01926565170288086,0.5170073509216309
1700931842036531700,0.62353173828125,0.6602382659912109,0.002256631851196289,0.5799924731254578
1700931842053534000,0.640533935546875,0.6094579696655273,-0.019304752349853516,0.5288268327713013
1700931842070524700,0.657524658203125,0.25137805938720703,-0.0026226043701171875,0.33574166893959045
1700931842087513000,0.67451318359375,-0.15343475341796875,-0.03199577331542969,0.15711116790771484
1700931842104521200,0.691521240234375,-0.4546384811401367,-0.07244491577148438,0.11610443890094757
1700931842121495300,0.708495361328125,-0.3768777847290039,0.06800961494445801,0.1701882928609848
1700931842138491400,0.725491455078125,-0.43883705139160156,0.1462571620941162,0.581215500831604
1700931842155490600,0.742490478515625,-0.36438560485839844,0.23151636123657227,0.7075532078742981
1700931842172471000,0.759470947265625,-0.30846214294433594,-0.011799812316894531,0.1367287039756775
1700931842189467400,0.77646728515625,-0.20073223114013672,-0.06217622756958008,-0.057858794927597046
1700931842206465000,0.793465087890625,-0.1926097869873047,0.17783784866333008,0.19076022505760193
1700931842223461600,0.810461669921875,-0.45329952239990234,0.26441407203674316,0.7594377994537354
1700931842240454400,0.827454345703125,-0.5957975387573242,0.34871387481689453,1.2101126909255981
1700931842257444600,0.844444580078125,-0.5608844757080078,0.35259151458740234,1.1263184547424316
1700931842274439000,0.86143896484375,-0.23015403747558594,0.16510605812072754,0.690453052520752
1700931842291438600,0.8784384765625,0.1958150863647461,-0.01262354850769043,0.41849207878112793
1700931842308419000,0.895419189453125,0.42377281188964844,-0.06404590606689453,0.32096540927886963
1700931842325417200,0.912417236328125,0.550837516784668,-0.08792805671691895,0.27807876467704773
1700931842342413300,0.929413330078125,0.4885702133178711,-0.09702658653259277,0.2032535970211029
1700931842359406800,0.94640673828125,0.2768535614013672,-0.05898571014404297,0.2270399034023285
1700931842376395000,0.96339501953125,0.054030418395996094,0.02736949920654297,0.29547587037086487
1700931842393391000,0.98039111328125,0.022531509399414062,0.08367061614990234,0.3320161998271942
1700931842410384400,0.99738427734375,0.0669565200805664,0.08635425567626953,0.34969621896743774
1700931842427370800,1.014370849609375,0.009721755981445312,0.0682985782623291,0.3245105445384979
1700931842444372700,1.031372802734375,-0.07384300231933594,0.018979310989379883,0.3809068202972412
1700931842461364500,1.048364501953125,-0.112823486328125,0.04682016372680664,0.412598192691803
1700931842478352400,1.065352294921875,-0.03260326385498047,0.04606127738952637,0.3869099020957947
1700931842495355600,1.082355712890625,0.16333961486816406,0.038735151290893555,0.27799931168556213
1700931842512338400,1.09933837890625,0.2916393280029297,0.052094459533691406,0.22363276779651642
1700931842529338400,1.11633837890625,0.3153553009033203,0.07511472702026367,0.25085359811782837
1700931842546324200,1.13332421875,0.190460205078125,0.0594482421875,0.32083749771118164
1700931842563321000,1.150321044921875,0.04443836212158203,0.029715299606323242,0.32212671637535095
1700931842580311600,1.1673115234375,-0.05398082733154297,-0.018168210983276367,0.308538019657135
1700931842597305000,1.18430517578125,-0.046966552734375,-0.0932774543762207,0.3293554186820984
1700931842614298600,1.201298583984375,-0.06447505950927734,-0.14750027656555176,0.2740829586982727
1700931842631294700,1.218294677734375,-0.006072998046875,-0.15543508529663086,0.25109758973121643
1700931842648281300,1.23528125,0.09708499908447266,-0.07651805877685547,0.33425235748291016
1700931842665280300,1.2522802734375,0.129180908203125,-0.023592472076416016,0.37770795822143555
1700931842682264300,1.269264404296875,0.10751056671142578,-0.012991905212402344,0.3980134129524231
1700931842699271200,1.286271240234375,0.045177459716796875,-0.01675105094909668,0.45751893520355225
1700931842716258000,1.303258056640625,0.09493732452392578,-0.05838656425476074,0.250566303730011
1700931842733245700,1.32024560546875,0.17708110809326172,-0.11564087867736816,0.11975550651550293
1700931842750245400,1.337245361328125,-0.05979633331298828,-0.07216644287109375,0.1573193520307541
1700931842767234800,1.35423486328125,-0.36934661865234375,-0.054767608642578125,0.23332904279232025
1700931842784228900,1.371228759765625,-0.34613513946533203,-0.01807260513305664,0.3519207239151001
1700931842801223700,1.3882236328125,-0.0145721435546875,0.00872945785522461,0.4622874855995178
1700931842818212000,1.405212158203125,0.23864078521728516,-0.05319547653198242,0.40918755531311035
1700931842835214800,1.42221484375,0.24384403228759766,-0.047437191009521484,0.29167985916137695
1700931842852198100,1.4391982421875,0.0082244873046875,0.03914308547973633,0.3391497731208801
1700931842869195000,1.456195068359375,-0.21474266052246094,0.08087539672851562,0.39418697357177734
1700931842886184400,1.473184326171875,-0.6274681091308594,0.1174001693725586,0.4242604970932007
1700931842903176400,1.490176513671875,-0.5178508758544922,0.044910430908203125,0.5456402897834778
1700931842920173800,1.507173828125,-0.24506473541259766,0.08329105377197266,0.47026002407073975
1700931842937158700,1.52415869140625,0.4567708969116211,0.20149612426757812,0.6657690405845642
1700931842954158800,1.541158935546875,0.8455228805541992,0.21944475173950195,0.8642787933349609
1700931842971155200,1.5581552734375,0.6946897506713867,0.2051529884338379,0.7750886082649231
1700931842988141800,1.575141845703125,0.1568002700805664,-0.05684995651245117,0.5237947106361389
1700931843005139500,1.592139404296875,-0.44304561614990234,-0.30200672149658203,0.028506740927696228
1700931843022131200,1.609131103515625,-0.7650289535522461,-0.5084118843078613,-0.2288377285003662
1700931843039122200,1.6261220703125,-0.8274440765380859,-0.5171139240264893,-0.19032521545886993
1700931843056109600,1.643109619140625,-0.4335794448852539,-0.37645387649536133,-0.002821683883666992
1700931843073110800,1.66011083984375,0.008054733276367188,-0.1986532211303711,0.13698451220989227
1700931843090103800,1.677103759765625,0.13295459747314453,-0.06723976135253906,0.15063129365444183
1700931843107094300,1.69409423828125,-0.12645626068115234,-0.006305694580078125,0.03825676441192627
1700931843124087800,1.711087890625,-0.32657337188720703,0.07826852798461914,0.07183060050010681
1700931843141084200,1.728084228515625,-0.43566036224365234,0.17759990692138672,0.21439221501350403
1700931843158072000,1.745072021484375,-0.3330507278442383,0.2436666488647461,0.26213768124580383
1700931843175069400,1.7620693359375,0.00806427001953125,0.23990201950073242,0.22878237068653107
1700931843192060200,1.77906005859375,0.3571443557739258,0.19302940368652344,0.20684221386909485
1700931843209052400,1.796052490234375,0.5845890045166016,0.12738895416259766,0.16919517517089844
1700931843226047200,1.813047119140625,0.6470918655395508,0.06923961639404297,0.15202109515666962
1700931843243040500,1.83004052734375,0.5408449172973633,0.04201173782348633,0.14384889602661133
1700931843260033500,1.847033447265625,0.2583045959472656,0.03549385070800781,0.1994369477033615
1700931843277024000,1.86402392578125,-0.04132556915283203,-0.01747274398803711,0.24356229603290558
1700931843294020400,1.881020263671875,-0.2394275665283203,-0.026745319366455078,0.2718706727027893
1700931843311010800,1.8980107421875,-0.1955394744873047,-0.05090522766113281,0.3172232508659363
1700931843328002600,1.91500244140625,0.00034999847412109375,-0.0448765754699707,0.2724999189376831
1700931843345002500,1.93200244140625,0.18366527557373047,0.011484146118164062,0.18199414014816284
1700931843361987800,1.94898779296875,0.1768331527709961,0.013598918914794922,0.14919763803482056
1700931843378982100,1.965982177734375,0.05125713348388672,0.021776676177978516,0.154072105884552
1700931843395977000,1.98297705078125,-0.12728023529052734,0.03227996826171875,0.17409507930278778
1700931843412970200,1.99997021484375,-0.2577056884765625,0.008183002471923828,0.08815163373947144
1700931843429964000,2.016964111328125,-0.23634815216064453,-0.02687549591064453,0.011465370655059814
1700931843446953000,2.033952880859375,-0.29084014892578125,-0.051720619201660156,0.09660068154335022
1700931843463951400,2.050951416015625,-0.2453756332397461,-0.054457664489746094,0.13928571343421936
1700931843480939800,2.067939697265625,-0.11603546142578125,-0.02200460433959961,0.11685338616371155
1700931843497932300,2.084932373046875,-0.042822837829589844,-0.0057468414306640625,0.12920978665351868
1700931843514929400,2.101929443359375,0.03482818603515625,0.0488591194152832,0.29270046949386597
1700931843531904000,2.118904052734375,0.22275257110595703,0.10510969161987305,0.5088264346122742
1700931843548911600,2.13591162109375,0.4737882614135742,0.10934686660766602,0.5817121267318726
1700931843565905400,2.152905517578125,0.5866594314575195,0.07663249969482422,0.45307934284210205
1700931843582901000,2.16990087890625,0.4211893081665039,0.05189180374145508,0.3033304810523987
1700931843599893500,2.1868935546875,0.08330345153808594,-0.0027632713317871094,0.32368403673171997
1700931843616884700,2.203884765625,-0.31641292572021484,-0.11144495010375977,0.17055155336856842
1700931843633877000,2.220876953125,-0.6207876205444336,-0.03089141845703125,0.6786317229270935
1700931843650873900,2.237873779296875,-0.28139686584472656,0.1261911392211914,0.8979702591896057
1700931843667861000,2.254861083984375,0.21394062042236328,0.3009796142578125,0.9497138261795044
1700931843684858000,2.271858154296875,0.6155662536621094,0.2745356559753418,0.9627116918563843
1700931843701844200,2.28884423828125,0.44083404541015625,0.12431049346923828,0.8341258764266968
1700931843718839300,2.30583935546875,0.1461658477783203,-0.025065898895263672,0.5531757473945618
1700931843735838700,2.322838623046875,-0.22835826873779297,-0.21994256973266602,0.07862874865531921
1700931843752830200,2.339830322265625,-0.5388698577880859,-0.4205436706542969,-0.3885750472545624
1700931843769823200,2.3568232421875,-0.5154876708984375,-0.42191076278686523,-0.46390122175216675
1700931843786813400,2.3738134765625,-0.3297567367553711,-0.28216981887817383,-0.2807573080062866
1700931843803807500,2.390807373046875,-0.1004638671875,-0.0972585678100586,-0.09345975518226624
1700931843820803600,2.407803466796875,0.024585723876953125,0.067352294921875,0.005746006965637207
1700931843837791500,2.42479150390625,0.029180526733398438,0.17225360870361328,0.06935223937034607
1700931843854788000,2.4417880859375,0.07338714599609375,0.23858165740966797,0.2087617814540863
1700931843871778600,2.458778564453125,0.13343334197998047,0.2455291748046875,0.36724144220352173
1700931843888772000,2.475772216796875,0.10124683380126953,0.15749549865722656,0.40133023262023926
1700931843905766400,2.492766357421875,0.014017105102539062,0.050305843353271484,0.409855455160141
1700931843922760000,2.509760009765625,-0.11048412322998047,-0.009400367736816406,0.3268369436264038
1700931843939753000,2.5267529296875,0.04467582702636719,-0.009788036346435547,0.32215604186058044
1700931843956736500,2.543736572265625,0.2481985092163086,-0.005917072296142578,0.311654269695282
1700931843973734400,2.560734375,0.3156108856201172,-0.03524017333984375,0.19499793648719788
1700931843990736600,2.577736572265625,0.16150760650634766,-0.09804534912109375,0.17047645151615143
1700931844007721200,2.59472119140625,-0.053707122802734375,-0.08543157577514648,0.21136584877967834
1700931844024717800,2.6117177734375,-0.2693138122558594,-0.04160594940185547,0.2097458392381668
1700931844041711000,2.628711181640625,-0.3847017288208008,0.010297298431396484,0.2206934541463852
1700931844058701600,2.64570166015625,-0.3417673110961914,0.036171913146972656,0.21759164333343506
1700931844075696000,2.662696044921875,-0.150665283203125,0.06465959548950195,0.137184739112854
1700931844092690200,2.679690185546875,0.013493537902832031,0.0480961799621582,0.15828610956668854
1700931844109683000,2.696682861328125,0.07727813720703125,0.019840240478515625,0.18370220065116882
1700931844126671400,2.71367138671875,0.05380821228027344,0.006081581115722656,0.25469690561294556
1700931844143659000,2.730658935546875,-0.01549530029296875,0.0339207649230957,0.3168415129184723
1700931844160663300,2.747663330078125,-0.14065170288085938,0.056667327880859375,0.32357585430145264
1700931844177651000,2.76465087890625,-0.10146522521972656,0.07788991928100586,0.2954944968223572
1700931844194649300,2.7816494140625,0.0683889389038086,0.08435297012329102,0.23119112849235535
1700931844211639000,2.79863916015625,0.22263145446777344,0.04990959167480469,0.26957911252975464
1700931844228631300,2.81563134765625,0.25571441650390625,0.031017303466796875,0.27006423473358154
1700931844245626000,2.832626220703125,0.1689891815185547,0.0023298263549804688,0.2600775361061096
1700931844262620000,2.849619873046875,0.07460403442382812,-0.015721797943115234,0.28249987959861755
1700931844279612700,2.86661279296875,-0.1328134536743164,0.012671470642089844,0.2863442301750183
1700931844296603100,2.88360302734375,-0.21018695831298828,0.04361581802368164,0.28080862760543823
1700931844313597400,2.900597412109375,-0.15890216827392578,0.01241302490234375,0.28092026710510254
1700931844330593500,2.917593505859375,-0.05810260772705078,-0.0651860237121582,0.24171635508537292
1700931844347580700,2.93458056640625,-0.07431697845458984,-0.08583545684814453,0.19643241167068481
1700931844364577500,2.95157763671875,-0.16840171813964844,-0.06679058074951172,0.2508107125759125
1700931844381568300,2.968568359375,-0.2639427185058594,0.016955852508544922,0.2770649194717407
1700931844398556700,2.985556640625,-0.1401205062866211,0.06386852264404297,0.28748294711112976
1700931844415555800,3.002555908203125,0.01783275604248047,0.05711698532104492,0.30440640449523926
1700931844432549400,3.01954931640625,0.2217111587524414,0.030205249786376953,0.32425710558891296
1700931844449543000,3.03654296875,0.44704341888427734,0.007339954376220703,0.2430894672870636
1700931844466533000,3.053533203125,0.4741630554199219,-0.08347415924072266,0.14197266101837158
1700931844483528000,3.07052783203125,0.37717342376708984,-0.05584096908569336,0.16066953539848328
1700931844500522500,3.0875224609375,0.22932910919189453,-0.021662235260009766,0.3448958396911621
1700931844517513000,3.104512939453125,0.13030433654785156,0.006991863250732422,0.44780516624450684
1700931844534489600,3.121489501953125,-0.04100799560546875,-0.056372880935668945,0.3762199282646179
1700931844551500000,3.1385,-0.23908233642578125,-0.10497593879699707,0.24482190608978271
1700931844568494300,3.155494384765625,-0.4093132019042969,-0.05229043960571289,0.19808027148246765
1700931844585486000,3.172486083984375,-0.4141883850097656,0.0013246536254882812,0.22822964191436768
1700931844602477800,3.189477783203125,-0.22445392608642578,0.00773930549621582,0.21414189040660858
1700931844619474400,3.206474365234375,0.006899833679199219,0.01070261001586914,0.1472785770893097
1700931844636466400,3.223466552734375,0.1566143035888672,0.032418012619018555,0.15118250250816345
1700931844653458200,3.240458251953125,0.14968585968017578,0.07338929176330566,0.20830340683460236
1700931844670452200,3.2574521484375,0.1933746337890625,0.07714104652404785,0.20958049595355988
1700931844687443700,3.274443603515625,0.17559242248535156,0.06284260749816895,0.17263591289520264
1700931844704435000,3.29143505859375,-0.0021839141845703125,0.04069709777832031,0.14494243264198303
1700931844721438000,3.30843798828125,-0.16653919219970703,-0.012700557708740234,0.14569605886936188
1700931844738424300,3.32542431640625,-0.13856220245361328,-0.008413314819335938,0.09089499711990356
1700931844755406600,3.342406494140625,-0.041179656982421875,0.03148603439331055,0.11258059740066528
1700931844772399600,3.359399658203125,0.06720829010009766,0.0912473201751709,0.14308950304985046
1700931844789401900,3.37640185546875,-0.03394126892089844,0.07577800750732422,0.19398051500320435
1700931844806396200,3.393396240234375,-0.18032455444335938,0.0156862735748291,0.18587668240070343
1700931844823387600,3.4103876953125,-0.22728919982910156,-0.019421100616455078,0.14329488575458527
1700931844840382200,3.42738232421875,-0.15843963623046875,-0.0006284713745117188,0.16773030161857605
1700931844857374000,3.4443740234375,0.02898120880126953,0.05831623077392578,0.1857641637325287
1700931844874368000,3.461367919921875,0.18152523040771484,0.06659245491027832,0.2050650268793106
1700931844891357200,3.478357177734375,0.1818218231201172,0.019991636276245117,0.1773305982351303
1700931844908356600,3.495356689453125,-0.0041904449462890625,-0.07963371276855469,0.17865592241287231
1700931844925346000,3.512345947265625,-0.11934661865234375,-0.11726927757263184,0.18947729468345642
1700931844942340000,3.529340087890625,-0.18665599822998047,-0.06940150260925293,0.20587840676307678
1700931844959334400,3.54633447265625,-0.18006420135498047,0.028075695037841797,0.2468986213207245
1700931844976323000,3.563322998046875,-0.1856536865234375,0.08786225318908691,0.26679202914237976
1700931844993315600,3.580315673828125,-0.19117259979248047,0.08311247825622559,0.20416201651096344
1700931845010312200,3.597312255859375,-0.14058589935302734,0.0324099063873291,0.16667097806930542
1700931845027303400,3.614303466796875,-0.11234760284423828,-0.0225527286529541,0.17544814944267273
1700931845044297700,3.631297607421875,-0.056201934814453125,-0.061293601989746094,0.1869404911994934
1700931845061289700,3.648289794921875,-0.04649829864501953,-0.03531622886657715,0.18793703615665436
1700931845078284000,3.665283935546875,-0.07194900512695312,-0.0008785724639892578,0.17787772417068481
1700931845095265000,3.68226513671875,-0.047023773193359375,0.03494381904602051,0.1439245045185089
1700931845112269800,3.699269775390625,0.08086395263671875,0.07525324821472168,0.14343902468681335
1700931845129261800,3.71626171875,0.20149898529052734,0.10013914108276367,0.19112777709960938
1700931845146256000,3.733255859375,0.15446853637695312,0.09687185287475586,0.23411884903907776
1700931845163247400,3.750247314453125,0.12988758087158203,0.10038423538208008,0.22968469560146332
1700931845180241700,3.76724169921875,0.09295845031738281,0.06497526168823242,0.2206493765115738
1700931845197233700,3.784233642578125,0.0907144546508789,0.06287693977355957,0.18417991697788239
1700931845214210600,3.80121044921875,0.158050537109375,0.10193490982055664,0.19164243340492249
1700931845231219500,3.818219482421875,0.18645191192626953,0.12070775032043457,0.2948482930660248
1700931845248213500,3.835213623046875,0.13088607788085938,0.10882067680358887,0.3124663233757019
1700931845265205500,3.85220556640625,0.011729240417480469,0.05029559135437012,0.24974754452705383
1700931845282200000,3.869199951171875,-0.011225700378417969,-0.008452892303466797,0.23212748765945435
1700931845299191300,3.88619140625,0.03606414794921875,-0.033316850662231445,0.2127264440059662
1700931845316175000,3.903175048828125,0.2078857421875,-0.08474159240722656,0.16899773478507996
1700931845333177600,3.920177490234375,0.3644142150878906,-0.059662580490112305,0.2224123626947403
1700931845350171600,3.937171630859375,0.43488216400146484,-0.0335693359375,0.3360574245452881
1700931845367163100,3.9541630859375,0.27789878845214844,-0.019664287567138672,0.3576764464378357
1700931845384156000,3.971156005859375,-0.10003280639648438,-0.06528711318969727,0.31753572821617126
1700931845401151500,3.9881513671875,-0.32015419006347656,-0.10252237319946289,0.27256783843040466
1700931845418144500,4.00514453125,-0.27231311798095703,-0.09668111801147461,0.26622113585472107
1700931845435134500,4.022134521484375,-0.02565765380859375,-0.10338258743286133,0.2763754725456238
1700931845452126000,4.0391259765625,0.1990041732788086,-0.12207818031311035,0.25538042187690735
1700931845469125000,4.056125,0.33379554748535156,-0.13338589668273926,0.20672693848609924
1700931845486116600,4.07311669921875,0.2486248016357422,-0.1344892978668213,0.22528384625911713
1700931845503109400,4.090109375,-0.01567363739013672,-0.09342241287231445,0.2574044466018677
1700931845520099600,4.107099609375,-0.26117897033691406,-0.08588123321533203,0.2957684397697449
1700931845537093400,4.12409326171875,-0.3159809112548828,-0.07232332229614258,0.2972479462623596
1700931845554087700,4.141087646484375,-0.1887063980102539,-0.10973000526428223,0.24151545763015747
1700931845571079200,4.1580791015625,-0.0023317337036132812,-0.11001801490783691,0.15394434332847595
1700931845588073500,4.175073486328125,0.12569141387939453,-0.018922090530395508,0.1288030445575714
1700931845605065200,4.192065185546875,0.11202144622802734,0.05105710029602051,0.19033318758010864
1700931845622059500,4.2090595703125,-0.043478965759277344,0.04821491241455078,0.2242855429649353
1700931845639051300,4.22605126953125,-0.17240142822265625,0.019179105758666992,0.23196201026439667
1700931845656045300,4.24304541015625,-0.13677406311035156,-0.020629405975341797,0.22619205713272095
1700931845673037300,4.260037353515625,0.04315662384033203,-0.011887311935424805,0.2679409086704254
1700931845690031600,4.277031494140625,0.27832794189453125,-0.011157989501953125,0.282594233751297
1700931845707022800,4.29402294921875,0.44657135009765625,-0.10069084167480469,0.19176679849624634
1700931845724016000,4.31101611328125,0.4106254577636719,-0.07681798934936523,0.1340719312429428
1700931845741008000,4.3280078125,0.1417522430419922,-0.08638167381286621,0.23344378173351288
1700931845758006300,4.34500634765625,-0.2147989273071289,-0.09890580177307129,0.25248056650161743
1700931845774995000,4.361994873046875,-0.3588895797729492,-0.045166730880737305,0.24643588066101074
1700931845791989200,4.3789892578125,-0.3361787796020508,0.08992505073547363,0.23407971858978271
1700931845808981000,4.39598095703125,-0.07273387908935547,0.10024571418762207,0.2368382215499878
1700931845825975300,4.412975341796875,0.19521331787109375,0.07573771476745605,0.18116715550422668
1700931845842966800,4.429966796875,0.34567832946777344,0.06992149353027344,0.16914162039756775
1700931845859961300,4.44696142578125,0.1984233856201172,0.04340076446533203,0.21456418931484222
1700931845876953000,4.463953125,-0.08656024932861328,-0.022086620330810547,0.22784507274627686
1700931845893944800,4.48094482421875,-0.30354881286621094,-0.038897037506103516,0.18688902258872986
1700931845910941400,4.49794140625,-0.1930408477783203,0.013822793960571289,0.1628251075744629
1700931845927933000,4.514932861328125,0.039788246154785156,0.06955122947692871,0.12985602021217346
1700931845944925000,4.531925048828125,0.19598770141601562,0.08267545700073242,0.08660106360912323
1700931845961919200,4.548919189453125,0.17929935455322266,0.04900813102722168,0.18141032755374908
1700931845978910700,4.56591064453125,0.13469982147216797,0.03359103202819824,0.2875440716743469
1700931845995905300,4.5829052734375,0.06131744384765625,-0.01996445655822754,0.2783658802509308
1700931846012896800,4.599896728515625,-0.07633304595947266,-0.11989760398864746,0.19687014818191528
1700931846029891000,4.61689111328125,-0.15860843658447266,-0.09663772583007812,0.05779191851615906
1700931846046882800,4.6338828125,-0.3449239730834961,-0.11313486099243164,0.058675408363342285
1700931846063876900,4.650876953125,-0.41890811920166016,-0.10266804695129395,0.11229196190834045
1700931846080868900,4.667868896484375,-0.33782482147216797,-0.025211811065673828,0.16792955994606018
1700931846097860600,4.684860595703125,-0.2413320541381836,-0.0009779930114746094,0.1817517876625061
1700931846114857200,4.701857177734375,-0.14401531219482422,-0.059891700744628906,0.1912711262702942
1700931846131849000,4.718848876953125,-0.03175640106201172,-0.09388375282287598,0.18036726117134094
1700931846148841000,4.735841064453125,0.06740570068359375,-0.09145092964172363,0.2084316611289978
1700931846165835300,4.752835205078125,0.18109703063964844,-0.0488581657409668,0.23462025821208954
1700931846182826500,4.769826416015625,0.24388980865478516,0.010695219039916992,0.21679803729057312
1700931846199821000,4.786821044921875,0.1939554214477539,0.028809547424316406,0.18963375687599182
1700931846216812800,4.803812744140625,0.024109840393066406,0.040842533111572266,0.20964589715003967
1700931846233807000,4.82080712890625,-0.09837627410888672,0.010655641555786133,0.24963036179542542
1700931846250798600,4.837798583984375,-0.02875518798828125,-0.01276540756225586,0.22419200837612152
1700931846267793000,4.85479296875,0.1434926986694336,0.000743865966796875,0.21162565052509308
1700931846284783900,4.871783935546875,0.2991800308227539,0.055641889572143555,0.22841419279575348
1700931846301780200,4.8887802734375,0.2606849670410156,0.057665348052978516,0.24149994552135468
1700931846318770400,4.9057705078125,0.0728769302368164,0.06510639190673828,0.2182842642068863
1700931846335764700,4.9227646484375,-0.07796573638916016,0.060875892639160156,0.25815585255622864
1700931846352756700,4.9397568359375,-0.19817161560058594,0.04449176788330078,0.23691703379154205
1700931846369751000,4.9567509765625,-0.1479959487915039,-0.012135505676269531,0.11799785494804382
1700931846386742500,4.973742431640625,0.010530471801757812,-0.06508755683898926,0.11695238947868347
1700931846403736600,4.990736572265625,0.12008094787597656,-0.06686520576477051,0.18632210791110992
1700931846420728800,5.007728759765625,0.09288597106933594,-0.03870558738708496,0.20754759013652802
1700931846437723000,5.024722900390625,0.012160301208496094,0.0050296783447265625,0.2207799106836319
1700931846454714600,5.041714599609375,0.00420379638671875,-0.0030214786529541016,0.2720007300376892
1700931846471709000,5.058708984375,0.0209503173828125,0.010503530502319336,0.21600553393363953
1700931846488700700,5.07570068359375,-0.021587371826171875,-0.018457889556884766,0.1341390609741211
1700931846505695000,5.092695068359375,-0.23503589630126953,-0.0227508544921875,0.15458601713180542
1700931846522686200,5.109686279296875,-0.3116025924682617,0.009612560272216797,0.27371469140052795
1700931846539680800,5.1266806640625,-0.10278797149658203,0.06223440170288086,0.32000625133514404
1700931846556669400,5.14366943359375,0.16043853759765625,0.0720376968383789,0.2352653443813324
1700931846573666800,5.160666748046875,0.20496177673339844,0.054544925689697266,0.11608773469924927
1700931846590648800,5.17764892578125,0.15491294860839844,0.02033519744873047,0.12025958299636841
1700931846607652600,5.194652587890625,0.09650707244873047,0.0059053897857666016,0.16294583678245544
1700931846624641500,5.2116416015625,-0.04926586151123047,0.023341655731201172,0.20785953104496002
1700931846641638700,5.228638671875,-0.10344409942626953,0.031037330627441406,0.187790185213089
1700931846658630100,5.245630126953125,-0.004363059997558594,0.003470182418823242,0.17174866795539856
1700931846675624400,5.26262451171875,0.17456912994384766,-0.007882833480834961,0.20650240778923035
1700931846692616400,5.279616455078125,0.29715919494628906,-0.040413618087768555,0.150020033121109
1700931846709610800,5.29661083984375,0.2035684585571289,-0.09233260154724121,0.11044847965240479
1700931846726602000,5.31360205078125,0.0005617141723632812,-0.08831930160522461,0.1858474612236023
1700931846743607800,5.33060791015625,-0.20144367218017578,-0.06157326698303223,0.24788647890090942
1700931846760580600,5.34758056640625,-0.2741661071777344,-0.04014420509338379,0.2611469030380249
1700931846777572000,5.364572021484375,-0.19654560089111328,-0.0364537239074707,0.21783345937728882
1700931846794574000,5.381573974609375,-0.018606185913085938,-0.040795326232910156,0.17424961924552917
1700931846811568600,5.398568603515625,0.06906986236572266,-0.040865421295166016,0.16587978601455688
1700931846828560400,5.415560302734375,-0.0017957687377929688,-0.0491185188293457,0.18265920877456665
1700931846845554400,5.432554443359375,-0.152587890625,-0.04490780830383301,0.2243308573961258
1700931846862546000,5.4495458984375,-0.2144489288330078,-0.003911495208740234,0.2837381958961487
1700931846879540500,5.46654052734375,-0.2289266586303711,0.03748321533203125,0.25124481320381165
1700931846896532200,5.4835322265625,-0.23207569122314453,0.04558229446411133,0.18648278713226318
1700931846913526500,5.500526611328125,-0.22835159301757812,0.05316638946533203,0.09922248125076294
1700931846930517800,5.517517822265625,-0.07983684539794922,0.05356168746948242,0.06763195991516113
1700931846947512300,5.53451220703125,0.19404315948486328,0.07895565032958984,0.08490636944770813
1700931846964499700,5.551499755859375,0.4297351837158203,0.07831883430480957,0.10431373119354248
1700931846981503000,5.5685029296875,0.4795722961425781,0.05626344680786133,0.19542133808135986
1700931846998476800,5.585476806640625,0.3202371597290039,0.037878990173339844,0.2264505922794342
1700931847015489000,5.602489013671875,0.17522335052490234,-0.03453826904296875,0.20158842206001282
1700931847032473900,5.619473876953125,0.029641151428222656,-0.04719901084899902,0.21107697486877441
1700931847049463600,5.636463623046875,-0.1609668731689453,-0.02124786376953125,0.24922774732112885
1700931847066462000,5.6534619140625,-0.22519207000732422,-0.040891170501708984,0.11589270830154419
1700931847083453400,5.670453369140625,-0.07910919189453125,-0.07127737998962402,0.05029284954071045
1700931847100450800,5.687450927734375,0.08272552490234375,-0.05010175704956055,0.098806232213974
1700931847117442300,5.7044423828125,0.10930728912353516,-0.0208585262298584,0.15022581815719604
1700931847134423300,5.72142333984375,-0.0284881591796875,-0.03759336471557617,0.18242359161376953
1700931847151428000,5.738427978515625,-0.075897216796875,-0.05377840995788574,0.20433717966079712
1700931847168417500,5.75541748046875,0.05817604064941406,-0.0615692138671875,0.23717251420021057
1700931847185416700,5.772416748046875,0.1158285140991211,-0.04129528999328613,0.22453856468200684
1700931847202407400,5.789407470703125,0.06864356994628906,-0.022538185119628906,0.23444786667823792
1700931847219398400,5.8063984375,-0.039526939392089844,0.018666982650756836,0.24019098281860352
1700931847236392000,5.823391845703125,-0.012848854064941406,0.0436551570892334,0.24657392501831055
1700931847253386200,5.84038623046875,0.22693538665771484,0.0984354019165039,0.20066818594932556
1700931847270376700,5.857376708984375,0.3721332550048828,0.08175277709960938,0.124481201171875
1700931847287373000,5.874373046875,0.30155372619628906,0.04255485534667969,0.10413235425949097
1700931847304364000,5.891364013671875,0.11489677429199219,-0.001705169677734375,0.14213740825653076
1700931847321358300,5.9083583984375,-0.1147918701171875,-0.04284048080444336,0.18515294790267944
1700931847338349600,5.925349609375,-0.2179574966430664,0.002463817596435547,0.20595210790634155
1700931847355343600,5.942343505859375,-0.1961193084716797,0.024658918380737305,0.19864484667778015
1700931847372336000,5.959336181640625,-0.09331226348876953,0.02299022674560547,0.20549196004867554
1700931847389330000,5.976329833984375,0.023317337036132812,-0.02863025665283203,0.2532499432563782
1700931847406321400,5.9933212890625,-0.0029764175415039062,-0.05643963813781738,0.23756158351898193
1700931847423315700,6.010315673828125,-0.09187030792236328,-0.09581375122070312,0.17526167631149292
1700931847440307700,6.0273076171875,-0.19107723236083984,-0.07242369651794434,0.13022565841674805
1700931847457299500,6.044299560546875,-0.21938133239746094,-0.03714251518249512,0.20114663243293762
1700931847474296000,6.061296142578125,-0.14573955535888672,-0.008200645446777344,0.22209641337394714
1700931847491274500,6.0782744140625,-0.009599685668945312,0.006483793258666992,0.21994537115097046
1700931847508280800,6.09528076171875,0.07881736755371094,0.009975433349609375,0.1950833797454834
1700931847525270800,6.112270751953125,0.14115047454833984,0.014748334884643555,0.18247848749160767
1700931847542262500,6.129262451171875,0.09806251525878906,0.016479015350341797,0.1529483199119568
1700931847559262200,6.14626220703125,-0.06497573852539062,0.025783300399780273,0.09087195992469788
1700931847576251600,6.163251708984375,-0.14659404754638672,0.0444340705871582,0.06592908501625061
1700931847593245700,6.18024560546875,-0.03997611999511719,0.06171989440917969,0.13377124071121216
1700931847610237400,6.197237548828125,0.11861801147460938,0.05095195770263672,0.16175633668899536
1700931847627231500,6.2142314453125,0.2510643005371094,0.012747526168823242,0.1878470778465271
1700931847644223500,6.231223388671875,0.36594200134277344,-0.01913738250732422,0.19389981031417847
1700931847661217800,6.2482177734375,0.3148193359375,0.004613399505615234,0.19152021408081055
1700931847678209500,6.26520947265625,0.11591434478759766,0.012948274612426758,0.1910744309425354
1700931847695203600,6.28220361328125,-0.08655452728271484,0.007868528366088867,0.21410375833511353
1700931847712180200,6.29918017578125,-0.2317638397216797,-0.0008480548858642578,0.24010208249092102
1700931847729187000,6.31618701171875,-0.22757816314697266,-0.04134559631347656,0.2128010392189026
1700931847746183700,6.33318359375,-0.11027812957763672,-0.0533292293548584,0.19775700569152832
1700931847763173000,6.350173095703125,0.00031948089599609375,-0.06668496131896973,0.20160242915153503
1700931847780169700,6.367169677734375,0.05297374725341797,-0.03208637237548828,0.18710318207740784
1700931847797161700,6.38416162109375,0.05312633514404297,-0.00238037109375,0.20852768421173096
1700931847814153000,6.401153076171875,0.008290290832519531,0.01980423927307129,0.1911744475364685
1700931847831147500,6.4181474609375,-0.06889915466308594,0.0063283443450927734,0.17290207743644714
1700931847848136700,6.43513671875,-0.04437065124511719,-0.04231142997741699,0.18669793009757996
1700931847865136400,6.452136474609375,0.09683799743652344,-0.011066675186157227,0.16302704811096191
1700931847882112800,6.46911279296875,0.22848129272460938,0.01665949821472168,0.1879749596118927
1700931847899112000,6.48611181640625,0.1952190399169922,0.027006149291992188,0.16066229343414307
1700931847916111000,6.503111083984375,0.025732994079589844,0.02172541618347168,0.13808879256248474
1700931847933105700,6.520105712890625,-0.17679882049560547,-0.0009245872497558594,0.12863990664482117
1700931847950097000,6.537096923828125,-0.2875051498413086,-0.012603998184204102,0.11609745025634766
1700931847967093800,6.55409375,-0.1775360107421875,-0.014795780181884766,0.12048560380935669
1700931847984080600,6.57108056640625,0.05325889587402344,0.0021681785583496094,0.1412331759929657
1700931848001077500,6.588077392578125,0.22599411010742188,0.012488126754760742,0.14899247884750366
1700931848018068700,6.60506884765625,0.22584247589111328,-0.004680633544921875,0.13984155654907227
1700931848035063000,6.62206298828125,0.16706275939941406,-0.028069257736206055,0.13995307683944702
1700931848052055000,6.639054931640625,0.10142230987548828,-0.04477572441101074,0.1628803014755249
1700931848069049300,6.65604931640625,0.030239105224609375,-0.042531490325927734,0.17190897464752197
1700931848086040800,6.673040771484375,-0.02680683135986328,-0.0362396240234375,0.1563238501548767
1700931848103035100,6.69003515625,-0.052384376525878906,-0.024514198303222656,0.147142231464386
1700931848120027000,6.70702685546875,-0.03308677673339844,-0.04483842849731445,0.18198201060295105
1700931848137021400,6.724021484375,-0.028532028198242188,-0.04955005645751953,0.19301310181617737
1700931848154012700,6.7410126953125,-0.010431289672851562,-0.05847573280334473,0.20036530494689941
1700931848170994000,6.757993896484375,-0.015263557434082031,0.020789623260498047,0.08574673533439636
1700931848188001500,6.77500146484375,-0.09384441375732422,0.016359329223632812,0.09221595525741577
1700931848204993300,6.7919931640625,-0.09772872924804688,0.011060953140258789,0.07867181301116943
1700931848221984800,6.80898486328125,-0.0020856857299804688,-0.005763530731201172,0.05056196451187134
1700931848238975200,6.825975341796875,0.10068225860595703,-0.017985105514526367,0.0961904525756836
1700931848255974700,6.842974609375,0.1666431427001953,-0.010102033615112305,0.17511075735092163
1700931848272965000,6.859965087890625,0.17374610900878906,-0.03565073013305664,0.20328795909881592
1700931848289956600,6.87695654296875,0.13958168029785156,-0.03251838684082031,0.19953292608261108
1700931848306951000,6.893950927734375,0.15024566650390625,-0.03957939147949219,0.20815277099609375
1700931848323943000,6.91094287109375,0.10640621185302734,-0.03045058250427246,0.15210527181625366
1700931848340934700,6.9279345703125,0.03153800964355469,-0.013497114181518555,0.17865478992462158
1700931848357929000,6.944928955078125,-0.018218994140625,-0.017438173294067383,0.2003174126148224
1700931848374925000,6.961925048828125,-0.048431396484375,-0.009431600570678711,0.15330076217651367
1700931848391914800,6.978914794921875,-0.07844734191894531,0.00781702995300293,0.11821991205215454
1700931848408908800,6.99590869140625,-0.07883548736572266,-0.01817035675048828,0.14665216207504272
1700931848425900500,7.012900634765625,-0.04185295104980469,-0.021342992782592773,0.16330784559249878
1700931848442894800,7.029894775390625,0.0352783203125,-0.015662670135498047,0.15386906266212463
1700931848459886600,7.046886474609375,0.02186298370361328,-0.013786792755126953,0.11029484868049622
1700931848476881000,7.063880859375,-0.0486297607421875,-0.020643234252929688,0.12373843789100647
1700931848493872600,7.08087255859375,-0.09273052215576172,-0.014280080795288086,0.16172897815704346
1700931848510863400,7.09786328125,-0.06560516357421875,-0.03210186958312988,0.12260830402374268
1700931848527862000,7.114862060546875,0.014712333679199219,-0.0507655143737793,0.0724552571773529
1700931848544853000,7.13185302734375,-0.00024509429931640625,-0.05886673927307129,0.11844411492347717
1700931848561833700,7.148833740234375,-0.03838634490966797,-0.04622364044189453,0.17402398586273193
1700931848578827800,7.165827880859375,-0.06491565704345703,-0.01902294158935547,0.1398569643497467
1700931848595830800,7.182830810546875,-0.0074005126953125,-0.01861739158630371,0.11062172055244446
1700931848612824800,7.199824951171875,0.04216194152832031,-0.002111196517944336,0.10700741410255432
1700931848629816300,7.21681640625,0.08768367767333984,0.0015926361083984375,0.13201317191123962
1700931848646810600,7.233810546875,0.1161336898803711,-0.007930278778076172,0.12946507334709167
1700931848663802400,7.25080224609375,0.1430807113647461,-0.009362220764160156,0.1499691605567932
1700931848680796700,7.267796630859375,0.12475872039794922,-0.009697198867797852,0.21132390201091766
1700931848697780000,7.284780029296875,0.0288238525390625,-0.02904820442199707,0.24717843532562256
1700931848714782700,7.30178271484375,-0.030027389526367188,-0.048442840576171875,0.26395362615585327
1700931848731774500,7.3187744140625,0.09236526489257812,-0.03187870979309082,0.27736058831214905
1700931848748768800,7.335768798828125,0.17728900909423828,-0.025114774703979492,0.17902767658233643
1700931848765750000,7.35275,0.06489086151123047,-0.04178881645202637,0.1213580071926117
1700931848782754600,7.369754638671875,-0.09311580657958984,-0.0590510368347168,0.14703547954559326
1700931848799729000,7.38672900390625,-0.19417190551757812,-0.07228326797485352,0.15539833903312683
1700931848816740600,7.40374072265625,-0.1902332305908203,-0.09573769569396973,0.1574476957321167
1700931848833732000,7.420732177734375,-0.1439504623413086,-0.10299348831176758,0.13033893704414368
1700931848850726400,7.437726318359375,-0.12611103057861328,-0.09393835067749023,0.12369769811630249
1700931848867718100,7.45471826171875,-0.10700416564941406,-0.08418869972229004,0.12186408042907715
1700931848884712400,7.47171240234375,-0.06840896606445312,-0.08362722396850586,0.18177193403244019
1700931848901704200,7.4887041015625,0.013466835021972656,-0.07209539413452148,0.19296735525131226
1700931848918698200,7.5056982421875,0.06432247161865234,-0.0584254264831543,0.1675424873828888
1700931848935690500,7.5226904296875,0.08178138732910156,-0.033530473709106445,0.14763480424880981
1700931848952684500,7.5396845703125,0.08376407623291016,-0.020646095275878906,0.1575157642364502
1700931848969675800,7.55667578125,0.10254096984863281,-0.012140989303588867,0.15333062410354614
1700931848986670000,7.573670166015625,0.14133167266845703,-0.019551992416381836,0.14591336250305176
1700931849003662300,7.590662353515625,0.10398197174072266,-0.0018031597137451172,0.11589160561561584
1700931849020655900,7.60765576171875,-0.04125690460205078,-0.026871442794799805,0.1226658821105957
1700931849037648100,7.624648193359375,-0.1069326400756836,-0.033629655838012695,0.1674109697341919
1700931849054642000,7.641641845703125,-0.063201904296875,-0.037930965423583984,0.16966032981872559
1700931849071634000,7.658634033203125,-0.1054220199584961,-0.06449317932128906,0.12021243572235107
1700931849088618000,7.675617919921875,-0.2095651626586914,-0.08493709564208984,0.11947652697563171
1700931849105620000,7.692619873046875,-0.22527122497558594,-0.07251977920532227,0.15531909465789795
1700931849122614000,7.709614013671875,-0.04305744171142578,-0.05252265930175781,0.14344274997711182
1700931849139606000,7.72660595703125,0.0923471450805664,0.0008120536804199219,0.10043126344680786
1700931849156583700,7.743583740234375,0.12358474731445312,0.012140750885009766,0.08976033329963684
1700931849173583000,7.7605830078125,0.058135032653808594,0.017586231231689453,0.07810086011886597
1700931849190586000,7.777586181640625,0.07863903045654297,0.01425313949584961,0.08805298805236816
1700931849207577900,7.794577880859375,0.07782745361328125,0.03500080108642578,0.11022904515266418
1700931849224572200,7.811572265625,0.0175933837890625,0.03873419761657715,0.13672810792922974
1700931849241563600,7.828563720703125,-0.08442115783691406,0.03139805793762207,0.14438816905021667
1700931849258548500,7.845548583984375,-0.1662149429321289,-0.005044221878051758,0.1395924985408783
1700931849275550000,7.862550048828125,-0.16220664978027344,-0.014214038848876953,0.10981336236000061
1700931849292544000,7.8795439453125,-0.0891580581665039,-0.012328147888183594,0.11691966652870178
1700931849309535500,7.896535400390625,0.05962562561035156,0.00238800048828125,0.14892113208770752
1700931849326540300,7.913540283203125,0.25298404693603516,0.01375269889831543,0.15119081735610962
1700931849343521800,7.930521728515625,0.3499298095703125,-0.0038352012634277344,0.1058986485004425
1700931849360516000,7.94751611328125,0.2838611602783203,-0.03067183494567871,0.1045193076133728
1700931849377507600,7.964507568359375,0.14093399047851562,-0.04471611976623535,0.12826550006866455
1700931849394502000,7.981501953125,-0.0155181884765625,-0.03354048728942871,0.17715370655059814
1700931849411493600,7.99849365234375,-0.09130573272705078,-0.009986162185668945,0.1915074586868286
1700931849428488000,8.015488037109375,-0.08556938171386719,-0.004781007766723633,0.1535382866859436
1700931849445479400,8.0324794921875,-0.004048347473144531,-0.018450498580932617,0.10570594668388367
1700931849462474500,8.049474609375,0.09547138214111328,-0.0053102970123291016,0.1174297034740448
1700931849479452000,8.066451904296875,0.06013298034667969,0.007207632064819336,0.15636971592903137
1700931849496460000,8.0834599609375,0.007825851440429688,-0.012199878692626953,0.12713727355003357
1700931849513451300,8.100451171875,-0.04671764373779297,-0.021435976028442383,0.13112348318099976
1700931849530445600,8.117445556640625,-0.039180755615234375,-0.0058405399322509766,0.13093605637550354
1700931849547437600,8.1344375,-0.024422645568847656,0.007862567901611328,0.14981690049171448
1700931849564432000,8.151431884765625,0.02323150634765625,-0.004514455795288086,0.15108534693717957
1700931849581423000,8.168423095703124,0.110992431640625,-0.01357269287109375,0.14231151342391968
1700931849598429000,8.185428955078125,0.18932247161865234,-0.014269828796386719,0.15312239527702332
1700931849615409700,8.20240966796875,0.1767578125,-0.006612062454223633,0.1546541452407837
1700931849632403700,8.21940380859375,0.04927253723144531,-0.0072476863861083984,0.148434579372406
1700931849649395200,8.236395263671875,-0.07936859130859375,-0.014271736145019531,0.1461617350578308
1700931849666389500,8.253389404296875,-0.12525653839111328,-0.006757497787475586,0.1492612659931183
1700931849683381200,8.27038134765625,-0.12489604949951172,-0.009725093841552734,0.14045828580856323
1700931849700375800,8.287375732421875,-0.054729461669921875,-0.028409719467163086,0.1189936101436615
1700931849717357000,8.304357177734374,0.05920600891113281,-0.045972347259521484,0.12850815057754517
1700931849734361300,8.321361328125,0.11640548706054688,-0.02760004997253418,0.16211038827896118
1700931849751352000,8.33835205078125,0.05862998962402344,-0.03557109832763672,0.16797062754631042
1700931849768349000,8.355348876953125,-0.03790473937988281,-0.03625631332397461,0.1727430820465088
1700931849785339000,8.3723388671875,-0.09819316864013672,-0.04390287399291992,0.1753343939781189
1700931849802332400,8.38933251953125,-0.05874061584472656,-0.027027606964111328,0.14567801356315613
1700931849819326200,8.406326171875,0.040038108825683594,-0.014534711837768555,0.09997308254241943
1700931849836319500,8.423319580078125,0.1201639175415039,-0.015753746032714844,0.11136054992675781
1700931849853310700,8.440310791015625,0.07750225067138672,-0.025301218032836914,0.16794469952583313
1700931849870305300,8.45730517578125,-0.016821861267089844,-0.009667634963989258,0.18059220910072327
1700931849887297000,8.474297119140624,-0.06926822662353516,-0.0186312198638916,0.15429747104644775
1700931849904291300,8.491291259765624,-0.053414344787597656,0.00032138824462890625,0.14707550406455994
1700931849921282800,8.50828271484375,-0.055520057678222656,-0.03226518630981445,0.11087954044342041
1700931849938266600,8.5252666015625,-0.029311180114746094,-0.04125094413757324,0.05768212676048279
1700931849955269000,8.54226904296875,-0.04617786407470703,-0.026738882064819336,0.04651704430580139
1700931849972263400,8.559263427734376,-0.050617218017578125,-0.016811132431030273,0.0791255533695221
1700931849989254700,8.576254638671875,-0.025522232055664062,0.02240443229675293,0.10149139165878296
1700931850006249200,8.593249267578125,-0.0026502609252929688,0.026876449584960938,0.0809793472290039
1700931850023241000,8.610240966796875,0.011896133422851562,0.016422748565673828,0.09527048468589783
1700931850040235300,8.6272353515625,0.02893543243408203,-0.005194664001464844,0.09941941499710083
1700931850057223700,8.6442236328125,0.10538578033447266,-0.014487266540527344,0.09763497114181519
1700931850074223900,8.661223876953125,0.12031364440917969,-0.008033037185668945,0.1098996102809906
1700931850091214000,8.678214111328124,0.0812225341796875,-0.02947998046875,0.11042845249176025
1700931850108209200,8.695209228515624,-0.0120849609375,-0.0400087833404541,0.115120530128479
1700931850125195000,8.712195068359375,-0.10188007354736328,-0.05872464179992676,0.11759117245674133
1700931850142193000,8.72919287109375,-0.15726947784423828,-0.04625415802001953,0.1159270703792572
1700931850159184600,8.7461845703125,-0.12564563751220703,-0.05352210998535156,0.1317947804927826
1700931850176179200,8.76317919921875,-0.057608604431152344,-0.04154062271118164,0.12962239980697632
1700931850193170400,8.78017041015625,0.03325080871582031,-0.017759323120117188,0.12532934546470642
1700931850210164700,8.797164794921875,0.09412956237792969,-0.00263214111328125,0.14423388242721558
1700931850227157000,8.814156982421874,0.07558345794677734,0.021129608154296875,0.13131490349769592
1700931850244150800,8.83115087890625,-0.006076812744140625,0.01840662956237793,0.13177958130836487
1700931850261142300,8.848142333984375,0.0027456283569335938,0.03240394592285156,0.1222200095653534
1700931850278136800,8.86513671875,0.10703849792480469,0.044792890548706055,0.12166374921798706
1700931850295128600,8.882128662109375,0.20679283142089844,0.052399635314941406,0.12889286875724792
1700931850312122600,8.89912255859375,0.20601844787597656,0.0428624153137207,0.1445769965648651
1700931850329114400,8.9161142578125,0.1155538558959961,0.03241324424743652,0.13152116537094116
1700931850346108400,8.9331083984375,0.00446319580078125,0.029778480529785156,0.1266266107559204
1700931850363100400,8.950100341796874,-0.09581565856933594,0.008127212524414062,0.10576316714286804
1700931850380094700,8.9670947265625,-0.06902408599853516,-0.018965721130371094,0.1017007827758789
1700931850397086500,8.98408642578125,0.044655799865722656,-0.024681806564331055,0.12254559993743896
1700931850414080500,9.00108056640625,0.1564626693725586,-0.02676844596862793,0.11273691058158875
1700931850431072500,9.018072509765625,0.10235786437988281,-0.029696226119995117,0.13804152607917786
1700931850448070100,9.035070068359374,-0.1103811264038086,-0.03825020790100098,0.16919606924057007
1700931850465054700,9.0520546875,-0.28855228424072266,-0.03739452362060547,0.17224740982055664
1700931850482052600,9.069052490234375,-0.22806739807128906,-0.017045259475708008,0.14676237106323242
1700931850499044400,9.08604443359375,0.020877838134765625,0.005897998809814453,0.1429978758096695
1700931850516038700,9.10303857421875,0.23358726501464844,0.020260095596313477,0.14000508189201355
1700931850533030100,9.120030029296874,0.2045450210571289,-0.001583099365234375,0.14257025718688965
1700931850550025500,9.137025390625,0.02100849151611328,0.04345870018005371,0.16433900594711304
1700931850567011600,9.154011474609375,-0.08914852142333984,-0.010212898254394531,0.2102769911289215
1700931850584013800,9.171013916015625,-0.05727386474609375,-0.03434944152832031,0.14345437288284302
1700931850601002200,9.188002197265625,-0.08740043640136719,-0.06687235832214355,0.10054546594619751
1700931850617996000,9.20499609375,-0.10821914672851562,-0.08976340293884277,0.11907833814620972
1700931850634988300,9.22198828125,-0.0453033447265625,-0.05633234977722168,0.12016808986663818
1700931850651982300,9.238982421875,-0.013863563537597656,-0.03079700469970703,0.10124188661575317
1700931850668973800,9.255973876953124,0.006194114685058594,-0.01793503761291504,0.09684142470359802
1700931850685968400,9.272968505859374,0.028656959533691406,-0.036722421646118164,0.11061114072799683
1700931850702960000,9.289960205078126,0.06105804443359375,-0.05198049545288086,0.07456189393997192
1700931850719954200,9.3069541015625,0.011721611022949219,-0.06161928176879883,0.06593850255012512
1700931850736946000,9.32394580078125,-0.052132606506347656,-0.04197573661804199,0.07467904686927795
1700931850753937400,9.3409375,0.013916969299316406,-0.009356260299682617,0.09227228164672852
1700931850770934500,9.3579345703125,0.11408233642578125,0.02303457260131836,0.10302257537841797
1700931850787926300,9.37492626953125,0.075836181640625,0.020685911178588867,0.1297181248664856
1700931850804917500,9.39191748046875,0.030539512634277344,-0.012954950332641602,0.1404157280921936
1700931850821912000,9.408912109375,0.03703117370605469,-0.021433353424072266,0.14044710993766785
1700931850838901500,9.425901611328126,0.061278343200683594,-0.008825302124023438,0.12013047933578491
1700931850855900400,9.442900390625,0.037235260009765625,0.019167184829711914,0.10247674584388733
1700931850872889600,9.4598896484375,-0.03350830078125,0.024618864059448242,0.12191000580787659
1700931850889884000,9.4768837890625,-0.03588294982910156,0.0023756027221679688,0.14837273955345154
1700931850906875600,9.493875732421875,0.031011581420898438,-0.009127140045166016,0.13490042090415955
1700931850923870000,9.510869873046875,0.13886070251464844,-0.047307491302490234,0.10604438185691833
1700931850940861400,9.527861328125,0.15026473999023438,-0.0487668514251709,0.09679725766181946
1700931850957842400,9.544842529296876,0.07691764831542969,-0.03906989097595215,0.11191436648368835
1700931850974847500,9.561847412109374,-0.0011377334594726562,-0.01655411720275879,0.10195997357368469
1700931850991837200,9.578837158203125,-0.062335968017578125,-0.008542299270629883,0.09603023529052734
1700931851008833300,9.595833251953126,-0.06682300567626953,-0.010101556777954102,0.11593475937843323
1700931851025827600,9.61282763671875,0.00078582763671875,-0.0037491321563720703,0.12396621704101562
1700931851042819600,9.629819580078125,0.1027517318725586,-0.01793670654296875,0.10571688413619995
1700931851059814000,9.64681396484375,0.255523681640625,-0.028493881225585938,0.09610036015510559
1700931851076792000,9.6637919921875,0.36725425720214844,-0.005825996398925781,0.13284063339233398
1700931851093799700,9.680799560546875,0.3338165283203125,0.002261638641357422,0.13348957896232605
1700931851110794000,9.6977939453125,0.061394691467285156,-0.01816105842590332,0.12737834453582764
1700931851127785700,9.71478564453125,-0.23297977447509766,-0.049649715423583984,0.12190437316894531
1700931851144777200,9.731777099609374,-0.29335594177246094,-0.038179874420166016,0.11641335487365723
1700931851161771500,9.748771484375,-0.1162567138671875,-0.02933979034423828,0.08997204899787903
1700931851178763500,9.765763427734376,0.12156295776367188,-0.044493675231933594,0.07255703210830688
1700931851195755000,9.782755126953125,0.1866168975830078,-0.08974003791809082,0.06493839621543884
1700931851212751600,9.799751708984376,0.02272796630859375,-0.1014699935913086,0.0767025351524353
1700931851229743400,9.816743408203125,-0.1482830047607422,-0.08992266654968262,0.13345545530319214
1700931851246735400,9.8337353515625,-0.21698284149169922,-0.05591845512390137,0.1540820151567459
1700931851263730700,9.850730712890625,-0.20308685302734375,-0.02810215950012207,0.12945279479026794
1700931851280719600,9.8677197265625,-0.14580154418945312,-0.03368258476257324,0.07501411437988281
1700931851297705000,9.884705078125,-0.047499656677246094,-0.05736494064331055,0.03776347637176514
1700931851314707200,9.901707275390624,0.00061798095703125,-0.029269695281982422,0.047303229570388794
1700931851331701500,9.918701416015624,-0.02151775360107422,-0.013201713562011719,0.04092550277709961
1700931851348692700,9.935692626953125,-0.023481369018554688,0.016689062118530273,0.0777309238910675
1700931851365687600,9.9526875,0.04393291473388672,0.01762986183166504,0.09934058785438538
1700931851382679000,9.969678955078125,0.12250232696533203,0.002556324005126953,0.09608630836009979
1700931851399665400,9.98666552734375,0.16792964935302734,-0.023432493209838867,0.14129239320755005
1700931851416664800,10.003664794921875,0.1404104232788086,-0.06401705741882324,0.18692922592163086
1700931851433659100,10.0206591796875,0.01610851287841797,-0.08513092994689941,0.17821228504180908
1700931851450651100,10.037651123046874,-0.11945056915283203,-0.07169961929321289,0.12200665473937988
1700931851467645200,10.054645263671874,-0.1595010757446289,-0.06374239921569824,0.10901367664337158
1700931851484626400,10.07162646484375,-0.05920600891113281,-0.04927325248718262,0.13289183378219604
1700931851501631200,10.08863134765625,0.04555988311767578,-0.05090785026550293,0.16006910800933838
1700931851518623000,10.105623046875,0.07753181457519531,-0.047597646713256836,0.15614178776741028
1700931851535617300,10.1226171875,0.040427207946777344,-0.03191328048706055,0.12372250854969025
1700931851552609800,10.13960986328125,0.03942584991455078,-0.0072515010833740234,0.11325615644454956
1700931851569601800,10.156601806640625,0.05127239227294922,0.031129121780395508,0.060317158699035645
1700931851586594800,10.1735947265625,0.07895469665527344,0.04992508888244629,0.06770843267440796
1700931851603586600,10.190586669921874,0.0774993896484375,0.04254484176635742,0.07143494486808777
1700931851620583000,10.2075830078125,0.04742717742919922,0.00959920883178711,0.06462334096431732
1700931851637575000,10.224574951171874,0.013269424438476562,-0.010137319564819336,0.08285710215568542
1700931851654566700,10.241566650390626,0.06584644317626953,-0.002092123031616211,0.08440437912940979
1700931851671561000,10.25856103515625,0.0732717514038086,0.03287935256958008,0.034160077571868896
1700931851688543700,10.275543701171875,0.08452510833740234,0.08113384246826172,-0.0067095160484313965
1700931851705546800,10.292546630859375,0.11079788208007812,0.09295034408569336,0.016069620847702026
1700931851722538500,10.30953857421875,0.11826610565185547,0.03288388252258301,0.09051051735877991
1700931851739532800,10.32653271484375,0.13352489471435547,-0.028749465942382812,0.135359525680542
1700931851756524500,10.343524658203124,0.12314510345458984,-0.09587693214416504,0.15739895403385162
1700931851773518600,10.3605185546875,0.09173965454101562,-0.14348363876342773,0.17152893543243408
1700931851790510300,10.37751025390625,-0.03472900390625,-0.1392662525177002,0.18705080449581146
1700931851807504000,10.39450390625,-0.20431041717529297,-0.10771608352661133,0.17466571927070618
1700931851824497200,10.4114970703125,-0.32593345642089844,-0.08666062355041504,0.1767260581254959
1700931851841490400,10.428490478515625,-0.3048419952392578,-0.09469103813171387,0.15133076906204224
1700931851858482700,10.445482666015625,0.03908252716064453,-0.09868884086608887,0.0890866219997406
1700931851875476500,10.4624765625,0.06691551208496094,-0.10205864906311035,0.06266224384307861
1700931851892465400,10.47946533203125,-0.002716064453125,-0.13059759140014648,0.11528563499450684
1700931851909464800,10.49646484375,-0.02221393585205078,-0.0988001823425293,0.12157934904098511
1700931851926454300,10.513454345703124,-0.143157958984375,-0.07001185417175293,0.0886748731136322
1700931851943448600,10.530448486328124,-0.3246498107910156,-0.0432889461517334,0.13540543615818024
1700931851960440000,10.547440185546876,-0.3544321060180664,-0.026105165481567383,0.1362294852733612
1700931851977434400,10.564434326171876,-0.2552947998046875,-0.018927335739135742,0.06876048445701599
1700931851994423600,10.581423583984375,-0.06743812561035156,-0.010510921478271484,0.024284780025482178
1700931852011423000,10.598423095703126,0.09995746612548828,-0.00623011589050293,0.06778669357299805
1700931852028412000,10.615411865234375,0.12614154815673828,0.022341489791870117,0.09132322669029236
1700931852045406500,10.632406494140625,0.06401920318603516,0.03265857696533203,0.11455905437469482
1700931852062398200,10.649398193359374,0.08859920501708984,0.04141402244567871,0.12682494521141052
1700931852079392300,10.666392333984374,0.23357486724853516,0.04292488098144531,0.1505686193704605
1700931852096388400,10.683388427734375,0.31252193450927734,0.009992837905883789,0.15829746425151825
1700931852113378300,10.70037841796875,0.2789773941040039,-0.011199235916137695,0.1514173299074173
1700931852130370000,10.7173701171875,0.15958499908447266,-0.01981186866760254,0.13856014609336853
1700931852147364000,10.734364013671875,0.045734405517578125,-0.00852060317993164,0.1450943797826767
1700931852164353800,10.751353759765625,0.019664764404296875,0.0246884822845459,0.11000482738018036
1700931852181350100,10.76835009765625,0.021737098693847656,0.03137373924255371,0.07656106352806091
1700931852198331400,10.785331298828124,0.02984333038330078,0.0032815933227539062,0.07194693386554718
1700931852215336200,10.802336181640625,-0.007111549377441406,-0.011886835098266602,0.0593339204788208
1700931852232327400,10.819327392578124,-0.07596015930175781,-0.03701305389404297,0.034812167286872864
1700931852249319000,10.83631884765625,-0.11635971069335938,-0.04102730751037598,0.03906521201133728
1700931852266315300,10.853315185546874,-0.13860702514648438,-0.04824638366699219,0.05599367618560791
1700931852283306500,10.870306396484375,-0.09036922454833984,-0.05220341682434082,0.059269994497299194
1700931852300302600,10.887302490234376,-0.03054332733154297,-0.035437822341918945,0.025484010577201843
1700931852317293600,10.90429345703125,0.061522483825683594,-0.04130148887634277,0.02475982904434204
1700931852334287600,10.92128759765625,0.12123489379882812,-0.04441571235656738,0.03023281693458557
1700931852351278000,10.938278076171875,0.08356189727783203,-0.04375767707824707,0.026779145002365112
1700931852368275500,10.955275390625,-0.046935081481933594,-0.03721880912780762,0.02075280249118805
1700931852385265700,10.972265625,-0.1454029083251953,-0.013756752014160156,0.011440113186836243
1700931852402255000,10.989255126953125,-0.16552162170410156,0.010139226913452148,0.06322483718395233
1700931852419254500,11.006254638671875,-0.10642814636230469,0.04042339324951172,0.11119790375232697
1700931852436243200,11.0232431640625,-0.024869918823242188,0.04345107078552246,0.1286991834640503
1700931852453237500,11.040237548828125,0.05195426940917969,0.010040521621704102,0.10169395059347153
1700931852470229500,11.0572294921875,0.14446258544921875,0.03605532646179199,0.0869440883398056
1700931852487223800,11.074223876953125,0.20867633819580078,0.08887863159179688,0.1258554458618164
1700931852504213500,11.091213623046874,0.13712406158447266,0.11383414268493652,0.14751628041267395
1700931852521211100,11.108211181640625,0.05388927459716797,0.11417794227600098,0.11032655835151672
1700931852538201300,11.125201416015624,0.04679107666015625,0.09445428848266602,0.11235180497169495
1700931852555195600,11.142195556640624,0.11885833740234375,0.08098077774047852,0.14615032076835632
1700931852572187100,11.159187255859376,0.1987142562866211,0.07373261451721191,0.13845303654670715
1700931852589181400,11.176181396484376,0.26786231994628906,0.07414817810058594,0.11854441463947296
1700931852606173200,11.193173095703125,0.25363636016845703,0.06538748741149902,0.11998680233955383
1700931852623167500,11.21016748046875,0.1908092498779297,0.045881032943725586,0.10167670994997025
1700931852640148500,11.2271484375,0.0759744644165039,0.024778127670288086,0.05261582136154175
1700931852657153300,11.2441533203125,-0.07152843475341797,-0.002621173858642578,0.10659311711788177
1700931852674145300,11.261145263671875,-0.07063961029052734,-0.051534175872802734,0.1629924774169922
1700931852691139300,11.278139404296875,-0.02738475799560547,-0.08270907402038574,0.15408723056316376
1700931852708130800,11.295130859375,0.06771183013916016,-0.08943533897399902,0.1166776567697525
1700931852725125000,11.312125,0.13241291046142578,-0.05402112007141113,0.08412249386310577
1700931852742117000,11.3291171875,0.09657955169677734,0.03502941131591797,0.06305304169654846
1700931852759111400,11.346111328125,-0.1330099105834961,0.04830288887023926,0.14442694187164307
1700931852776103000,11.36310302734375,-0.2566080093383789,0.11969566345214844,0.1045268177986145
1700931852793094400,11.380094482421875,-0.10377788543701172,0.015392303466796875,0.08083297312259674
1700931852810091500,11.397091552734375,0.017583847045898438,-0.03201413154602051,0.11150319129228592
1700931852827083300,11.414083251953125,0.11999130249023438,-0.12068319320678711,0.1040617972612381
1700931852844074500,11.431074462890624,0.2168407440185547,-0.09567427635192871,0.11230172216892242
1700931852861069000,11.448069091796874,0.17275524139404297,-0.004563808441162109,0.157011941075325
1700931852878060800,11.465060791015626,0.019207000732421875,0.006029367446899414,0.17663703858852386
1700931852895055000,11.48205517578125,-0.16583633422851562,-0.042250633239746094,0.13079245388507843
1700931852912046300,11.49904638671875,-0.20700931549072266,-0.12156105041503906,0.09517377614974976
1700931852929038600,11.51603857421875,-0.03032398223876953,-0.1448667049407959,0.13170501589775085
1700931852946032600,11.53303271484375,0.1454305648803711,-0.13950443267822266,0.18881092965602875
1700931852963027000,11.55002685546875,0.12134456634521484,-0.19330549240112305,0.1573389321565628
1700931852980018400,11.567018310546874,-0.05423259735107422,-0.18849515914916992,0.1508886218070984
1700931852997015800,11.584015869140625,-0.31710052490234375,-0.17994093894958496,0.16181562840938568
1700931853014002000,11.601001953125,-0.5200443267822266,-0.14565467834472656,0.12176034599542618
1700931853031001300,11.61800146484375,-0.5660543441772461,-0.1049795150756836,0.13807231187820435
1700931853047990300,11.634990234375,-0.3698539733886719,-0.030366182327270508,0.13312731683254242
1700931853064982000,11.65198193359375,-0.045783042907714844,0.019109010696411133,0.12881863117218018
1700931853081979100,11.668979248046876,0.21129131317138672,0.051389455795288086,0.07709065824747086
1700931853098971000,11.685970947265625,0.32099151611328125,0.04384756088256836,0.08385831117630005
1700931853115962000,11.702962158203125,0.30604076385498047,0.050072669982910156,0.0993637964129448
1700931853132956400,11.719956298828125,0.2787055969238281,0.04480791091918945,0.09183759987354279
1700931853149948400,11.736948486328124,0.18288326263427734,0.05776381492614746,0.12188418954610825
1700931853166932500,11.753932373046876,0.16562366485595703,0.010480880737304688,0.1400137096643448
1700931853183933700,11.77093359375,0.2587003707885742,-0.0015573501586914062,0.20389965176582336
1700931853200927700,11.787927734375,0.2950172424316406,-0.05283403396606445,0.26831430196762085
1700931853217921000,11.804921142578126,0.20893478393554688,-0.03583836555480957,0.251181036233902
1700931853234914600,11.82191455078125,0.037924766540527344,-0.014390945434570312,0.27713102102279663
1700931853251906300,11.83890625,0.012246131896972656,-0.0319061279296875,0.274385929107666
1700931853268898000,11.85589794921875,0.017599105834960938,-0.0814352035522461,0.2613745927810669
1700931853285894700,11.872894775390625,-0.12999534606933594,-0.10838031768798828,0.17415109276771545
1700931853302886400,11.889886474609375,-0.2180795669555664,-0.09842801094055176,0.13317367434501648
1700931853319878000,11.9068779296875,-0.2731647491455078,-0.11421394348144531,0.16537487506866455
1700931853336872200,11.9238720703125,-0.14333248138427734,-0.05938863754272461,0.13216260075569153
1700931853353864000,11.940864013671876,0.012224197387695312,-0.021251678466796875,0.08598671853542328
1700931853370858200,11.957858154296876,0.08534431457519531,-0.0853266716003418,0.09145056456327438
1700931853387849500,11.974849365234375,0.1257791519165039,-0.13564682006835938,0.10269773006439209
1700931853404836000,11.991836181640625,0.1898946762084961,-0.09305834770202637,0.1237376481294632
1700931853421831700,12.008831787109376,0.17686939239501953,-0.10447454452514648,0.1504577398300171
1700931853438830000,12.025830078125,0.0734701156616211,-0.14786767959594727,0.07428590208292007
1700931853455821600,12.042821533203124,-0.11035823822021484,-0.17953252792358398,0.030251413583755493
1700931853472815900,12.05981591796875,-0.3450746536254883,-0.15169477462768555,0.08205702900886536
1700931853489809400,12.076809326171874,-0.37969303131103516,-0.1683671474456787,0.11279764771461487
1700931853506802000,12.093802001953126,-0.18266582489013672,-0.1579747200012207,0.12287133187055588
1700931853523793400,12.11079345703125,0.05824565887451172,-0.12095355987548828,0.14974136650562286
1700931853540788000,12.1277880859375,0.11556339263916016,-0.03391146659851074,0.18748612701892853
1700931853557779500,12.144779541015625,0.12914466857910156,-0.029980897903442383,0.23994940519332886
1700931853574773800,12.161773681640625,0.1348876953125,-0.035297393798828125,0.22689029574394226
1700931853591765500,12.178765625,0.16438770294189453,-0.07362771034240723,0.12758523225784302
1700931853608759600,12.195759521484375,0.1432056427001953,-0.10173511505126953,0.13329343497753143
1700931853625751600,12.21275146484375,0.13701438903808594,-0.0784602165222168,0.17707404494285583
1700931853642736400,12.229736328125,0.13665771484375,-0.06572294235229492,0.21164917945861816
1700931853659737000,12.246737060546875,0.11064624786376953,-0.036160945892333984,0.16996654868125916
1700931853676721000,12.263720947265625,0.0805654525756836,-0.0037043094635009766,0.07395248860120773
1700931853693723600,12.2807236328125,-0.03437042236328125,0.031378984451293945,0.06992999464273453
1700931853710717700,12.2977177734375,-0.15141868591308594,0.024039030075073242,0.04871766269207001
1700931853727709200,12.314709228515625,-0.15680217742919922,-0.012893915176391602,0.055207908153533936
1700931853744703200,12.331703125,-0.015260696411132812,-0.030553817749023438,0.07353423535823822
1700931853761695200,12.3486953125,0.030264854431152344,-0.054673194885253906,0.10377171635627747
1700931853778689500,12.365689453125,0.03539466857910156,-0.05480647087097168,0.15505778789520264
1700931853795690500,12.3826904296875,-0.017459869384765625,-0.047644615173339844,0.15502844750881195
1700931853812675300,12.39967529296875,-0.049083709716796875,-0.05872702598571777,0.15146231651306152
1700931853829665800,12.416665771484375,-0.09532737731933594,-0.07645487785339355,0.14749591052532196
1700931853846662700,12.43366259765625,-0.0844259262084961,-0.06631326675415039,0.1331883817911148
1700931853863652900,12.45065283203125,-0.038460731506347656,-0.027194499969482422,0.11589034646749496
1700931853880647200,12.467647216796875,-0.0017995834350585938,-0.023979663848876953,0.06728993356227875
1700931853897639000,12.484638916015625,0.03363323211669922,0.028429269790649414,0.016480058431625366
1700931853914633200,12.50163330078125,-0.13943099975585938,0.07224798202514648,-0.04520304501056671
1700931853931620000,12.5186201171875,-0.37748146057128906,0.037975311279296875,-0.005244195461273193
1700931853948623600,12.53562353515625,-0.4254169464111328,0.015452861785888672,-0.007130876183509827
1700931853965610800,12.55261083984375,-0.13068008422851562,-0.019808053970336914,-0.007721275091171265
1700931853982605000,12.56960498046875,0.17202091217041016,-0.03402376174926758,0.056149039417505264
1700931853999596800,12.5865966796875,0.4026832580566406,-0.016423702239990234,0.07475945353507996
1700931854016590800,12.6035908203125,0.40402793884277344,0.03425168991088867,0.05849801003932953
1700931854033574400,12.620574462890625,0.14283466339111328,-0.005616426467895508,0.13524767756462097
1700931854050577200,12.6375771484375,-0.12152862548828125,-0.01837301254272461,0.19328996539115906
1700931854067570000,12.65456982421875,-0.25891971588134766,-0.029598236083984375,0.20413795113563538
1700931854084561400,12.6715615234375,-0.23683547973632812,-0.0714578628540039,0.20513300597667694
1700931854101555000,12.688554931640626,-0.08498191833496094,-0.054985761642456055,0.1858149766921997
1700931854118549000,12.705549072265624,0.028463363647460938,-0.046685218811035156,0.23828092217445374
1700931854135540200,12.722540283203125,0.07290267944335938,0.015972375869750977,0.20037174224853516
1700931854152534500,12.739534423828125,0.13700199127197266,0.08272075653076172,0.12548406422138214
1700931854169526500,12.756526611328125,0.09341621398925781,0.08223772048950195,0.10328924655914307
1700931854186510300,12.77351025390625,-0.0021448135375976562,0.051126956939697266,0.12055175006389618
1700931854203512000,12.790511962890625,-0.036963462829589844,-0.0025730133056640625,0.12304335087537766
1700931854220506600,12.807506591796875,-0.0042972564697265625,-0.0008251667022705078,0.11095809936523438
1700931854237498400,12.824498291015624,0.07181739807128906,-0.017499208450317383,0.06328368932008743
1700931854254480100,12.841480224609375,0.15558338165283203,-0.0026159286499023438,-0.036250367760658264
1700931854271476200,12.858476318359376,0.05956840515136719,0.013941287994384766,-0.10428794473409653
1700931854288480500,12.87548046875,-0.09309768676757812,0.008218050003051758,-0.07932664453983307
1700931854305470200,12.89247021484375,-0.247833251953125,0.0010654926300048828,-0.036366432905197144
1700931854322464500,12.909464599609375,-0.15532779693603516,-0.051285505294799805,-0.04950536787509918
1700931854339445800,12.92644580078125,0.07066917419433594,-0.06942915916442871,-0.0037273094058036804
1700931854356450300,12.9434501953125,0.2693061828613281,-0.08021783828735352,0.034418411552906036
1700931854373442000,12.960442138671874,0.3275127410888672,-0.06671667098999023,-0.019103435799479485
1700931854390436000,12.97743603515625,0.1081991195678711,-0.09653043746948242,0.026378285139799118
1700931854407427800,12.994427734375,-0.09360599517822266,-0.12615633010864258,0.09387608617544174
1700931854424415700,13.011415771484375,-0.27722740173339844,-0.13621902465820312,0.10304050892591476
1700931854441404000,13.02840380859375,-0.2972707748413086,-0.14811134338378906,0.024622581899166107
1700931854458408000,13.045407958984375,-0.14925861358642578,-0.15425348281860352,-0.035236507654190063
1700931854475400200,13.062400146484375,-0.047771453857421875,-0.12010002136230469,0.01764262467622757
1700931854492394200,13.079394287109375,-0.002010345458984375,-0.12312507629394531,0.04806670546531677
1700931854509383400,13.096383544921874,0.04925823211669922,-0.11700081825256348,0.00019897520542144775
1700931854526382000,13.113382080078125,-0.015224456787109375,-0.07030749320983887,-0.022275283932685852
1700931854543372000,13.1303720703125,-0.13501262664794922,-0.03596234321594238,-0.0361221581697464
1700931854560355800,13.14735595703125,-0.24382972717285156,-0.023686885833740234,-0.07591605186462402
1700931854577357600,13.164357666015626,-0.22644424438476562,-0.03560161590576172,-0.09781186282634735
1700931854594349600,13.181349609375,-0.011174201965332031,-0.048067569732666016,-0.10555746406316757
1700931854611346000,13.198345947265626,0.2981853485107422,-0.10739326477050781,-0.13764908909797668
1700931854628338000,13.215337890625,0.4405183792114258,-0.18419480323791504,-0.22867414355278015
1700931854645329700,13.23232958984375,0.3476600646972656,-0.14693903923034668,-0.2307853102684021
1700931854662324000,13.249323974609375,0.11896991729736328,-0.13260793685913086,-0.08921685814857483
1700931854679315200,13.266315185546874,-0.14542102813720703,-0.11840081214904785,-0.041497617959976196
1700931854696309800,13.283309814453125,-0.12067985534667969,-0.0972285270690918,-0.026594489812850952
1700931854713302300,13.30030224609375,0.003002166748046875,-0.12668776512145996,0.03969433903694153
1700931854730295000,13.317294921875,0.10703277587890625,-0.05274510383605957,0.11374789476394653
1700931854747287000,13.334287109375,0.2575197219848633,0.07554101943969727,0.1617809236049652
1700931854764281900,13.35128173828125,0.3126192092895508,0.17840814590454102,0.23233187198638916
1700931854781273300,13.3682734375,0.1518411636352539,0.21452116966247559,0.28019803762435913
1700931854798268000,13.385267822265625,-0.3464241027832031,0.17182159423828125,0.13026756048202515
1700931854815259100,13.402259033203125,-0.48880481719970703,0.08881855010986328,0.31226640939712524
1700931854832253400,13.41925341796875,-0.40471458435058594,0.03744649887084961,0.1670912504196167
1700931854849245200,13.4362451171875,-0.2031869888305664,0.049506425857543945,0.21864402294158936
1700931854866239700,13.45323974609375,0.17685985565185547,0.16846299171447754,0.43787455558776855
1700931854883231000,13.47023095703125,0.5050821304321289,0.2537534236907959,0.4317161440849304
1700931854900225300,13.487225341796876,0.620142936706543,0.2963540554046631,0.2853178381919861
1700931854917217000,13.504217041015625,0.542149543762207,0.3490748405456543,0.15521100163459778
1700931854934211300,13.52121142578125,0.25070953369140625,0.3195466995239258,0.05738517642021179
1700931854951202800,13.538202880859375,-0.06541919708251953,0.05799245834350586,-0.22584015130996704
1700931854968208600,13.555208740234375,-0.32550716400146484,-0.16287899017333984,-0.5881457924842834
1700931854985189000,13.572189208984375,-0.44836902618408203,-0.33792543411254883,-0.7004950642585754
1700931855002183400,13.589183349609375,-0.2960929870605469,-0.3697509765625,-0.5764739513397217
1700931855019168000,13.60616796875,-0.07019424438476562,-0.21503829956054688,-0.3935907781124115
1700931855036169000,13.6231689453125,0.19225025177001953,-0.01775217056274414,-0.19460508227348328
1700931855053160700,13.64016064453125,0.16876792907714844,0.12842702865600586,-0.11772538721561432
1700931855070155300,13.6571552734375,0.0674581527709961,0.1706833839416504,-0.04678189009428024
1700931855087146500,13.674146484375,-0.15281105041503906,0.1640157699584961,0.0313686728477478
1700931855104140800,13.691140869140625,-0.22148609161376953,0.12466287612915039,0.12877017259597778
1700931855121132800,13.7081328125,-0.11420536041259766,0.12735319137573242,0.1801486611366272
1700931855138126800,13.725126953125,0.07235908508300781,0.1039271354675293,0.16763895750045776
1700931855155118300,13.742118408203124,0.17277812957763672,0.035800933837890625,0.09649042785167694
1700931855172112600,13.759112548828124,0.1220560073852539,0.018326759338378906,-0.003241725265979767
1700931855189104400,13.7761044921875,-0.0749063491821289,0.00012540817260742188,0.020976893603801727
1700931855206097200,13.79309716796875,-0.3002500534057617,0.016185283660888672,0.004162020981311798
1700931855223092000,13.810092041015626,-0.46617794036865234,-0.012952327728271484,-0.04713856428861618
1700931855240084700,13.827084716796875,-0.43649959564208984,-0.04454231262207031,-0.04545530304312706
1700931855257076500,13.844076416015625,-0.23790454864501953,0.014783859252929688,-0.015724729746580124
1700931855274070500,13.861070556640625,-0.00019931793212890625,0.06475400924682617,-0.029614198952913284
1700931855291059700,13.878059814453126,0.17745590209960938,0.0774836540222168,-0.0530984029173851
1700931855308059100,13.89505908203125,0.3172941207885742,0.0890498161315918,-0.06327434629201889
1700931855325048300,13.91204833984375,0.35718345642089844,0.08574771881103516,-0.026734434068202972
1700931855342042600,13.929042724609374,0.16486740112304688,0.0996546745300293,0.007610011845827103
1700931855359034000,13.9460341796875,0.04310798645019531,0.07426595687866211,0.051342446357011795
1700931855376028400,13.9630283203125,0.10822010040283203,0.03353309631347656,-0.015375367365777493
1700931855393017600,13.980017578125,0.036644935607910156,-0.07930469512939453,-0.06599733233451843
1700931855410017000,13.99701708984375,-0.10062599182128906,-0.0985560417175293,-0.06763745844364166
1700931855427006000,14.014005859375,-0.26369380950927734,-0.12487077713012695,0.008944660425186157
1700931855444000000,14.031,-0.28670406341552734,-0.07290410995483398,0.04283633455634117
1700931855460992000,14.047991943359374,-0.2563819885253906,-0.07698822021484375,0.13720616698265076
1700931855477986300,14.064986328125,-0.19881725311279297,-0.06382274627685547,0.16155695915222168
1700931855494977800,14.081977783203126,-0.10630607604980469,-0.035764217376708984,0.10261721163988113
1700931855511972000,14.09897216796875,-0.010546684265136719,-0.017313480377197266,0.013362720608711243
1700931855528963800,14.1159638671875,0.07815361022949219,0.014382362365722656,-0.009375229477882385
1700931855545958100,14.132958251953125,0.24657630920410156,0.008370399475097656,-0.039982229471206665
1700931855562949600,14.14994970703125,0.3435478210449219,0.01588726043701172,-0.026616841554641724
1700931855579944000,14.16694384765625,0.2773561477661133,-0.018558025360107422,-0.0466160774230957
1700931855596929500,14.183929443359375,0.1788311004638672,-0.052524566650390625,-0.04702858626842499
1700931855613930000,14.200929931640625,0.11275577545166016,0.003368854522705078,-0.02223566174507141
1700931855630921000,14.2179208984375,0.12058639526367188,0.006733894348144531,-0.030885443091392517
1700931855647916300,14.234916259765624,0.09042644500732422,-0.018503665924072266,-0.0274382084608078
1700931855664907500,14.251907470703125,-0.01457977294921875,-0.06870555877685547,0.030187034979462624
1700931855681902000,14.268902099609376,-0.09152603149414062,-0.08731317520141602,0.16939271986484528
1700931855698882800,14.2858828125,-0.07550716400146484,-0.09730100631713867,0.1906566321849823
1700931855715887600,14.3028876953125,0.0005254745483398438,-0.07275009155273438,0.09914034605026245
1700931855732892000,14.319891845703125,0.11703968048095703,-0.10431098937988281,0.08629447221755981
1700931855749874000,14.3368740234375,0.19003963470458984,-0.18311095237731934,0.060409821569919586
1700931855766865200,14.353865234375,0.07088088989257812,-0.16484498977661133,0.08778105676174164
1700931855783859200,14.370859130859374,-0.04906463623046875,-0.1309208869934082,0.11509968340396881
1700931855800851700,14.387851806640626,0.0036287307739257812,-0.05115318298339844,0.15263298153877258
1700931855817845500,14.404845458984376,0.07095146179199219,0.035750389099121094,0.1144186407327652
1700931855834837000,14.4218369140625,0.1517333984375,0.0510096549987793,0.09181131422519684
1700931855851831300,14.438831298828125,0.1284160614013672,0.061675071716308594,0.08581717312335968
1700931855868823300,14.4558232421875,0.10117816925048828,0.034610748291015625,0.0746186226606369
1700931855885817600,14.472817626953125,-0.017579078674316406,0.025809764862060547,0.11558680236339569
1700931855902809000,14.48980908203125,-0.038878440856933594,0.02545928955078125,0.15094918012619019
1700931855919803100,14.50680322265625,-0.033538818359375,0.008730411529541016,0.14497962594032288
1700931855936795100,14.523795166015624,0.12092876434326172,-0.01579141616821289,0.1877741813659668
1700931855953789400,14.54078955078125,0.12780284881591797,0.08452272415161133,0.12847214937210083
1700931855970780700,14.55778076171875,0.09569549560546875,0.008997917175292969,0.062399305403232574
1700931855987775500,14.574775390625,0.018627166748046875,-0.031075477600097656,0.038646042346954346
1700931856004768300,14.591768310546875,-0.16176509857177734,-0.043482303619384766,0.024603985249996185
1700931856021760000,14.608760009765625,-0.2147064208984375,-0.06622743606567383,0.031209852546453476
1700931856038749400,14.62574951171875,-0.1924915313720703,-0.04043722152709961,0.0420512929558754
1700931856055747000,14.6427470703125,-0.009130477905273438,-0.06591033935546875,0.09237784147262573
1700931856072738800,14.65973876953125,0.09593391418457031,0.014552593231201172,0.022252380847930908
1700931856089733000,14.676733154296874,0.08850955963134766,0.0065288543701171875,-0.008783623576164246
1700931856106724400,14.693724365234376,-0.0305023193359375,-0.04833650588989258,-0.029664039611816406
1700931856123719000,14.710718994140626,-0.19068145751953125,-0.09238147735595703,-0.054056376218795776
1700931856140710700,14.727710693359375,-0.2510499954223633,-0.09726285934448242,-0.036844320595264435
1700931856157705000,14.744705078125,-0.18128204345703125,-0.06728076934814453,0.03718499839305878
1700931856174696200,14.7616962890625,-0.07111930847167969,-0.037992000579833984,0.009050920605659485
1700931856191690800,14.778690673828125,0.12840652465820312,-0.027919292449951172,-0.037687309086322784
1700931856208682500,14.7956826171875,0.2778892517089844,-0.026262283325195312,-0.021094277501106262
1700931856225680100,14.81268017578125,0.1537027359008789,-0.08185338973999023,-0.015514746308326721
1700931856242660900,14.829660888671874,-0.12788772583007812,-0.09698009490966797,0.015743784606456757
1700931856259651800,14.84665185546875,-0.29688358306884766,-0.07678031921386719,0.10125584155321121
1700931856276654300,14.863654296875,-0.2527494430541992,-0.02682209014892578,0.13673336803913116
1700931856293648600,14.880648681640626,-0.00150299072265625,0.019173145294189453,0.12820680439472198
1700931856310639900,14.897639892578125,0.2377023696899414,0.03988790512084961,0.10710229724645615
1700931856327634700,14.914634765625,0.31424903869628906,0.01641559600830078,0.09051984548568726
1700931856344626200,14.931626220703125,0.16210269927978516,-0.035895347595214844,0.08952799439430237
1700931856361604400,14.948604248046875,-0.11374473571777344,-0.028106689453125,0.12060434371232986
1700931856378612000,14.965612060546874,-0.28397655487060547,-0.05318784713745117,0.1388857215642929
1700931856395595800,14.982595703125,-0.24267196655273438,0.007366180419921875,0.09297569841146469
1700931856412598000,14.999597900390626,-0.03856658935546875,0.04691600799560547,0.03488437831401825
1700931856429592300,15.01659228515625,0.15404701232910156,0.07283687591552734,-0.012725219130516052
1700931856446581200,15.033581298828125,0.2664957046508789,0.015773773193359375,-0.006476506590843201
1700931856463580700,15.05058056640625,0.28583431243896484,-0.054524898529052734,0.055348820984363556
1700931856480572000,15.067572021484375,0.2657051086425781,-0.07070541381835938,0.11680353432893753
1700931856497564400,15.084564453125,0.16046142578125,-0.05855512619018555,0.12210363894701004
1700931856514555400,15.101555419921874,-0.04285717010498047,-0.0558009147644043,0.08142589032649994
1700931856531550000,15.118550048828125,-0.15298843383789062,-0.083984375,0.050859563052654266
1700931856548542000,15.1355419921875,-0.1064453125,-0.10909366607666016,0.05579044669866562
1700931856565536000,15.152535888671874,0.02391815185546875,-0.09562206268310547,0.0905417799949646
1700931856582527500,15.169527587890625,0.07501602172851562,-0.09403324127197266,0.10162870585918427
1700931856599521800,15.186521728515626,-0.09257316589355469,-0.08874654769897461,0.024916693568229675
1700931856616513500,15.203513427734375,-0.26004505157470703,-0.08774900436401367,-0.040811434388160706
1700931856633497300,15.220497314453125,-0.2686433792114258,-0.07887840270996094,-0.09898598492145538
1700931856650499300,15.237499267578125,-0.10126876831054688,-0.08416366577148438,-0.10803422331809998
1700931856667493400,15.254493408203125,0.14336681365966797,-0.09113311767578125,-0.07663726806640625
1700931856684486000,15.27148583984375,0.3652639389038086,-0.06638526916503906,0.03115597367286682
1700931856701461000,15.2884609375,0.44544219970703125,-0.040239810943603516,0.1030830591917038
1700931856718471200,15.30547119140625,0.31997108459472656,-0.04973030090332031,0.08864578604698181
1700931856735465500,15.322465576171876,0.0919179916381836,-0.08172607421875,0.03807540237903595
1700931856752457200,15.339457275390625,-0.11496353149414062,-0.08588743209838867,0.029613330960273743
1700931856769451500,15.356451416015625,-0.21713829040527344,-0.08246374130249023,0.029508568346500397
1700931856786443000,15.373443115234375,-0.2017507553100586,-0.08147239685058594,0.023636192083358765
1700931856803437300,15.390437255859375,-0.08937454223632812,-0.11508512496948242,0.03628963232040405
1700931856820429300,15.40742919921875,0.11780166625976562,-0.10968780517578125,0.05905928462743759
1700931856837423400,15.42442333984375,0.17763233184814453,-0.10287046432495117,0.04602111876010895
1700931856854415000,15.4414150390625,0.0932607650756836,-0.08112907409667969,0.05361659824848175
1700931856871409200,15.4584091796875,-0.09375858306884766,-0.07458305358886719,0.05863194167613983
1700931856888402400,15.47540234375,-0.16911029815673828,-0.06517219543457031,0.0801534429192543
1700931856905391900,15.492391845703125,-0.0680856704711914,-0.06978178024291992,0.1108226329088211
1700931856922388500,15.509388427734375,0.16986751556396484,-0.056162357330322266,0.07802660018205643
1700931856939381000,15.526381103515625,0.32146453857421875,-0.07417440414428711,0.09040240943431854
1700931856956372700,15.543372802734375,0.27066993713378906,-0.04134178161621094,0.049308426678180695
1700931856973366500,15.560366455078125,-0.0005006790161132812,-0.030653953552246094,0.024997949600219727
1700931856990359000,15.577359130859374,-0.2572317123413086,-0.04689788818359375,0.059660181403160095
1700931857007348200,15.59434814453125,-0.42809009552001953,-0.008054733276367188,0.08627952635288239
1700931857024326400,15.611326416015626,-0.3574256896972656,0.032431602478027344,0.024223119020462036
1700931857041339000,15.6283388671875,-0.10007286071777344,0.0666208267211914,-0.02851821482181549
1700931857058330600,15.64533056640625,0.2102060317993164,0.07929372787475586,-0.029836535453796387
1700931857075324700,15.66232470703125,0.4093294143676758,0.06206703186035156,0.007449120283126831
1700931857092316700,15.679316650390625,0.41294193267822266,0.056064605712890625,0.0026407241821289062
1700931857109311000,15.69631103515625,0.24830245971679688,0.0373997688293457,0.0007965564727783203
1700931857126302200,15.71330224609375,0.06371879577636719,0.030107498168945312,0.03312554955482483
1700931857143296500,15.730296630859375,-0.04915142059326172,-0.0026712417602539062,0.08285581320524216
1700931857160284400,15.747284423828125,-0.06788349151611328,-0.015494346618652344,0.13383133709430695
1700931857177282800,15.76428271484375,-0.029863357543945312,-0.012798786163330078,0.20413029193878174
1700931857194271500,15.781271484375,-0.05481529235839844,-0.00508880615234375,0.2117222249507904
1700931857211271000,15.79827099609375,-0.15149688720703125,-0.05133771896362305,0.17677082121372223
1700931857228260400,15.81526025390625,-0.26181793212890625,-0.06669187545776367,0.14017026126384735
1700931857245254400,15.83225439453125,-0.29445362091064453,-0.08342790603637695,0.15159539878368378
1700931857262246000,15.849245849609375,-0.2958517074584961,-0.08019161224365234,0.14753320813179016
1700931857279229700,15.866229736328124,-0.25907039642333984,-0.08630228042602539,0.15137407183647156
1700931857296232200,15.883232177734374,-0.17765426635742188,-0.07879972457885742,0.1322234869003296
1700931857313226500,15.9002265625,-0.06646537780761719,-0.031407833099365234,0.11766644567251205
1700931857330218000,15.917218017578126,0.12025165557861328,0.05062437057495117,0.06820085644721985
1700931857347209500,15.93420947265625,0.28577709197998047,0.1037449836730957,0.013603568077087402
1700931857364205000,15.951205078125,0.2758941650390625,0.1222529411315918,0.007628589868545532
1700931857381200000,15.968199951171876,0.13639450073242188,0.06627464294433594,0.03901997208595276
1700931857398189800,15.98518994140625,0.0156707763671875,0.02057170867919922,0.06222568452358246
1700931857415184000,16.002183837890627,-0.03061389923095703,0.011287689208984375,0.07661151885986328
1700931857432165600,16.01916552734375,-0.023619651794433594,0.03277111053466797,0.08082428574562073
1700931857449156900,16.036156982421875,0.03825950622558594,0.055609703063964844,0.10257448256015778
1700931857466164200,16.053164306640625,0.07814407348632812,0.08115339279174805,0.13335159420967102
1700931857483156000,16.070156005859374,0.05304145812988281,0.08091878890991211,0.12100210040807724
1700931857500148000,16.08714794921875,-0.022075653076171875,0.05344247817993164,0.09753948450088501
1700931857517142000,16.10414208984375,-0.0992746353149414,0.018261194229125977,0.06003585457801819
1700931857534133200,16.12113330078125,-0.05943584442138672,-0.01853036880493164,0.07391852140426636
1700931857551127800,16.1381279296875,0.046280860900878906,-0.014891386032104492,0.08987787365913391
1700931857568119600,16.15511962890625,0.24268531799316406,0.014173269271850586,0.05228880047798157
1700931857585113900,16.17211376953125,0.2577829360961914,-0.01616978645324707,-0.00523492693901062
1700931857602105300,16.189105224609374,0.045029640197753906,-0.049512624740600586,-0.029898762702941895
1700931857619099400,16.206099365234376,-0.18019962310791016,-0.018838167190551758,-0.03211203217506409
1700931857636091400,16.22309130859375,-0.2877645492553711,-0.026610851287841797,-0.03815513849258423
1700931857653084400,16.24008447265625,-0.22736644744873047,-0.021430492401123047,-0.06255580484867096
1700931857670077200,16.2570771484375,-0.04433441162109375,-0.003862142562866211,-0.048554614186286926
1700931857687071500,16.274071533203124,0.10245418548583984,0.014002323150634766,-0.07855889201164246
1700931857704063200,16.291063232421877,0.16229724884033203,0.04515647888183594,-0.06808890402317047
1700931857721057500,16.3080576171875,0.1288595199584961,0.038703203201293945,-0.04182305932044983
1700931857738048500,16.325048583984376,0.015839576721191406,0.041849613189697266,-0.018500447273254395
1700931857755043600,16.342043701171875,-0.06253623962402344,0.04177069664001465,0.03339439630508423
1700931857772035000,16.35903515625,-0.03392982482910156,0.0005009174346923828,0.09852563589811325
1700931857789029400,16.376029296875,-0.024532318115234375,-0.02663898468017578,0.12726172804832458
1700931857806020600,16.3930205078125,-0.011454582214355469,-0.014225006103515625,0.1650625467300415
1700931857823015400,16.410015380859374,-0.13432788848876953,-0.014934062957763672,0.14759306609630585
1700931857840006700,16.427006591796875,-0.15072059631347656,-0.047913312911987305,0.1381738930940628
1700931857857001200,16.444001220703125,-0.005218505859375,-0.01460123062133789,0.13605427742004395
1700931857873992700,16.46099267578125,0.3278942108154297,-0.07198119163513184,0.1096263974905014
1700931857890984700,16.477984619140624,0.45151519775390625,-0.06955957412719727,0.04370032250881195
1700931857907981300,16.494981201171875,0.3171234130859375,-0.06448769569396973,-0.006553724408149719
1700931857924973000,16.51197314453125,0.09551239013671875,-0.04847264289855957,-0.07326225936412811
1700931857941964300,16.52896435546875,-0.06492900848388672,-0.02995777130126953,-0.11425894498825073
1700931857958958800,16.545958740234376,-0.11131095886230469,-0.00003886222839355469,-0.10342718660831451
1700931857975950600,16.56295068359375,0.12770748138427734,-0.012176513671875,-0.06408391892910004
1700931857992945000,16.57994482421875,0.4198312759399414,0.010321617126464844,-0.03990328311920166
1700931858009936100,16.59693603515625,0.4641876220703125,0.06804084777832031,-0.07485939562320709
1700931858026932200,16.61393212890625,0.2969236373901367,0.09229493141174316,-0.06779663264751434
1700931858043917000,16.6309169921875,0.07021236419677734,0.03707122802734375,-0.10255414247512817
1700931858060920600,16.647920654296875,-0.1705026626586914,0.03319430351257324,-0.0735047310590744
1700931858077903600,16.664903564453127,-0.3016023635864258,0.05073237419128418,-0.01637256145477295
1700931858094902500,16.681902587890626,-0.2000293731689453,0.07366275787353516,-0.019605278968811035
1700931858111894000,16.69889404296875,0.03422737121582031,0.0355989933013916,-0.012846380472183228
1700931858128888600,16.715888671875,0.064300537109375,-0.012617111206054688,-0.022340312600135803
1700931858145879800,16.7328798828125,-0.0986490249633789,-0.0769660472869873,0.0022600889205932617
1700931858162874400,16.749874267578125,-0.2633171081542969,-0.1131906509399414,0.06527070701122284
1700931858179866000,16.7668662109375,-0.2383260726928711,-0.12165141105651855,0.11846048384904861
1700931858196863500,16.783863525390625,-0.12821578979492188,-0.10240840911865234,0.07338200509548187
1700931858213852000,16.800851806640626,0.12139511108398438,-0.14006829261779785,0.07241818308830261
1700931858230846200,16.81784619140625,0.2355480194091797,-0.10657668113708496,0.0675552636384964
1700931858247837400,16.83483740234375,0.16107749938964844,-0.1394667625427246,0.09571941196918488
1700931858264832800,16.851832763671876,-0.06771469116210938,-0.1289234161376953,0.1351398527622223
1700931858281814500,16.868814453125,-0.2783203125,-0.13181543350219727,0.16129545867443085
1700931858298818000,16.885818115234375,-0.33834075927734375,-0.14123153686523438,0.20125192403793335
1700931858315809800,16.902809814453125,-0.2703723907470703,-0.049375295639038086,0.2534492611885071
1700931858332804000,16.91980419921875,-0.14013957977294922,0.009161949157714844,0.2398451715707779
1700931858349795600,16.936795654296876,-0.06997203826904297,0.0006527900695800781,0.19783435761928558
1700931858366790000,16.953789794921875,-0.038262367248535156,0.004178762435913086,0.18787162005901337
1700931858383781600,16.97078173828125,0.01997089385986328,-0.01228785514831543,0.16917945444583893
1700931858400776000,16.98777587890625,0.110595703125,0.015996217727661133,0.13002023100852966
1700931858417767400,17.004767333984375,0.20695114135742188,-0.002965211868286133,0.10881350189447403
1700931858434761700,17.02176171875,0.19733238220214844,-0.00703883171081543,0.0990188866853714
1700931858451753500,17.03875341796875,0.2136993408203125,-0.015984058380126953,0.12477722018957138
1700931858468747800,17.055747802734373,0.22988605499267578,-0.01508021354675293,0.09626603871583939
1700931858485740500,17.072740478515627,0.17839622497558594,-0.04013991355895996,0.033747702836990356
1700931858502732300,17.089732177734376,0.045510292053222656,-0.0556187629699707,0.012485086917877197
1700931858519715000,17.106715087890624,-0.09111213684082031,-0.06707286834716797,0.058357223868370056
1700931858536720000,17.123719970703124,-0.1165781021118164,-0.08927273750305176,0.09744754433631897
1700931858553711000,17.140711181640626,-0.07112979888916016,-0.04969930648803711,0.0853402316570282
1700931858570705400,17.157705322265624,0.0464019775390625,-0.001065969467163086,0.06656655669212341
1700931858587686700,17.174686767578127,0.13145160675048828,0.0015163421630859375,0.0106600821018219
1700931858604691500,17.19169140625,0.06791496276855469,-0.03353762626647949,-0.029160618782043457
1700931858621682700,17.2086826171875,-0.12434196472167969,-0.08080315589904785,-0.056616634130477905
1700931858638677200,17.22567724609375,-0.2525634765625,-0.08616995811462402,-0.057440996170043945
1700931858655669000,17.2426689453125,-0.176727294921875,-0.09279274940490723,0.021457582712173462
1700931858672663300,17.259663330078126,0.14075469970703125,-0.03888297080993652,-0.04225364327430725
1700931858689654500,17.276654541015624,0.29052162170410156,-0.0009512901306152344,-0.065407395362854
1700931858706649000,17.293649169921874,0.24040603637695312,0.015091419219970703,-0.06948059797286987
1700931858723640600,17.310640625,0.08822822570800781,-0.02899622917175293,-0.0016351044178009033
1700931858740634600,17.327634521484374,-0.006153106689453125,-0.07864999771118164,0.004239678382873535
1700931858757627000,17.344626953125,0.046996116638183594,-0.10311532020568848,0.01757049560546875
1700931858774621200,17.36162109375,0.12665462493896484,-0.0981607437133789,0.006800621747970581
1700931858791613000,17.378613037109375,0.17174625396728516,-0.06415963172912598,-0.026193976402282715
1700931858808607000,17.39560693359375,0.16032123565673828,-0.0009698867797851562,-0.011646002531051636
1700931858825588000,17.412587890625,0.13892078399658203,0.022125244140625,-0.03536956012248993
1700931858842592500,17.429592529296876,0.16970443725585938,-0.005752086639404297,-0.0854034274816513
1700931858859584500,17.44658447265625,0.2528953552246094,-0.037081003189086914,-0.06571808457374573
1700931858876578800,17.463578857421876,0.2043743133544922,-0.021852493286132812,0.002007529139518738
1700931858893570600,17.480570556640625,0.02772998809814453,-0.028425931930541992,0.01724568009376526
1700931858910564600,17.497564697265624,-0.19445133209228516,-0.047936439514160156,0.04098813235759735
1700931858927556400,17.514556396484377,-0.2926921844482422,-0.045210838317871094,0.05670233070850372
1700931858944551000,17.531551025390623,-0.2692680358886719,-0.028468608856201172,-0.00169314444065094
1700931858961542100,17.548542236328124,-0.1627206802368164,-0.06424140930175781,-0.04123423993587494
1700931858978537700,17.565537841796875,-0.12514400482177734,-0.08446455001831055,-0.03885918855667114
1700931858995507700,17.5825078125,-0.07775497436523438,-0.097503662109375,-0.02063623070716858
1700931859012525000,17.599525146484375,0.051666259765625,-0.08214950561523438,-0.004813387989997864
1700931859029513700,17.616513671875,0.20957565307617188,-0.0632314682006836,0.008815944194793701
1700931859046508000,17.633508056640625,0.20339679718017578,-0.08131170272827148,-0.012755706906318665
1700931859063500000,17.6505,-0.014241218566894531,-0.0592350959777832,-0.03443160653114319
1700931859080494300,17.667494384765625,-0.25605297088623047,-0.07510566711425781,0.006561458110809326
1700931859097485800,17.68448583984375,-0.32621288299560547,-0.0744924545288086,-0.003887549042701721
1700931859114462200,17.701462158203125,-0.0885763168334961,-0.05048513412475586,-0.016298800706863403
1700931859131472000,17.718471923828126,0.20427799224853516,0.0034499168395996094,-0.0038323402404785156
1700931859148466200,17.735466064453124,0.38293933868408203,0.042143821716308594,-0.04365752637386322
1700931859165457400,17.75245751953125,0.37856101989746094,0.011765003204345703,-0.05575801432132721
1700931859182452000,17.769451904296876,0.23826980590820312,-0.036826133728027344,0.010280288755893707
1700931859199443700,17.786443603515625,0.02986431121826172,-0.06835603713989258,0.06225708872079849
1700931859216438000,17.80343798828125,-0.1125650405883789,-0.07068204879760742,0.09240932017564774
1700931859233429200,17.82042919921875,-0.0649871826171875,-0.0548248291015625,0.07537849247455597
1700931859250424000,17.837424072265627,0.1339263916015625,-0.028699874877929688,0.10270610451698303
1700931859267415600,17.85441552734375,0.18111133575439453,-0.005662441253662109,0.07156889140605927
1700931859284409900,17.871409912109375,0.06450271606445312,-0.0538477897644043,0.035311903804540634
1700931859301401300,17.8884013671875,-0.17831802368164062,-0.06977987289428711,0.02225838601589203
1700931859318395600,17.905395751953126,-0.21120452880859375,-0.11530542373657227,0.03621656447649002
1700931859335387400,17.922387451171875,-0.2586812973022461,-0.09220218658447266,0.0044892579317092896
1700931859352381700,17.939381591796874,-0.21117115020751953,-0.1269986629486084,0.023404698818922043
1700931859369373000,17.956373046875,-0.07271194458007812,-0.0976715087890625,0.009055666625499725
1700931859386367500,17.973367431640625,0.12572479248046875,-0.0814828872680664,-0.0070085301995277405
1700931859403359200,17.990359130859375,0.0911102294921875,-0.05186176300048828,0.04904405027627945
1700931859420353500,18.007353515625,-0.07599067687988281,-0.06591653823852539,0.10410026460886002
1700931859437344800,18.0243447265625,-0.17859268188476562,-0.07698678970336914,0.059430383145809174
1700931859454339300,18.04133935546875,-0.1584768295288086,-0.05568838119506836,-0.008917637169361115
1700931859471331000,18.0583310546875,-0.04668998718261719,-0.057439327239990234,-0.013668179512023926
1700931859488325400,18.075325439453124,0.05239391326904297,-0.03877687454223633,-0.023187339305877686
1700931859505316900,18.09231689453125,0.10132884979248047,-0.03618669509887695,0.04432550445199013
1700931859522311200,18.109311279296875,0.13670635223388672,-0.030956268310546875,0.0649661272764206
1700931859539303200,18.12630322265625,0.09034156799316406,-0.014589309692382812,0.029194634407758713
1700931859556297200,18.143297119140627,0.0037527084350585938,-0.034613609313964844,0.010666094720363617
1700931859573288700,18.160288818359376,-0.02988433837890625,-0.05526590347290039,0.021050944924354553
1700931859590280200,18.1772802734375,0.06197071075439453,-0.05771303176879883,0.008617311716079712
1700931859607277300,18.19427734375,0.1826019287109375,-0.02476358413696289,0.005449719727039337
1700931859624269000,18.21126904296875,0.13423442840576172,-0.0003719329833984375,0.04249469190835953
1700931859641254400,18.22825439453125,-0.07523632049560547,0.00385284423828125,0.04376617446541786
1700931859658254800,18.2452548828125,-0.21454620361328125,-0.024252891540527344,0.044318787753582
1700931859675246600,18.26224658203125,-0.13527297973632812,-0.024039745330810547,0.026260077953338623
1700931859692241000,18.279240966796873,0.03659534454345703,-0.03643226623535156,0.01785954087972641
1700931859709232400,18.296232421875,0.11646270751953125,-0.06270885467529297,0.028391815721988678
1700931859726226400,18.313226318359376,0.12257003784179688,-0.045683860778808594,0.045342013239860535
1700931859743218400,18.330218505859374,0.038893699645996094,-0.007531166076660156,0.07037321478128433
1700931859760212700,18.347212646484376,0.0051670074462890625,-0.008304595947265625,0.053814709186553955
1700931859777205000,18.364205078125,0.028108596801757812,-0.03384208679199219,0.03437454253435135
1700931859794182400,18.381182373046876,-0.009637832641601562,-0.0446171760559082,0.011223167181015015
1700931859811194600,18.398194580078126,-0.1120462417602539,-0.04973459243774414,-0.005879402160644531
1700931859828179200,18.41517919921875,-0.16182422637939453,-0.0544734001159668,0.011073380708694458
1700931859845179100,18.43217919921875,-0.14453506469726562,-0.04851675033569336,0.04144182801246643
1700931859862166800,18.449166748046874,-0.04974079132080078,-0.017826557159423828,0.04582160711288452
1700931859879162000,18.466162109375,0.09272575378417969,0.004652976989746094,0.028350040316581726
1700931859896138000,18.483137939453126,0.18746185302734375,-0.01001119613647461,0.02792420983314514
1700931859913148000,18.50014794921875,0.17481231689453125,-0.021843433380126953,0.04545336961746216
1700931859930142000,18.517141845703126,0.11293220520019531,-0.02399158477783203,0.08025919646024704
1700931859947134500,18.534134521484376,0.049157142639160156,-0.028983592987060547,0.08454186469316483
1700931859964127700,18.551127685546874,0.051657676696777344,-0.025345802307128906,0.08715808391571045
1700931859981119500,18.568119384765627,0.07560443878173828,-0.01421976089477539,0.07653786242008209
1700931859998114000,18.585114013671873,0.10238075256347656,-0.037586212158203125,0.07882336527109146
1700931860015105800,18.602105712890626,0.059764862060546875,-0.02998638153076172,0.09014586359262466
1700931860032100000,18.61910009765625,-0.06620121002197266,-0.03810882568359375,0.09674274176359177
1700931860049091300,18.63609130859375,-0.1934804916381836,-0.05188274383544922,0.08010947704315186
1700931860066085600,18.653085693359376,-0.1732025146484375,-0.02726602554321289,0.08080059289932251
1700931860083077600,18.67007763671875,-0.04715156555175781,0.0070247650146484375,0.07940512150526047
1700931860100072200,18.687072265625,0.09297657012939453,0.0021767616271972656,0.07987997680902481
1700931860117068300,18.704068359375,0.12440967559814453,-0.013394832611083984,0.05664368346333504
1700931860134057500,18.721057373046875,0.110504150390625,-0.0066356658935546875,0.06876878440380096
1700931860151049500,18.738049560546877,0.036820411682128906,-0.00113677978515625,0.0712255984544754
1700931860168044000,18.7550439453125,-0.013468742370605469,0.015485763549804688,0.05773899704217911
1700931860185035300,18.77203515625,0.005946159362792969,0.011852741241455078,0.07199850678443909
1700931860202019000,18.78901904296875,0.051074981689453125,0.02649068832397461,0.04906730726361275
1700931860219018000,18.80601806640625,0.10044097900390625,0.025922775268554688,0.04168746620416641
1700931860236016000,18.82301611328125,0.14249515533447266,0.00888824462890625,0.02801070362329483
1700931860253009400,18.840009521484376,0.08346271514892578,-0.02239084243774414,0.049315810203552246
1700931860269983200,18.856983154296874,-0.075714111328125,-0.058110713958740234,0.05589867755770683
1700931860286993000,18.873992919921875,-0.1359109878540039,-0.04436540603637695,0.08350243419408798
1700931860303985000,18.89098486328125,-0.1230173110961914,0.009766101837158203,0.08903178572654724
1700931860320981200,18.907981201171875,-0.07263374328613281,0.0030503273010253906,0.04776647686958313
1700931860337959700,18.924959716796874,0.020692825317382812,-0.018858909606933594,0.03278930112719536
1700931860354967600,18.941967529296875,0.11329269409179688,-0.027052879333496094,0.04014815017580986
1700931860371949600,18.958949462890626,0.17538070678710938,-0.011344432830810547,0.05737456679344177
1700931860388950500,18.975950439453126,0.18108558654785156,0.01504373550415039,0.030851058661937714
1700931860405945000,18.992945068359376,0.0800180435180664,0.028024673461914062,0.014249466359615326
1700931860422934300,19.009934326171877,-0.05443000793457031,0.0019092559814453125,0.020790763199329376
1700931860439933400,19.026933349609376,-0.13760852813720703,-0.0213470458984375,0.04126082360744476
1700931860456922400,19.04392236328125,-0.1114959716796875,-0.012759208679199219,0.053395576775074005
1700931860473916700,19.060916748046875,0.04012012481689453,-0.015562057495117188,0.05116140842437744
1700931860490905900,19.07790576171875,0.1408710479736328,-0.029345989227294922,0.05691824108362198
1700931860507905500,19.094905517578123,0.0939931869506836,-0.0332942008972168,0.052366722375154495
1700931860524894200,19.111894287109376,-0.08478355407714844,-0.047698974609375,0.09240411967039108
1700931860541888800,19.128888671875,-0.19040489196777344,-0.05913686752319336,0.07110059261322021
1700931860558880300,19.14588037109375,-0.16018104553222656,-0.047443389892578125,0.06530442088842392
1700931860575874600,19.16287451171875,-0.08577632904052734,-0.02380514144897461,0.06124967336654663
1700931860592866000,19.179865966796875,-0.012070655822753906,-0.027980327606201172,0.04013579711318016
1700931860609860400,19.1968603515625,0.0803670883178711,-0.0260467529296875,0.01718052104115486
1700931860626838500,19.213838623046875,0.1567239761352539,-0.03449821472167969,0.02803267538547516
1700931860643843300,19.23084326171875,0.14618396759033203,-0.038039207458496094,0.025194909423589706
1700931860660834300,19.247834228515625,0.059647560119628906,-0.052704811096191406,0.03453392535448074
1700931860677832400,19.26483251953125,-0.01766490936279297,-0.04480886459350586,0.047466449439525604
1700931860694824000,19.281823974609374,-0.1001749038696289,-0.05380678176879883,0.049528636038303375
1700931860711818200,19.298818359375,-0.13874435424804688,-0.059465885162353516,0.022451277822256088
1700931860728807200,19.31580712890625,-0.06085014343261719,-0.0676579475402832,0.014075517654418945
1700931860745806600,19.332806640625,0.07609272003173828,-0.03629016876220703,-0.0013964325189590454
1700931860762795800,19.349795654296877,0.11282730102539062,-0.036301612854003906,-0.004150182008743286
1700931860779790000,19.3667900390625,0.048023223876953125,-0.033956050872802734,0.012094352394342422
1700931860796781800,19.38378173828125,-0.06889057159423828,-0.03034496307373047,0.014622893184423447
1700931860813776000,19.40077587890625,-0.11977100372314453,-0.033982276916503906,0.011044524610042572
1700931860830767900,19.417767822265624,-0.09545040130615234,-0.01648712158203125,0.0020906999707221985
1700931860847762000,19.434761962890626,-0.005626678466796875,-0.017934799194335938,-0.01126919686794281
1700931860864753400,19.45175341796875,0.08135223388671875,-0.0009365081787109375,-0.026659078896045685
1700931860881748000,19.468748046875,0.1680908203125,0.0010390281677246094,-0.021048203110694885
1700931860898739500,19.485739501953127,0.21782875061035156,-0.0013546943664550781,-0.049146123230457306
1700931860915734000,19.502734130859373,0.10216236114501953,-0.027455806732177734,-0.037842318415641785
1700931860932725200,19.519725341796875,-0.049747467041015625,-0.05788564682006836,-0.01981419324874878
1700931860949719600,19.536719482421876,-0.1198587417602539,-0.0638279914855957,0.010833054780960083
1700931860966708500,19.55370849609375,-0.06421566009521484,-0.06048154830932617,0.005039200186729431
1700931860983708400,19.57070849609375,-0.009905815124511719,-0.04907798767089844,-0.006220683455467224
1700931861000697300,19.587697265625,-0.044895172119140625,-0.05309915542602539,0.0029724538326263428
1700931861017691100,19.604691162109376,-0.056832313537597656,-0.07500123977661133,0.022707954049110413
1700931861034683100,19.62168310546875,0.0006895065307617188,-0.06134986877441406,0.027673035860061646
1700931861051677400,19.638677490234375,0.053542137145996094,-0.053293704986572266,0.013183295726776123
1700931861068669000,19.6556689453125,0.009172439575195312,-0.03534364700317383,-0.01730414479970932
1700931861085663200,19.672663330078127,-0.07924652099609375,-0.039449214935302734,-0.022376440465450287
1700931861102655000,19.689655029296876,-0.15329647064208984,-0.030925273895263672,-0.04200329631567001
1700931861119642600,19.706642578125,-0.09196281433105469,-0.02431344985961914,-0.011062979698181152
1700931861136640500,19.723640625,0.09001922607421875,-0.03628396987915039,-0.01692143827676773
1700931861153631500,19.740631591796873,0.295196533203125,-0.002292633056640625,-0.028877094388008118
1700931861170626800,19.757626708984375,0.3191490173339844,0.009079456329345703,0.007678575813770294
1700931861187621400,19.774621337890625,0.2148141860961914,0.0124053955078125,0.008549995720386505
1700931861204612400,19.7916123046875,0.02571582794189453,0.0049495697021484375,-0.02494477480649948
1700931861221607000,19.80860693359375,-0.12024688720703125,-0.0018157958984375,-0.039889805018901825
1700931861238598700,19.8255986328125,-0.0979928970336914,-0.006553173065185547,-0.0340690016746521
1700931861255592700,19.8425927734375,-0.02057170867919922,-0.0008587837219238281,-0.05308457463979721
1700931861272584400,19.85958447265625,0.014707565307617188,0.0029096603393554688,-0.0525810644030571
1700931861289578500,19.87657861328125,0.022408485412597656,0.02405261993408203,-0.004199959337711334
1700931861306570500,19.893570556640626,0.044178009033203125,0.029569149017333984,0.019953586161136627
1700931861323564800,19.910564697265624,0.12624359130859375,-0.006996631622314453,0.0024462342262268066
1700931861340556300,19.927556396484373,0.14522838592529297,-0.033255577087402344,0.013584576547145844
1700931861357550600,19.944550537109375,0.09007072448730469,-0.04602670669555664,0.042702872306108475
1700931861374542300,19.961542236328125,0.022365570068359375,-0.0447392463684082,0.07404538244009018
1700931861391526100,19.978526123046876,-0.034346580505371094,-0.03848409652709961,0.09447205066680908
1700931861408528000,19.99552783203125,-0.06914520263671875,-0.055461883544921875,0.07427982985973358
1700931861425522400,20.0125224609375,-0.03155994415283203,-0.06946754455566406,0.07602509111166
1700931861442514200,20.02951416015625,0.005034446716308594,-0.06114077568054199,0.08238258957862854
1700931861459508200,20.04650830078125,0.023488998413085938,-0.04097175598144531,0.06384383141994476
1700931861476499700,20.063499755859375,-0.023413658142089844,-0.020368576049804688,0.032863326370716095
1700931861493494300,20.080494384765625,-0.09023189544677734,-0.022985458374023438,0.02148599922657013
1700931861510485800,20.09748583984375,-0.134613037109375,-0.0020589828491210938,0.02886243164539337
1700931861527480000,20.11447998046875,-0.1297779083251953,-0.020845413208007812,0.021812433376908302
1700931861544471600,20.131471435546874,-0.025970458984375,-0.009325981140136719,0.01917577162384987
1700931861561465900,20.1484658203125,0.1394491195678711,-0.013566970825195312,0.018593523651361465
1700931861578448100,20.1654482421875,0.2982006072998047,-0.01574420928955078,0.04879394546151161
1700931861595458300,20.182458251953125,0.2860832214355469,-0.014061450958251953,0.05678292363882065
1700931861612443100,20.199443115234374,0.14704418182373047,-0.028866291046142578,0.0961013063788414
1700931861629423400,20.21642333984375,-0.028890609741210938,-0.04157710075378418,0.10393038392066956
1700931861646429700,20.2334296875,-0.15892887115478516,-0.0689554214477539,0.0848003402352333
1700931861663423700,20.250423828125,-0.2089242935180664,-0.06814050674438477,0.074322909116745
1700931861680415000,20.2674150390625,-0.11521625518798828,-0.07938480377197266,0.0657055601477623
1700931861697409500,20.284409423828127,0.10803031921386719,-0.04320240020751953,0.0723373293876648
1700931861714401300,20.3014013671875,0.20783710479736328,-0.004940032958984375,0.06320082396268845
1700931861731395600,20.3183955078125,0.17165279388427734,-0.00945901870727539,0.05069831758737564
1700931861748387000,20.335386962890624,0.08411407470703125,-0.02343273162841797,0.059917647391557693
1700931861765381400,20.35238134765625,-0.006928443908691406,-0.037972450256347656,0.03661278262734413
1700931861782373000,20.369373046875,-0.11817741394042969,-0.03054499626159668,0.04001641273498535
1700931861799367700,20.38636767578125,-0.07976245880126953,-0.03910207748413086,0.05339802801609039
1700931861816359000,20.40335888671875,0.08426380157470703,-0.03708148002624512,0.04517523571848869
1700931861833353500,20.420353515625,0.21074771881103516,-0.03637504577636719,-0.005137524101883173
1700931861850345200,20.43734521484375,0.22530651092529297,-0.04191446304321289,-0.0014043834526091814
1700931861867334700,20.454334716796875,0.10382366180419922,-0.04939746856689453,0.010139561258256435
1700931861884335000,20.471335205078127,-0.03680229187011719,-0.0643758773803711,0.005571895278990269
1700931861901328100,20.488328125,-0.13645172119140625,-0.051003217697143555,-0.008036414161324501
1700931861918305000,20.505304931640627,-0.18490886688232422,-0.05833244323730469,-0.014236567541956902
1700931861935311000,20.52231103515625,-0.1680889129638672,-0.06392621994018555,-0.04454774409532547
1700931861952302600,20.539302490234373,-0.09021472930908203,-0.045890092849731445,-0.09495635330677032
1700931861969290500,20.55629052734375,0.02021503448486328,-0.021920204162597656,-0.11318587511777878
1700931861986288600,20.57328857421875,0.07324981689453125,0.0034151077270507812,-0.0959797129034996
1700931862003283000,20.590282958984375,0.1103973388671875,0.03781604766845703,-0.06542084366083145
1700931862020274400,20.6072744140625,0.07936954498291016,0.05510234832763672,-0.04380187764763832
1700931862037268700,20.624268798828126,0.035729408264160156,0.022828102111816406,-0.04250538349151611
1700931862054260500,20.641260498046876,0.03041362762451172,-0.011556148529052734,-0.026309413835406303
1700931862071249200,20.658249267578125,0.12720966339111328,-0.015851974487304688,-0.008513322100043297
1700931862088246000,20.67524609375,0.2316436767578125,0.01664113998413086,-0.005105459131300449
1700931862105240300,20.692240234375,0.15277576446533203,0.04287385940551758,0.01706278696656227
1700931862122232300,20.709232421875,-0.03041839599609375,0.047385215759277344,0.013150550425052643
1700931862139223600,20.7262236328125,-0.18884754180908203,0.021124839782714844,0.027853243052959442
1700931862156221000,20.743220947265623,-0.23726367950439453,-0.006522655487060547,0.09496777504682541
1700931862173212700,20.760212646484376,-0.166107177734375,-0.02098560333251953,0.12854059040546417
1700931862190204200,20.7772041015625,-0.07547950744628906,-0.011980056762695312,0.12769633531570435
1700931862207198200,20.7941982421875,-0.030975341796875,0.006882190704345703,0.09566095471382141
