time,seconds_elapsed,z,y,x
1700931539368588000,0.158588134765625,0.3599853515625,-0.29752302169799805,0.10406839847564697
1700931539385586000,0.1755859375,-0.1113443374633789,-0.09671378135681152,-0.06176948547363281
1700931539402580000,0.192580078125,-0.6940240859985352,0.08582735061645508,-0.4200710654258728
1700931539419574500,0.209574462890625,-1.0230598449707031,0.3004491329193115,-0.5825399160385132
1700931539436562700,0.226562744140625,-1.1164603233337402,0.3449740409851074,-0.6650758385658264
1700931539453556500,0.243556396484375,-0.8095779418945312,0.4526348114013672,-0.6689984798431396
1700931539470545200,0.260545166015625,-0.6830387115478516,0.500014066696167,-0.38740110397338867
1700931539487540700,0.277540771484375,-1.2919845581054688,0.40375399589538574,0.1899094581604004
1700931539504532200,0.2945322265625,0.5221376419067383,0.05181169509887695,0.4036327004432678
1700931539521522400,0.3115224609375,1.2635879516601562,-0.44071316719055176,0.41171252727508545
1700931539538521000,0.32852099609375,0.55364990234375,-0.6419939994812012,0.6212517023086548
1700931539555510800,0.3455107421875,0.20816707611083984,-0.6569795608520508,0.8544570207595825
1700931539572492000,0.362491943359375,0.35675811767578125,-0.4920539855957031,0.757697582244873
1700931539589484800,0.37948486328125,0.004118919372558594,-0.06073474884033203,0.5810621976852417
1700931539606481400,0.3964814453125,0.02423095703125,0.05831003189086914,0.3948453664779663
1700931539623471600,0.4134716796875,0.40114879608154297,-0.25052976608276367,0.11463471502065659
1700931539640465000,0.43046484375,0.6589422225952148,-0.5441703796386719,0.14937183260917664
1700931539657455400,0.447455322265625,0.2861137390136719,-0.5391006469726562,0.38395410776138306
1700931539674447400,0.464447265625,-0.34206104278564453,-0.18949651718139648,0.36683470010757446
1700931539691442000,0.48144189453125,-0.9248695373535156,0.0465235710144043,0.2547730505466461
1700931539708431400,0.498431396484375,-0.4751129150390625,0.16691207885742188,0.19242359697818756
1700931539725426700,0.5154267578125,-0.03353691101074219,0.298062801361084,-0.04307642579078674
1700931539742419700,0.532419677734375,0.05433940887451172,0.2512226104736328,-0.22883740067481995
1700931539759407000,0.549406982421875,-0.03320884704589844,0.2534346580505371,-0.24647080898284912
1700931539776402200,0.566402099609375,-0.06590843200683594,-0.034366607666015625,0.20391075313091278
1700931539793395200,0.583395263671875,-0.1699514389038086,-0.12810039520263672,0.36492207646369934
1700931539810386400,0.600386474609375,-0.39490222930908203,0.007930755615234375,0.3847452402114868
1700931539827387600,0.6173876953125,-0.4765443801879883,0.20430564880371094,0.3066820502281189
1700931539844376300,0.634376220703125,-0.5138950347900391,0.23117303848266602,0.13271735608577728
1700931539861378800,0.65137890625,-0.3124504089355469,0.27451133728027344,-0.03166532516479492
1700931539878358800,0.66835888671875,0.1434478759765625,0.35777807235717773,-0.21939998865127563
1700931539895358200,0.685358154296875,0.48418712615966797,0.3130917549133301,-0.2999499440193176
1700931539912349700,0.702349609375,0.29946422576904297,0.2539091110229492,0.022399038076400757
1700931539929338000,0.719338134765625,-0.2046337127685547,0.379575252532959,0.2140297293663025
1700931539946332700,0.736332763671875,-0.639404296875,0.5415663719177246,0.257213294506073
1700931539963324000,0.753323974609375,-0.6631956100463867,0.563046932220459,0.2528073787689209
1700931539980317400,0.7703173828125,-0.3260622024536133,0.4325900077819824,0.16851806640625
1700931539997293600,0.78729345703125,0.0037908554077148438,0.34970617294311523,0.055251508951187134
1700931540014300700,0.80430078125,-0.004795074462890625,0.3024730682373047,0.08606675267219543
1700931540031297300,0.82129736328125,-0.14378929138183594,0.22693300247192383,0.23660334944725037
1700931540048286000,0.838285888671875,-0.2839984893798828,0.13135004043579102,0.3175453245639801
1700931540065278700,0.85527880859375,-0.5138320922851562,0.08266210556030273,0.27611830830574036
1700931540082273000,0.87227294921875,-0.3933696746826172,0.1927642822265625,0.03138089179992676
1700931540099261200,0.88926123046875,-0.26476287841796875,0.22620344161987305,-0.0015442073345184326
1700931540116256300,0.90625634765625,-0.15760517120361328,0.12135171890258789,0.15901683270931244
1700931540133239300,0.9232392578125,-0.04896354675292969,0.08410978317260742,0.28095585107803345
1700931540150238200,0.94023828125,-0.12703514099121094,0.04097175598144531,0.27442654967308044
1700931540167221000,0.957220947265625,-0.3862733840942383,0.13956308364868164,0.18411827087402344
1700931540184217300,0.97421728515625,-0.5988035202026367,0.2875041961669922,0.10009892284870148
1700931540201218800,0.99121875,-0.4526252746582031,0.25763845443725586,0.2454175502061844
1700931540218208000,1.0082080078125,-0.047606468200683594,0.15517711639404297,0.325983464717865
1700931540235202000,1.0252021484375,0.2898578643798828,0.09616565704345703,0.26806604862213135
1700931540252193500,1.042193603515625,0.4321622848510742,0.10270118713378906,0.23084509372711182
1700931540269183500,1.05918359375,0.019550323486328125,0.14218854904174805,0.21032167971134186
1700931540286179000,1.076178955078125,-0.5658755302429199,0.2553443908691406,0.211480051279068
1700931540303173000,1.093173095703125,-0.6504745483398438,0.38648414611816406,0.2844724953174591
1700931540320162600,1.11016259765625,-0.355194091796875,0.3782353401184082,0.2691507935523987
1700931540337159200,1.1271591796875,-0.0007600784301757812,0.2907743453979492,0.1784174144268036
1700931540354147600,1.144147705078125,0.22191143035888672,0.22234821319580078,0.13583457469940186
1700931540371156500,1.161156494140625,0.3252553939819336,0.18627166748046875,0.2399536669254303
1700931540388135400,1.178135498046875,0.09902381896972656,0.20152997970581055,0.2950262129306793
1700931540405125600,1.195125732421875,-0.2558708190917969,0.18431663513183594,0.23047837615013123
1700931540422119700,1.21211962890625,-0.45294952392578125,0.2679424285888672,0.17219333350658417
1700931540439107000,1.229107177734375,-0.38106250762939453,0.30939626693725586,0.23944008350372314
1700931540456100600,1.2461005859375,-0.12850189208984375,0.26543474197387695,0.34263721108436584
1700931540473088800,1.2630888671875,0.04457664489746094,0.17980003356933594,0.31259268522262573
1700931540490085400,1.28008544921875,0.13755130767822266,0.10893917083740234,0.2528430223464966
1700931540507075000,1.297074951171875,0.013311386108398438,0.10825204849243164,0.2284311205148697
1700931540524072000,1.314072021484375,-0.19641780853271484,0.13425970077514648,0.2038123458623886
1700931540541064200,1.331064208984375,-0.22428131103515625,0.17703771591186523,0.14524956047534943
1700931540558058000,1.34805810546875,-0.2868995666503906,0.1732783317565918,0.2339540421962738
1700931540575049200,1.36504931640625,-0.25806331634521484,0.1633620262145996,0.29190969467163086
1700931540592043000,1.38204296875,-0.14295196533203125,0.1684260368347168,0.27125784754753113
1700931540609030400,1.399030517578125,-0.06911754608154297,0.10937690734863281,0.21549388766288757
1700931540626027300,1.41602734375,-0.08824443817138672,0.06314945220947266,0.15084175765514374
1700931540643017000,1.433016845703125,-0.17634105682373047,0.09201478958129883,0.10027949512004852
1700931540660010500,1.450010498046875,-0.22049713134765625,0.11896324157714844,0.07004295289516449
1700931540676993300,1.4669931640625,-0.053821563720703125,0.13909244537353516,0.12217287719249725
1700931540693993500,1.483993408203125,0.0008745193481445312,0.17606449127197266,0.14897218346595764
1700931540710987300,1.5009873046875,-0.038238525390625,0.16329622268676758,0.1234646588563919
1700931540727980800,1.517980712890625,-0.13698291778564453,0.1387777328491211,0.1404736191034317
1700931540744972000,1.534971923828125,-0.14957904815673828,0.12163686752319336,0.16340963542461395
1700931540761965800,1.5519658203125,-0.09435367584228516,0.10965538024902344,0.11862844228744507
1700931540778954200,1.568954345703125,-0.04754829406738281,0.11795854568481445,0.017949923872947693
1700931540795949000,1.585948974609375,0.027208328247070312,0.13111114501953125,0.04969842731952667
1700931540812939000,1.60293896484375,0.12477493286132812,0.09523439407348633,0.13971605896949768
1700931540829931800,1.619931884765625,0.09498119354248047,0.06448554992675781,0.2246166169643402
1700931540846936600,1.6369365234375,0.05047416687011719,0.08035087585449219,0.2548315227031708
1700931540863918600,1.653918701171875,-0.0032911300659179688,0.0689091682434082,0.27194422483444214
1700931540880908500,1.670908447265625,-0.049678802490234375,0.09351873397827148,0.25928807258605957
1700931540897903900,1.68790380859375,-0.07195663452148438,0.1349315643310547,0.24792762100696564
1700931540914895000,1.70489501953125,0.0074825286865234375,0.15014410018920898,0.17941316962242126
1700931540931888000,1.72188818359375,0.03120708465576172,0.14874601364135742,0.11834248900413513
1700931540948877800,1.7388779296875,-0.018013954162597656,0.09822463989257812,0.15466934442520142
1700931540965872600,1.75587255859375,-0.053221702575683594,0.10240554809570312,0.17741341888904572
1700931540982868700,1.77286865234375,-0.0762033462524414,0.1284170150756836,0.17480699717998505
1700931540999854300,1.789854248046875,-0.010586738586425781,0.14262676239013672,0.18785639107227325
1700931541016848000,1.806847900390625,0.09835338592529297,0.13292407989501953,0.11998358368873596
1700931541033842000,1.823842041015625,0.06933212280273438,0.11594867706298828,0.09313841164112091
1700931541050831600,1.84083154296875,-0.09807777404785156,0.1255040168762207,0.17911094427108765
1700931541067827500,1.857827392578125,-0.209808349609375,0.13002920150756836,0.2160162329673767
1700931541084819500,1.8748193359375,-0.21199798583984375,0.1206974983215332,0.1841096580028534
1700931541101812500,1.8918125,-0.038702964782714844,0.09250593185424805,0.18176452815532684
1700931541118800600,1.908800537109375,-0.023606300354003906,0.07407236099243164,0.11234568804502487
1700931541135795500,1.92579541015625,-0.34293079376220703,0.031066417694091797,0.06483874469995499
1700931541152789800,1.942789794921875,-0.476560115814209,0.030605316162109375,0.1334618479013443
1700931541169778000,1.95977783203125,-0.16478538513183594,0.03792619705200195,0.2110820710659027
1700931541186772700,1.976772705078125,0.011402130126953125,0.024882793426513672,0.2423185408115387
1700931541203766800,1.993766845703125,0.09252262115478516,0.08671855926513672,0.20630678534507751
1700931541220755000,2.0107548828125,0.04176139831542969,0.12415218353271484,0.11584655940532684
1700931541237750500,2.02775048828125,0.06243133544921875,0.19437456130981445,0.01708833873271942
1700931541254741800,2.04474169921875,0.17895889282226562,0.05126237869262695,0.005114272236824036
1700931541271733800,2.061733642578125,0.0845174789428711,-0.0423583984375,0.12361083924770355
1700931541288726800,2.078726806640625,-0.06758880615234375,-0.1303105354309082,0.152971088886261
1700931541305719000,2.095718994140625,-0.09645652770996094,-0.04032087326049805,0.1230705976486206
1700931541322713000,2.112713134765625,-0.006545066833496094,0.15031051635742188,0.052855491638183594
1700931541339701000,2.129700927734375,-0.15736865997314453,0.2064657211303711,0.06194329261779785
1700931541356686600,2.1466865234375,-0.20957183837890625,0.15770769119262695,0.03814241290092468
1700931541373680000,2.16368017578125,-0.11880207061767578,0.13632678985595703,-0.00647658109664917
1700931541390678300,2.18067822265625,0.24605083465576172,0.15581846237182617,-0.02976730465888977
1700931541407673900,2.197673828125,0.39609336853027344,0.12526798248291016,-0.027049541473388672
1700931541424665000,2.2146650390625,0.20199298858642578,0.06738901138305664,0.08562576770782471
1700931541441659100,2.2316591796875,-0.15588855743408203,0.09873294830322266,0.1971735954284668
1700931541458647600,2.2486474609375,0.05525779724121094,-0.021859169006347656,0.24235516786575317
1700931541475642000,2.26564208984375,-0.20267581939697266,0.34707021713256836,0.34644240140914917
1700931541492636400,2.282636474609375,-0.08464622497558594,0.39951229095458984,0.623339831829071
1700931541509624600,2.29962451171875,0.1763753890991211,-0.12395334243774414,0.7221965193748474
1700931541526619100,2.316619140625,0.2682456970214844,-0.3018636703491211,0.6295208930969238
1700931541543613400,2.333613525390625,0.48064231872558594,-0.15178394317626953,0.403598427772522
1700931541560601600,2.3506015625,0.2725343704223633,0.08604240417480469,0.03553569316864014
1700931541577594400,2.367594482421875,-0.6560554504394531,0.1883554458618164,-0.3301800489425659
1700931541594591000,2.384591064453125,-1.2634525299072266,0.26938390731811523,-0.37603944540023804
1700931541611583000,2.4015830078125,-1.092050552368164,0.24700450897216797,-0.06620979309082031
1700931541628563500,2.4185634765625,-0.2462291717529297,0.2761969566345215,0.23271656036376953
1700931541645565700,2.435565673828125,0.31816768646240234,0.33911991119384766,0.08431869745254517
1700931541662559500,2.4525595703125,0.5506296157836914,0.26593494415283203,-0.10139954090118408
1700931541679545000,2.469545166015625,0.5981216430664062,0.23894929885864258,-0.1709868311882019
1700931541696545300,2.486545166015625,0.2072467803955078,0.19731760025024414,-0.2387874722480774
1700931541713536500,2.50353662109375,-0.2021961212158203,0.12237358093261719,-0.2588486969470978
1700931541730525200,2.520525146484375,-0.35298633575439453,0.021136760711669922,0.016605675220489502
1700931541747522300,2.537522216796875,-0.20685291290283203,0.07652521133422852,0.28979235887527466
1700931541764510000,2.554510009765625,-0.08826541900634766,-0.0775294303894043,0.06657332181930542
1700931541781495300,2.571495361328125,0.2996397018432617,-0.14626789093017578,-0.20782232284545898
1700931541798494200,2.588494140625,0.26690673828125,0.03906536102294922,-0.2042468786239624
1700931541815488800,2.60548876953125,-0.08890819549560547,0.2209310531616211,-0.06839233636856079
1700931541832482800,2.62248291015625,-0.45806217193603516,0.2468576431274414,0.024572253227233887
1700931541849471200,2.63947119140625,-0.7209110260009766,0.2691192626953125,0.06482791900634766
1700931541866465800,2.6564658203125,-0.5026330947875977,0.32039785385131836,-0.04711538553237915
1700931541883459800,2.6734599609375,-0.3142099380493164,0.3040800094604492,-0.10468477010726929
1700931541900448000,2.690447998046875,-0.10597896575927734,0.2066493034362793,-0.06695616245269775
1700931541917443600,2.707443603515625,-0.1543598175048828,0.19402790069580078,-0.01580047607421875
1700931541934424800,2.7244248046875,-0.3703432083129883,0.3640275001525879,0.06362974643707275
1700931541951429400,2.741429443359375,-0.2766847610473633,0.39770936965942383,0.034482717514038086
1700931541968419600,2.758419677734375,-0.06766700744628906,0.39311933517456055,0.08874738216400146
1700931541985417000,2.7754169921875,0.2227010726928711,0.20683717727661133,-0.04126352071762085
1700931542002419700,2.792419677734375,-0.01715373992919922,-0.22617149353027344,-0.06305783987045288
1700931542019388000,2.809387939453125,0.1517772674560547,0.07422828674316406,-0.18174177408218384
1700931542036378600,2.826378662109375,0.21345233917236328,0.15747928619384766,-0.18500053882598877
1700931542053386800,2.84338671875,0.08824729919433594,0.18631744384765625,0.06965768337249756
1700931542070369800,2.860369873046875,-0.07811832427978516,0.30942678451538086,0.11523908376693726
1700931542087374300,2.877374267578125,-0.053603172302246094,0.07453346252441406,0.006231248378753662
1700931542104356600,2.894356689453125,-0.20541954040527344,-0.4193134307861328,0.21980082988739014
1700931542121354200,2.911354248046875,-0.20892620086669922,-0.31557273864746094,0.023440539836883545
1700931542138341000,2.928341064453125,-0.11677837371826172,0.2778477668762207,-0.3773024082183838
1700931542155335700,2.945335693359375,-0.15012264251708984,0.20615339279174805,-0.017061889171600342
1700931542172329700,2.962329833984375,0.07133674621582031,0.08971691131591797,0.17919427156448364
1700931542189315600,2.979315673828125,0.3545236587524414,-0.08437347412109375,0.308651864528656
1700931542206315300,2.996315185546875,0.4110908508300781,-0.29976320266723633,0.16924923658370972
1700931542223306500,3.013306396484375,0.2616872787475586,0.1492772102355957,-0.2848871946334839
1700931542240294700,3.030294677734375,-0.0269927978515625,0.16699552536010742,-0.1389986276626587
1700931542257290500,3.04729052734375,-0.3512430191040039,0.06778669357299805,-0.07295072078704834
1700931542274281700,3.06428173828125,-0.39638233184814453,0.14773082733154297,-0.03655630350112915
1700931542291276000,3.081276123046875,-0.2848224639892578,0.14620494842529297,0.06282937526702881
1700931542308257500,3.098257568359375,0.05524635314941406,0.05953264236450195,0.12797832489013672
1700931542325259800,3.115259765625,0.34554004669189453,-0.09125375747680664,0.3672933578491211
1700931542342254300,3.13225439453125,0.26320457458496094,-0.2443227767944336,0.04637324810028076
1700931542359242200,3.1492421875,-0.3126354217529297,0.11813974380493164,-0.251060426235199
1700931542376236800,3.16623681640625,-0.6846880912780762,0.23907804489135742,-0.027158498764038086
1700931542393229000,3.18322900390625,-0.2450714111328125,-0.019388675689697266,0.10459113121032715
1700931542410219500,3.200219482421875,0.00688934326171875,0.07631254196166992,0.16737186908721924
1700931542427205600,3.21720556640625,0.17566680908203125,-0.0915379524230957,-0.07875871658325195
1700931542444204800,3.234204833984375,-0.04647254943847656,0.5001811981201172,0.4992563724517822
1700931542461192200,3.251192138671875,-0.03336334228515625,0.1345200538635254,-0.183002769947052
1700931542478185700,3.268185791015625,-0.13713359832763672,0.2946047782897949,-0.0531466007232666
1700931542495184600,3.2851845703125,-0.1479959487915039,0.33709287643432617,0.16390061378479004
1700931542512175600,3.302175537109375,0.07089614868164062,0.19077062606811523,0.23765289783477783
1700931542529157400,3.319157470703125,0.3019990921020508,0.0626230239868164,0.2801370620727539
1700931542546160000,3.33616015625,0.25063419342041016,0.0684356689453125,0.12724518775939941
1700931542563149800,3.35314990234375,-0.06535625457763672,0.12189197540283203,-0.010492801666259766
1700931542580147500,3.3701474609375,-0.5815792083740234,0.18974590301513672,0.12001466751098633
1700931542597127200,3.387127197265625,-0.41991424560546875,0.28952598571777344,0.19733572006225586
1700931542614129700,3.404129638671875,-0.24747657775878906,0.27530384063720703,0.25126636028289795
1700931542631119000,3.421119140625,-0.20560932159423828,0.2382798194885254,0.4164341688156128
1700931542648116700,3.43811669921875,-0.15135574340820312,0.2579970359802246,0.3361412286758423
1700931542665106700,3.455106689453125,0.032904624938964844,0.18178844451904297,0.24446356296539307
1700931542682098700,3.4720986328125,0.1983499526977539,0.09871292114257812,0.18482661247253418
1700931542699091200,3.48909130859375,0.19995689392089844,0.07788372039794922,0.11398625373840332
1700931542716083500,3.50608349609375,-0.06317138671875,0.10474634170532227,0.12206017971038818
1700931542733075700,3.52307568359375,-0.28861141204833984,0.1440896987915039,0.14032769203186035
1700931542750068200,3.540068115234375,-0.3277626037597656,0.1740875244140625,0.2470865249633789
1700931542767071200,3.5570712890625,-0.2794361114501953,0.08682060241699219,0.2802870273590088
1700931542784040200,3.574040283203125,-0.06871604919433594,0.01996755599975586,0.11045205593109131
1700931542801037800,3.591037841796875,0.18428707122802734,-0.03168201446533203,0.15234994888305664
1700931542818040000,3.6080400390625,0.16573619842529297,-0.05301332473754883,0.17236530780792236
1700931542835029800,3.62502978515625,-0.2058429718017578,0.05278635025024414,0.21061909198760986
1700931542852019700,3.642019775390625,-0.49872589111328125,0.0871434211730957,0.1979222297668457
1700931542869017000,3.65901708984375,-0.6305603981018066,0.050243377685546875,0.08927130699157715
1700931542886006800,3.6760068359375,-0.7027697563171387,-0.00478363037109375,0.09524011611938477
1700931542902996500,3.69299658203125,-0.5797109603881836,-0.028348922729492188,0.23396742343902588
1700931542919981300,3.709981201171875,-0.408294677734375,0.05366659164428711,0.344929575920105
1700931542936983800,3.72698388671875,-0.34005165100097656,0.09680700302124023,0.37568187713623047
1700931542953976300,3.743976318359375,-0.2849388122558594,0.14213132858276367,0.3378411531448364
1700931542970968600,3.760968505859375,-0.2750110626220703,0.1080937385559082,0.2969096899032593
1700931542987961000,3.777961181640625,-0.1742687225341797,0.08434534072875977,0.19331467151641846
1700931543004950800,3.79495068359375,0.08168220520019531,0.08238410949707031,0.12285006046295166
1700931543021948200,3.8119482421875,0.37729740142822266,0.060886383056640625,-0.02337515354156494
1700931543038936000,3.82893603515625,0.47785472869873047,0.0972127914428711,0.0025811195373535156
1700931543055923200,3.845923095703125,0.2679939270019531,0.19840288162231445,0.2658505439758301
1700931543072913200,3.8629130859375,-0.076690673828125,0.4103865623474121,0.4123300313949585
1700931543089906700,3.87990673828125,-0.37483692169189453,0.39422178268432617,0.4443258047103882
1700931543106894000,3.89689404296875,-0.41812562942504883,0.2830324172973633,0.3821672201156616
1700931543123891500,3.913891357421875,-0.10451126098632812,0.19266748428344727,0.2868129014968872
1700931543140883700,3.9308837890625,0.31753063201904297,0.10220098495483398,0.35878586769104004
1700931543157877200,3.947877197265625,0.42110443115234375,0.14623451232910156,0.40581512451171875
1700931543174867700,3.96486767578125,0.1922454833984375,0.19808530807495117,0.47746312618255615
1700931543191860700,3.98186083984375,-0.04862213134765625,0.24084854125976562,0.5409173965454102
1700931543208850200,3.99885009765625,-0.1155538558959961,0.17765378952026367,0.5841614007949829
1700931543225849900,4.015849853515625,-0.16233348846435547,0.09663009643554688,0.4859771728515625
1700931543242834400,4.03283447265625,-0.2503957748413086,0.04056596755981445,0.36053192615509033
1700931543259834600,4.049834716796875,-0.16225147247314453,0.06122112274169922,0.303982138633728
1700931543276824800,4.066824951171875,0.11557388305664062,0.06369495391845703,0.3041907548904419
1700931543293815300,4.083815185546875,0.5113296508789062,0.1213998794555664,0.30830466747283936
1700931543310805000,4.100804931640625,0.6141157150268555,0.16689109802246094,0.3306009769439697
1700931543327797800,4.1177978515625,0.42165279388427734,0.18175077438354492,0.27916181087493896
1700931543344791800,4.134791748046875,0.019982337951660156,0.15700864791870117,0.2380460500717163
1700931543361786400,4.151786376953125,-0.23226356506347656,0.10853290557861328,0.18729567527770996
1700931543378779600,4.168779541015625,-0.1624765396118164,0.0409088134765625,0.08555245399475098
1700931543395766000,4.18576611328125,0.14216041564941406,0.05974245071411133,0.12338399887084961
1700931543412761900,4.202761962890625,0.39820098876953125,0.06522607803344727,0.20767450332641602
1700931543429751000,4.2197509765625,0.20635509490966797,-0.0596013069152832,0.3376275300979614
1700931543446746000,4.23674609375,0.1375141143798828,0.06299972534179688,0.4732663631439209
1700931543463737000,4.253737060546875,-0.0520782470703125,0.08265399932861328,0.46561384201049805
1700931543480732200,4.270732177734375,-0.2322368621826172,0.11483955383300781,0.49548661708831787
1700931543497723000,4.287722900390625,-0.3250846862792969,0.09789752960205078,0.37480950355529785
1700931543514715600,4.304715576171875,-0.36421728134155273,0.013815879821777344,0.2545278072357178
1700931543531718000,4.3217177734375,-0.20834064483642578,0.019794464111328125,0.2645907998085022
1700931543548713000,4.338712890625,-0.14664077758789062,0.00048160552978515625,0.2410016655921936
1700931543565700400,4.355700439453125,-0.16839599609375,-0.0035963058471679688,0.2548028230667114
1700931543582689000,4.37268896484375,-0.22927379608154297,0.06504249572753906,0.2476324439048767
1700931543599685600,4.389685546875,-0.3299102783203125,0.1478710174560547,0.2941904664039612
1700931543616677600,4.406677734375,-0.4494810104370117,0.18134641647338867,0.3536086678504944
1700931543633670000,4.423669921875,-0.6363368034362793,0.21894359588623047,0.40654081106185913
1700931543650657300,4.4406572265625,-0.5225296020507812,0.10388517379760742,0.24943703413009644
1700931543667654400,4.457654296875,-0.16751861572265625,-0.009050369262695312,0.058496057987213135
1700931543684646700,4.474646728515625,0.14872455596923828,-0.06792497634887695,0.107169508934021
1700931543701639000,4.491638916015625,0.1019144058227539,-0.0051288604736328125,0.15754777193069458
1700931543718631400,4.50863134765625,-0.20513248443603516,0.12558364868164062,0.2926110625267029
1700931543735623700,4.525623779296875,-0.5180387496948242,0.2827739715576172,0.39758533239364624
1700931543752616200,4.5426162109375,-0.6936159133911133,0.28990888595581055,0.3221108913421631
1700931543769608400,4.5596083984375,-0.6724414825439453,0.21165132522583008,0.2461785078048706
1700931543786600700,4.5766005859375,-0.2578878402709961,0.08981895446777344,0.23211193084716797
1700931543803593200,4.59359326171875,0.06359481811523438,0.09619998931884766,0.2537640929222107
1700931543820585500,4.61058544921875,0.28612422943115234,0.05917215347290039,0.28955936431884766
1700931543837577700,4.62757763671875,0.22934818267822266,0.15810012817382812,0.22143912315368652
1700931543854570000,4.644570068359375,0.04876708984375,0.25113868713378906,0.17435872554779053
1700931543871561000,4.66156103515625,-0.1401958465576172,0.19948720932006836,0.10121381282806396
1700931543888550700,4.678550537109375,-0.44527578353881836,0.059072017669677734,0.11221086978912354
1700931543905548000,4.695548095703125,-0.4463949203491211,-0.05620527267456055,0.17134010791778564
1700931543922539500,4.71253955078125,-0.2030496597290039,-0.07770156860351562,0.2177249789237976
1700931543939531800,4.72953173828125,0.03795051574707031,0.03149271011352539,0.22870618104934692
1700931543956524000,4.74652392578125,0.18508529663085938,0.14245939254760742,0.2187488079071045
1700931543973516300,4.763516357421875,0.19179821014404297,0.24229907989501953,0.15362349152565002
1700931543990509000,4.780509033203125,0.11244010925292969,0.29949235916137695,0.10480532050132751
1700931544007501000,4.7975009765625,0.004393577575683594,0.3509688377380371,0.22637659311294556
1700931544024493800,4.814493896484375,-0.09714412689208984,0.27973318099975586,0.18701022863388062
1700931544041485600,4.831485595703125,-0.048462867736816406,0.1728382110595703,0.08555012941360474
1700931544058478000,4.84847802734375,0.012569427490234375,0.08926916122436523,0.09238409996032715
1700931544075470300,4.86547021484375,-0.0251007080078125,0.07754755020141602,0.10697638988494873
1700931544092460500,4.88246044921875,-0.015521049499511719,0.09884214401245117,0.21861281991004944
1700931544109457700,4.899457763671875,-0.08319473266601562,0.13469600677490234,0.33918535709381104
1700931544126438000,4.91643798828125,-0.13391590118408203,0.19564199447631836,0.3579677939414978
1700931544143438800,4.93343896484375,-0.10860157012939453,0.19269514083862305,0.18301182985305786
1700931544160433200,4.95043310546875,0.037735939025878906,0.13223981857299805,0.03840520977973938
1700931544177424600,4.967424560546875,0.14131641387939453,0.09425830841064453,-0.037940457463264465
1700931544194417200,4.984417236328125,0.15961170196533203,0.05905294418334961,-0.05324582755565643
1700931544211409200,5.0014091796875,0.16090011596679688,0.0467681884765625,-0.08048588782548904
1700931544228392200,5.01839208984375,0.053043365478515625,0.07967519760131836,-0.07420705258846283
1700931544245394700,5.035394775390625,-0.1696615219116211,0.11605072021484375,-0.058766141533851624
1700931544262385700,5.0523857421875,-0.2814655303955078,0.13987016677856445,-0.08292268216609955
1700931544279378700,5.069378662109375,-0.1478738784790039,0.10516691207885742,-0.05673404037952423
1700931544296371000,5.086370849609375,0.10292339324951172,0.04243659973144531,0.03690224885940552
1700931544313354200,5.103354248046875,0.1417407989501953,-0.016747474670410156,0.00465025007724762
1700931544330355700,5.120355712890625,-0.10341548919677734,-0.008882522583007812,-0.05008427053689957
1700931544347348200,5.13734814453125,-0.4290761947631836,0.06787538528442383,-0.04447139799594879
1700931544364337400,5.15433740234375,-0.6405787467956543,0.07904577255249023,-0.018905162811279297
1700931544381335300,5.171335205078125,-0.5459060668945312,0.07967233657836914,-0.00279390811920166
1700931544398325000,5.188324951171875,-0.1949758529663086,0.02505970001220703,-0.01728280633687973
1700931544415317200,5.205317138671875,0.0689692497253418,-0.033560752868652344,-0.09593984484672546
1700931544432309800,5.222309814453125,0.006653785705566406,-0.025409221649169922,-0.0880889967083931
1700931544449299700,5.2392998046875,-0.21741819381713867,0.03471946716308594,-0.03780250623822212
1700931544466296800,5.256296875,-0.3485240936279297,0.07973098754882812,-0.021923009306192398
1700931544483286500,5.27328662109375,-0.38315773010253906,0.08561182022094727,0.047755904495716095
1700931544500279000,5.290279052734375,-0.3047757148742676,0.07228374481201172,0.026960518211126328
1700931544517268700,5.307268798828125,-0.2275252342224121,0.09021472930908203,-0.010933306068181992
1700931544534266400,5.324266357421875,-0.22067642211914062,0.12488174438476562,0.008909203112125397
1700931544551263500,5.341263427734375,-0.1582651138305664,0.14892578125,0.038433607667684555
1700931544568248600,5.35824853515625,-0.047469139099121094,0.14738035202026367,0.08941256999969482
1700931544585238800,5.37523876953125,0.07124757766723633,0.1460399627685547,0.19784167408943176
1700931544602235100,5.392235107421875,0.021419525146484375,0.1843276023864746,0.16380280256271362
1700931544619214300,5.40921435546875,-0.11063861846923828,0.20142221450805664,0.07316665351390839
1700931544636217600,5.426217529296875,-0.21367263793945312,0.19727706909179688,0.03360184282064438
1700931544653210400,5.44321044921875,-0.16361618041992188,0.14247512817382812,0.040146537125110626
1700931544670202600,5.46020263671875,-0.02288341522216797,0.10318899154663086,0.05498784780502319
1700931544687184600,5.4771845703125,0.10056400299072266,0.03025960922241211,0.054012127220630646
1700931544704184000,5.49418408203125,0.1340646743774414,0.03736591339111328,0.04221881926059723
1700931544721182000,5.511181884765625,-0.009366989135742188,0.07151937484741211,-0.03080606460571289
1700931544738170400,5.52817041015625,-0.08918571472167969,0.11234235763549805,-0.09706351161003113
1700931544755164200,5.5451640625,-0.16395187377929688,0.10556888580322266,-0.1023765504360199
1700931544772156400,5.562156494140625,-0.16372394561767578,0.0883798599243164,-0.10841242969036102
1700931544789149000,5.57914892578125,-0.05033302307128906,0.05283069610595703,-0.06711224466562271
1700931544806138600,5.596138671875,-0.0050907135009765625,0.007643222808837891,0.004636093974113464
1700931544823136000,5.613135986328125,0.018088340759277344,0.029928207397460938,-0.012442708015441895
1700931544840125700,5.630125732421875,-0.03545856475830078,0.0774068832397461,-0.05721864104270935
1700931544857118200,5.6471181640625,-0.11188220977783203,0.1450181007385254,-0.08303140103816986
1700931544874110500,5.6641103515625,-0.16724348068237305,0.17516040802001953,-0.08366558700799942
1700931544891103000,5.68110302734375,-0.18412065505981445,0.15382099151611328,-0.048422254621982574
1700931544908095200,5.69809521484375,-0.030239105224609375,0.10416364669799805,0.0026696771383285522
1700931544925087500,5.71508740234375,0.15209197998046875,0.05154275894165039,0.06430232524871826
1700931544942080000,5.732080078125,0.31786441802978516,0.07265996932983398,0.17783428728580475
1700931544959072300,5.749072265625,0.19119548797607422,0.14528608322143555,0.15385298430919647
1700931544976064500,5.766064453125,-0.05972576141357422,0.192626953125,0.07607550919055939
1700931544993066200,5.783066162109375,-0.2437601089477539,0.19331693649291992,0.14049555361270905
1700931545010049500,5.800049560546875,-0.28705883026123047,0.11292076110839844,0.2225426435470581
1700931545027024600,5.817024658203125,-0.22947406768798828,0.06806182861328125,0.20395733416080475
1700931545044037400,5.834037353515625,-0.09985494613647461,0.048409461975097656,0.12728415429592133
1700931545061023700,5.851023681640625,-0.016309738159179688,0.06671428680419922,0.06288604438304901
1700931545078021000,5.868021240234375,-0.08094501495361328,0.08836984634399414,0.062460869550704956
1700931545095001000,5.8850009765625,-0.22121858596801758,0.08038330078125,0.047699376940727234
1700931545112003600,5.902003662109375,-0.27947425842285156,0.051106929779052734,-0.007290750741958618
1700931545128995600,5.91899560546875,-0.2710690498352051,0.01859140396118164,0.01512552797794342
1700931545145988000,5.935988037109375,-0.173492431640625,-0.011435508728027344,0.005740821361541748
1700931545162977800,5.952977783203125,-0.027782440185546875,0.028088092803955078,-0.035037145018577576
1700931545179975200,5.96997509765625,0.05669593811035156,0.10068511962890625,-0.03480060398578644
1700931545196964900,5.98696484375,0.04849815368652344,0.1278367042541504,-0.06973050534725189
1700931545213947000,6.00394677734375,-0.0018510818481445312,0.1418437957763672,-0.09343525022268295
1700931545230950000,6.020949951171875,-0.04419994354248047,0.16005706787109375,-0.053450971841812134
1700931545247942100,6.037942138671875,-0.030910491943359375,0.1628117561340332,-0.025815829634666443
1700931545264934400,6.054934326171875,0.032921791076660156,0.16009283065795898,0.010501936078071594
1700931545281926700,6.0719267578125,0.12581539154052734,0.16780471801757812,0.030926868319511414
1700931545298919200,6.088919189453125,0.09659481048583984,0.18394804000854492,-0.0021507740020751953
1700931545315911400,6.105911376953125,-0.0014581680297851562,0.22005367279052734,-0.007184028625488281
1700931545332903700,6.122903564453125,-0.045029640197753906,0.22074413299560547,-0.016916602849960327
1700931545349896700,6.139896728515625,-0.045322418212890625,0.2088637351989746,-0.050861239433288574
1700931545366878200,6.156878173828125,-0.06578445434570312,0.15250730514526367,0.06314264237880707
1700931545383881000,6.173880859375,-0.008397102355957031,0.11326360702514648,0.06979735195636749
1700931545400873200,6.190873291015625,0.001068115234375,0.07822084426879883,0.05156697332859039
1700931545417869600,6.20786962890625,-0.018341064453125,0.10275983810424805,0.028398022055625916
1700931545434857700,6.224857666015625,-0.05538177490234375,0.08459281921386719,-0.030938372015953064
1700931545451848200,6.24184814453125,-0.12366914749145508,0.09117364883422852,-0.015699714422225952
1700931545468844800,6.2588447265625,-0.16280841827392578,0.0926213264465332,0.060541778802871704
1700931545485824500,6.275824462890625,-0.24056339263916016,0.06415128707885742,0.11259627342224121
1700931545502823400,6.292823486328125,-0.2937288284301758,0.02241802215576172,0.06514684855937958
1700931545519819300,6.3098193359375,-0.26473140716552734,-0.007283210754394531,0.03275565803050995
1700931545536812000,6.32681201171875,-0.19394207000732422,-0.007322788238525391,0.037536174058914185
1700931545553804300,6.34380419921875,-0.16518020629882812,0.026715755462646484,0.06874613463878632
1700931545570788400,6.360788330078125,-0.14928817749023438,0.07369041442871094,0.09056255221366882
1700931545587789000,6.3777890625,-0.15868091583251953,0.10182380676269531,0.11360044777393341
1700931545604781300,6.39478125,-0.09917259216308594,0.10111522674560547,0.15735185146331787
1700931545621773600,6.411773681640625,0.0063018798828125,0.08906984329223633,0.21387873589992523
1700931545638766000,6.42876611328125,0.07468891143798828,0.06307268142700195,0.18504685163497925
1700931545655746000,6.44574609375,-0.012188911437988281,0.043825626373291016,0.1038639098405838
1700931545672752600,6.462752685546875,-0.08166885375976562,0.055893898010253906,0.13505402207374573
1700931545689740500,6.479740478515625,-0.051756858825683594,0.06584405899047852,0.16716992855072021
1700931545706738000,6.496738037109375,-0.04514265060424805,0.06745719909667969,0.17988558113574982
1700931545723727600,6.5137275390625,-0.07513141632080078,0.07973909378051758,0.17270953953266144
1700931545740720000,6.53072021484375,-0.09333229064941406,0.08715057373046875,0.12548795342445374
1700931545757712400,6.54771240234375,-0.032962799072265625,0.09674596786499023,0.06411126255989075
1700931545774705000,6.564704833984375,0.05532360076904297,0.09934329986572266,0.06075584888458252
1700931545791697400,6.581697509765625,0.018754959106445312,0.10257863998413086,0.04416738450527191
1700931545808679700,6.5986796875,-0.10337209701538086,0.12872314453125,0.03835044801235199
1700931545825682000,6.615681884765625,-0.11671972274780273,0.1177968978881836,0.06819137930870056
1700931545842671600,6.632671630859375,0.02051830291748047,0.09850406646728516,0.18162524700164795
1700931545859669200,6.649669189453125,0.1962261199951172,0.11709880828857422,0.15068647265434265
1700931545876659000,6.666658935546875,-0.046172142028808594,0.01367807388305664,0.0723293274641037
1700931545893651200,6.683651123046875,-0.20614242553710938,0.17385244369506836,0.16300438344478607
1700931545910630400,6.70063037109375,-0.21729373931884766,0.1955418586730957,0.10471957921981812
1700931545927638500,6.717638427734375,-0.0034027099609375,0.1906900405883789,0.06545121967792511
1700931545944628200,6.734628173828125,0.03517913818359375,0.13302087783813477,0.09242360293865204
1700931545961620700,6.751620849609375,-0.11321830749511719,0.12206792831420898,0.07394695281982422
1700931545978613000,6.768613037109375,-0.2096118927001953,0.1115565299987793,0.05920509994029999
1700931545995605200,6.785605224609375,-0.1960315704345703,0.07597064971923828,0.006297051906585693
1700931546012597800,6.80259765625,-0.05728721618652344,0.10405826568603516,0.06420324742794037
1700931546029590300,6.81959033203125,0.03427314758300781,0.12792348861694336,0.14941708743572235
1700931546046579200,6.8365791015625,-0.009059906005859375,0.1201329231262207,0.12922070920467377
1700931546063574300,6.85357421875,-0.05033588409423828,0.11448335647583008,0.09065954387187958
1700931546080567000,6.870567138671875,-0.10208940505981445,0.08708906173706055,0.11964380741119385
1700931546097559600,6.8875595703125,-0.10824298858642578,0.02725839614868164,0.04403775930404663
1700931546114551800,6.9045517578125,-0.0872049331665039,-0.03802824020385742,-0.005094930529594421
1700931546131541800,6.921541748046875,0.017851829528808594,0.040760040283203125,0.033574581146240234
1700931546148529000,6.93852880859375,0.011069297790527344,0.09134817123413086,0.06684276461601257
1700931546165529000,6.955529052734375,-0.14237356185913086,0.140228271484375,0.060245856642723083
1700931546182521000,6.97252099609375,-0.35431337356567383,0.1158757209777832,0.03644295036792755
1700931546199513300,6.989513427734375,-0.3709855079650879,0.1275014877319336,0.07574571669101715
1700931546216505900,7.006505859375,-0.16982507705688477,0.09690523147583008,0.17112486064434052
1700931546233498400,7.023498291015625,0.04384136199951172,0.06326723098754883,0.07869225740432739
1700931546250490600,7.04049072265625,0.07913017272949219,0.08007574081420898,0.07395535707473755
1700931546267470000,7.057469970703125,0.11212730407714844,0.16530466079711914,0.20727145671844482
1700931546284466700,7.074466796875,-0.0402984619140625,0.17602062225341797,0.14987577497959137
1700931546301464300,7.09146435546875,-0.22055912017822266,0.1326913833618164,0.040055036544799805
1700931546318460000,7.1084599609375,-0.16752147674560547,0.07614850997924805,0.07888829708099365
1700931546335452200,7.1254521484375,0.023668289184570312,0.024281978607177734,0.06489385664463043
1700931546352444700,7.142444580078125,0.15866565704345703,0.028774738311767578,0.07557585835456848
1700931546369437200,7.159437255859375,0.06750965118408203,0.0711202621459961,0.09339548647403717
1700931546386429400,7.176429443359375,-0.18835735321044922,0.09532451629638672,0.09948559105396271
1700931546403421700,7.193421630859375,-0.2859840393066406,0.15329504013061523,0.17995315790176392
1700931546420414200,7.210414306640625,-0.1829519271850586,0.15884876251220703,0.17939479649066925
1700931546437406500,7.227406494140625,-0.059474945068359375,0.1215972900390625,0.14930494129657745
1700931546454398700,7.244398681640625,-0.017508506774902344,0.12937021255493164,0.20872262120246887
1700931546471391200,7.26139111328125,0.06208038330078125,0.14288997650146484,0.18287068605422974
1700931546488383500,7.278383544921875,0.1715106964111328,0.1646595001220703,0.10661362111568451
1700931546505375700,7.295375732421875,0.2726879119873047,0.17544078826904297,0.13121016323566437
1700931546522368300,7.3123681640625,0.15794944763183594,0.16170263290405273,0.13820865750312805
1700931546539346400,7.329346435546875,-0.024236679077148438,0.14419317245483398,0.11170372366905212
1700931546556340200,7.34634033203125,-0.14641332626342773,0.10708284378051758,0.046608954668045044
1700931546573335000,7.3633349609375,-0.1185150146484375,0.07226276397705078,0.0587804913520813
1700931546590340000,7.380340087890625,0.06373882293701172,0.04270124435424805,0.029111593961715698
1700931546607330000,7.397330078125,0.15824413299560547,0.029417037963867188,-0.006189748644828796
1700931546624319500,7.414319580078125,0.15180015563964844,0.056638240814208984,0.027170449495315552
1700931546641305000,7.43130517578125,-0.022432327270507812,0.03005695343017578,-0.022310197353363037
1700931546658300000,7.4482998046875,-0.14038944244384766,-0.051064491271972656,-0.09222999960184097
1700931546675289600,7.46528955078125,-0.10937976837158203,-0.173583984375,-0.2007584571838379
1700931546692282000,7.4822822265625,-0.062010765075683594,-0.09747838973999023,-0.0779794454574585
1700931546709274400,7.4992744140625,-0.19766855239868164,-0.02350473403930664,0.12005238234996796
1700931546726268200,7.51626806640625,-0.2792654037475586,0.007771015167236328,0.06215210258960724
1700931546743263200,7.53326318359375,-0.20850849151611328,0.00797414779663086,-0.017295941710472107
1700931546760252700,7.550252685546875,-0.03307342529296875,-0.006631374359130859,0.024987801909446716
1700931546777244700,7.56724462890625,-0.0269622802734375,-0.02753305435180664,-0.043846920132637024
1700931546794237700,7.58423779296875,-0.043890953063964844,0.01804637908935547,0.012691095471382141
1700931546811228700,7.601228759765625,-0.03563499450683594,0.05599498748779297,0.11955615878105164
1700931546828221700,7.6182216796875,0.042128562927246094,0.06337785720825195,0.06409277021884918
1700931546845220000,7.63522021484375,0.07150936126708984,0.032186031341552734,0.02493499219417572
1700931546862206700,7.652206787109375,0.023946762084960938,0.00861501693725586,0.03946954011917114
1700931546879199200,7.66919921875,-0.051445960998535156,0.03749990463256836,0.10127657651901245
1700931546896191200,7.686191162109375,-0.10678577423095703,0.07180023193359375,0.14292795956134796
1700931546913193700,7.70319384765625,-0.007540702819824219,0.07832765579223633,0.17507430911064148
1700931546930192000,7.72019189453125,0.08848285675048828,0.0789022445678711,0.18647362291812897
1700931546947167000,7.7371669921875,0.11998844146728516,0.06658506393432617,0.12872116267681122
1700931546964170800,7.754170654296875,0.0988321304321289,0.07552719116210938,0.1306881308555603
1700931546981142000,7.77114208984375,0.015259742736816406,0.09413623809814453,0.0769648402929306
1700931546998154000,7.788154052734375,-0.022064208984375,0.0894155502319336,0.043835967779159546
1700931547015146500,7.805146484375,0.0026683807373046875,0.07299375534057617,0.009301558136940002
1700931547032138800,7.822138671875,0.050174713134765625,0.07162857055664062,0.01205955445766449
1700931547049131000,7.839131103515625,0.08914852142333984,0.05161333084106445,0.03263360261917114
1700931547066123500,7.85612353515625,0.07977676391601562,0.022494792938232422,0.09040631353855133
1700931547083115800,7.87311572265625,0.0897359848022461,0.021374225616455078,0.11165674030780792
1700931547100108000,7.89010791015625,0.03905487060546875,0.05428743362426758,0.07845517992973328
1700931547117100300,7.907100341796875,-0.06664085388183594,0.078277587890625,0.061725154519081116
1700931547134092800,7.9240927734375,-0.147369384765625,0.06908941268920898,0.11692482233047485
1700931547151085300,7.941085205078125,-0.12811279296875,0.04435110092163086,0.1429138332605362
1700931547168077600,7.95807763671875,0.05427742004394531,0.002136707305908203,0.12724071741104126
1700931547185069800,7.97506982421875,0.17785167694091797,-0.016062259674072266,0.11394578218460083
1700931547202062000,7.99206201171875,0.15659236907958984,-0.012403011322021484,0.1508336216211319
1700931547219052000,8.009052001953124,0.06061553955078125,-0.009320259094238281,0.14868590235710144
1700931547236049400,8.02604931640625,0.009016036987304688,0.000995635986328125,0.13787555694580078
1700931547253039400,8.043039306640624,-0.027291297912597656,0.014374256134033203,0.14679370820522308
1700931547270032100,8.0600322265625,-0.05523490905761719,0.006067752838134766,0.14100946485996246
1700931547287011800,8.07701171875,-0.12536239624023438,0.0029053688049316406,0.08626265823841095
1700931547304006000,8.094005859375,-0.18900394439697266,-0.039444923400878906,0.07141505181789398
1700931547321006000,8.111006103515624,-0.19090747833251953,-0.04397869110107422,0.06763850152492523
1700931547338003700,8.128003662109375,-0.1802825927734375,-0.03207969665527344,0.052704840898513794
1700931547354993400,8.144993408203124,-0.2312021255493164,0.0005283355712890625,-0.03942200541496277
1700931547371985700,8.161985595703126,-0.3679947853088379,0.05103874206542969,-0.053895264863967896
1700931547388968000,8.178968017578125,-0.28638648986816406,0.06820106506347656,0.009972065687179565
1700931547405961000,8.1959609375,-0.059037208557128906,0.046665191650390625,0.038664668798446655
1700931547422960000,8.212960205078126,0.13780593872070312,0.05027627944946289,0.08397586643695831
1700931547439957800,8.229957763671875,0.17856407165527344,0.06849479675292969,0.15353581309318542
1700931547456956400,8.246956298828126,0.08393478393554688,0.07071256637573242,0.09265141189098358
1700931547473937200,8.263937255859375,-0.02771472930908203,0.11148595809936523,0.050949424505233765
1700931547490935000,8.28093505859375,-0.06925392150878906,0.1361527442932129,0.05267970263957977
1700931547507924500,8.297924560546875,0.024183273315429688,0.14102458953857422,0.06325162947177887
1700931547524917000,8.3149169921875,0.17672157287597656,0.12345457077026367,0.06651559472084045
1700931547541906700,8.33190673828125,0.21925830841064453,0.0988459587097168,0.03995996713638306
1700931547558904000,8.348904052734374,0.16864013671875,0.0900874137878418,-0.010403186082839966
1700931547575894000,8.36589404296875,0.0027923583984375,0.11440801620483398,-0.00005817413330078125
1700931547592886300,8.38288623046875,-0.13790225982666016,0.1232304573059082,0.03981733322143555
1700931547609878800,8.399878662109375,-0.1649036407470703,0.07148122787475586,0.10299444198608398
1700931547626868500,8.416868408203126,-0.1750202178955078,-0.00007152557373046875,0.07444071769714355
1700931547643863300,8.43386328125,-0.14890766143798828,0.011725902557373047,0.06958472728729248
1700931547660855800,8.450855712890625,-0.086700439453125,0.04314136505126953,0.1148175299167633
1700931547677848000,8.46784814453125,-0.08370828628540039,0.042639732360839844,0.10654893517494202
1700931547694840600,8.484840576171875,-0.1615123748779297,0.033161163330078125,0.09029069542884827
1700931547711838200,8.501838134765626,-0.16822528839111328,0.02532339096069336,0.12714597582817078
1700931547728825300,8.518825439453124,-0.0958414077758789,0.0257110595703125,0.113797128200531
1700931547745817600,8.535817626953126,-0.008396148681640625,0.01366281509399414,0.09208941459655762
1700931547762813000,8.55281298828125,-0.01951313018798828,0.07012796401977539,0.10161888599395752
1700931547779799000,8.569799072265624,-0.037960052490234375,0.08134222030639648,0.140544593334198
1700931547796792300,8.586792236328124,-0.049091339111328125,0.07560539245605469,0.10935163497924805
1700931547813789400,8.60378955078125,-0.11630010604858398,0.06423807144165039,0.10322320461273193
1700931547830763000,8.620762939453124,-0.14140987396240234,0.04879903793334961,0.06589758396148682
1700931547847768800,8.637768798828125,-0.05451059341430664,0.059380531311035156,0.04977312684059143
1700931547864764000,8.654763916015625,0.04369163513183594,0.09848499298095703,0.09920018911361694
1700931547881756200,8.671756103515625,0.08426856994628906,0.0980525016784668,0.1383322775363922
1700931547898748700,8.688748779296875,0.06794261932373047,0.08977079391479492,0.1325969099998474
1700931547915741200,8.7057412109375,-0.05116081237792969,0.09631061553955078,0.08533209562301636
1700931547932724000,8.722723876953125,-0.15835142135620117,0.06297874450683594,0.09222865104675293
1700931547949726000,8.739725830078125,-0.2039480209350586,0.0657801628112793,0.058053553104400635
1700931547966718200,8.75671826171875,-0.16945409774780273,0.050164222717285156,0.034534603357315063
1700931547983710500,8.77371044921875,-0.05858278274536133,0.049687862396240234,-0.010115087032318115
1700931548000702700,8.79070263671875,0.021851539611816406,0.05319976806640625,0.022667407989501953
1700931548017695200,8.8076953125,0.036113739013671875,0.06287384033203125,0.043629199266433716
1700931548034687500,8.8246875,-0.028105735778808594,0.0895991325378418,0.06346526741981506
1700931548051668700,8.841668701171875,-0.05168628692626953,0.10974550247192383,0.054645836353302
1700931548068661000,8.858660888671874,0.022909164428710938,0.1038365364074707,0.059834301471710205
1700931548085666300,8.875666259765625,0.09778404235839844,0.09098005294799805,0.09194210171699524
1700931548102660000,8.89266015625,0.11307239532470703,0.06886672973632812,0.10557755827903748
1700931548119634700,8.909634765625,0.01847553253173828,0.07070159912109375,0.12124034762382507
1700931548136642300,8.926642333984375,-0.12530517578125,0.05439138412475586,0.09771206974983215
1700931548153634000,8.943634033203125,-0.1706233024597168,0.05373811721801758,0.1136573851108551
1700931548170626600,8.96062646484375,-0.14330768585205078,0.08124017715454102,0.10830280184745789
1700931548187618800,8.977618896484374,-0.10157442092895508,0.07728433609008789,0.06747236847877502
1700931548204611000,8.994611083984376,-0.0780649185180664,0.0650339126586914,0.025458991527557373
1700931548221603300,9.011603271484375,-0.06753158569335938,0.04855012893676758,0.017588049173355103
1700931548238596000,9.02859619140625,-0.05459785461425781,0.029803752899169922,0.028439223766326904
1700931548255595500,9.045595458984375,-0.05391216278076172,0.037737369537353516,0.07478725910186768
1700931548272580600,9.06258056640625,-0.08183860778808594,0.05464887619018555,0.06866756081581116
1700931548289569300,9.0795693359375,-0.0825052261352539,0.07403326034545898,0.07672736048698425
1700931548306569200,9.0965693359375,-0.07819938659667969,0.08753204345703125,0.059957653284072876
1700931548323553500,9.113553466796875,-0.047696590423583984,0.07444047927856445,0.05608096718788147
1700931548340547600,9.130547607421875,0.0063343048095703125,0.06131458282470703,0.0487610399723053
1700931548357545000,9.147544921875,0.008946418762207031,0.05695533752441406,0.07118779420852661
1700931548374534700,9.16453466796875,-0.03354454040527344,0.07381725311279297,0.10091859102249146
1700931548391527200,9.181527099609376,-0.09134244918823242,0.08863258361816406,0.049554914236068726
1700931548408509000,9.198509033203125,-0.08424901962280273,0.09661483764648438,0.023274362087249756
1700931548425511700,9.21551171875,-0.01816558837890625,0.09170866012573242,0.02326264977455139
1700931548442503700,9.232503662109375,0.001529693603515625,0.08285188674926758,0.04720446467399597
1700931548459496700,9.24949658203125,-0.06378841400146484,0.08945178985595703,0.09726753830909729
1700931548476478500,9.266478515625,-0.11263370513916016,0.11281204223632812,0.16405904293060303
1700931548493481200,9.283481201171876,-0.0688323974609375,0.13037729263305664,0.14780762791633606
1700931548510473700,9.3004736328125,-0.016592025756835938,0.11173629760742188,0.10050243139266968
1700931548527466000,9.317466064453125,-0.011234283447265625,0.10409879684448242,0.10305586457252502
1700931548544448000,9.334447998046874,-0.053752899169921875,0.09445714950561523,0.1087246835231781
1700931548561449200,9.35144921875,-0.032334327697753906,0.0933995246887207,0.1437338888645172
1700931548578443000,9.368443115234374,-0.013311386108398438,0.08475923538208008,0.1695956289768219
1700931548595435500,9.385435546875,-0.00279998779296875,0.07055473327636719,0.12897226214408875
1700931548612428000,9.402427978515625,0.0022830963134765625,0.03249073028564453,0.020465701818466187
1700931548629421300,9.41942138671875,-0.060727596282958984,0.02345561981201172,-0.021356523036956787
1700931548646412300,9.436412353515625,-0.11605453491210938,0.02621603012084961,0.004244983196258545
1700931548663404800,9.45340478515625,-0.16983366012573242,0.050255775451660156,0.02656465768814087
1700931548680397300,9.470397216796876,-0.11861419677734375,0.08799076080322266,0.014044731855392456
1700931548697389300,9.487389404296875,-0.042115211486816406,0.09829092025756836,0.030970633029937744
1700931548714373000,9.504373046875,0.12203121185302734,0.04205131530761719,0.09578889608383179
1700931548731374300,9.521374267578125,0.18042850494384766,-0.015813350677490234,0.0729181170463562
1700931548748366800,9.538366943359375,0.03953742980957031,-0.008601665496826172,0.10563305020332336
1700931548765359000,9.555359130859374,-0.19112062454223633,0.015096187591552734,0.11273643374443054
1700931548782351400,9.572351318359376,-0.26862525939941406,0.044348716735839844,0.05391693115234375
1700931548799343600,9.589343505859375,-0.12549638748168945,0.06158924102783203,0.046544283628463745
1700931548816336100,9.606336181640625,0.04239654541015625,0.05561017990112305,0.03669792413711548
1700931548833315000,9.623315185546875,0.08139801025390625,0.01669025421142578,0.028957366943359375
1700931548850313500,9.6403134765625,0.004200935363769531,0.01796245574951172,0.03734642267227173
1700931548867313200,9.657313232421876,-0.10609817504882812,0.03715801239013672,0.05425843596458435
1700931548884304000,9.674303955078125,-0.14546442031860352,0.06557941436767578,0.051734209060668945
1700931548901300200,9.69130029296875,-0.079559326171875,0.06211233139038086,0.031566321849823
1700931548918290200,9.708290283203125,0.033936500549316406,0.0647273063659668,0.006526589393615723
1700931548935282700,9.72528271484375,0.046227455139160156,0.0505833625793457,0.03190505504608154
1700931548952272600,9.742272705078125,0.03888416290283203,0.036893367767333984,0.04073220491409302
1700931548969269800,9.759269775390624,0.09391498565673828,0.03490638732910156,0.0662720799446106
1700931548986259700,9.776259765625,0.09167289733886719,0.043177127838134766,0.08910363912582397
1700931549003252000,9.793251953125,-0.06054401397705078,0.05002450942993164,0.07837748527526855
1700931549020244200,9.810244140625,-0.23897647857666016,0.06113004684448242,0.06418153643608093
1700931549037236700,9.82723681640625,-0.24108028411865234,0.051581382751464844,0.08632451295852661
1700931549054229200,9.844229248046876,-0.08501482009887695,0.04280519485473633,0.10563996434211731
1700931549071221800,9.8612216796875,0.1355113983154297,0.0352625846862793,0.06363031268119812
1700931549088214800,9.87821484375,0.1775493621826172,0.031439781188964844,0.06342840194702148
1700931549105205200,9.895205322265625,0.058951377868652344,0.06633234024047852,0.0896088182926178
1700931549122192400,9.9121923828125,-0.14277076721191406,0.08029794692993164,0.08606252074241638
1700931549139190800,9.929190673828124,-0.21717309951782227,0.09173107147216797,0.05151519179344177
1700931549156183600,9.94618359375,-0.12861347198486328,0.08166027069091797,0.04459172487258911
1700931549173175600,9.963175537109375,0.027550697326660156,0.06392192840576172,0.09859317541122437
1700931549190168300,9.980168212890625,0.08231830596923828,0.058825016021728516,0.07995054125785828
1700931549207149800,9.99714990234375,0.027887344360351562,0.06669378280639648,0.07025256752967834
1700931549224150800,10.01415087890625,-0.06652545928955078,0.08548116683959961,0.09503480792045593
1700931549241139000,10.031138916015625,-0.17153024673461914,0.0743570327758789,0.0963674783706665
1700931549258137300,10.048137451171876,-0.19090986251831055,0.04503488540649414,0.0453508198261261
1700931549275129900,10.0651298828125,-0.13213634490966797,0.07621431350708008,0.04191333055496216
1700931549292112100,10.082112060546875,-0.20447731018066406,0.05302858352661133,0.055588364601135254
1700931549309112000,10.099112060546876,0.075225830078125,0.06734943389892578,0.014926522970199585
1700931549326109700,10.116109619140625,0.2297506332397461,0.05372476577758789,0.025655031204223633
1700931549343095000,10.133094970703125,0.214447021484375,0.06247854232788086,0.058990418910980225
1700931549360091600,10.150091552734375,0.055525779724121094,0.05517578125,0.09359696507453918
1700931549377084200,10.167084228515625,-0.11042976379394531,0.05671072006225586,0.11022570729255676
1700931549394076400,10.184076416015625,-0.15283632278442383,0.0570526123046875,0.11075130105018616
1700931549411058400,10.201058349609376,-0.07438850402832031,0.048096656799316406,0.11896669864654541
1700931549428061200,10.218061279296874,0.008610725402832031,0.023015975952148438,0.10721051692962646
1700931549445053700,10.2350537109375,0.02281475067138672,0.013436317443847656,0.08442685008049011
1700931549462046000,10.2520458984375,-0.07132625579833984,0.011246204376220703,0.05778348445892334
1700931549479038200,10.2690380859375,-0.12252044677734375,0.028154850006103516,0.07974892854690552
1700931549496030700,10.28603076171875,-0.09458541870117188,0.03776407241821289,0.08222007751464844
1700931549513023000,10.30302294921875,0.023044586181640625,0.028149127960205078,0.05123847723007202
1700931549530015500,10.320015380859376,0.05492210388183594,0.006005764007568359,0.016948997974395752
1700931549547007700,10.3370078125,0.03568267822265625,0.034624576568603516,0.02088424563407898
1700931549563997400,10.35399755859375,-0.035930633544921875,0.04896259307861328,0.049675434827804565
1700931549580992300,10.3709921875,-0.13856220245361328,0.03966474533081055,0.08033949136734009
1700931549597984800,10.38798486328125,-0.1412067413330078,0.03133249282836914,0.0972871482372284
1700931549614977000,10.40497705078125,-0.10417461395263672,0.05846071243286133,0.09382826089859009
1700931549631956700,10.421956787109375,-0.04275989532470703,0.058203697204589844,0.0960661768913269
1700931549648964600,10.438964599609376,0.009206771850585938,0.06892967224121094,0.10052356123924255
1700931549665954300,10.455954345703125,-0.058361053466796875,0.05306863784790039,0.06010589003562927
1700931549682941700,10.472941650390625,-0.1038055419921875,0.05792713165283203,0.047211676836013794
1700931549699941600,10.489941650390625,-0.10698843002319336,0.06931495666503906,0.06099945306777954
1700931549716931300,10.506931396484376,-0.06998729705810547,0.06913137435913086,0.07278287410736084
1700931549733923600,10.523923583984375,-0.044464111328125,0.08474397659301758,0.08189818263053894
1700931549750916000,10.540916015625,-0.014577865600585938,0.05990266799926758,0.06962892413139343
1700931549767896300,10.557896240234374,0.022924423217773438,0.025494098663330078,0.036812156438827515
1700931549784892700,10.574892578125,0.04634284973144531,0.04226112365722656,0.03475138545036316
1700931549801900000,10.591900146484376,0.06731128692626953,0.07671642303466797,0.03954112529754639
1700931549818885400,10.608885498046876,0.040955543518066406,0.09498214721679688,0.0371779203414917
1700931549835878000,10.6258779296875,-0.027261734008789062,0.09247970581054688,0.060619503259658813
1700931549852869400,10.642869384765625,-0.09624481201171875,0.035002708435058594,0.09069767594337463
1700931549869863700,10.65986376953125,-0.11256790161132812,0.007708072662353516,0.0887189507484436
1700931549886844400,10.676844482421876,-0.06766414642333984,-0.017755985260009766,0.07819873094558716
1700931549903847400,10.693847412109376,-0.056662559509277344,0.017468929290771484,0.06735840439796448
1700931549920839700,10.710839599609375,-0.035762786865234375,0.04616832733154297,0.039591461420059204
1700931549937832200,10.727832275390625,-0.053424835205078125,0.061597347259521484,-0.021540194749832153
1700931549954824700,10.74482470703125,-0.08004283905029297,0.06307792663574219,-0.005319446325302124
1700931549971817200,10.761817138671875,-0.11118555068969727,0.04544258117675781,0.02599412202835083
1700931549988809200,10.778809326171874,-0.10451316833496094,0.03609418869018555,0.03307229280471802
1700931550005801500,10.795801513671876,-0.02921772003173828,0.025412559509277344,0.04885813593864441
1700931550022791000,10.812791015625,0.005049705505371094,0.040345191955566406,0.04174640774726868
1700931550039789300,10.829789306640626,0.05503273010253906,0.07539606094360352,0.04597112536430359
1700931550056772900,10.84677294921875,0.13005542755126953,0.06756114959716797,0.04412427544593811
1700931550073763600,10.863763671875,0.16408061981201172,0.05121612548828125,0.027803808450698853
1700931550090765300,10.880765380859375,0.10402584075927734,0.049558162689208984,0.021559178829193115
1700931550107753200,10.897753173828125,0.014710426330566406,0.04820966720581055,0.04098859429359436
1700931550124748000,10.914748046875,-0.09820842742919922,0.05340099334716797,0.06232711672782898
1700931550141733000,10.931733154296875,-0.10883378982543945,0.029779434204101562,0.03850236535072327
1700931550158725000,10.94872509765625,-0.0029850006103515625,0.022388935089111328,-0.011025935411453247
1700931550175715800,10.9657158203125,0.026078224182128906,0.05047607421875,-0.01236775517463684
1700931550192710000,10.9827099609375,-0.054795265197753906,0.07928848266601562,-0.027579843997955322
1700931550209698800,10.99969873046875,-0.17777633666992188,0.0769510269165039,-0.02088901400566101
1700931550226698000,11.016697998046874,-0.2235550880432129,0.057944297790527344,0.044260501861572266
1700931550243689200,11.033689208984375,-0.1666278839111328,0.0045642852783203125,0.006924986839294434
1700931550260676900,11.0506767578125,-0.15107440948486328,0.0031232833862304688,-0.06284788250923157
1700931550277673000,11.0676728515625,-0.13338708877563477,0.03564882278442383,-0.07546055316925049
1700931550294669000,11.0846689453125,-0.05168628692626953,0.06914901733398438,-0.1141042709350586
1700931550311654700,11.101654541015625,0.05886268615722656,0.0968470573425293,-0.13790050148963928
1700931550328648400,11.1186484375,-0.0019779205322265625,0.09822320938110352,-0.18088626861572266
1700931550345641200,11.13564111328125,-0.004948616027832031,0.10158014297485352,-0.1478358507156372
1700931550362631700,11.152631591796874,0.03612804412841797,0.10681438446044922,-0.05666673183441162
1700931550379624700,11.169624755859376,0.08957672119140625,0.1094207763671875,-0.10929808020591736
1700931550396620300,11.186620361328124,0.10509967803955078,0.12723827362060547,-0.1514107882976532
1700931550413611500,11.203611572265626,0.19161319732666016,0.14547252655029297,-0.08052816987037659
1700931550430602500,11.2206025390625,0.21254730224609375,0.1474776268005371,-0.006642252206802368
1700931550447592700,11.2375927734375,0.0670623779296875,0.13646888732910156,-0.02788156270980835
1700931550464585500,11.25458544921875,-0.1154327392578125,0.1241769790649414,-0.04856070876121521
1700931550481582800,11.271582763671875,-0.1380615234375,0.1338334083557129,-0.01498839259147644
1700931550498577000,11.288576904296875,-0.1539163589477539,0.1209869384765625,-0.08245542645454407
1700931550515564800,11.305564697265625,-0.1736593246459961,0.07127761840820312,-0.08547317981719971
1700931550532556500,11.322556640625,-0.14832687377929688,0.11804342269897461,-0.016386479139328003
1700931550549549600,11.339549560546875,-0.08469009399414062,0.11223268508911133,-0.03707501292228699
1700931550566551600,11.356551513671874,0.09107112884521484,0.057851314544677734,-0.07038593292236328
1700931550583542000,11.3735419921875,0.08358097076416016,0.020559310913085938,-0.07250487804412842
1700931550600534500,11.390534423828125,-0.04360771179199219,-0.004776477813720703,-0.06935232877731323
1700931550617526800,11.40752685546875,-0.1354351043701172,0.007602691650390625,-0.05954590439796448
1700931550634519000,11.42451904296875,-0.0637674331665039,-0.0012216567993164062,-0.0688917338848114
1700931550651507700,11.4415078125,0.13270950317382812,0.007213115692138672,-0.059733420610427856
1700931550668496000,11.458495849609376,0.2778186798095703,0.042771339416503906,-0.02732989192008972
1700931550685496300,11.475496337890625,0.18030643463134766,0.05099344253540039,-0.03564268350601196
1700931550702470100,11.49247021484375,-0.03688335418701172,0.0779714584350586,0.015430957078933716
1700931550719481000,11.509481201171875,-0.26889896392822266,0.08776187896728516,0.03879711031913757
1700931550736469800,11.5264697265625,-0.32672977447509766,0.06773185729980469,0.05462294816970825
1700931550753469700,11.5434697265625,-0.20779895782470703,0.0356450080871582,0.060529351234436035
1700931550770458000,11.5604580078125,-0.04228496551513672,0.045714378356933594,0.1082533597946167
1700931550787451000,11.577450927734375,0.0366973876953125,0.09194087982177734,0.11574909090995789
1700931550804440300,11.5944404296875,0.04640007019042969,0.0983114242553711,0.09319812059402466
1700931550821438000,11.61143798828125,-0.02685832977294922,0.07790565490722656,0.0387040376663208
1700931550838429200,11.62842919921875,-0.17977380752563477,0.04936408996582031,0.03933829069137573
1700931550855418400,11.64541845703125,-0.28871631622314453,0.021892547607421875,0.05368298292160034
1700931550872412700,11.66241259765625,-0.27419185638427734,-0.007056236267089844,0.036691635847091675
1700931550889405000,11.679405029296875,-0.12211990356445312,0.0149078369140625,0.09550386667251587
1700931550906397200,11.696397216796875,0.03873443603515625,0.02905130386352539,0.1181967556476593
1700931550923389700,11.7133896484375,0.052544593811035156,-0.0020003318786621094,0.10375672578811646
1700931550940379400,11.73037939453125,0.06370258331298828,0.019036293029785156,0.10477450489997864
1700931550957376800,11.747376708984374,-0.09506797790527344,-0.029198646545410156,0.15143004059791565
1700931550974366700,11.76436669921875,-0.21852970123291016,-0.07155990600585938,0.18899989128112793
1700931550991359200,11.781359130859375,-0.18649721145629883,-0.05844831466674805,0.22923481464385986
1700931551008351200,11.798351318359375,-0.09048080444335938,-0.026358604431152344,0.2350073754787445
1700931551025341200,11.815341064453126,-0.05470085144042969,0.0565190315246582,0.1823691427707672
1700931551042338600,11.832338623046875,-0.1053609848022461,0.11493587493896484,0.18903321027755737
1700931551059318300,11.849318359375,-0.08511543273925781,0.18119001388549805,0.27257946133613586
1700931551076320800,11.86632080078125,-0.06464004516601562,0.1472306251525879,0.32506367564201355
1700931551093313300,11.883313232421875,-0.03615379333496094,-0.016871929168701172,0.2862972021102905
1700931551110295000,11.900294921875,-0.07524871826171875,-0.13071870803833008,0.18192142248153687
1700931551127287600,11.91728759765625,-0.26550912857055664,-0.18936920166015625,0.1351500153541565
1700931551144287200,11.934287353515625,-0.16152191162109375,-0.15497255325317383,0.145083487033844
1700931551161286000,11.951285888671874,0.22967529296875,-0.11896657943725586,-0.023042917251586914
1700931551178275000,11.968275146484375,0.508967399597168,-0.05912017822265625,-0.14053338766098022
1700931551195264800,11.9852646484375,0.5243034362792969,0.04553031921386719,-0.06584814190864563
1700931551212262400,12.002262451171875,0.3273658752441406,0.09042024612426758,-0.0954081118106842
1700931551229252400,12.01925244140625,0.018944740295410156,0.09744548797607422,-0.05159717798233032
1700931551246244600,12.03624462890625,-0.1505270004272461,0.059133052825927734,0.0027085840702056885
1700931551263236900,12.05323681640625,-0.1846771240234375,-0.01219320297241211,0.046402424573898315
1700931551280229400,12.0702294921875,-0.06510734558105469,-0.06125926971435547,0.08459314703941345
1700931551297219600,12.087219482421874,0.03380107879638672,-0.0842428207397461,0.13596618175506592
1700931551314216400,12.104216552734375,0.11623001098632812,-0.047276973724365234,0.1796988844871521
1700931551331207400,12.12120751953125,0.17728137969970703,-0.010729789733886719,0.2201949954032898
1700931551348199000,12.138198974609375,0.13918113708496094,0.008554935455322266,0.2199518382549286
1700931551365190400,12.1551904296875,0.018436431884765625,0.005685329437255859,0.231021910905838
1700931551382184700,12.172184814453125,-0.08713531494140625,-0.013927936553955078,0.19039574265480042
1700931551399176000,12.189176025390625,-0.13068485260009766,-0.03976583480834961,0.13628506660461426
1700931551416165600,12.20616552734375,-0.08056354522705078,-0.026140689849853516,0.11388295888900757
1700931551433163300,12.223163330078124,0.02100086212158203,0.021144390106201172,0.10192298889160156
1700931551450153200,12.2401533203125,0.08973503112792969,0.04181098937988281,0.08178222179412842
1700931551467134500,12.257134521484375,0.09361457824707031,0.031635284423828125,0.13556933403015137
1700931551484140000,12.27414013671875,-0.0642404556274414,-0.0022802352905273438,0.147968590259552
1700931551501115400,12.291115478515625,-0.26296377182006836,-0.016017913818359375,0.09969007968902588
1700931551518122500,12.30812255859375,-0.31787681579589844,-0.01963329315185547,0.09403550624847412
1700931551535115000,12.325114990234376,-0.10339832305908203,0.0032062530517578125,0.12960249185562134
1700931551552107300,12.342107177734375,0.21523761749267578,0.04589986801147461,0.12264811992645264
1700931551569099800,12.359099853515625,0.31286144256591797,0.024178504943847656,0.09784132242202759
1700931551586092000,12.376092041015625,0.12348556518554688,0.040639400482177734,0.13357210159301758
1700931551603084300,12.393084228515624,-0.1114950180053711,0.04334831237792969,0.14017415046691895
1700931551620076500,12.41007666015625,-0.19230079650878906,0.029033184051513672,0.14265412092208862
1700931551637069300,12.4270693359375,-0.08125495910644531,-0.008525371551513672,0.12580788135528564
1700931551654061600,12.4440615234375,0.08955192565917969,-0.020660877227783203,0.1333981156349182
1700931551671054000,12.46105419921875,0.17951011657714844,-0.005180835723876953,0.09311884641647339
1700931551688046300,12.47804638671875,0.08542060852050781,0.011914253234863281,0.07368582487106323
1700931551705038600,12.49503857421875,-0.07369232177734375,0.030411243438720703,0.055199503898620605
1700931551722031000,12.512031005859376,-0.08089733123779297,0.04572725296020508,0.10187080502510071
1700931551739021000,12.52902099609375,0.011519432067871094,0.03791618347167969,0.12426698207855225
1700931551756018400,12.546018310546875,0.068572998046875,0.03218889236450195,0.08559876680374146
1700931551773008400,12.56300830078125,-0.05827522277832031,0.0427241325378418,0.07532185316085815
1700931551789998600,12.57999853515625,-0.13808059692382812,0.033338069915771484,0.06705069541931152
1700931551806995200,12.5969951171875,-0.1476001739501953,0.0357518196105957,0.057398974895477295
1700931551823969300,12.61396923828125,-0.08465290069580078,0.04561948776245117,0.05803227424621582
1700931551840977700,12.630977783203125,-0.0001544952392578125,0.05536365509033203,0.10890430212020874
1700931551857972700,12.64797265625,-0.11757850646972656,0.09450960159301758,0.1460219919681549
1700931551874962400,12.66496240234375,-0.06633663177490234,0.06105613708496094,0.08471813797950745
1700931551891955000,12.681954833984374,-0.10260009765625,0.03889656066894531,0.057051628828048706
1700931551908947200,12.698947265625,-0.11826896667480469,0.02317953109741211,0.08463424444198608
1700931551925939700,12.715939697265625,-0.14666461944580078,0.013264656066894531,0.10740399360656738
1700931551942929400,12.732929443359374,-0.1239004135131836,0.03147315979003906,0.1400582492351532
1700931551959927000,12.749927001953125,-0.07970905303955078,0.0971217155456543,0.12926310300827026
1700931551976916700,12.766916748046874,-0.014444351196289062,0.14542770385742188,0.14458787441253662
1700931551993909200,12.7839091796875,0.040294647216796875,0.17247772216796875,0.14481642842292786
1700931552010899200,12.800899169921875,0.09313488006591797,0.0761103630065918,0.17099925875663757
1700931552027883800,12.8178837890625,0.17392826080322266,0.04557943344116211,0.1375310719013214
1700931552044888300,12.834888427734375,0.22054290771484375,0.0098114013671875,0.08530646562576294
1700931552061878800,12.851878662109375,0.20063400268554688,-0.0015244483947753906,0.06709671020507812
1700931552078870800,12.868870849609374,0.0739736557006836,0.003670215606689453,0.1279241144657135
1700931552095863300,12.88586328125,-0.0906515121459961,0.000053882598876953125,0.15669825673103333
1700931552112855800,12.902855712890625,-0.2177581787109375,-0.01586627960205078,0.1260741949081421
1700931552129848300,12.919848388671875,-0.18567943572998047,-0.022754669189453125,0.08308917284011841
1700931552146840600,12.936840576171875,-0.09014701843261719,-0.03827333450317383,0.07587224245071411
1700931552163832800,12.953832763671874,0.013295173645019531,-0.05079793930053711,0.01916038990020752
1700931552180823000,12.970822998046875,0.03753948211669922,-0.04694223403930664,-0.0329737663269043
1700931552197809200,12.98780908203125,0.012128829956054688,-0.010855674743652344,-0.012487053871154785
1700931552214799400,13.00479931640625,-0.05359363555908203,0.015924930572509766,0.006693243980407715
1700931552231800600,13.021800537109375,-0.07458972930908203,0.032477378845214844,0.01459723711013794
1700931552248797400,13.03879736328125,-0.20403671264648438,0.03701925277709961,0.020209014415740967
1700931552265787100,13.055787109375,-0.10590171813964844,0.028609752655029297,-0.021801531314849854
1700931552282777900,13.07277783203125,-0.02058124542236328,0.021163463592529297,-0.019765913486480713
1700931552299775200,13.089775146484374,0.020412445068359375,0.020968914031982422,-0.009743154048919678
1700931552316764400,13.106764404296875,-0.027223587036132812,0.027210712432861328,-0.0081712007522583
1700931552333756700,13.123756591796875,-0.10249900817871094,0.05551719665527344,-0.0028820037841796875
1700931552350739700,13.14073974609375,-0.13455581665039062,0.06961345672607422,-0.009666085243225098
1700931552367741400,13.157741455078124,-0.10529136657714844,0.06435203552246094,-0.026452958583831787
1700931552384735500,13.174735595703124,-0.06637191772460938,0.05391502380371094,-0.03482663631439209
1700931552401724700,13.191724609375,-0.059329986572265625,0.052538394927978516,-0.010668516159057617
1700931552418718500,13.208718505859375,-0.051398277282714844,0.0708470344543457,0.06501179933547974
1700931552435711000,13.2257109375,-0.04170417785644531,0.12532854080200195,0.035155296325683594
1700931552452703500,13.242703369140624,0.08261966705322266,0.15816259384155273,-0.003726065158843994
1700931552469685200,13.259685302734376,0.10320758819580078,0.09188604354858398,-0.016959786415100098
1700931552486685400,13.276685546875,0.05090808868408203,0.16322708129882812,0.08213990926742554
1700931552503683300,13.293683349609376,-0.010127067565917969,0.17902565002441406,0.0728573203086853
1700931552520672800,13.3106728515625,0.011359214782714844,0.158050537109375,-0.009357273578643799
1700931552537665300,13.327665283203125,0.020119667053222656,0.11051034927368164,0.0043585896492004395
1700931552554657800,13.34465771484375,-0.01689910888671875,0.04330158233642578,-0.01324695348739624
1700931552571650000,13.361650146484376,-0.0802469253540039,0.03417348861694336,-0.02774757146835327
1700931552588631800,13.3786318359375,-0.10587120056152344,0.04505634307861328,0.008017361164093018
1700931552605634800,13.395634765625,-0.053215980529785156,0.0609588623046875,0.04375714063644409
1700931552622627300,13.41262744140625,0.057700157165527344,0.0666961669921875,0.02242332696914673
1700931552639617800,13.42961767578125,0.1626110076904297,0.030378341674804688,0.004485726356506348
1700931552656611800,13.44661181640625,0.256500244140625,-0.0026388168334960938,0.07859253883361816
1700931552673593900,13.46359375,0.19413471221923828,-0.004433631896972656,0.1796068549156189
1700931552690596900,13.480596923828125,-0.0642404556274414,0.014598846435546875,0.12446343898773193
1700931552707589000,13.497589111328125,-0.2755403518676758,0.01944112777709961,0.048398733139038086
1700931552724581400,13.514581298828125,-0.34000396728515625,0.009737491607666016,0.049101948738098145
1700931552741573600,13.53157373046875,-0.22382068634033203,-0.0012288093566894531,0.07310694456100464
1700931552758566400,13.54856640625,0.015542030334472656,-0.03520488739013672,0.05957084894180298
1700931552775558400,13.565558349609375,0.14648151397705078,-0.027053356170654297,0.08486795425415039
1700931552792551200,13.58255126953125,0.10536956787109375,-0.018391132354736328,0.07248234748840332
1700931552809543400,13.59954345703125,-0.05923271179199219,-0.008388042449951172,0.05188173055648804
1700931552826535700,13.61653564453125,-0.23828887939453125,0.01059865951538086,0.026700317859649658
1700931552843528000,13.63352783203125,-0.2868776321411133,0.02243804931640625,0.035318851470947266
1700931552860520400,13.6505205078125,-0.1154794692993164,0.014123916625976562,0.0850147008895874
1700931552877513000,13.667512939453125,0.11997699737548828,-0.009467124938964844,0.04454272985458374
1700931552894495000,13.684494873046875,0.18406295776367188,-0.0008616447448730469,-0.03652811050415039
1700931552911495200,13.7014951171875,0.0854043960571289,0.02399301528930664,0.007721364498138428
1700931552928486400,13.718486328125,0.036469459533691406,0.019121646881103516,0.0015935301780700684
1700931552945482500,13.735482421875,-0.04965686798095703,-0.025211334228515625,-0.04371452331542969
1700931552962475000,13.75247509765625,-0.3841428756713867,-0.007266998291015625,-0.07877659797668457
1700931552979467000,13.769467041015625,-0.630183219909668,-0.05505943298339844,-0.2205701470375061
1700931552996459500,13.78645947265625,-0.2761087417602539,-0.008813858032226562,-0.08731752634048462
1700931553013452000,13.8034521484375,0.3197345733642578,0.007335662841796875,0.06824314594268799
1700931553030442000,13.82044189453125,0.5972776412963867,0.15029668807983398,0.3060353994369507
1700931553047425000,13.837425048828125,0.28754615783691406,0.1825399398803711,0.19731265306472778
1700931553064424400,13.854424560546875,-0.03805828094482422,0.18178462982177734,-0.017838239669799805
1700931553081424100,13.871424072265626,-0.2362680435180664,0.15560579299926758,-0.04510331153869629
1700931553098413800,13.888413818359375,-0.23346996307373047,0.08423137664794922,0.04206138849258423
1700931553115409400,13.905409423828125,-0.0833282470703125,0.004340171813964844,0.10373389720916748
1700931553132395500,13.9223955078125,-0.043358802795410156,-0.010159015655517578,0.11723935604095459
1700931553149391000,13.93939111328125,-0.18006515502929688,-0.011953353881835938,0.05708378553390503
1700931553166383600,13.956383544921875,-0.15532207489013672,0.004453182220458984,0.07649707794189453
1700931553183376000,13.9733759765625,-0.04065990447998047,0.03452348709106445,0.08171659708023071
1700931553200368000,13.9903681640625,0.04437828063964844,0.0732889175415039,0.11367267370223999
1700931553217360600,14.007360595703124,0.07860088348388672,0.11391878128051758,0.10580182075500488
1700931553234353000,14.024352783203126,0.11046028137207031,0.10189104080200195,0.02851700782775879
1700931553251333000,14.0413330078125,0.08658218383789062,0.05613088607788086,-0.0032560229301452637
1700931553268328000,14.058327880859375,0.09256553649902344,0.0419921875,-0.026469051837921143
1700931553285324300,14.07532421875,0.07806873321533203,0.03642606735229492,0.0036745667457580566
1700931553302325000,14.092324951171875,0.11276435852050781,0.04471158981323242,0.0523640513420105
1700931553319315000,14.10931494140625,0.1760263442993164,0.03965902328491211,0.03288847208023071
1700931553336307200,14.12630712890625,0.12251758575439453,0.05136728286743164,0.00933140516281128
1700931553353299700,14.1432998046875,0.028581619262695312,0.04976224899291992,0.029134809970855713
1700931553370292200,14.160292236328125,-0.02011871337890625,0.040895938873291016,0.0071828365325927734
1700931553387297500,14.177297607421876,-0.04314613342285156,0.022895336151123047,0.020237863063812256
1700931553404277200,14.19427734375,-0.06398582458496094,0.03138542175292969,-0.01144397258758545
1700931553421269000,14.21126904296875,0.008082389831542969,0.041828155517578125,0.004695534706115723
1700931553438261500,14.228261474609376,0.01738452911376953,0.04315996170043945,0.003012537956237793
1700931553455251500,14.24525146484375,0.014239311218261719,0.01540994644165039,0.045428693294525146
1700931553472248600,14.26224853515625,0.006702423095703125,-0.0029916763305664062,0.059623897075653076
1700931553489238800,14.27923876953125,-0.06051158905029297,-0.007472515106201172,-0.022753894329071045
1700931553506241000,14.296240966796875,-0.1771564483642578,0.06396818161010742,0.05284756422042847
1700931553523223600,14.3132236328125,-0.07301712036132812,0.08909273147583008,0.045093417167663574
1700931553540205600,14.33020556640625,0.06382465362548828,0.06660890579223633,0.04952287673950195
1700931553557208300,14.347208251953125,0.11516666412353516,0.04031801223754883,0.055570900440216064
1700931553574188000,14.36418798828125,0.07644176483154297,-0.005471706390380859,0.0007812976837158203
1700931553591195600,14.381195556640625,-0.09982872009277344,-0.010711193084716797,0.010673165321350098
1700931553608185600,14.398185546875,-0.16188621520996094,0.0012612342834472656,-0.02369379997253418
1700931553625175600,14.415175537109375,-0.20637893676757812,-0.008956432342529297,-0.04813903570175171
1700931553642160600,14.43216064453125,-0.30784034729003906,-0.012421607971191406,-0.07625603675842285
1700931553659156200,14.44915625,-0.2855987548828125,-0.032572269439697266,-0.06307750940322876
1700931553676149500,14.4661494140625,-0.08603096008300781,-0.06823062896728516,-0.04077911376953125
1700931553693137200,14.48313720703125,0.055451393127441406,-0.07668447494506836,-0.04717838764190674
1700931553710129000,14.50012890625,0.17569541931152344,-0.08874130249023438,0.039920806884765625
1700931553727113200,14.51711328125,0.2527332305908203,-0.09431934356689453,0.16268795728683472
1700931553744119300,14.534119384765624,0.17221355438232422,-0.10979461669921875,0.1637306809425354
1700931553761108000,14.55110791015625,-0.0019435882568359375,-0.06569671630859375,0.11658453941345215
1700931553778103000,14.56810302734375,-0.16514205932617188,-0.019746780395507812,0.10991597175598145
1700931553795096600,14.5850966796875,-0.21176624298095703,0.001995086669921875,0.06629353761672974
1700931553812087000,14.602087158203124,-0.08962631225585938,0.01654529571533203,0.046302974224090576
1700931553829076000,14.619075927734375,0.04592132568359375,0.019495010375976562,0.04325532913208008
1700931553846072300,14.636072265625,0.07046985626220703,0.020963668823242188,0.05836683511734009
1700931553863063000,14.65306298828125,0.040793418884277344,0.02142953872680664,0.07449984550476074
1700931553880057300,14.670057373046875,0.03286552429199219,0.02865886688232422,0.06779307126998901
1700931553897050000,14.687050048828125,0.02591228485107422,0.033376216888427734,0.09369248151779175
1700931553914034700,14.70403466796875,0.005393028259277344,0.039591312408447266,0.11188936233520508
1700931553931041000,14.721041015625,-0.021877288818359375,0.03629302978515625,0.08002358675003052
1700931553948033300,14.738033203125,-0.013483047485351562,0.02748250961303711,0.060915470123291016
1700931553965025500,14.755025634765625,0.011687278747558594,0.026111125946044922,0.021116673946380615
1700931553982018000,14.77201806640625,0.03981781005859375,-0.0022497177124023438,0.011162102222442627
1700931553999010300,14.78901025390625,0.016031265258789062,-0.017600536346435547,0.033233702182769775
1700931554016002600,14.80600244140625,-0.025896072387695312,-0.029799461364746094,0.034317851066589355
1700931554032994600,14.82299462890625,-0.08916568756103516,-0.02627849578857422,0.055431246757507324
1700931554049988600,14.839988525390625,-0.11703109741210938,0.0021266937255859375,0.031728506088256836
1700931554066979800,14.856979736328125,-0.05722522735595703,0.021500110626220703,0.027655720710754395
1700931554083972000,14.87397216796875,0.04962348937988281,0.01984262466430664,0.027036279439926147
1700931554100964600,14.890964599609376,0.10171031951904297,0.04504966735839844,0.04178556799888611
1700931554117957000,14.90795703125,0.12054157257080078,0.06026887893676758,0.0802386999130249
1700931554134949400,14.924949462890625,0.10217475891113281,0.056746482849121094,0.10291171073913574
1700931554151942000,14.94194189453125,0.04070854187011719,0.01930522918701172,0.04873737692832947
1700931554168934400,14.958934326171875,0.07160472869873047,0.012408733367919922,0.02438083291053772
1700931554185916200,14.975916259765626,-0.046237945556640625,-0.07208013534545898,0.0823650062084198
1700931554202916400,14.992916259765625,-0.21627330780029297,0.0432133674621582,0.20958274602890015
1700931554219914000,15.0099140625,-0.2304391860961914,0.004631996154785156,0.16655701398849487
1700931554236903700,15.026903564453125,-0.0962533950805664,0.0406346321105957,0.10762524604797363
1700931554253896200,15.043896240234375,-0.056885719299316406,0.02928924560546875,0.042667388916015625
1700931554270888700,15.060888671875,-0.11347579956054688,-0.08961725234985352,-0.16797658801078796
1700931554287870500,15.077870361328126,0.014434814453125,-0.14033985137939453,-0.11610481142997742
1700931554304873500,15.09487353515625,0.09964847564697266,-0.05531787872314453,0.0040933191776275635
1700931554321855500,15.11185546875,-0.009930610656738281,0.09118413925170898,0.0821554958820343
1700931554338858000,15.12885791015625,-0.19055461883544922,0.19977855682373047,0.12168234586715698
1700931554355847400,15.145847412109376,-0.04993629455566406,0.23227977752685547,0.28638699650764465
1700931554372843000,15.162843017578124,0.1792125701904297,0.1349024772644043,0.15550971031188965
1700931554389834200,15.179834228515626,0.2954235076904297,0.0040740966796875,0.08785545825958252
1700931554406828800,15.196828857421876,0.249298095703125,-0.04323101043701172,0.09933120012283325
1700931554423820000,15.213820068359375,0.03891181945800781,-0.03923225402832031,-0.013360440731048584
1700931554440812500,15.2308125,-0.19611835479736328,-0.015284061431884766,-0.09106147289276123
1700931554457794300,15.247794189453124,-0.2549276351928711,0.04830598831176758,-0.07689005136489868
1700931554474797000,15.264797119140624,-0.1760091781616211,0.06874513626098633,-0.06269115209579468
1700931554491779000,15.281779052734375,-0.0807332992553711,0.10173177719116211,-0.015547364950180054
1700931554508782000,15.298781982421875,0.06094932556152344,0.09826469421386719,0.06669220328330994
1700931554525774300,15.3157744140625,0.22281169891357422,0.07655096054077148,0.08316931128501892
1700931554542766000,15.33276611328125,0.2605857849121094,0.08663749694824219,0.06078159809112549
1700931554559760000,15.349759765625,0.1847848892211914,0.1052560806274414,0.06583866477012634
1700931554576751600,15.366751708984374,0.11447334289550781,0.09848451614379883,0.05018937587738037
1700931554593740500,15.383740478515625,0.0368804931640625,0.07697153091430664,-0.006444841623306274
1700931554610740200,15.400740234375,-0.03763103485107422,0.051905155181884766,-0.005623579025268555
1700931554627730200,15.417730224609375,-0.07277679443359375,0.015276908874511719,0.016713470220565796
1700931554644721400,15.434721435546875,-0.042018890380859375,-0.016541481018066406,0.03108939528465271
1700931554661713400,15.45171337890625,-0.014423370361328125,-0.03949546813964844,0.013689994812011719
1700931554678706000,15.468705810546876,-0.05501079559326172,-0.057613372802734375,-0.012826621532440186
1700931554695698200,15.4856982421875,-0.11281490325927734,-0.05707836151123047,-0.005865037441253662
1700931554712691000,15.50269091796875,-0.1266002655029297,-0.024934768676757812,-0.014177590608596802
1700931554729683200,15.51968310546875,-0.09567546844482422,-0.00003719329833984375,-0.014546096324920654
1700931554746675500,15.536675537109375,-0.05306243896484375,-0.007483005523681641,-0.025467008352279663
1700931554763668500,15.55366845703125,-0.05941200256347656,-0.02187967300415039,-0.0025019943714141846
1700931554780659500,15.570659423828126,-0.06636524200439453,-0.03206634521484375,0.00504690408706665
1700931554797652700,15.58765283203125,-0.07365226745605469,0.006220340728759766,0.008708000183105469
1700931554814644700,15.604644775390625,-0.09327316284179688,0.03155326843261719,0.027124851942062378
1700931554831635200,15.62163525390625,-0.06070423126220703,0.031463623046875,0.033615291118621826
1700931554848622000,15.6386220703125,0.029581069946289062,0.03394746780395508,0.024249643087387085
1700931554865622300,15.655622314453124,0.02404499053955078,0.06982278823852539,-0.00386086106300354
1700931554882601700,15.672601806640625,-0.007185935974121094,0.11754989624023438,0.01358497142791748
1700931554899593500,15.689593505859374,0.04299736022949219,0.11597585678100586,0.05100885033607483
1700931554916598300,15.706598388671875,0.13119983673095703,0.0892171859741211,0.01839357614517212
1700931554933592800,15.7235927734375,0.15620899200439453,0.021263599395751953,0.010683447122573853
1700931554950573800,15.74057373046875,0.05279541015625,-0.0127105712890625,-0.05150821805000305
1700931554967576800,15.757576904296876,-0.07033443450927734,-0.024700164794921875,-0.023508191108703613
1700931554984568800,15.77456884765625,-0.108123779296875,0.0004343986511230469,0.03244665265083313
1700931555001561300,15.791561279296875,-0.02496814727783203,0.010824203491210938,0.09952619671821594
1700931555018553600,15.8085537109375,0.11321830749511719,-0.0036678314208984375,0.057074278593063354
1700931555035546000,15.825546142578125,0.17894268035888672,-0.023000717163085938,0.06969186663627625
1700931555052538600,15.84253857421875,0.084686279296875,-0.010071277618408203,0.06809720396995544
1700931555069531100,15.85953125,-0.08086967468261719,-0.021561622619628906,0.07670053839683533
1700931555086523400,15.8765234375,-0.2051687240600586,-0.03278493881225586,0.05017414689064026
1700931555103516000,15.893515869140625,-0.243865966796875,-0.05565023422241211,0.005038619041442871
1700931555120497700,15.91049755859375,-0.15169620513916016,-0.036219120025634766,-0.00014385581016540527
1700931555137500700,15.927500732421874,0.0076007843017578125,-0.020796775817871094,0.03295549750328064
1700931555154493000,15.944492919921874,0.029371261596679688,-0.006748676300048828,0.04561138153076172
1700931555171485400,15.9614853515625,-0.0786752700805664,-0.006384849548339844,-0.0017724335193634033
1700931555188476400,15.978476318359375,-0.08077144622802734,-0.0399622917175293,0.013949304819107056
1700931555205457700,15.995457763671874,-0.2013711929321289,-0.06208467483520508,-0.004550039768218994
1700931555222457000,16.01245703125,-0.10969066619873047,0.004355907440185547,0.24725550413131714
1700931555239454700,16.029454833984374,-0.04098320007324219,0.015942096710205078,0.2527868151664734
1700931555256447500,16.046447509765624,0.2156381607055664,0.06154680252075195,0.290469765663147
1700931555273439700,16.063439697265625,0.18303775787353516,0.07163000106811523,0.01707899570465088
1700931555290432300,16.080432373046875,0.03785133361816406,0.0534214973449707,-0.0015725493431091309
1700931555307424800,16.0974248046875,-0.16338825225830078,0.05306243896484375,0.12293261289596558
1700931555324414200,16.114414306640626,0.010394096374511719,-0.06658411026000977,0.060003042221069336
1700931555341411800,16.131411865234377,0.2501649856567383,-0.12972068786621094,-0.16019973158836365
1700931555358401800,16.14840185546875,0.20392608642578125,-0.1591777801513672,-0.1783655881881714
1700931555375394000,16.16539404296875,0.07719802856445312,-0.1420273780822754,-0.13620752096176147
1700931555392386600,16.182386474609373,0.009166717529296875,-0.0900263786315918,-0.23830461502075195
1700931555409379000,16.199379150390627,-0.0555267333984375,-0.00926351547241211,-0.256517618894577
1700931555426367200,16.2163671875,-0.19890213012695312,0.1210017204284668,-0.14259347319602966
1700931555443367700,16.23336767578125,-0.3559293746948242,0.2167496681213379,-0.07890716195106506
1700931555460349400,16.250349365234374,-0.3194437026977539,0.2569546699523926,0.017663300037384033
1700931555477348600,16.2673486328125,-0.03129005432128906,0.2143087387084961,0.06349718570709229
1700931555494341000,16.284341064453123,0.24375152587890625,0.12976503372192383,0.10161805152893066
1700931555511327200,16.3013271484375,0.21255207061767578,0.06895732879638672,0.09810054302215576
1700931555528325600,16.31832568359375,0.31068897247314453,0.010386466979980469,0.08788448572158813
1700931555545318100,16.335318115234376,0.2831268310546875,0.0013370513916015625,0.04898494482040405
1700931555562310400,16.352310302734374,0.13347721099853516,-0.009084224700927734,0.04295027256011963
1700931555579302700,16.369302734375,-0.06902122497558594,0.026532649993896484,0.018268048763275146
1700931555596294000,16.3862939453125,-0.19495105743408203,0.02941751480102539,-0.021705687046051025
1700931555613289200,16.403289306640627,-0.18117427825927734,0.009562015533447266,0.012886583805084229
1700931555630280200,16.4202802734375,-0.045989036560058594,-0.017709732055664062,0.02818959951400757
1700931555647262200,16.43726220703125,0.07843971252441406,-0.018146514892578125,0.035474956035614014
1700931555664267500,16.454267578125,0.06616401672363281,-0.002239704132080078,0.03895902633666992
1700931555681254000,16.47125390625,-0.07848548889160156,0.02032184600830078,0.030893385410308838
1700931555698247200,16.4882470703125,-0.18185138702392578,0.027559280395507812,-0.013155162334442139
1700931555715244300,16.505244384765625,-0.1776285171508789,0.03744077682495117,-0.05668476223945618
1700931555732234500,16.522234375,-0.12671661376953125,0.04671430587768555,-0.033543139696121216
1700931555749227000,16.53922705078125,0.027151107788085938,0.06897306442260742,0.04418027400970459
1700931555766219300,16.55621923828125,0.23757266998291016,0.08752155303955078,0.10041439533233643
1700931555783211800,16.573211669921875,0.35807037353515625,0.08156776428222656,0.11795341968536377
1700931555800204000,16.5902041015625,0.2983379364013672,0.06247377395629883,0.11090075969696045
1700931555817196500,16.607196533203126,0.07050895690917969,0.06581640243530273,0.07764476537704468
1700931555834188800,16.624188720703124,-0.18858814239501953,0.04791831970214844,0.056822240352630615
1700931555851181300,16.641181396484374,-0.33213329315185547,0.041797637939453125,0.06433898210525513
1700931555868173800,16.658173828125,-0.2934408187866211,0.012609481811523438,0.01786118745803833
1700931555885166000,16.675166015625,-0.1035757064819336,0.00891256332397461,-0.003938078880310059
1700931555902158300,16.692158447265626,0.11285018920898438,0.0022325515747070312,0.03489428758621216
1700931555919150800,16.70915087890625,0.20497417449951172,-0.028656959533691406,0.03979611396789551
1700931555936143400,16.726143310546874,0.09025859832763672,-0.05350685119628906,0.01875203847885132
1700931555953135600,16.743135498046875,-0.11545753479003906,-0.046599388122558594,-0.00572127103805542
1700931555970128100,16.760128173828125,-0.2650575637817383,-0.013354778289794922,0.01402825117111206
1700931555987117000,16.777116943359374,-0.2832927703857422,0.013595104217529297,0.0221097469329834
1700931556004111000,16.794111083984376,-0.19205093383789062,0.005108833312988281,0.03860872983932495
1700931556021107000,16.81110693359375,-0.03257560729980469,-0.030395030975341797,0.07655346393585205
1700931556038097400,16.828097412109376,0.1724090576171875,-0.033820152282714844,0.053296446800231934
1700931556055079400,16.845079345703127,0.23115158081054688,-0.02185344696044922,0.07852321863174438
1700931556072082700,16.862082763671875,0.03546714782714844,0.029708385467529297,0.07243126630783081
1700931556089075000,16.879074951171877,-0.22588825225830078,0.061536312103271484,0.028309643268585205
1700931556106075400,16.896075439453124,-0.27167797088623047,0.04946565628051758,0.027785837650299072
1700931556123059700,16.913059814453124,-0.12580394744873047,0.02939319610595703,0.027133405208587646
1700931556140052200,16.93005224609375,0.0674123764038086,0.0029654502868652344,0.008420348167419434
1700931556157044200,16.947044189453123,0.2015695571899414,0.006649017333984375,0.008460283279418945
1700931556174036700,16.96403662109375,0.1628122329711914,0.0427556037902832,0.03991818428039551
1700931556191029200,16.981029296875,0.0307769775390625,0.07871818542480469,0.035936176776885986
1700931556208021800,16.998021728515624,-0.07073211669921875,0.08115100860595703,0.022492051124572754
1700931556225014500,17.0150146484375,-0.1280984878540039,0.05926084518432617,-0.01587122678756714
1700931556242006300,17.03200634765625,-0.12924671173095703,0.03428316116333008,-0.013415873050689697
1700931556258998800,17.048998779296873,-0.07935619354248047,0.0141754150390625,0.0368923544883728
1700931556275991300,17.0659912109375,-0.0024976730346679688,0.00955057144165039,0.08134299516677856
1700931556292983600,17.082983642578125,0.027527809143066406,-0.0013794898986816406,0.06168586015701294
1700931556309976000,17.09997607421875,-0.06308555603027344,-0.0025281906127929688,0.04712963104248047
1700931556326968600,17.116968505859376,-0.13643836975097656,-0.04176759719848633,-0.07644766569137573
1700931556343958300,17.133958251953125,-0.17610836029052734,-0.05422496795654297,-0.10893988609313965
1700931556360952000,17.1509521484375,-0.1616992950439453,-0.010420799255371094,-0.06340175867080688
1700931556377948700,17.16794873046875,-0.1501913070678711,0.005107879638671875,-0.021869242191314697
1700931556394937300,17.184937255859374,-0.04954338073730469,0.033013343811035156,0.0318719744682312
1700931556411931100,17.20193115234375,0.10764217376708984,0.0560297966003418,0.0587385892868042
1700931556428921600,17.218921630859374,0.22505760192871094,0.05590200424194336,0.0775793194770813
1700931556445910000,17.235909912109374,0.20038700103759766,0.0599064826965332,0.10486459732055664
1700931556462906000,17.252906005859376,0.07975292205810547,0.07647466659545898,0.09595715999603271
1700931556479903000,17.269903076171875,0.053679466247558594,0.09988975524902344,0.10686814785003662
1700931556496892400,17.286892333984376,0.15642070770263672,0.1071782112121582,0.08553040027618408
1700931556513885000,17.303885009765626,0.13116836547851562,0.05379343032836914,-0.0015817880630493164
1700931556530877200,17.320877197265624,0.0035409927368164062,0.01855611801147461,-0.005599260330200195
1700931556547869700,17.33786962890625,-0.07227802276611328,0.03687572479248047,0.047807157039642334
1700931556564859400,17.354859375,-0.05608177185058594,0.05738544464111328,0.026202678680419922
1700931556581857000,17.37185693359375,0.04764270782470703,0.07779550552368164,0.026186883449554443
1700931556598847000,17.388846923828126,0.05655384063720703,-0.09993696212768555,-0.25430524349212646
1700931556615839200,17.405839111328124,-0.12423324584960938,-0.11693143844604492,-0.03433549404144287
1700931556632831700,17.422831787109374,-0.3462514877319336,-0.0184478759765625,0.23391932249069214
1700931556649824300,17.43982421875,-0.2945566177368164,0.012615680694580078,0.17108207941055298
1700931556666816500,17.45681640625,0.054286956787109375,0.052806854248046875,0.1545906662940979
1700931556683809000,17.47380908203125,0.4638214111328125,-0.006800174713134766,0.054820716381073
1700931556700801500,17.490801513671876,0.5002279281616211,-0.01690673828125,0.13338178396224976
1700931556717780200,17.5077802734375,0.03289222717285156,-0.01427602767944336,0.10992664098739624
1700931556734786000,17.5247861328125,-0.20910358428955078,-0.12530279159545898,-0.036417603492736816
1700931556751766500,17.5417666015625,-0.25342655181884766,-0.14128494262695312,-0.1100817322731018
1700931556768762600,17.5587626953125,-0.3060417175292969,-0.11550617218017578,-0.10267698764801025
1700931556785756700,17.575756591796875,-0.20390033721923828,-0.03163433074951172,-0.07437944412231445
1700931556802754000,17.592754150390626,-0.07978343963623047,0.08576393127441406,-0.015859544277191162
1700931556819748400,17.609748291015624,0.06836128234863281,0.16314125061035156,0.04243737459182739
1700931556836740600,17.62674072265625,0.10869026184082031,0.18369817733764648,0.010992556810379028
1700931556853730800,17.643730712890626,0.0978860855102539,0.1545243263244629,0.02166879177093506
1700931556870727700,17.660727783203125,-0.012648582458496094,0.07759809494018555,0.010246574878692627
1700931556887718000,17.6777177734375,-0.11106395721435547,0.02808666229248047,0.05660566687583923
1700931556904710400,17.69471044921875,-0.10604286193847656,0.005283832550048828,0.07731300592422485
1700931556921702700,17.71170263671875,-0.027708053588867188,-0.017886638641357422,0.05995917320251465
1700931556938692400,17.7286923828125,0.02228260040283203,-0.04901838302612305,0.006625354290008545
1700931556955690000,17.74568994140625,0.025005340576171875,-0.07852792739868164,-0.04448941349983215
1700931556972669700,17.762669677734376,-0.007071495056152344,-0.07117652893066406,-0.03666988015174866
1700931556989672200,17.779672119140624,0.016664505004882812,-0.056527137756347656,-0.06973898410797119
1700931557006664700,17.796664794921874,0.09646797180175781,-0.027328014373779297,-0.07760205864906311
1700931557023649300,17.813649169921874,0.10174942016601562,-0.002410411834716797,-0.07747051119804382
1700931557040644900,17.830644775390624,0.015504837036132812,0.01974773406982422,-0.04569453001022339
1700931557057643800,17.847643798828123,-0.01942920684814453,0.0397796630859375,-0.049301087856292725
1700931557074622500,17.86462255859375,0.05599498748779297,0.05127143859863281,0.02341759204864502
1700931557091616300,17.8816162109375,0.10747051239013672,0.01350259780883789,0.026838839054107666
1700931557108611300,17.898611328125,-0.006184577941894531,-0.003887176513671875,-0.017065703868865967
1700931557125608700,17.915608642578125,-0.17526912689208984,-0.026096820831298828,-0.04520493745803833
1700931557142593300,17.93259326171875,-0.24562740325927734,-0.019909381866455078,0.0019397735595703125
1700931557159593000,17.949593017578124,-0.14584922790527344,0.017678260803222656,0.019689470529556274
1700931557176580600,17.96658056640625,-0.03621959686279297,0.022731781005859375,-0.03571462631225586
1700931557193574100,17.98357421875,-0.008244514465332031,-0.029729843139648438,-0.11545214056968689
1700931557210568200,18.000568115234376,0.19244956970214844,-0.019885540008544922,-0.1303246021270752
1700931557227558700,18.01755859375,0.02622222900390625,-0.0034766197204589844,-0.11556658148765564
1700931557244551400,18.034551513671875,-0.1608715057373047,-0.006797313690185547,-0.14858990907669067
1700931557261547500,18.051547607421874,-0.101470947265625,0.024386882781982422,-0.005913972854614258
1700931557278530600,18.068530517578125,-0.049040794372558594,0.04761791229248047,0.10639792680740356
1700931557295533600,18.085533447265625,-0.020029067993164062,0.05222129821777344,0.0986524224281311
1700931557312522000,18.10252197265625,0.10982418060302734,0.03081798553466797,0.1901482343673706
1700931557329512700,18.1195126953125,0.23386287689208984,0.06902408599853516,0.2765743136405945
1700931557346503400,18.13650341796875,-0.08159255981445312,-0.06627941131591797,0.1285465955734253
1700931557363504000,18.153504150390624,-0.22741317749023438,0.07529163360595703,0.421308696269989
1700931557380497000,18.170496826171874,-0.1633920669555664,0.2847151756286621,0.8044317364692688
1700931557397479000,18.18747900390625,0.019651412963867188,0.386474609375,0.8325775265693665
1700931557414478800,18.204478759765625,0.11235523223876953,0.3090090751647949,0.6741258502006531
1700931557431469800,18.2214697265625,-0.0877084732055664,0.042104244232177734,0.2086329460144043
1700931557448458800,18.238458740234375,-0.2013845443725586,-0.35524845123291016,-0.42655104398727417
1700931557465460000,18.2554599609375,-0.08875179290771484,-0.7115001678466797,-0.8363644480705261
1700931557482452000,18.272451904296876,-0.04168510437011719,-0.7473125457763672,-0.7692364454269409
1700931557499444500,18.289444580078126,-0.16121768951416016,-0.42103147506713867,-0.4050106406211853
1700931557516436700,18.306436767578123,-0.23726463317871094,0.13026666641235352,-0.1618899703025818
1700931557533429200,18.32342919921875,-0.06496906280517578,0.47833824157714844,-0.13105911016464233
1700931557550422000,18.340422119140626,0.2543058395385742,0.6827683448791504,-0.002065330743789673
1700931557567414300,18.357414306640624,0.3184366226196289,0.6203336715698242,0.06565243005752563
1700931557584404000,18.374404052734373,0.17866802215576172,0.39923906326293945,0.07688263058662415
1700931557601401300,18.3914013671875,0.06524944305419922,0.16843652725219727,0.14006078243255615
1700931557618379800,18.4083798828125,0.13418006896972656,-0.004635810852050781,0.1941123604774475
1700931557635383600,18.425383544921875,0.2475738525390625,-0.07420206069946289,0.16468128561973572
1700931557652376300,18.442376220703125,0.30211734771728516,-0.13350534439086914,0.08048450946807861
1700931557669357800,18.45935791015625,0.2725696563720703,-0.14905595779418945,0.05175423622131348
1700931557686360800,18.47636083984375,0.06422615051269531,-0.14123916625976562,0.04598519206047058
1700931557703350800,18.493350830078125,-0.2475414276123047,-0.09902667999267578,0.0213165283203125
1700931557720348400,18.510348388671876,-0.3528742790222168,-0.06677007675170898,-0.08164045214653015
1700931557737338000,18.527338134765625,-0.29413890838623047,-0.06234025955200195,-0.2483287900686264
1700931557754330400,18.544330322265626,-0.11628246307373047,-0.11907768249511719,-0.304929256439209
1700931557771323100,18.5613232421875,0.009772300720214844,-0.09716939926147461,-0.27973538637161255
1700931557788315400,18.5783154296875,0.03021717071533203,-0.06082487106323242,-0.17557325959205627
1700931557805306600,18.595306640625,-0.04750347137451172,-0.07613515853881836,-0.2766745686531067
1700931557822301200,18.61230126953125,-0.09469223022460938,-0.1323990821838379,-0.35573679208755493
1700931557839287600,18.62928759765625,-0.012654304504394531,-0.12717914581298828,-0.3387218117713928
1700931557856285000,18.646284912109376,0.14823055267333984,-0.006260395050048828,-0.05514693260192871
1700931557873288200,18.6632880859375,0.3552055358886719,0.1476578712463379,0.2738608121871948
1700931557890259500,18.680259521484373,0.34246063232421875,0.21625995635986328,0.37677305936813354
1700931557907249000,18.697248779296874,0.17404556274414062,0.24672889709472656,0.4448251724243164
1700931557924257300,18.71425732421875,-0.05201148986816406,0.21469593048095703,0.48598039150238037
1700931557941247000,18.7312470703125,-0.5263071060180664,0.09963274002075195,0.3534197211265564
1700931557958239500,18.748239501953126,-0.3914451599121094,0.08601140975952148,0.46967804431915283
1700931557975232000,18.76523193359375,-0.2266521453857422,0.06916999816894531,0.32277071475982666
1700931557992224300,18.782224365234374,-0.029039382934570312,0.02295684814453125,0.2845725417137146
1700931558009209900,18.7992099609375,0.12483787536621094,0.0744786262512207,0.47497034072875977
1700931558026209000,18.816208984375,0.057066917419433594,0.11316633224487305,0.623393177986145
1700931558043201500,18.833201416015626,-0.17739486694335938,0.08222675323486328,0.5891833305358887
1700931558060179200,18.85017919921875,-0.3197307586669922,0.029134750366210938,0.22650617361068726
1700931558077186300,18.867186279296874,-0.2702674865722656,-0.24069833755493164,-0.46961528062820435
1700931558094178800,18.8841787109375,0.19275474548339844,-0.6140885353088379,-0.8980989456176758
1700931558111171000,18.901171142578125,0.6388320922851562,-0.7185230255126953,-0.8629518747329712
1700931558128163600,18.91816357421875,0.6327009201049805,-0.4244842529296875,-0.5533778071403503
1700931558145155800,18.93515576171875,0.009034156799316406,0.11831235885620117,-0.21722762286663055
1700931558162148600,18.952148681640626,-0.5064964294433594,0.42885828018188477,-0.16637757420539856
1700931558179140400,18.969140380859375,-0.4115734100341797,0.47405195236206055,-0.12909558415412903
1700931558196133600,18.986133544921874,-0.15818500518798828,0.3986849784851074,0.05625566840171814
1700931558213125600,19.003125732421875,-0.10499954223632812,0.27234554290771484,0.17221426963806152
1700931558230118100,19.0201181640625,-0.0020189285278320312,0.10167741775512695,0.1592959463596344
1700931558247110400,19.0371103515625,0.17187118530273438,-0.060532569885253906,0.07768845558166504
1700931558264101400,19.054101318359375,0.38435935974121094,-0.14137506484985352,0.028588682413101196
1700931558281095200,19.07109521484375,0.4924192428588867,-0.12931299209594727,-0.038407087326049805
1700931558298087700,19.088087646484375,0.38117504119873047,-0.13047361373901367,-0.02885529398918152
1700931558315080200,19.105080078125,0.16126346588134766,-0.07898092269897461,-0.1361275315284729
1700931558332072400,19.122072509765626,-0.04676342010498047,-0.0637664794921875,-0.17341932654380798
1700931558349065000,19.13906494140625,-0.058600425720214844,-0.014605045318603516,-0.08673062920570374
1700931558366057500,19.156057373046874,0.0035657882690429688,0.040312767028808594,0.03280574083328247
1700931558383049700,19.1730498046875,0.00046062469482421875,0.0966954231262207,0.10309842228889465
1700931558400038100,19.1900380859375,-0.05676078796386719,0.1244044303894043,0.11322528123855591
1700931558417036000,19.2070361328125,-0.20737648010253906,0.059726715087890625,0.07087424397468567
1700931558434027000,19.224027099609376,-0.35683155059814453,-0.017408370971679688,0.06381088495254517
1700931558451019300,19.241019287109374,-0.41754817962646484,-0.05680561065673828,0.07463294267654419
1700931558468012000,19.258011962890624,-0.38507652282714844,-0.07934141159057617,0.0032637715339660645
1700931558485011500,19.275011474609375,-0.16375064849853516,-0.04422950744628906,0.0291367769241333
1700931558501994000,19.291993896484374,0.18735504150390625,0.0369105339050293,0.08613854646682739
1700931558518991600,19.30899169921875,0.43975162506103516,0.10461568832397461,0.033818840980529785
1700931558535963600,19.325963623046874,0.41060638427734375,0.13103199005126953,0.033709436655044556
1700931558552975000,19.34297509765625,0.08992385864257812,0.13239622116088867,0.052833348512649536
1700931558569965000,19.359965087890625,-0.26393604278564453,0.10732316970825195,0.06025075912475586
1700931558586956000,19.3769560546875,-0.39348459243774414,0.028195858001708984,0.030604004859924316
1700931558603954000,19.393953857421874,-0.14916038513183594,-0.01814746856689453,0.03613013029098511
1700931558620943400,19.410943359375,0.21852779388427734,0.03396177291870117,0.05595022439956665
1700931558637935900,19.427935791015624,0.3567056655883789,0.08359432220458984,0.03532606363296509
1700931558654928400,19.444928466796874,0.22526168823242188,0.09581422805786133,0.05379229784011841
1700931558671921000,19.4619208984375,-0.04584026336669922,0.047695159912109375,0.05650198459625244
1700931558688913200,19.4789130859375,-0.26489830017089844,-0.05503082275390625,0.004453122615814209
1700931558705905700,19.49590576171875,-0.2535982131958008,-0.07024478912353516,0.016377568244934082
1700931558722898200,19.512898193359376,-0.08551025390625,-0.07789039611816406,-0.01454395055770874
1700931558739880200,19.529880126953124,0.02186107635498047,-0.0721440315246582,-0.029009103775024414
1700931558756880400,19.54688037109375,0.0673837661743164,-0.03997230529785156,-0.043613553047180176
1700931558773877800,19.563877685546874,0.08799552917480469,0.03240251541137695,-0.04113364219665527
1700931558790867700,19.58086767578125,0.21100234985351562,0.09626197814941406,0.0740426778793335
1700931558807860200,19.597860107421877,0.26387977600097656,0.11543655395507812,0.09719300270080566
1700931558824852500,19.6148525390625,-0.08195018768310547,-0.005549430847167969,-0.07510519027709961
1700931558841845000,19.631844970703124,-0.22899532318115234,0.008089542388916016,0.13603144884109497
1700931558858837500,19.64883740234375,-0.2463092803955078,0.028981685638427734,0.20729917287826538
1700931558875829800,19.665829833984375,-0.07200336456298828,0.03344917297363281,0.12151855230331421
1700931558892822000,19.682822021484377,0.07692909240722656,0.037982940673828125,0.03816336393356323
1700931558909814800,19.699814697265627,0.02969074249267578,0.02331256866455078,-0.042118191719055176
1700931558926807300,19.716807373046876,-0.022382736206054688,0.035871028900146484,-0.03331071138381958
1700931558943789300,19.733789306640624,-0.010020256042480469,0.06817197799682617,0.08730572462081909
1700931558960791600,19.75079150390625,0.07432937622070312,0.11581707000732422,0.1231115460395813
1700931558977781000,19.767781005859376,0.07861518859863281,0.11713361740112305,0.106051504611969
1700931558994780200,19.7847802734375,0.026784896850585938,0.0716710090637207,0.04757732152938843
1700931559011769300,19.801769287109376,-0.04297065734863281,0.018754005432128906,-0.006678223609924316
1700931559028761600,19.81876171875,-0.029773712158203125,-0.04417562484741211,-0.0047362446784973145
1700931559045753900,19.83575390625,0.008784294128417969,-0.1294083595275879,-0.11568725109100342
1700931559062746400,19.852746337890625,-0.12694454193115234,-0.16092300415039062,-0.20289963483810425
1700931559079739000,19.86973876953125,-0.26235103607177734,-0.13740301132202148,-0.08434981107711792
1700931559096720600,19.886720703125,-0.21210956573486328,-0.054288387298583984,0.031920015811920166
1700931559113723600,19.9037236328125,0.009648323059082031,0.0021800994873046875,0.003454744815826416
1700931559130716200,19.920716064453124,0.2464303970336914,0.0426945686340332,-0.02106499671936035
1700931559147720200,19.93772021484375,0.20590972900390625,0.09134817123413086,0.0038021206855773926
1700931559164701000,19.954700927734375,-0.004776954650878906,0.08943414688110352,-0.009213089942932129
1700931559181693200,19.971693115234373,-0.18412208557128906,0.05733537673950195,-0.0037775635719299316
1700931559198685700,19.988685791015627,-0.22130298614501953,0.0039119720458984375,-0.0075945258140563965
1700931559215678000,20.005677978515624,-0.10395145416259766,-0.042938232421875,0.037596166133880615
1700931559232670500,20.02267041015625,-0.05930137634277344,-0.058840274810791016,0.044268786907196045
1700931559249663000,20.0396630859375,-0.03790855407714844,-0.04128217697143555,0.02890557050704956
1700931559266658800,20.056658935546874,0.08017349243164062,0.00837087631225586,0.08993589878082275
1700931559283644400,20.07364453125,0.13078975677490234,0.0370030403137207,0.05515921115875244
1700931559300640000,20.090639892578125,0.051909446716308594,0.003902912139892578,-0.002322375774383545
1700931559317632500,20.107632568359374,-0.00746917724609375,-0.004665851593017578,0.009071171283721924
1700931559334625500,20.12462548828125,-0.0885305404663086,-0.02818918228149414,-0.004745364189147949
1700931559351617000,20.141616943359374,-0.13106822967529297,-0.043143272399902344,-0.04430815577507019
1700931559368599300,20.158599365234377,-0.04498863220214844,-0.034806251525878906,-0.04033854603767395
1700931559385602300,20.175602294921877,0.0821237564086914,0.01376199722290039,-0.013842403888702393
1700931559402597600,20.19259765625,0.11828041076660156,0.04335165023803711,-0.026063740253448486
1700931559419585800,20.209585693359376,0.07492446899414062,0.035662174224853516,-0.021782755851745605
1700931559436568800,20.22656884765625,-0.0330657958984375,0.01318502426147461,-0.004704296588897705
1700931559453572000,20.243572021484376,-0.11174201965332031,-0.005136966705322266,-0.015313029289245605
1700931559470564400,20.260564453125,-0.08717060089111328,-0.007420539855957031,0.01555544137954712
1700931559487554300,20.27755419921875,0.04001903533935547,0.005466461181640625,0.06871157884597778
1700931559504552000,20.294552001953125,0.115264892578125,0.016918182373046875,0.059697747230529785
1700931559521548300,20.31154833984375,0.09571647644042969,0.01846170425415039,0.03170078992843628
1700931559538534400,20.328534423828124,0.008119583129882812,0.021183013916015625,0.04132354259490967
1700931559555526400,20.3455263671875,-0.11045551300048828,0.003971576690673828,0.0357975959777832
1700931559572519000,20.362518798828123,-0.19589805603027344,-0.007332801818847656,0.012980103492736816
1700931559589511200,20.37951123046875,-0.17438697814941406,-0.022426605224609375,-0.012609541416168213
1700931559606503700,20.396503662109374,-0.04129314422607422,-0.02178812026977539,-0.028825968503952026
1700931559623496200,20.41349609375,0.09189796447753906,0.004797458648681641,-0.02260911464691162
1700931559640486000,20.43048583984375,0.11939620971679688,0.039458274841308594,-0.008250236511230469
1700931559657483500,20.4474833984375,0.07476234436035156,0.050167083740234375,0.012424737215042114
1700931559674473500,20.464473388671873,0.009297370910644531,0.047077178955078125,0.019173532724380493
1700931559691463200,20.481463134765626,0.0058689117431640625,0.016013145446777344,0.03416776657104492
1700931559708459800,20.498459716796877,0.09689998626708984,0.003223896026611328,0.07192209362983704
1700931559725451800,20.51545166015625,0.148895263671875,0.012889385223388672,0.07087245583534241
1700931559742443300,20.532443359375,0.08076000213623047,-0.004746437072753906,0.011100053787231445
1700931559759435500,20.549435546875,0.010308265686035156,0.001308441162109375,0.03611305356025696
1700931559776427800,20.566427734375,-0.032011985778808594,-0.009397029876708984,0.05428051948547363
1700931559793420300,20.583420166015625,0.003322601318359375,0.014836788177490234,0.03768414258956909
1700931559810410500,20.600410400390626,-0.0021829605102539062,0.01657867431640625,0.033164381980895996
1700931559827394000,20.61739404296875,-0.04115104675292969,0.043456077575683594,0.034866392612457275
1700931559844398600,20.634398681640626,-0.05486106872558594,0.036229610443115234,0.0744626522064209
1700931559861390000,20.65139013671875,-0.04230785369873047,0.03071451187133789,0.08165287971496582
1700931559878382300,20.66838232421875,0.026407241821289062,-0.018351078033447266,0.008729428052902222
1700931559895374800,20.685374755859375,0.10953998565673828,-0.028799057006835938,-0.031081348657608032
1700931559912366000,20.702365966796876,0.1791248321533203,-0.009982109069824219,0.03162217140197754
1700931559929361200,20.719361083984374,0.11117362976074219,0.021942615509033203,0.0521911084651947
1700931559946352400,20.736352294921875,-0.0675497055053711,0.0526275634765625,0.05622163414955139
1700931559963344600,20.7533447265625,-0.13043212890625,0.045055389404296875,0.07771274447441101
1700931559980337000,20.7703369140625,-0.12366676330566406,-0.008840560913085938,0.05236437916755676
1700931559997329400,20.787329345703125,-0.08378791809082031,-0.07542610168457031,-0.03071725368499756
1700931560014322000,20.804322021484374,-0.10327529907226562,-0.09623384475708008,-0.012896597385406494
