time,seconds_elapsed,z,y,x
1701886280724151800,0.11515185546875,0.4916725158691406,0.0369420051574707,0.2462993860244751
1701886280741147400,0.1321474609375,0.37146663665771484,0.06484699249267578,0.31072795391082764
1701886280758141000,0.149140869140625,0.2746448516845703,0.12456703186035156,0.3183830976486206
1701886280775131400,0.16613134765625,0.1533336639404297,0.014060020446777344,0.2902944087982178
1701886280792125200,0.183125244140625,-0.056656837463378906,-0.017195701599121094,0.20334410667419434
1701886280809119700,0.20011962890625,-0.2528705596923828,-0.10364484786987305,0.06807959079742432
1701886280826115300,0.217115234375,-0.6047573089599609,-0.06673002243041992,0.08397257328033447
1701886280843104000,0.23410400390625,-0.9820051193237305,-0.26943492889404297,-0.08842158317565918
1701886280860100400,0.251100341796875,-0.9907150268554688,-0.6043429374694824,-0.4744938611984253
1701886280877094100,0.26809423828125,-0.7673048973083496,-0.9560422897338867,-0.8646125793457031
1701886280894084600,0.285084716796875,-0.768735408782959,-1.4098339080810547,-1.1313738822937012
1701886280911080200,0.302080078125,-1.0584969520568848,-1.6913223266601562,-1.5807173252105713
1701886280928073200,0.3190732421875,-2.0356364250183105,-1.7462010383605957,-2.008183240890503
1701886280945067500,0.336067626953125,-3.3227782249450684,-2.2493019104003906,-2.3926095962524414
1701886280962057500,0.353057373046875,-4.002474784851074,-2.3690083026885986,-2.5122482776641846
1701886280979052500,0.370052490234375,-3.9917590618133545,-3.145545482635498,-2.1830601692199707
1701886280996048100,0.387048095703125,-3.086524486541748,-3.5039658546447754,-2.4437096118927
1701886281013036500,0.40403662109375,-1.746246337890625,-3.5478131771087646,-2.81050443649292
1701886281030032000,0.421031982421875,-1.4213342666625977,-3.189514636993408,-2.361485719680786
1701886281047028000,0.438028076171875,-2.5244555473327637,-2.9974563121795654,-1.7402677536010742
1701886281064017200,0.45501708984375,-3.6063661575317383,-2.9529998302459717,-1.0157890319824219
1701886281081010000,0.472010009765625,-3.4670302867889404,-3.0302271842956543,-0.8129448890686035
1701886281098008600,0.489008544921875,-1.9821455478668213,-3.2431938648223877,-0.9721355438232422
1701886281114999800,0.505999755859375,0.17331314086914062,-3.1062722206115723,-1.3363924026489258
1701886281131990300,0.522990234375,1.662637710571289,-2.3034591674804688,-0.7571921348571777
1701886281148984800,0.53998486328125,0.942955493927002,-2.2615177631378174,0.22544288635253906
1701886281165975000,0.55697509765625,0.17644953727722168,-2.084183692932129,1.1016111373901367
1701886281182971600,0.5739716796875,-0.15771031379699707,-2.137265682220459,1.1818532943725586
1701886281199965700,0.590965576171875,-0.08678603172302246,-2.3718302249908447,0.5639133453369141
1701886281216959500,0.60795947265625,0.2833113670349121,-2.3393590450286865,-0.09970664978027344
1701886281233949700,0.62494970703125,0.24169635772705078,-2.321485996246338,-0.18700408935546875
1701886281250945300,0.6419453125,0.13826489448547363,-2.26973295211792,0.12948894500732422
1701886281267931000,0.658930908203125,0.09949994087219238,-2.3290364742279053,0.7332916259765625
1701886281284932600,0.6759326171875,0.3079918622970581,-2.450899600982666,1.4411230087280273
1701886281301922600,0.692922607421875,0.4191775321960449,-2.580045223236084,2.250011444091797
1701886281318922800,0.7099228515625,-0.014404058456420898,-2.281766414642334,2.6781091690063477
1701886281335911000,0.726910888671875,-0.5191733837127686,-2.268702507019043,3.149961471557617
1701886281352897000,0.74389697265625,-0.4218475818634033,-2.2225117683410645,3.437368392944336
1701886281369905700,0.76090576171875,0.2076762318611145,-1.965193271636963,3.7442855834960938
1701886281386907400,0.777907470703125,0.4591203033924103,-1.5892934799194336,4.139754295349121
1701886281403876000,0.7948759765625,-0.020520925521850586,-1.3428208827972412,4.629091262817383
1701886281420874000,0.8118740234375,-0.24118340015411377,-0.9823486804962158,4.944267272949219
1701886281437874700,0.828874755859375,-0.14718088507652283,-0.4844379425048828,5.0873613357543945
1701886281454870800,0.845870849609375,-0.04201012849807739,0.03544807434082031,4.983198165893555
1701886281471855900,0.86285595703125,0.06022641062736511,0.49913692474365234,4.807514190673828
1701886281488840200,0.879840087890625,0.05532568693161011,0.9535667896270752,4.5469255447387695
1701886281505846300,0.89684619140625,-0.0261218398809433,1.4116592407226562,4.076546669006348
1701886281522826800,0.91382666015625,-0.3155743479728699,1.6756060123443604,3.486872673034668
1701886281539819000,0.930819091796875,-0.6907309293746948,1.8725535869598389,2.889256477355957
1701886281556822300,0.947822265625,-1.0099738836288452,1.9940214157104492,2.446329116821289
1701886281573810200,0.96481005859375,-1.1603798866271973,2.1428050994873047,1.9903059005737305
1701886281590800400,0.98180029296875,-1.2119476795196533,2.123706817626953,1.6131095886230469
1701886281607804000,0.998803955078125,-1.0326523780822754,2.0682318210601807,1.3129358291625977
1701886281624798200,1.015798095703125,-0.7882330417633057,1.8885881900787354,1.2215471267700195
1701886281641789000,1.032788818359375,-0.4708516001701355,1.7649869918823242,1.1797008514404297
1701886281658782700,1.04978271484375,-0.22633564472198486,1.5567078590393066,1.4455928802490234
1701886281675775200,1.066775146484375,-0.08608278632164001,1.4528851509094238,1.632166862487793
1701886281692756200,1.083756103515625,-0.17032703757286072,1.2973332405090332,1.6262273788452148
1701886281709768400,1.1007685546875,-0.3934650123119354,1.1586565971374512,1.4990520477294922
1701886281726754600,1.117754638671875,-0.40516728162765503,1.1384434700012207,1.2904767990112305
1701886281743743200,1.1347431640625,-0.14870283007621765,0.9848227500915527,1.1432886123657227
1701886281760751900,1.151751953125,0.23241671919822693,0.7727417945861816,1.2313594818115234
1701886281777735000,1.16873486328125,0.7354987263679504,0.6024432182312012,1.1570262908935547
1701886281794732300,1.185732177734375,1.0961642265319824,0.30266571044921875,1.0112762451171875
1701886281811722500,1.202722412109375,1.1867995262145996,0.12004518508911133,0.7750482559204102
1701886281828715500,1.219715576171875,1.1755034923553467,-0.033283233642578125,0.49544811248779297
1701886281845711400,1.23671142578125,0.8707312941551208,-0.2032337188720703,0.32616233825683594
1701886281862699800,1.25369970703125,0.4279734492301941,-0.26472949981689453,0.08940696716308594
1701886281879687200,1.270687255859375,0.13362830877304077,-0.2773013114929199,-0.21430301666259766
1701886281896690200,1.287690185546875,-0.20520097017288208,-0.39635515213012695,-0.366943359375
1701886281913674500,1.304674560546875,-0.38133373856544495,-0.5137534141540527,-0.47049522399902344
1701886281930673700,1.321673583984375,-0.4485187232494354,-0.5728473663330078,-0.6050357818603516
1701886281947669000,1.3386689453125,-0.391889363527298,-0.6821451187133789,-0.6608119010925293
1701886281964664300,1.355664306640625,-0.30761653184890747,-0.7774105072021484,-0.7371468544006348
1701886281981655600,1.372655517578125,-0.2772904336452484,-0.9472675323486328,-0.7121734619140625
1701886281998646000,1.38964599609375,-0.2597285509109497,-0.9596014022827148,-0.6445407867431641
1701886282015649500,1.4066494140625,-0.3837984800338745,-0.8322510719299316,-0.765683650970459
1701886282032626400,1.42362646484375,-0.6462900638580322,-0.8844947814941406,-0.862297534942627
1701886282049631200,1.44063134765625,-0.827317476272583,-0.9505324363708496,-0.9217162132263184
1701886282066619400,1.457619384765625,-0.7427059412002563,-0.8947148323059082,-1.0872974395751953
1701886282083600400,1.474600341796875,-0.5850726366043091,-0.9380254745483398,-1.2317819595336914
1701886282100608000,1.49160791015625,-0.41392332315444946,-1.0053024291992188,-1.373793125152588
1701886282117601300,1.508601318359375,-0.2811955511569977,-1.034261703491211,-1.380936622619629
1701886282134604300,1.525604248046875,-0.14848971366882324,-0.9638385772705078,-1.315958023071289
1701886282151586800,1.5425869140625,-0.09750446677207947,-0.8919620513916016,-1.077012538909912
1701886282168576300,1.559576171875,-0.170343279838562,-0.7301998138427734,-0.9500699043273926
1701886282185562000,1.57656201171875,-0.40700632333755493,-0.6431169509887695,-0.8021879196166992
1701886282202568700,1.593568603515625,-0.6434352993965149,-0.5027318000793457,-0.7637677192687988
1701886282219561200,1.610561279296875,-0.7109447121620178,-0.37389039993286133,-0.6775588989257812
1701886282236557600,1.6275576171875,-0.6084249019622803,-0.3025808334350586,-0.6186857223510742
1701886282253543200,1.644543212890625,-0.4229385554790497,-0.30168581008911133,-0.509739875793457
1701886282270528000,1.661528076171875,-0.1589789092540741,-0.2819046974182129,-0.36499881744384766
1701886282287537200,1.678537109375,0.07120214402675629,-0.2054738998413086,-0.11946296691894531
1701886282304525000,1.695525146484375,0.06508221477270126,-0.1504650115966797,0.14478492736816406
1701886282321519400,1.712519287109375,-0.055311404168605804,-0.04493093490600586,0.11726093292236328
1701886282338512000,1.729511962890625,-0.08810509741306305,0.03453350067138672,0.15023040771484375
1701886282355508200,1.74650830078125,0.017747575417160988,0.1199488639831543,0.30096435546875
1701886282372516900,1.763516845703125,0.23173917829990387,0.16798019409179688,0.5760965347290039
1701886282389492700,1.78049267578125,0.3872518241405487,0.2146601676940918,0.993962287902832
1701886282406489900,1.79748974609375,0.3259313404560089,0.34178924560546875,1.0242996215820312
1701886282423468500,1.814468505859375,0.021381601691246033,0.34781360626220703,0.8818273544311523
1701886282440473000,1.83147314453125,-0.28487151861190796,0.3584437370300293,0.6232719421386719
1701886282457468200,1.84846826171875,-0.27413564920425415,0.29273414611816406,0.4325981140136719
1701886282474453000,1.865452880859375,-0.010024525225162506,0.2757396697998047,0.31298351287841797
1701886282491451400,1.882451416015625,0.31391578912734985,0.28319358825683594,0.23096179962158203
1701886282508447700,1.89944775390625,0.49705302715301514,0.2942500114440918,0.13098526000976562
1701886282525440000,1.91643994140625,0.4754077196121216,0.27759313583374023,0.018461227416992188
1701886282542432800,1.933432861328125,0.3188247084617615,0.22644424438476562,-0.09569263458251953
1701886282559427000,1.950427001953125,0.19300393760204315,0.16277456283569336,-0.12432384490966797
1701886282576417300,1.967417236328125,0.09564075618982315,0.14406824111938477,-0.005542755126953125
1701886282593411300,1.984411376953125,0.00623655691742897,0.17341089248657227,0.19029617309570312
1701886282610406400,2.001406494140625,-0.1843399703502655,0.21146678924560547,0.19176578521728516
1701886282627396900,2.01839697265625,-0.3861469626426697,0.20097684860229492,0.16199779510498047
1701886282644387800,2.035387939453125,-0.4598585367202759,0.14996814727783203,0.14795875549316406
1701886282661390800,2.052390869140625,-0.45146048069000244,0.08393287658691406,0.18140888214111328
1701886282678378800,2.069378662109375,-0.38298094272613525,0.008048534393310547,0.15132427215576172
1701886282695374600,2.08637451171875,-0.28423720598220825,-0.057222843170166016,0.07905387878417969
1701886282712362800,2.10336279296875,-0.16859054565429688,-0.11329030990600586,0.17350006103515625
1701886282729357800,2.12035791015625,-0.13746416568756104,-0.029056549072265625,0.16443920135498047
1701886282746355200,2.137355224609375,-0.19251132011413574,-0.05844879150390625,0.01729869842529297
1701886282763343000,2.154343017578125,-0.26994216442108154,-0.10918760299682617,-0.12685775756835938
1701886282780337200,2.171337158203125,-0.2300949990749359,-0.18038654327392578,-0.21670150756835938
1701886282797336800,2.1883369140625,-0.10910050570964813,-0.24335861206054688,-0.24354267120361328
1701886282814322400,2.205322509765625,0.07100369036197662,-0.2842702865600586,-0.20169925689697266
1701886282831319800,2.22231982421875,0.1020321473479271,-0.2393627166748047,-0.20627498626708984
1701886282848308000,2.239307861328125,0.007381848990917206,-0.1850895881652832,-0.3443174362182617
1701886282865309000,2.256308837890625,-0.12767842411994934,-0.18715238571166992,-0.4524831771850586
1701886282882295000,2.273294921875,-0.15251557528972626,-0.2371053695678711,-0.4684133529663086
1701886282899283200,2.290283203125,-0.04182228073477745,-0.28009891510009766,-0.34722423553466797
1701886282916285000,2.307284912109375,0.10280908644199371,-0.2514314651489258,-0.21872520446777344
1701886282933276700,2.324276611328125,0.12645263969898224,-0.19454050064086914,-0.11345767974853516
1701886282950271000,2.34127099609375,0.032672010362148285,-0.1543893814086914,-0.07582378387451172
1701886282967278000,2.358278076171875,-0.13729949295520782,-0.09958600997924805,-0.08466434478759766
1701886282984255700,2.375255859375,-0.3459653854370117,-0.1653757095336914,-0.03907489776611328
1701886283001253000,2.392253173828125,-0.15353170037269592,-0.2665081024169922,0.047783851623535156
1701886283018241500,2.409241455078125,0.04802672564983368,-0.1644902229309082,0.1045074462890625
1701886283035242200,2.4262421875,0.11215127259492874,-0.20725154876708984,0.10629653930664062
1701886283052226000,2.44322607421875,0.14284050464630127,-0.15507936477661133,0.024061203002929688
1701886283069225500,2.4602255859375,-0.06971274316310883,-0.15501928329467773,-0.07770824432373047
1701886283086215700,2.477215576171875,-0.22745932638645172,-0.19127798080444336,-0.17392635345458984
1701886283103209500,2.49420947265625,-0.2776254713535309,-0.16083669662475586,-0.27791404724121094
1701886283120203800,2.511203857421875,-0.2139078825712204,-0.2102804183959961,-0.2601661682128906
1701886283137194800,2.52819482421875,-0.05562262982130051,-0.17624330520629883,-0.30193614959716797
1701886283154188300,2.545188232421875,0.041241299360990524,-0.18827295303344727,-0.2965965270996094
1701886283171185200,2.56218505859375,0.053730953484773636,-0.15737533569335938,-0.2400188446044922
1701886283188176600,2.5791767578125,0.01567535474896431,-0.08762693405151367,-0.13909912109375
1701886283205172700,2.5961728515625,-0.09361851215362549,-0.020234107971191406,-0.1015787124633789
1701886283222161000,2.613160888671875,-0.18365547060966492,-0.03441810607910156,-0.04976367950439453
1701886283239157500,2.630157470703125,-0.2124742716550827,-0.028295516967773438,-0.0023927688598632812
1701886283256156200,2.64715625,-0.17365291714668274,-0.022099971771240234,0.024692535400390625
1701886283273138400,2.664138427734375,-0.12962928414344788,0.002880573272705078,0.018695831298828125
1701886283290140200,2.68114013671875,-0.10570700466632843,0.019181251525878906,-0.011649131774902344
1701886283307132700,2.698132568359375,-0.05051642283797264,0.049991607666015625,-0.012837409973144531
1701886283324118000,2.715117919921875,0.051098451018333435,0.03234577178955078,0.10980606079101562
1701886283341119700,2.73211962890625,0.11693345010280609,0.04073953628540039,0.300811767578125
1701886283358110500,2.7491103515625,0.020049607381224632,0.09170866012573242,0.23408985137939453
1701886283375105500,2.76610546875,-0.1648431420326233,0.04088926315307617,0.15956878662109375
1701886283392093700,2.78309375,-0.23789413273334503,0.06754922866821289,0.04155158996582031
1701886283409090300,2.80009033203125,-0.1511947214603424,0.03887653350830078,0.014087677001953125
1701886283426084000,2.817083984375,0.02189803496003151,0.029048442840576172,0.03788948059082031
1701886283443074800,2.83407470703125,0.1375124752521515,0.0072269439697265625,0.03795623779296875
1701886283460069400,2.8510693359375,0.07473418861627579,-0.027447223663330078,-0.030157089233398438
1701886283477065000,2.86806494140625,-0.09161633253097534,-0.05394411087036133,-0.18394947052001953
1701886283494053400,2.885053466796875,-0.20382632315158844,-0.08640527725219727,-0.3028526306152344
1701886283511050800,2.90205078125,-0.24602766335010529,-0.09636068344116211,-0.3311767578125
1701886283528040000,2.9190400390625,-0.19669944047927856,-0.1644730567932129,-0.29845428466796875
1701886283545038000,2.9360380859375,-0.10565288364887238,-0.15915203094482422,-0.23438167572021484
1701886283562026500,2.953026611328125,0.015284556895494461,-0.17639493942260742,-0.14996623992919922
1701886283579023000,2.970023193359375,0.20914095640182495,-0.14065980911254883,0.1474618911743164
1701886283596013600,2.987013671875,0.17002221941947937,-0.0036363601684570312,0.15680789947509766
1701886283613007400,3.00400732421875,-0.12108999490737915,-0.05105400085449219,0.0654449462890625
1701886283630002200,3.021002197265625,-0.3010719418525696,-0.073760986328125,0.024089813232421875
1701886283646997800,3.037997802734375,-0.2625977396965027,-0.12287712097167969,0.10788726806640625
1701886283663984400,3.054984375,-0.15358461439609528,-0.17774009704589844,0.19350719451904297
1701886283680985300,3.0719853515625,-0.04591858386993408,-0.13036155700683594,0.16567420959472656
1701886283697975800,3.088975830078125,-0.05216909945011139,-0.15030241012573242,-0.05637168884277344
1701886283714970400,3.105970458984375,-0.04320962354540825,-0.21393537521362305,-0.30471324920654297
1701886283731962400,3.12296240234375,0.11136816442012787,-0.22653484344482422,-0.42815589904785156
1701886283748956700,3.139956787109375,0.2856285572052002,-0.2032465934753418,-0.4636850357055664
1701886283765949200,3.15694921875,0.4001888334751129,-0.1708984375,-0.38384246826171875
1701886283782940400,3.1739404296875,0.3898356556892395,-0.16381216049194336,-0.18612384796142578
1701886283799935500,3.190935546875,0.25883135199546814,-0.05604124069213867,-0.16895294189453125
1701886283816929800,3.2079296875,0.05705929547548294,-0.05348062515258789,-0.11733627319335938
1701886283833922300,3.22492236328125,-0.07491619884967804,-0.024557113647460938,-0.08450984954833984
1701886283850915800,3.241915771484375,-0.09413587301969528,-0.023281097412109375,-0.009263992309570312
1701886283867896800,3.258896728515625,-0.07791098952293396,-0.050637245178222656,0.06989383697509766
1701886283884892400,3.275892333984375,-0.045071303844451904,-0.032434940338134766,0.12451457977294922
1701886283901898000,3.29289794921875,-0.03748372197151184,-0.022514820098876953,0.08160209655761719
1701886283918889500,3.309889404296875,-0.06309741735458374,-0.06173419952392578,0.06673431396484375
1701886283935877400,3.32687744140625,-0.03154879808425903,-0.0970005989074707,0.11783504486083984
1701886283952865800,3.34386572265625,-0.04413050413131714,-0.1625809669494629,0.10170364379882812
1701886283969868500,3.36086865234375,-0.06994863599538803,-0.2027130126953125,0.014280319213867188
1701886283986873300,3.377873291015625,-0.09045696258544922,-0.19588375091552734,-0.08992767333984375
1701886284003854800,3.394854736328125,-0.11452628672122955,-0.12419700622558594,-0.21445751190185547
1701886284020851700,3.411851806640625,-0.16620486974716187,-0.0705270767211914,-0.2679309844970703
1701886284037838300,3.42883837890625,-0.21212613582611084,-0.04244375228881836,-0.19496631622314453
1701886284054836500,3.44583642578125,-0.25981026887893677,-0.01599884033203125,-0.027731895446777344
1701886284071828200,3.462828125,-0.3978853225708008,0.013272762298583984,-0.035195350646972656
1701886284088822300,3.479822265625,-0.5406872034072876,-0.0459752082824707,-0.08314704895019531
1701886284105811200,3.496811279296875,-0.5189276337623596,-0.06890583038330078,-0.024900436401367188
1701886284122793500,3.51379345703125,-0.3536314368247986,-0.05211448669433594,0.06644153594970703
1701886284139805700,3.5308056640625,-0.18156394362449646,-0.04535818099975586,0.13808631896972656
1701886284156795600,3.547795654296875,-0.06571143865585327,-0.04049348831176758,0.18572235107421875
1701886284173777200,3.564777099609375,-0.014103112742304802,-0.03510332107543945,0.20941925048828125
1701886284190782000,3.581781982421875,0.02151460200548172,-0.003101348876953125,0.247283935546875
1701886284207774200,3.598774169921875,0.018844231963157654,0.026871204376220703,0.2961387634277344
1701886284224768500,3.6157685546875,-0.034954532980918884,0.08608865737915039,0.19201374053955078
1701886284241761000,3.632760986328125,-0.17048607766628265,0.019439697265625,0.051650047302246094
1701886284258754800,3.6497548828125,-0.18736763298511505,-0.045717716217041016,-0.0941610336303711
1701886284275747300,3.666747314453125,-0.058451130986213684,-0.09213542938232422,-0.14786338806152344
1701886284292731000,3.68373095703125,0.12826235592365265,-0.09000968933105469,-0.18427753448486328
1701886284309734000,3.70073388671875,0.2228078693151474,-0.07440853118896484,-0.16536712646484375
1701886284326719500,3.717719482421875,0.1984701156616211,-0.04882478713989258,-0.08697223663330078
1701886284343707600,3.734707763671875,0.09396277368068695,0.0030608177185058594,-0.048140525817871094
1701886284360716500,3.751716552734375,-0.058138735592365265,-0.015288829803466797,-0.024768829345703125
1701886284377707800,3.768707763671875,-0.10099437087774277,-0.01971721649169922,-0.059955596923828125
1701886284394701300,3.785701416015625,-0.04953452944755554,-0.07191133499145508,-0.038872718811035156
1701886284411690800,3.802690673828125,0.03095868229866028,-0.11434459686279297,-0.04164695739746094
1701886284428691200,3.819691162109375,0.0924610123038292,-0.13123655319213867,-0.08220291137695312
1701886284445679900,3.836679931640625,0.10488252341747284,-0.14241361618041992,-0.08308029174804688
1701886284462669300,3.85366943359375,0.07941940426826477,-0.10981130599975586,-0.08357524871826172
1701886284479666400,3.87066650390625,0.015053443610668182,-0.14542913436889648,-0.0024175643920898438
1701886284496661200,3.8876611328125,-0.03772225230932236,-0.11118459701538086,0.0008630752563476562
1701886284513647400,3.9046474609375,-0.12674888968467712,-0.1469120979309082,-0.040162086486816406
1701886284530638800,3.921638916015625,-0.1316494345664978,-0.19097185134887695,-0.07666683197021484
1701886284547636700,3.93863671875,-0.047768063843250275,-0.2517242431640625,-0.0942678451538086
1701886284564637400,3.955637451171875,0.03812676668167114,-0.26239919662475586,-0.12926483154296875
1701886284581622500,3.97262255859375,0.09521299600601196,-0.2658238410949707,-0.1428985595703125
1701886284598616800,3.989616943359375,0.09179271757602692,-0.21331119537353516,-0.1212778091430664
1701886284615616300,4.0066162109375,0.006646119058132172,-0.17526769638061523,-0.007826805114746094
1701886284632607000,4.02360693359375,-0.13938847184181213,-0.07238006591796875,-0.07611846923828125
1701886284649599500,4.040599609375,-0.2225957214832306,-0.0014672279357910156,-0.09246253967285156
1701886284666593500,4.057593505859375,-0.22504684329032898,0.053994178771972656,-0.08036613464355469
1701886284683587000,4.074587158203125,-0.18158046901226044,0.05118083953857422,-0.07057666778564453
1701886284700580400,4.091580322265625,-0.1737741231918335,-0.006203651428222656,-0.037014007568359375
1701886284717572400,4.108572265625,-0.21408675611019135,-0.018314361572265625,-0.03801250457763672
1701886284734566700,4.125566650390625,-0.26237449049949646,-0.017622947692871094,-0.1017141342163086
1701886284751559200,4.14255908203125,-0.20408950746059418,-0.04945850372314453,-0.08944034576416016
1701886284768544500,4.15954443359375,-0.09605471789836884,-0.05048704147338867,-0.0093231201171875
1701886284785547500,4.176547607421875,-0.017909660935401917,-0.033245086669921875,0.08976936340332031
1701886284802525700,4.193525634765625,-0.07233099639415741,-0.01406097412109375,0.10746192932128906
1701886284819523300,4.2105234375,-0.16373808681964874,-0.0011982917785644531,0.03307056427001953
1701886284836529200,4.227529052734375,-0.17373831570148468,0.0010061264038085938,-0.04190349578857422
1701886284853513200,4.24451318359375,-0.08225475251674652,-0.025792598724365234,-0.09037590026855469
1701886284870512000,4.26151220703125,0.053937479853630066,-0.05197906494140625,-0.14267253875732422
1701886284887502800,4.2785029296875,0.1474950909614563,-0.053957462310791016,-0.16608715057373047
1701886284904496600,4.29549658203125,0.1446421593427658,-0.04244709014892578,-0.22731399536132812
1701886284921489400,4.312489501953125,0.08145114779472351,-0.07320594787597656,-0.23963165283203125
1701886284938487300,4.3294873046875,0.051979511976242065,-0.07842397689819336,-0.20831871032714844
1701886284955477200,4.346477294921875,0.051494300365448,-0.07682657241821289,-0.15651607513427734
1701886284972472600,4.36347265625,0.10281145572662354,-0.08788061141967773,-0.10980510711669922
1701886284989462300,4.380462158203125,0.1955253928899765,-0.07400941848754883,-0.05783271789550781
1701886285006461400,4.39746142578125,0.23340976238250732,-0.06532764434814453,-0.0061359405517578125
1701886285023452200,4.4144521484375,0.1963864415884018,-0.07129859924316406,-0.001331329345703125
1701886285040446000,4.431446044921875,0.1563587486743927,-0.03463602066040039,-0.030327796936035156
1701886285057437400,4.4484375,0.08745065331459045,-0.060719966888427734,-0.016861915588378906
1701886285074432500,4.4654326171875,0.04266780614852905,-0.03912019729614258,0.0063800811767578125
1701886285091425800,4.48242578125,-0.04994171857833862,-0.047833919525146484,-0.023499488830566406
1701886285108404700,4.49940478515625,-0.08364996314048767,-0.0410151481628418,-0.01000213623046875
1701886285125414700,4.51641455078125,-0.07986244559288025,-0.005778312683105469,-0.01640033721923828
1701886285142405600,4.533405517578125,-0.0682525634765625,-0.02751779556274414,-0.03277015686035156
1701886285159398000,4.55039794921875,-0.005905598402023315,0.0043392181396484375,-0.04841136932373047
1701886285176392000,4.567391845703125,-0.02263408899307251,-0.04760122299194336,0.0023202896118164062
1701886285193381000,4.584381103515625,-0.06274420022964478,-0.038434505462646484,-0.02911853790283203
1701886285210378800,4.601378662109375,-0.14258167147636414,-0.06392383575439453,-0.06525516510009766
1701886285227370800,4.618370849609375,-0.15408167243003845,-0.10741615295410156,-0.08221435546875
1701886285244365000,4.635364990234375,-0.10128578543663025,-0.11858081817626953,-0.08841609954833984
1701886285261356500,4.6523564453125,-0.0321083664894104,-0.10767698287963867,-0.0743560791015625
1701886285278342100,4.669342041015625,-0.006547302007675171,-0.07236576080322266,-0.06394004821777344
1701886285295343900,4.68634375,-0.0656450092792511,-0.024173736572265625,-0.024623870849609375
1701886285312338200,4.703338134765625,-0.15906992554664612,-0.0030164718627929688,-0.034361839294433594
1701886285329330700,4.72033056640625,-0.257426917552948,-0.062211036682128906,-0.07491493225097656
1701886285346324700,4.73732470703125,-0.1893131136894226,-0.11018896102905273,-0.13078880310058594
1701886285363316000,4.75431591796875,-0.057796329259872437,-0.13625860214233398,-0.1380910873413086
1701886285380311300,4.771311279296875,0.05209043622016907,-0.1257033348083496,-0.19111919403076172
1701886285397304600,4.7883046875,0.07217326760292053,-0.10279273986816406,-0.16582393646240234
1701886285414297900,4.8052978515625,0.029439657926559448,-0.08768224716186523,-0.051896095275878906
1701886285431289900,4.822289794921875,-0.03431260585784912,-0.0300445556640625,0.057068824768066406
1701886285448290800,4.839290771484375,-0.15442612767219543,-0.03799009323120117,0.13176441192626953
1701886285465277700,4.856277587890625,-0.1875973343849182,-0.023639678955078125,0.08887958526611328
1701886285482271200,4.873271240234375,-0.1291937232017517,-0.03311729431152344,0.045601844787597656
1701886285499263000,4.890262939453125,0.010946154594421387,-0.028519630432128906,-0.023055076599121094
1701886285516257800,4.9072578125,0.12205466628074646,-0.03182411193847656,-0.09118843078613281
1701886285533247500,4.92424755859375,0.1591288149356842,-0.03487205505371094,-0.1238107681274414
1701886285550246700,4.94124658203125,0.10433819890022278,-0.032115936279296875,-0.13605880737304688
1701886285567236000,4.958236083984375,0.0376739501953125,-0.04324197769165039,-0.12435340881347656
1701886285584225500,4.9752255859375,-0.07397487759590149,-0.010174274444580078,-0.09179115295410156
1701886285601225700,4.992225830078125,-0.1932721734046936,0.0043582916259765625,-0.06379032135009766
1701886285618218200,5.00921826171875,-0.2039678990840912,0.024167537689208984,-0.03228569030761719
1701886285635209500,5.02620947265625,-0.11779937148094177,0.03758096694946289,-0.016527175903320312
1701886285652193500,5.043193603515625,0.00262528657913208,0.040978431701660156,-0.0066680908203125
1701886285669195800,5.06019580078125,0.09487169981002808,0.024517059326171875,0.013006210327148438
1701886285686190300,5.0771904296875,0.10976943373680115,0.040006160736083984,-0.029435157775878906
1701886285703179500,5.094179443359375,0.033651649951934814,0.03173255920410156,-0.07119464874267578
1701886285720177200,5.11117724609375,-0.027960598468780518,0.0475926399230957,-0.04557228088378906
1701886285737169200,5.128169189453125,-0.09920850396156311,0.07202291488647461,-0.049480438232421875
1701886285754163500,5.14516357421875,-0.10694554448127747,0.06612777709960938,-0.08347415924072266
1701886285771154700,5.16215478515625,-0.021770179271697998,0.05509757995605469,-0.10415077209472656
1701886285788150800,5.17915087890625,0.13549160957336426,0.0002536773681640625,-0.0537261962890625
1701886285805142500,5.196142578125,0.22455979883670807,-0.05318450927734375,-0.022064208984375
1701886285822134000,5.213134033203125,0.21643280982971191,-0.12508201599121094,-0.0029506683349609375
1701886285839131400,5.23013134765625,0.17904233932495117,-0.14858627319335938,0.07413959503173828
1701886285856105200,5.247105224609375,0.13209232687950134,-0.12959051132202148,0.1850118637084961
1701886285873115600,5.26411572265625,-0.00867772102355957,-0.08042287826538086,0.165496826171875
1701886285890109700,5.281109619140625,-0.16097673773765564,-0.06191873550415039,0.06805992126464844
1701886285907101700,5.298101806640625,-0.19963005185127258,-0.04899787902832031,-0.007096290588378906
1701886285924096000,5.315095947265625,-0.1532948613166809,-0.05087089538574219,-0.09237194061279297
1701886285941088800,5.3320888671875,-0.09580257534980774,-0.08204793930053711,-0.17341041564941406
1701886285958082000,5.34908203125,-0.0925091803073883,-0.14503955841064453,-0.23943328857421875
1701886285975075600,5.36607568359375,-0.07373207807540894,-0.17693424224853516,-0.27934932708740234
1701886285992069400,5.3830693359375,-0.03982734680175781,-0.17561006546020508,-0.2547445297241211
1701886286009061600,5.4000615234375,-0.044182002544403076,-0.13687658309936523,-0.19462203979492188
1701886286026052600,5.417052490234375,-0.08465662598609924,-0.059610843658447266,-0.13338851928710938
1701886286043037400,5.434037353515625,-0.14638903737068176,-0.016607284545898438,-0.12059211730957031
1701886286060042200,5.451042236328125,-0.1579793095588684,-0.0364832878112793,-0.07010269165039062
1701886286077035000,5.468034912109375,-0.09591293334960938,-0.0365290641784668,-0.0058841705322265625
1701886286094025700,5.485025634765625,-0.008485496044158936,-0.04184865951538086,0.03372764587402344
1701886286111021000,5.50202099609375,-0.009074896574020386,-0.02653360366821289,0.019868850708007812
1701886286128015600,5.519015625,-0.07873645424842834,-0.018187522888183594,-0.013592720031738281
1701886286145007900,5.5360078125,-0.11859950423240662,-0.010482311248779297,-0.04222869873046875
1701886286162002200,5.553002197265625,-0.08917838335037231,-0.044074058532714844,-0.023859024047851562
1701886286178994700,5.56999462890625,0.06689465045928955,-0.06783628463745117,-0.0009288787841796875
1701886286195988700,5.58698876953125,0.18906143307685852,-0.060613155364990234,-0.0006351470947265625
1701886286212980700,5.603980712890625,0.21661201119422913,-0.04669761657714844,0.0004911422729492188
1701886286229975300,5.620975341796875,0.1291942000389099,0.032466888427734375,0.012698173522949219
1701886286246967600,5.637967529296875,-0.05419987440109253,0.05136728286743164,-0.009903907775878906
1701886286263962000,5.654962158203125,-0.1839662492275238,0.03007364273071289,-0.004595756530761719
1701886286280952300,5.671952392578125,-0.25474196672439575,-0.025356769561767578,0.004025459289550781
1701886286297950000,5.688949951171875,-0.19536006450653076,-0.03619718551635742,-0.01123046875
1701886286314941000,5.70594091796875,-0.060405224561691284,-0.027199268341064453,-0.04184722900390625
1701886286331935200,5.722935302734375,0.045464545488357544,0.00046253204345703125,-0.048221588134765625
1701886286348927500,5.739927490234375,0.07343694567680359,0.031388282775878906,-0.06870555877685547
1701886286365921500,5.756921630859375,0.0456203818321228,0.009196281433105469,-0.046173095703125
1701886286382914000,5.7739140625,-0.0029060542583465576,-0.013703346252441406,0.0003337860107421875
1701886286399907800,5.790907958984375,-0.0013602972030639648,-0.04065752029418945,0.033084869384765625
1701886286416900400,5.807900390625,-0.014752507209777832,-0.02989053726196289,0.007358551025390625
1701886286433881900,5.8248818359375,0.005935758352279663,-0.023708343505859375,-0.04235267639160156
1701886286450887000,5.841886962890625,0.030348986387252808,-0.021697998046875,-0.05412006378173828
1701886286467880400,5.85888037109375,0.04576045274734497,-0.0005340576171875,-0.03654670715332031
1701886286484874000,5.8758740234375,0.036522477865219116,0.010531425476074219,-0.033447265625
1701886286501867800,5.89286767578125,-0.002835303544998169,-0.021671295166015625,-0.0010290145874023438
1701886286518860000,5.909860107421875,-0.03844597935676575,-0.030185222625732422,-0.007632255554199219
1701886286535854300,5.926854248046875,-0.07649606466293335,-0.05917501449584961,-0.014104843139648438
1701886286552846300,5.943846435546875,-0.0597204864025116,-0.04908609390258789,-0.0794820785522461
1701886286569830100,5.960830078125,0.0053279101848602295,-0.07254600524902344,-0.07279777526855469
1701886286586822700,5.97782275390625,0.050702184438705444,-0.06158256530761719,-0.08448600769042969
1701886286603824400,5.994824462890625,-0.00215795636177063,-0.09505271911621094,-0.06750297546386719
1701886286620819700,6.01181982421875,-0.059537798166275024,-0.1235952377319336,-0.11230850219726562
1701886286637814300,6.028814208984375,-0.06888103485107422,-0.14550447463989258,-0.13764095306396484
1701886286654806300,6.04580615234375,-0.04397374391555786,-0.12557315826416016,-0.14214324951171875
1701886286671800600,6.062800537109375,-0.0671912133693695,-0.10299205780029297,-0.13098907470703125
1701886286688792800,6.079792724609375,-0.06576302647590637,-0.046538352966308594,-0.10523700714111328
1701886286705787100,6.096787109375,-0.12202423810958862,-0.02576160430908203,-0.07475948333740234
1701886286722779100,6.113779052734375,-0.17489758133888245,-0.0295257568359375,-0.054350852966308594
1701886286739767600,6.130767578125,-0.18385162949562073,-0.06270885467529297,0.0034160614013671875
1701886286756763400,6.147763427734375,-0.0997176468372345,-0.07253170013427734,0.007580757141113281
1701886286773763000,6.16476318359375,0.0014790892601013184,-0.0829153060913086,0.0009021759033203125
1701886286790751700,6.181751708984375,0.06649404764175415,-0.07417058944702148,-0.05728435516357422
1701886286807747600,6.19874755859375,0.0977967381477356,-0.07869958877563477,-0.0817413330078125
1701886286824739000,6.215739013671875,0.08110034465789795,-0.07179450988769531,-0.08552837371826172
1701886286841733400,6.2327333984375,0.04183521866798401,-0.06462669372558594,-0.05475044250488281
1701886286858724900,6.249724853515625,-0.004810810089111328,-0.034352779388427734,-0.0006856918334960938
1701886286875720700,6.266720703125,-0.10226818919181824,-0.011621475219726562,-0.0003032684326171875
1701886286892712400,6.28371240234375,-0.13509592413902283,-0.01723194122314453,-0.04851341247558594
1701886286909701600,6.30070166015625,-0.0877780020236969,-0.04583263397216797,-0.06792449951171875
1701886286926699000,6.317698974609375,0.005745112895965576,-0.049642086029052734,-0.06391620635986328
1701886286943693000,6.334693115234375,0.018575936555862427,-0.03872203826904297,-0.015447616577148438
1701886286960685300,6.351685302734375,-0.01524573564529419,-0.028806209564208984,-0.014684677124023438
1701886286977678600,6.3686787109375,-0.07533887028694153,-0.029693126678466797,0.0049648284912109375
1701886286994670000,6.385670166015625,-0.0923624336719513,-0.035742759704589844,0.00439453125
1701886287011668500,6.40266845703125,-0.06809860467910767,-0.04192829132080078,0.003093719482421875
1701886287028658400,6.419658447265625,-0.01768958568572998,-0.023595809936523438,-0.01683330535888672
1701886287045652500,6.436652587890625,0.013899087905883789,-0.020404338836669922,-0.017719268798828125
1701886287062632700,6.4536328125,0.017271429300308228,-0.04142475128173828,-0.009758949279785156
1701886287079640800,6.470640869140625,-0.03663837909698486,-0.028687477111816406,-0.048300743103027344
1701886287096631800,6.4876318359375,-0.06736212968826294,-0.04018878936767578,-0.001064300537109375
1701886287113622800,6.504622802734375,-0.12184053659439087,-0.028293132781982422,0.0127410888671875
1701886287130601500,6.5216015625,-0.15434840321540833,-0.04004716873168945,-0.030786514282226562
1701886287147610400,6.5386103515625,-0.14418187737464905,-0.03665447235107422,-0.036858558654785156
1701886287164596500,6.555596435546875,-0.07658055424690247,-0.03710317611694336,-0.04215526580810547
1701886287181595000,6.572594970703125,-0.022170275449752808,-0.033419132232666016,-0.024107933044433594
1701886287198589200,6.589589111328125,-0.03181082010269165,-0.06530427932739258,0.017810821533203125
1701886287215585500,6.60658544921875,-0.07961025834083557,-0.08815288543701172,-0.012004852294921875
1701886287232577800,6.623577880859375,-0.09642976522445679,-0.12511920928955078,-0.042369842529296875
1701886287249571800,6.64057177734375,-0.05886733531951904,-0.12175655364990234,-0.11100101470947266
1701886287266564400,6.657564453125,0.02581709623336792,-0.12147378921508789,-0.13572025299072266
1701886287283559000,6.674558837890625,0.07881113886833191,-0.08175802230834961,-0.14452552795410156
1701886287300550400,6.69155029296875,0.07647198438644409,-0.07453584671020508,-0.12883281707763672
1701886287317546000,6.7085458984375,0.016497522592544556,-0.024094581604003906,-0.1074075698852539
1701886287334537200,6.725537109375,-0.049320340156555176,-0.02658987045288086,-0.08645248413085938
1701886287351535400,6.742535400390625,-0.03306424617767334,-0.07826042175292969,-0.10083675384521484
1701886287368519400,6.75951953125,0.06777575612068176,-0.09472179412841797,-0.08600044250488281
1701886287385523200,6.776523193359375,0.15536141395568848,-0.07051992416381836,-0.04589080810546875
1701886287402510600,6.793510498046875,0.13534605503082275,-0.0068187713623046875,-0.047667503356933594
1701886287419505000,6.8105048828125,0.05277740955352783,0.041048526763916016,-0.038994789123535156
1701886287436497700,6.82749755859375,-0.04740595817565918,0.05035972595214844,-0.031279563903808594
1701886287453491500,6.844491455078125,-0.09526237845420837,0.03431844711303711,0.004096031188964844
1701886287470483700,6.861483642578125,-0.0974036157131195,0.031731605529785156,0.00035858154296875
1701886287487478000,6.87847802734375,-0.062036216259002686,0.010380744934082031,-0.02266693115234375
1701886287504467200,6.89546728515625,0.006160557270050049,0.003323078155517578,-0.02208423614501953
1701886287521461500,6.91246142578125,0.05970102548599243,0.021806716918945312,-0.04970550537109375
1701886287538453200,6.929453369140625,0.029040664434432983,0.02072286605834961,-0.018871307373046875
1701886287555454700,6.946454833984375,-0.011389851570129395,0.034549713134765625,-0.01615619659423828
1701886287572443600,6.963443603515625,-0.0798693597316742,0.037645816802978516,0.0054149627685546875
1701886287589432800,6.980432861328125,-0.1339854896068573,0.04973459243774414,0.03595447540283203
1701886287606430000,6.997429931640625,-0.15009954571723938,0.041203975677490234,0.012521743774414062
1701886287623421200,7.014421142578125,-0.16953390836715698,0.022094249725341797,-0.011400222778320312
1701886287640416300,7.031416259765625,-0.1085197925567627,0.0027189254760742188,-0.026518821716308594
1701886287657410800,7.048410888671875,-0.0531105101108551,-0.01144266128540039,-0.013043403625488281
1701886287674403300,7.0654033203125,-0.002857595682144165,-0.00740814208984375,-0.023665428161621094
1701886287691396600,7.082396728515625,-0.006831616163253784,-0.0372004508972168,-0.009859085083007812
1701886287708390400,7.099390380859375,-0.005758076906204224,-0.03842020034790039,0.013476371765136719
1701886287725384000,7.116384033203125,-0.024380803108215332,-0.044725894927978516,0.041403770446777344
1701886287742376200,7.133376220703125,-0.06507682800292969,-0.023260116577148438,-0.0024061203002929688
1701886287759370800,7.150370849609375,-0.08196797966957092,-0.002056598663330078,-0.05173778533935547
1701886287776360400,7.1673603515625,-0.101418137550354,-0.01889944076538086,-0.06679058074951172
1701886287793359400,7.184359375,-0.06185242533683777,-0.03048229217529297,-0.06359195709228516
1701886287810353700,7.201353759765625,-0.05442264676094055,-0.06594610214233398,-0.026246070861816406
1701886287827344000,7.21834375,-0.07235890626907349,-0.05388355255126953,-0.03216838836669922
1701886287844340000,7.235340087890625,-0.0763511061668396,-0.05680036544799805,-0.04321098327636719
1701886287861322500,7.252322509765625,-0.033993691205978394,-0.04489564895629883,-0.058834075927734375
1701886287878324500,7.269324462890625,0.018064260482788086,-0.05193948745727539,-0.051041603088378906
1701886287895314700,7.286314697265625,0.0650307834148407,-0.06242513656616211,-0.06201934814453125
1701886287912309200,7.303309326171875,0.06870308518409729,-0.06800270080566406,-0.06722831726074219
1701886287929303600,7.320303466796875,0.04530817270278931,-0.07318735122680664,-0.06205272674560547
1701886287946295800,7.3372958984375,0.006480365991592407,-0.06845569610595703,-0.061794281005859375
1701886287963289900,7.354289794921875,-0.02314215898513794,-0.0629739761352539,-0.047110557556152344
1701886287980282400,7.371282470703125,-0.02441510558128357,-0.0388798713684082,-0.04168701171875
1701886287997287200,7.388287109375,-0.0444125235080719,-0.04871082305908203,-0.056206703186035156
1701886288014266000,7.40526611328125,-0.016745924949645996,-0.0484166145324707,-0.07105064392089844
1701886288031263000,7.422262939453125,0.0016558468341827393,-0.06197834014892578,-0.05630970001220703
1701886288048253200,7.439253173828125,0.01989150047302246,-0.05632972717285156,-0.036757469177246094
1701886288065249500,7.45624951171875,-0.05247431993484497,-0.07053041458129883,-0.02654743194580078
1701886288082241800,7.47324169921875,-0.07633063197135925,-0.09559202194213867,-0.05105781555175781
1701886288099236000,7.490236083984375,-0.006044059991836548,-0.10458183288574219,-0.0609588623046875
1701886288116228600,7.507228515625,0.04808351397514343,-0.0678567886352539,-0.03639507293701172
1701886288133223000,7.524222900390625,0.011546939611434937,-0.02269268035888672,-0.0488739013671875
1701886288150215000,7.54121484375,-0.08448639512062073,-0.006691932678222656,-0.08092021942138672
1701886288167208700,7.558208740234375,-0.1574273407459259,-0.006657123565673828,-0.06553363800048828
1701886288184200000,7.575199951171875,-0.16269153356552124,-0.03514862060546875,-0.04136180877685547
1701886288201197600,7.592197509765625,-0.14099079370498657,-0.054102420806884766,-0.017248153686523438
1701886288218188800,7.609188720703125,-0.039568960666656494,-0.07257270812988281,-0.008801460266113281
1701886288235184000,7.62618408203125,0.050873517990112305,-0.06746673583984375,-0.032868385314941406
1701886288252172800,7.6431728515625,0.11235305666923523,-0.04341316223144531,-0.06690692901611328
1701886288269169000,7.6601689453125,0.1275707185268402,-0.028159141540527344,-0.07120227813720703
1701886288286161400,7.677161376953125,0.0959615707397461,-0.02233743667602539,-0.051456451416015625
1701886288303153200,7.694153076171875,0.05422455072402954,-0.002373218536376953,-0.031266212463378906
1701886288320150300,7.711150390625,-0.004234045743942261,-0.0027289390563964844,-0.05510711669921875
1701886288337142500,7.728142578125,-0.001734703779220581,-0.011873245239257812,-0.07887458801269531
1701886288354134500,7.745134521484375,0.035509079694747925,-0.0056438446044921875,-0.07369136810302734
1701886288371128600,7.762128662109375,0.06357797980308533,-0.00925302505493164,-0.05396461486816406
1701886288388109600,7.779109619140625,0.08663854002952576,-0.012754440307617188,-0.044381141662597656
1701886288405116200,7.7961162109375,0.06896564364433289,-0.011127948760986328,-0.03349113464355469
1701886288422105000,7.81310498046875,0.08845296502113342,-0.027778148651123047,-0.0090484619140625
1701886288439104300,7.830104248046875,0.0685586929321289,-0.025556564331054688,0.011054039001464844
1701886288456094200,7.84709423828125,0.0010530054569244385,-0.029417991638183594,0.01704883575439453
1701886288473088500,7.864088623046875,-0.07042145729064941,-0.023342132568359375,0.0229339599609375
1701886288490080800,7.881080810546875,-0.07951825857162476,0.019486427307128906,0.037024497985839844
1701886288507074800,7.89807470703125,-0.12213215231895447,-0.0022864341735839844,-0.0024271011352539062
1701886288524064000,7.91506396484375,-0.1190185546875,-0.008391857147216797,-0.061028480529785156
1701886288541059000,7.93205908203125,-0.03669959306716919,-0.027250289916992188,-0.07160282135009766
1701886288558056400,7.949056396484375,0.008856236934661865,-0.03141355514526367,-0.057730674743652344
1701886288575037700,7.96603759765625,0.04916715621948242,0.03012371063232422,-0.034234046936035156
1701886288592040400,7.98304052734375,-0.09258514642715454,0.01550436019897461,-0.03515625
1701886288609034800,8.00003466796875,-0.09866997599601746,-0.042598724365234375,-0.028169631958007812
1701886288626026800,8.01702685546875,-0.013179481029510498,-0.041344642639160156,-0.04001045227050781
1701886288643021000,8.03402099609375,0.07220610976219177,-0.07570981979370117,-0.04138660430908203
1701886288660013600,8.051013671875,0.15387925505638123,-0.0419011116027832,-0.056606292724609375
1701886288677008000,8.0680078125,0.1442684531211853,-0.03638648986816406,-0.08507347106933594
1701886288693998000,8.084998046875,0.007219284772872925,-0.020467758178710938,-0.0972137451171875
1701886288710995500,8.101995361328125,-0.1657024323940277,-0.03214120864868164,-0.08957958221435547
1701886288727998700,8.118998779296875,-0.237768292427063,-0.025193214416503906,-0.049317359924316406
1701886288744980700,8.135980712890625,-0.17921176552772522,-0.04666709899902344,-0.0391845703125
1701886288761973200,8.15297314453125,-0.031989648938179016,-0.05754518508911133,-0.010350227355957031
1701886288778961400,8.16996142578125,0.07990740239620209,-0.03941631317138672,-0.010106086730957031
1701886288795960300,8.186960205078124,0.05090557038784027,-0.06503057479858398,-0.008658409118652344
1701886288812954000,8.2039541015625,-0.023715004324913025,-0.10106182098388672,-0.0018739700317382812
1701886288829946400,8.2209462890625,-0.09361070394515991,-0.10097169876098633,0.010728836059570312
1701886288846941000,8.23794091796875,-0.14294859766960144,-0.017915725708007812,-0.0093841552734375
1701886288863932700,8.2549326171875,-0.17128214240074158,0.04615020751953125,-0.0197906494140625
1701886288880927000,8.271927001953125,-0.21756099164485931,0.09366989135742188,0.0067882537841796875
1701886288897919700,8.288919677734375,-0.19411598145961761,0.09533452987670898,0.04603290557861328
1701886288914914600,8.30591455078125,-0.16605260968208313,0.05945253372192383,0.05925559997558594
1701886288931906000,8.322906005859375,-0.09292958676815033,0.01258993148803711,-0.01594257354736328
1701886288948900000,8.339900146484375,0.055912479758262634,-0.029395103454589844,-0.04806041717529297
1701886288965905700,8.35690576171875,0.18976958096027374,-0.050696372985839844,-0.07878875732421875
1701886288982887000,8.373886962890625,0.26105666160583496,-0.05453014373779297,-0.06964778900146484
1701886288999876600,8.390876708984376,0.20484930276870728,-0.03397417068481445,-0.015359878540039062
1701886289016865500,8.407865478515625,0.09962828457355499,-0.017244338989257812,0.015480995178222656
1701886289033862400,8.4248623046875,0.0356309711933136,0.014523506164550781,0.07024478912353516
1701886289050860000,8.441860107421874,-0.015982910990715027,0.0576176643371582,0.08542919158935547
1701886289067852000,8.45885205078125,-0.05788813531398773,0.05029726028442383,0.03617668151855469
1701886289084846800,8.475846923828126,-0.07492604851722717,0.017590999603271484,-0.018591880798339844
1701886289101831200,8.4928310546875,-0.02088095247745514,-0.024114608764648438,-0.06920146942138672
1701886289118837500,8.50983740234375,0.032957181334495544,-0.051434993743896484,-0.07164382934570312
1701886289135825200,8.5268251953125,0.033818140625953674,-0.06267023086547852,-0.115966796875
1701886289152819500,8.5438193359375,-0.025845572352409363,-0.07283163070678711,-0.12020397186279297
1701886289169804000,8.560803955078125,-0.050861939787864685,-0.06593179702758789,-0.09043407440185547
1701886289186795800,8.577795654296875,-0.04649019241333008,-0.06285381317138672,-0.01709270477294922
1701886289203798800,8.594798828125,-0.024525463581085205,-0.04619550704956055,0.0127716064453125
1701886289220792000,8.6117919921875,-0.07013866305351257,-0.05002927780151367,-0.005026817321777344
1701886289237786000,8.6287861328125,-0.09736064076423645,-0.06722545623779297,-0.03757667541503906
1701886289254779600,8.645779541015624,-0.0856916755437851,-0.044965267181396484,-0.03632640838623047
1701886289271771400,8.662771484375,-0.07650627195835114,-0.0490727424621582,-0.01714038848876953
1701886289288765200,8.67976513671875,-0.10457581281661987,-0.05367565155029297,-0.049920082092285156
1701886289305759000,8.696759033203126,-0.1318378448486328,-0.06285905838012695,-0.05925750732421875
1701886289322751000,8.7137509765625,-0.059829190373420715,-0.061095237731933594,-0.054459571838378906
1701886289339746300,8.730746337890626,0.04910103976726532,-0.045266151428222656,-0.025602340698242188
1701886289356743000,8.747742919921874,0.06702851504087448,-0.0202789306640625,-0.030160903930664062
1701886289373731300,8.7647314453125,0.04394406080245972,-0.015982627868652344,-0.05911064147949219
1701886289390726000,8.781725830078125,0.035034045577049255,-0.02490997314453125,-0.07788944244384766
1701886289407717600,8.798717529296875,0.05954177677631378,-0.046756744384765625,-0.04330921173095703
1701886289424708900,8.815708984375,0.06918030232191086,-0.02528238296508789,-0.046878814697265625
1701886289441704400,8.832704345703124,0.023863300681114197,-0.009495735168457031,-0.055335044860839844
1701886289458698800,8.84969873046875,-0.022366732358932495,-0.007822036743164062,-0.02023029327392578
1701886289475691000,8.86669091796875,0.06015554070472717,-0.0014638900756835938,0.032759666442871094
1701886289492685300,8.883685302734374,0.15788573026657104,0.009632587432861328,0.04226493835449219
1701886289509677800,8.900677734375,0.14749523997306824,-0.01959085464477539,0.05155181884765625
1701886289526670300,8.91767041015625,0.06087586283683777,-0.046488285064697266,-0.016083717346191406
1701886289543662300,8.934662353515625,0.04818420112133026,-0.058223724365234375,-0.03152942657470703
1701886289560658200,8.951658203125,0.11133956909179688,-0.025890827178955078,-0.047367095947265625
1701886289577650400,8.968650390625,0.11284054815769196,-0.027989864349365234,-0.06277942657470703
1701886289594645200,8.985645263671875,0.07533654570579529,-0.03151369094848633,-0.09748172760009766
1701886289611633400,9.00263330078125,-0.0021816790103912354,-0.059218406677246094,-0.16585540771484375
1701886289628632000,9.019632080078125,-0.043410345911979675,-0.08929920196533203,-0.20490741729736328
1701886289645623800,9.036623779296875,-0.008892551064491272,-0.09140443801879883,-0.1844635009765625
1701886289662617900,9.053617919921875,0.017651483416557312,-0.10022640228271484,-0.10569095611572266
1701886289679610400,9.0706103515625,0.02043275535106659,-0.07984113693237305,-0.07358551025390625
1701886289696605000,9.08760498046875,0.0026973187923431396,-0.08191728591918945,-0.03626537322998047
1701886289713597000,9.104596923828124,-0.03176495432853699,-0.06037425994873047,-0.01768016815185547
1701886289730591200,9.12159130859375,-0.05697925388813019,-0.0542607307434082,0.009308815002441406
1701886289747583700,9.138583740234376,-0.08348697423934937,-0.04543256759643555,0.01637744903564453
1701886289764578000,9.155578125,-0.1379045844078064,-0.057091712951660156,-0.015240669250488281
1701886289781570300,9.1725703125,-0.16306164860725403,-0.059543609619140625,-0.05240345001220703
1701886289798563000,9.18956298828125,-0.12993665039539337,-0.05156707763671875,-0.05113697052001953
1701886289815558100,9.20655810546875,-0.07290628552436829,-0.030138492584228516,-0.05061626434326172
1701886289832551200,9.22355126953125,-0.08114702999591827,-0.028408050537109375,-0.05455207824707031
1701886289849543400,9.24054345703125,-0.102174773812294,-0.01755046844482422,-0.049121856689453125
1701886289866538000,9.2575380859375,-0.1127547025680542,-0.030346393585205078,-0.038745880126953125
1701886289883530000,9.274530029296875,-0.08430977165699005,-0.03799915313720703,-0.009034156799316406
1701886289900524300,9.291524169921875,-0.05172649025917053,-0.012115478515625,-0.013400077819824219
1701886289917516300,9.308516357421874,-0.037688836455345154,-0.010303020477294922,0.011480331420898438
1701886289934494200,9.325494140625,-0.042928799986839294,0.006658077239990234,0.013444900512695312
1701886289951500500,9.34250048828125,-0.05377182364463806,0.029134750366210938,0.0630340576171875
1701886289968494800,9.359494873046875,-0.06552237272262573,0.0695943832397461,0.04979133605957031
1701886289985492000,9.376491943359374,-0.08580109477043152,0.07505607604980469,0.026212692260742188
1701886290002484000,9.39348388671875,-0.046404942870140076,0.0657663345336914,0.045513153076171875
1701886290019476200,9.410476318359375,-0.016439169645309448,0.06945323944091797,0.07366657257080078
1701886290036470500,9.427470458984375,0.007977887988090515,0.05819368362426758,0.06739521026611328
1701886290053462500,9.444462646484375,-0.0016711652278900146,0.055486202239990234,0.0659627914428711
1701886290070456800,9.461456787109375,-0.006056293845176697,0.05176210403442383,0.05443000793457031
1701886290087449000,9.478448974609375,-0.0007940828800201416,0.037892818450927734,0.052168846130371094
1701886290104443600,9.495443603515625,0.0036740154027938843,0.04294252395629883,0.02107524871826172
1701886290121439200,9.512439208984375,-0.005980297923088074,0.02400493621826172,0.013875961303710938
1701886290138425300,9.52942529296875,-0.016055643558502197,0.014792442321777344,-0.012388229370117188
1701886290155426800,9.5464267578125,-0.031067490577697754,0.02918720245361328,-0.014286041259765625
1701886290172417000,9.5634169921875,-0.06367295980453491,0.03845500946044922,-0.03608226776123047
1701886290189409000,9.580408935546876,-0.11038452386856079,0.023482799530029297,-0.04307842254638672
1701886290206403000,9.597403076171876,-0.10391081869602203,-0.045125484466552734,-0.05177879333496094
1701886290223395300,9.614395263671875,-0.004331454634666443,-0.09759998321533203,-0.10296249389648438
1701886290240377900,9.6313779296875,0.12963645160198212,-0.0939168930053711,-0.11947441101074219
1701886290257373200,9.648373291015625,0.16338475048542023,-0.04995584487915039,-0.10472869873046875
1701886290274376400,9.66537646484375,0.07168332487344742,-0.005245685577392578,-0.09340286254882812
1701886290291368700,9.68236865234375,-0.06664274632930756,0.0007987022399902344,-0.01939678192138672
1701886290308362000,9.699362060546875,-0.17136991024017334,0.0008759498596191406,0.043837547302246094
1701886290325355800,9.716355712890625,-0.1973104029893875,-0.02446746826171875,0.08233070373535156
1701886290342342400,9.73334228515625,-0.1308908760547638,-0.016706466674804688,0.06133460998535156
1701886290359341800,9.750341796875,-0.02251558005809784,-0.03843259811401367,0.0345306396484375
1701886290376336100,9.767336181640625,0.06684517115354538,-0.041029930114746094,-0.015604972839355469
1701886290393328000,9.784328125,0.113933265209198,-0.05343437194824219,-0.04160881042480469
1701886290410322700,9.80132275390625,0.04885157197713852,-0.0471343994140625,-0.02833271026611328
1701886290427310600,9.818310546875,-0.03933042287826538,-0.06081438064575195,-0.039084434509277344
1701886290444307700,9.8353076171875,-0.0936976969242096,-0.06847000122070312,-0.02079010009765625
1701886290461303800,9.8523037109375,-0.10226038098335266,-0.052396297454833984,-0.031925201416015625
1701886290478295600,9.869295654296875,-0.06816214323043823,-0.05488872528076172,-0.06669425964355469
1701886290495288000,9.8862880859375,-0.00972050428390503,-0.060828208923339844,-0.07265853881835938
1701886290512282400,9.903282470703125,0.03509979695081711,-0.06084108352661133,-0.053801536560058594
1701886290529272000,9.92027197265625,0.010916978120803833,-0.053128719329833984,-0.03523731231689453
1701886290546271500,9.937271484375,-0.09298524260520935,-0.05542612075805664,-0.026140213012695312
1701886290563261200,9.95426123046875,-0.1622248739004135,-0.0774998664855957,-0.03139972686767578
1701886290580255500,9.97125537109375,-0.08646993339061737,-0.08801126480102539,-0.02792644500732422
1701886290597247000,9.9882470703125,0.04336459934711456,-0.0797572135925293,-0.04353618621826172
1701886290614242600,10.00524267578125,0.13944405317306519,-0.06087923049926758,-0.09240341186523438
1701886290631233800,10.02223388671875,0.11917854100465775,-0.046199798583984375,-0.09694480895996094
1701886290648229000,10.03922900390625,0.052193865180015564,-0.034815311431884766,-0.07138919830322266
1701886290665220900,10.056220947265626,-0.01956649124622345,-0.014536380767822266,-0.02673053741455078
1701886290682215200,10.073215087890626,-0.0952044278383255,0.008523941040039062,-0.002227783203125
1701886290699206700,10.09020654296875,-0.08869823813438416,-0.002960205078125,-0.0030641555786132812
1701886290716202500,10.107202392578126,0.007215514779090881,-0.037613868713378906,0.009909629821777344
1701886290733193700,10.12419384765625,0.13735060393810272,-0.047760009765625,0.0033597946166992188
1701886290750188300,10.141188232421875,0.21383145451545715,-0.03440666198730469,0.011812210083007812
1701886290767181000,10.15818115234375,0.14297591149806976,0.0017247200012207031,-0.0024385452270507812
1701886290784172300,10.17517236328125,0.0073537677526474,-0.001995086669921875,-0.02251434326171875
1701886290801169700,10.192169677734375,-0.06973430514335632,-0.030395030975341797,-0.028591156005859375
1701886290818160400,10.209160400390624,-0.04758042097091675,-0.07225608825683594,-0.04501914978027344
1701886290835154400,10.226154541015624,0.03348900377750397,-0.0897970199584961,-0.10048580169677734
1701886290852148000,10.24314794921875,0.09313426911830902,-0.07167625427246094,-0.12529659271240234
1701886290869140200,10.26014013671875,0.053043439984321594,-0.0773158073425293,-0.14012432098388672
1701886290886134500,10.277134521484374,-0.03546421229839325,-0.11246919631958008,-0.1304492950439453
1701886290903127000,10.294126953125,-0.04222938418388367,-0.1408672332763672,-0.11587333679199219
1701886290920120300,10.311120361328125,-0.03113134205341339,-0.1244974136352539,-0.08131790161132812
1701886290937114400,10.3281142578125,-0.003818511962890625,-0.1012578010559082,-0.11273002624511719
1701886290954104300,10.345104248046875,0.019731983542442322,-0.05772876739501953,-0.08611202239990234
1701886290971100200,10.36210009765625,0.011065274477005005,-0.014478206634521484,-0.054816246032714844
1701886290988094500,10.379094482421875,-0.04243949055671692,-0.016703128814697266,-0.004658699035644531
1701886291005082400,10.396082275390626,-0.06820988655090332,-0.0249481201171875,0.0056743621826171875
1701886291022077400,10.413077392578124,-0.07641233503818512,-0.029636859893798828,-0.018166542053222656
1701886291039070500,10.430070556640626,-0.010747149586677551,-0.04320526123046875,-0.07609748840332031
1701886291056070000,10.44706982421875,0.08736041188240051,-0.01748371124267578,-0.1143960952758789
1701886291073049300,10.46404931640625,0.1587960422039032,-0.001407623291015625,-0.11890125274658203
1701886291090054000,10.481053955078124,0.12656304240226746,0.005588054656982422,-0.09799861907958984
1701886291107046100,10.498046142578126,0.05057808756828308,0.007893562316894531,-0.06239891052246094
1701886291124040400,10.51504052734375,-0.016799837350845337,0.015301704406738281,-0.02218341827392578
1701886291141032000,10.532031982421875,-0.0699084997177124,0.04034233093261719,0.012773513793945312
1701886291158028000,10.549028076171876,-0.05116003751754761,0.060205936431884766,0.01732349395751953
1701886291175019500,10.56601953125,-0.01303274929523468,0.06948375701904297,0.02195262908935547
1701886291192013800,10.583013916015625,0.042214542627334595,0.0643014907836914,0.006440162658691406
1701886291209007400,10.60000732421875,0.07738427817821503,0.06247138977050781,-0.02807331085205078
1701886291226001000,10.6170009765625,0.0845254510641098,0.05593395233154297,-0.06283760070800781
1701886291242993200,10.6339931640625,0.05091603100299835,0.05263566970825195,-0.04032325744628906
1701886291259988200,10.65098828125,-0.014498934149742126,0.05304241180419922,0.03011322021484375
1701886291276977700,10.667977783203124,-0.1016949713230133,0.018152713775634766,0.11402320861816406
1701886291293970400,10.684970458984376,-0.1056818962097168,0.003261089324951172,0.10651588439941406
1701886291310965500,10.701965576171874,0.03084014356136322,-0.01920032501220703,0.17979812622070312
1701886291327960300,10.718960205078124,0.08736474812030792,0.023690223693847656,0.12926006317138672
1701886291344949000,10.735948974609375,0.023921281099319458,0.0604395866394043,0.029891014099121094
1701886291361946400,10.7529462890625,-0.03742474317550659,0.05225324630737305,-0.05034160614013672
1701886291378938600,10.769938720703125,-0.08217547833919525,0.010378837585449219,-0.08816146850585938
1701886291395933200,10.78693310546875,-0.11187288165092468,-0.02687358856201172,-0.13021087646484375
1701886291412925400,10.803925537109375,-0.11659248173236847,-0.07634162902832031,-0.1723318099975586
1701886291429919700,10.820919677734375,-0.05345053970813751,-0.0834808349609375,-0.1448049545288086
1701886291446912000,10.837912109375,0.02751082181930542,-0.06894350051879883,-0.08312225341796875
1701886291463904000,10.854904052734375,0.07353360950946808,-0.029358863830566406,-0.020905494689941406
1701886291480897500,10.8718974609375,0.02866654098033905,0.013752460479736328,-0.020330429077148438
1701886291497892600,10.888892578125,-0.033524662256240845,0.017199039459228516,-0.04434013366699219
1701886291514885000,10.905885009765624,-0.04218319058418274,0.009498119354248047,-0.050583839416503906
1701886291531876400,10.92287646484375,-0.01043727993965149,-0.00892782211303711,-0.09574413299560547
1701886291548871400,10.939871337890626,0.039649561047554016,-0.0649557113647461,-0.1414804458618164
1701886291565866000,10.956865966796874,0.08439934998750687,-0.07188081741333008,-0.15278911590576172
1701886291582858200,10.973858154296876,0.13919587433338165,-0.05286550521850586,-0.10088348388671875
1701886291599852300,10.990852294921876,0.10549469292163849,0.0004944801330566406,-0.03773975372314453
1701886291616844500,11.007844482421875,0.025629833340644836,-0.004755973815917969,0.04428863525390625
1701886291633838800,11.0248388671875,-0.05602377653121948,0.013005733489990234,0.034912109375
1701886291650831000,11.0418310546875,-0.12422968447208405,0.03035593032836914,-0.0036954879760742188
1701886291667826000,11.058825927734375,-0.11488109827041626,0.023906230926513672,0.052860260009765625
1701886291684818200,11.075818115234375,-0.03592425584793091,0.10074472427368164,0.09778213500976562
1701886291701812000,11.09281201171875,-0.04612089693546295,0.07900333404541016,0.10351181030273438
1701886291718803700,11.1098037109375,0.09100133925676346,0.06247711181640625,0.1590738296508789
1701886291735799600,11.126799560546875,0.13827818632125854,-0.09818077087402344,0.25444889068603516
1701886291752791000,11.143791015625,0.35255247354507446,0.06349849700927734,0.31203269958496094
1701886291769792000,11.1607919921875,0.5667312145233154,0.006176948547363281,0.3358879089355469
1701886291786761000,11.177760986328124,0.32571202516555786,0.017717838287353516,0.049251556396484375
1701886291803771600,11.194771728515626,0.08205217123031616,-0.0021109580993652344,-0.058701515197753906
1701886291820764200,11.21176416015625,-0.09721329808235168,-0.0015015602111816406,-0.135345458984375
1701886291837756400,11.22875634765625,-0.07430364936590195,-0.023035526275634766,-0.09049129486083984
1701886291854750000,11.24575,-0.08435586094856262,-0.03220510482788086,-0.06331825256347656
1701886291871744800,11.262744873046875,-0.30533161759376526,-0.09106731414794922,-0.0016412734985351562
1701886291888726800,11.279726806640625,-1.5759587287902832,-0.43677234649658203,0.3478708267211914
1701886291905721000,11.29672119140625,-1.6181588172912598,-0.08585357666015625,-0.144866943359375
1701886291922726000,11.313725830078125,0.35342028737068176,0.8091692924499512,-0.839268684387207
1701886291939719400,11.330719482421875,0.4878402352333069,0.046001434326171875,-0.07998180389404297
1701886291956707800,11.347707763671876,0.40667492151260376,-0.5594592094421387,0.4381084442138672
1701886291973707500,11.36470751953125,0.3851773142814636,-0.04716014862060547,-0.1223297119140625
1701886291990697200,11.381697265625,0.184093177318573,-0.004525184631347656,-0.3018035888671875
1701886292007691500,11.39869140625,0.02565348893404007,-0.14472341537475586,-0.1098785400390625
1701886292024683500,11.41568359375,0.010373055934906006,-0.11037635803222656,-0.02338886260986328
1701886292041674000,11.432674072265625,-0.18007799983024597,-0.08882427215576172,-0.0560150146484375
1701886292058670800,11.4496708984375,-0.40926653146743774,-0.13842248916625977,-0.12162208557128906
1701886292075664600,11.46666455078125,-0.2896055281162262,-0.17429065704345703,-0.1582345962524414
1701886292092656600,11.48365673828125,0.011835210025310516,-0.19333314895629883,-0.04458332061767578
1701886292109651000,11.50065087890625,0.26646196842193604,-0.10323524475097656,0.012175559997558594
1701886292126643200,11.517643310546875,0.34489643573760986,-0.07140302658081055,0.09659481048583984
1701886292143637500,11.534637451171875,0.1665259301662445,-0.03826427459716797,0.012091636657714844
1701886292160619000,11.551618896484374,-0.08203041553497314,0.0318455696105957,-0.14207172393798828
1701886292177624300,11.568624267578125,-0.24646630883216858,-0.043726444244384766,-0.1512308120727539
1701886292194616600,11.585616455078124,-0.15645088255405426,-0.20693302154541016,0.1155099868774414
1701886292211611000,11.60261083984375,0.09806445986032486,-0.4296269416809082,-0.02763843536376953
1701886292228602000,11.61960205078125,0.2942413091659546,0.3127295970916748,-0.19217967987060547
1701886292245598200,11.63659814453125,0.4603880047798157,-0.12698650360107422,-0.08024406433105469
1701886292262589700,11.653589599609376,0.3723085820674896,0.01787281036376953,-0.08245182037353516
1701886292279583700,11.670583740234376,0.17296072840690613,0.05978202819824219,-0.10657405853271484
1701886292296570000,11.687570068359374,-0.0847647413611412,-0.08962130546569824,0.04486560821533203
1701886292313575000,11.704574951171875,-0.29944565892219543,-0.03366851806640625,-0.029435157775878906
1701886292330556000,11.721555908203126,-0.09523071348667145,0.13403940200805664,0.051751136779785156
1701886292347560700,11.738560791015624,-0.1065581738948822,0.08852362632751465,-0.00025653839111328125
1701886292364542700,11.755542724609375,-0.05804401636123657,0.17368125915527344,-0.1799945831298828
1701886292381543700,11.772543701171875,0.06465765833854675,-0.002679586410522461,-0.15699195861816406
1701886292398522600,11.789522705078125,0.12699052691459656,-0.10452938079833984,-0.07594966888427734
1701886292415530200,11.8065302734375,0.41259026527404785,-0.013650178909301758,0.01851177215576172
1701886292432522500,11.8235224609375,0.47546499967575073,-0.056318044662475586,0.27536678314208984
1701886292449516800,11.840516845703124,0.24587604403495789,-0.3245127201080322,0.504852294921875
1701886292466509000,11.857509033203126,-0.07558292150497437,-0.21400022506713867,0.35589122772216797
1701886292483503000,11.874503173828124,-0.12783688306808472,-0.011959314346313477,-0.0895395278930664
1701886292500496000,11.891495849609376,-0.26124343276023865,0.1590890884399414,-0.38294410705566406
1701886292517489700,11.90848974609375,-0.35296425223350525,0.11594724655151367,-0.47917842864990234
1701886292534479400,11.925479248046875,-0.21330761909484863,0.04583930969238281,-0.29407691955566406
1701886292551471000,11.94247119140625,-0.06963720917701721,-0.05296182632446289,-0.05402565002441406
1701886292568459300,11.959459228515625,-0.08030161261558533,-0.058686256408691406,0.020752906799316406
1701886292585463000,11.976463134765625,-0.17634791135787964,-0.07869720458984375,-0.13354015350341797
1701886292602455300,11.993455322265625,-0.10471311211585999,0.0035512447357177734,-0.21614360809326172
1701886292619448800,12.01044873046875,-0.028388679027557373,0.030623197555541992,-0.17368316650390625
1701886292636442600,12.027442626953125,-0.0494120717048645,-0.08181929588317871,0.017510414123535156
1701886292653436200,12.044436279296875,-0.05180874466896057,-0.1730043888092041,0.1076812744140625
1701886292670428400,12.061428466796874,0.04655170440673828,-0.05197596549987793,0.08600616455078125
1701886292687423000,12.078423095703124,0.08584892749786377,-0.048577308654785156,-0.0015869140625
1701886292704415000,12.0954150390625,-0.03019702434539795,0.16753602027893066,-0.24081897735595703
1701886292721409300,12.1124091796875,0.02022695541381836,-0.06746196746826172,0.0117645263671875
1701886292738400800,12.12940087890625,-0.04137367010116577,-0.10066604614257812,0.2646646499633789
1701886292755396900,12.14639697265625,-0.13177478313446045,-0.02862548828125,0.21015071868896484
1701886292772388000,12.16338818359375,-0.2401350438594818,-0.029203176498413086,0.0770254135131836
1701886292789382100,12.180382080078125,-0.1810772716999054,0.14151573181152344,-0.06998157501220703
1701886292806374700,12.197374755859375,-0.04024234414100647,0.11170601844787598,0.04226112365722656
1701886292823369000,12.214368896484375,-0.05075004696846008,-0.0349278450012207,0.06023979187011719
1701886292840361500,12.231361572265625,-0.035473406314849854,0.1319584846496582,-0.15515995025634766
1701886292857355800,12.248355712890625,-0.05717208981513977,0.10537242889404297,-0.1103067398071289
1701886292874342400,12.26534228515625,-0.11433735489845276,-0.012888908386230469,-0.14417743682861328
1701886292891344600,12.2823447265625,-0.05567440390586853,-0.05360746383666992,-0.11213111877441406
1701886292908334300,12.299334228515624,0.12747050821781158,-0.030094623565673828,-0.021674156188964844
1701886292925329000,12.316328857421874,0.21141277253627777,0.028252840042114258,-0.08739185333251953
1701886292942317600,12.333317626953125,0.2874770760536194,0.08026862144470215,-0.17537403106689453
1701886292959315200,12.350315185546876,0.20595724880695343,0.11665844917297363,-0.1434612274169922
1701886292976307500,12.367307373046875,0.06855159997940063,0.06323075294494629,0.10138511657714844
1701886292993301800,12.3843017578125,-0.05250433087348938,-0.23403382301330566,0.29865264892578125
1701886293010294300,12.401294189453125,-0.09967721998691559,-0.009628772735595703,0.47702789306640625
1701886293027288600,12.41828857421875,0.19075793027877808,-0.42394256591796875,-0.3154411315917969
1701886293044277200,12.43527734375,0.0060620903968811035,0.30678462982177734,-0.11846160888671875
1701886293061274000,12.452274169921875,0.2174319326877594,-0.10437250137329102,-0.25948524475097656
1701886293078268200,12.46926806640625,0.0653831958770752,-0.007588386535644531,-0.2512388229370117
1701886293095261700,12.48626171875,0.25431883335113525,-0.02257061004638672,-0.27240562438964844
1701886293112254000,12.50325390625,0.2911773920059204,-0.10958552360534668,-0.12480449676513672
1701886293129247500,12.52024755859375,0.2164860963821411,-0.0762791633605957,-0.02677631378173828
1701886293146241300,12.5372412109375,0.1514374017715454,-0.04422450065612793,0.012300491333007812
1701886293163234800,12.55423486328125,0.053269267082214355,-0.08262443542480469,0.08100700378417969
1701886293180226800,12.571226806640626,-0.2086229920387268,0.03078913688659668,0.016590118408203125
1701886293197220400,12.588220458984376,-0.3263493478298187,0.0033206939697265625,0.07652091979980469
1701886293214203600,12.60520361328125,-0.37678322196006775,-0.057413339614868164,0.010422706604003906
1701886293231197400,12.622197509765625,-0.2165224552154541,-0.10737442970275879,-0.09263038635253906
1701886293248200200,12.6392001953125,0.0022423863410949707,-0.11647963523864746,-0.2593679428100586
1701886293265188600,12.656188720703126,0.16677027940750122,-0.04906916618347168,-0.4705018997192383
1701886293282189300,12.673189208984375,0.2839893698692322,-0.12166953086853027,-0.2807807922363281
1701886293299180800,12.690180908203125,0.2523888349533081,-0.17165374755859375,0.025986671447753906
1701886293316173000,12.707173095703125,-0.04013258218765259,-0.16923165321350098,0.168670654296875
1701886293333167600,12.724167724609375,-0.27811306715011597,-0.056851863861083984,0.06254005432128906
1701886293350160100,12.74116015625,-0.4008480906486511,0.035930633544921875,-0.024725914001464844
1701886293367154400,12.758154541015625,-0.35185956954956055,0.004506111145019531,0.058330535888671875
1701886293384142600,12.775142578125,-0.19466745853424072,-0.04615330696105957,0.2725830078125
1701886293401128200,12.792128173828125,-0.14077907800674438,-0.060691118240356445,0.26897239685058594
1701886293418135600,12.809135498046874,-0.09002575278282166,-0.0032453536987304688,0.14482784271240234
1701886293435120000,12.8261201171875,0.0010103583335876465,0.033800363540649414,-0.0236358642578125
1701886293452108800,12.84310888671875,0.0263441801071167,-0.011058568954467773,-0.09156513214111328
1701886293469112600,12.860112548828125,0.061588168144226074,-0.056951045989990234,-0.12497520446777344
1701886293486107400,12.877107421875,0.024148285388946533,-0.09217572212219238,-0.04714488983154297
1701886293503098000,12.89409814453125,-0.048980921506881714,-0.14929509162902832,-0.058793067932128906
1701886293520082400,12.91108251953125,-0.013884931802749634,-0.07313275337219238,-0.11263847351074219
1701886293537087000,12.9280869140625,0.05981689691543579,0.002254962921142578,-0.2322530746459961
1701886293554079500,12.94507958984375,0.12931013107299805,-0.0021255016326904297,-0.1644430160522461
1701886293571080200,12.962080078125,0.12375479936599731,-0.011670351028442383,-0.12041664123535156
1701886293588065500,12.9790654296875,0.05938407778739929,0.014020919799804688,-0.09643840789794922
1701886293605059800,12.996059814453124,0.0007615983486175537,-0.021592140197753906,-0.005520820617675781
1701886293622042000,13.0130419921875,-0.008092999458312988,0.002978086471557617,0.04735565185546875
1701886293639043300,13.030043212890625,-0.117468923330307,0.06380033493041992,0.1681966781616211
1701886293656043800,13.047043701171875,-0.22371339797973633,0.05225110054016113,0.23402023315429688
1701886293673031400,13.064031494140625,-0.34302565455436707,0.05307507514953613,0.1339435577392578
1701886293690025500,13.081025390625,-0.27637168765068054,0.07445168495178223,0.0015554428100585938
1701886293707019800,13.098019775390625,-0.11158803105354309,0.02126932144165039,0.04485607147216797
1701886293724012000,13.115011962890625,-0.010775119066238403,-0.0001685619354248047,0.025859832763671875
1701886293740993000,13.131992919921874,-0.0026805102825164795,0.05112195014953613,0.0499114990234375
1701886293757998600,13.14899853515625,-0.06562593579292297,-0.10619044303894043,0.002826690673828125
1701886293774989800,13.16598974609375,-0.017343848943710327,-0.013442277908325195,-0.07553291320800781
1701886293791974700,13.182974609375,0.013612136244773865,0.008853673934936523,-0.038112640380859375
1701886293808977200,13.19997705078125,0.032027602195739746,0.005807399749755859,-0.06621456146240234
1701886293825974500,13.216974609375,0.06007291376590729,-0.011430501937866211,-0.018258094787597656
1701886293842966000,13.233966064453124,0.010572850704193115,0.022740840911865234,0.035076141357421875
1701886293859958300,13.250958251953126,0.004842936992645264,0.002496480941772461,0.06816959381103516
1701886293876939800,13.267939697265625,-0.005827426910400391,-0.01746654510498047,-0.07133197784423828
1701886293893947600,13.28494775390625,0.023675531148910522,0.011723995208740234,-0.052120208740234375
1701886293910936600,13.3019365234375,0.08278636634349823,0.012596368789672852,-0.06627464294433594
1701886293927934000,13.318933837890626,0.10403376817703247,-0.0002658367156982422,0.014990806579589844
1701886293944925700,13.33592578125,0.2183389812707901,-0.01362919807434082,0.02412700653076172
1701886293961907700,13.35290771484375,0.20662584900856018,0.008971929550170898,-0.043389320373535156
1701886293978912300,13.369912353515625,0.1630869209766388,0.06335687637329102,-0.06329822540283203
1701886293995904800,13.38690478515625,0.09478090703487396,0.000025987625122070312,0.07845878601074219
1701886294012899000,13.403899169921875,0.017236873507499695,-0.06030440330505371,0.1383047103881836
1701886294029891000,13.42089111328125,0.08477003872394562,0.04940605163574219,-0.06536006927490234
1701886294046882800,13.4378828125,0.10217916965484619,0.08469676971435547,-0.07605266571044922
1701886294063878400,13.45487841796875,0.0790456086397171,0.022043704986572266,-0.05858802795410156
1701886294080863700,13.47186376953125,0.1063748151063919,0.05895400047302246,-0.05655479431152344
1701886294097864200,13.4888642578125,0.06931556761264801,0.027615070343017578,-0.06904220581054688
1701886294114862000,13.505862060546875,-0.03400889039039612,0.00859212875366211,-0.08426475524902344
1701886294131841800,13.522841796875,-0.022327929735183716,-0.02455592155456543,-0.07998085021972656
1701886294148844500,13.539844482421875,0.10896173119544983,-0.031276702880859375,-0.02250957489013672
1701886294165838300,13.55683837890625,0.10473273694515228,-0.03244829177856445,-0.035180091857910156
1701886294182831900,13.573831787109375,0.02576082944869995,0.010671854019165039,-0.13285160064697266
1701886294199824400,13.590824462890625,-0.09580503404140472,0.033815622329711914,-0.2571401596069336
1701886294216821800,13.60782177734375,-0.17165756225585938,0.030672550201416016,-0.23093700408935547
1701886294233807400,13.624807373046876,-0.16256023943424225,-0.06195235252380371,-0.031019210815429688
1701886294250804700,13.6418046875,-0.057540163397789,-0.06731057167053223,0.15028858184814453
1701886294267782000,13.658781982421875,0.041203275322914124,-0.09730744361877441,0.3477163314819336
1701886294284793000,13.67579296875,-0.023531466722488403,-0.07570219039916992,0.3081493377685547
1701886294301782000,13.692781982421875,-0.14207546412944794,-0.02246379852294922,0.17084980010986328
1701886294318777600,13.709777587890626,-0.2354198396205902,-0.0059049129486083984,0.012525558471679688
1701886294335773000,13.72677294921875,-0.21194984018802643,-0.00809025764465332,-0.09386157989501953
1701886294352754200,13.743754150390625,-0.1166258156299591,-0.04855656623840332,-0.12409687042236328
1701886294369757000,13.7607568359375,0.014713868498802185,-0.11548733711242676,-0.10162067413330078
1701886294386749700,13.777749755859375,0.09621420502662659,-0.08164048194885254,-0.12148189544677734
1701886294403745300,13.794745361328125,0.06128209829330444,-0.08551144599914551,-0.15457820892333984
1701886294420738000,13.811738037109375,0.11234308779239655,-0.025138139724731445,-0.1389484405517578
1701886294437727700,13.828727783203124,0.11270679533481598,-0.003140687942504883,-0.1090383529663086
1701886294454727400,13.8457275390625,0.11579149961471558,0.015086889266967773,-0.09301280975341797
1701886294471712500,13.86271240234375,0.10361821949481964,0.02476358413696289,-0.08130741119384766
1701886294488711700,13.879711669921875,0.1420048624277115,0.01993250846862793,-0.036118507385253906
1701886294505692700,13.896692626953126,0.16532054543495178,-0.01106119155883789,-0.049907684326171875
1701886294522697700,13.91369775390625,0.11321781575679779,0.009892463684082031,-0.10110187530517578
1701886294539686000,13.930685791015625,0.02041071653366089,-0.0065157413482666016,-0.07989025115966797
1701886294556688400,13.9476884765625,0.012952953577041626,-0.0015614032745361328,-0.015481948852539062
1701886294573676500,13.964676513671876,0.0552188903093338,0.0319514274597168,0.010019302368164062
1701886294590670800,13.9816708984375,0.07375246286392212,0.0208737850189209,0.025903701782226562
1701886294607665200,13.9986650390625,0.059128016233444214,0.03640913963317871,0.026531219482421875
1701886294624655400,14.0156552734375,0.01738831400871277,0.016643524169921875,0.022164344787597656
1701886294641649700,14.032649658203125,-0.02619875967502594,-0.004259824752807617,0.011870384216308594
1701886294658643200,14.049643310546875,-0.0585147887468338,-0.021410226821899414,0.015689849853515625
1701886294675636700,14.06663671875,-0.10600198805332184,-0.02429056167602539,0.0053615570068359375
1701886294692630500,14.083630615234375,-0.16792365908622742,0.01454782485961914,-0.058319091796875
1701886294709623000,14.100623046875,-0.15634645521640778,-0.0036199092864990234,-0.06030559539794922
1701886294726614300,14.1176142578125,-0.12330229580402374,-0.0547940731048584,0.014505386352539062
1701886294743612000,14.13461181640625,-0.04530351608991623,-0.07792043685913086,-0.02628612518310547
1701886294760603600,14.151603759765624,-0.010657146573066711,-0.08049440383911133,-0.0857839584350586
1701886294777593300,14.16859326171875,0.0038638412952423096,-0.07663178443908691,-0.100616455078125
1701886294794589700,14.185589599609376,-0.09805213660001755,-0.014042139053344727,-0.15180683135986328
1701886294811594000,14.202593994140624,-0.1941310167312622,0.05144762992858887,-0.1205291748046875
1701886294828571000,14.21957080078125,-0.15961560606956482,0.012623786926269531,0.07201385498046875
1701886294845571800,14.23657177734375,-0.11936478316783905,0.02431011199951172,0.1588125228881836
1701886294862560300,14.253560302734375,-0.10260725021362305,0.029399633407592773,0.15881729125976562
1701886294879555600,14.2705556640625,-0.09755024313926697,0.008710145950317383,0.19638919830322266
1701886294896539400,14.287539306640625,0.02765180915594101,-0.013700485229492188,0.12714099884033203
1701886294913542100,14.304542236328125,0.10585253685712814,0.0011014938354492188,0.03832054138183594
1701886294930530300,14.3215302734375,0.17547832429409027,0.02586078643798828,-0.05034160614013672
1701886294947528700,14.33852880859375,0.14786076545715332,0.027408838272094727,-0.07504940032958984
1701886294964523300,14.355523193359375,0.08912713825702667,0.005138397216796875,-0.023487091064453125
1701886294981511400,14.372511474609375,0.05702393129467964,-0.0035676956176757812,-0.02035999298095703
1701886294998510300,14.38951025390625,0.009849783033132553,0.04414844512939453,-0.10320091247558594
1701886295015501800,14.406501708984376,0.024947524070739746,0.05082273483276367,-0.1235666275024414
1701886295032496400,14.423496337890626,0.10131438821554184,0.055205583572387695,-0.07672500610351562
1701886295049488000,14.44048779296875,0.153486430644989,0.06336379051208496,-0.03902912139892578
1701886295066483500,14.4574833984375,0.12411651015281677,0.04632854461669922,-0.01596832275390625
1701886295083475200,14.47447509765625,0.1037752628326416,0.049454450607299805,-0.021445274353027344
1701886295100467000,14.491467041015625,0.05339900031685829,0.06216764450073242,0.021528244018554688
1701886295117462000,14.5084619140625,0.03265285864472389,0.030860424041748047,0.058963775634765625
1701886295134458400,14.525458251953125,0.041471026837825775,0.04243183135986328,0.06258678436279297
1701886295151438600,14.5424384765625,0.07397443056106567,0.0486454963684082,0.03224372863769531
1701886295168442600,14.559442626953125,0.08991940319538116,0.03368854522705078,-0.02320575714111328
1701886295185431300,14.576431396484375,0.09354644268751144,-0.005353212356567383,-0.0350494384765625
1701886295202429700,14.5934296875,0.08839616179466248,-0.018933773040771484,-0.07043647766113281
1701886295219421200,14.610421142578126,0.029216043651103973,-0.003893613815307617,-0.05692100524902344
1701886295236415700,14.627415771484374,-0.04239201545715332,-0.027463912963867188,-0.0052661895751953125
1701886295253408000,14.644407958984376,-0.08239509165287018,-0.04649496078491211,-0.016765594482421875
1701886295270402300,14.66140234375,-0.06359080970287323,-0.041184186935424805,-0.051993370056152344
1701886295287377700,14.678377685546875,-0.035540901124477386,-0.05806398391723633,-0.05862236022949219
1701886295304385800,14.6953857421875,-0.028334222733974457,-0.0424501895904541,-0.06963062286376953
1701886295321376300,14.712376220703124,-0.06549613177776337,-0.04579496383666992,-0.07999420166015625
1701886295338375400,14.72937548828125,-0.0954025387763977,-0.04424643516540527,-0.05718803405761719
1701886295355370200,14.746370361328125,-0.10434313118457794,-0.07120919227600098,-0.00104522705078125
1701886295372356600,14.763356689453126,-0.10068105161190033,-0.06118440628051758,-0.036360740661621094
1701886295389354200,14.780354248046875,-0.08075869828462601,-0.09933924674987793,-0.01916980743408203
1701886295406348500,14.7973486328125,-0.006144039332866669,-0.07933688163757324,-0.06472492218017578
1701886295423340800,14.8143408203125,0.022038035094738007,-0.07279109954833984,-0.08513259887695312
1701886295440339700,14.831339599609375,-0.007639188319444656,-0.044672250747680664,-0.09916114807128906
1701886295457327600,14.84832763671875,0.02476602792739868,0.015520095825195312,-0.09326362609863281
1701886295474321700,14.86532177734375,0.014261309057474136,0.011256933212280273,0.0000743865966796875
1701886295491314000,14.88231396484375,0.054584842175245285,0.05108833312988281,0.05471515655517578
1701886295508308500,14.89930859375,-0.004485592246055603,0.0651249885559082,0.1337137222290039
1701886295525298700,14.916298583984375,-0.08590646088123322,0.028407573699951172,0.10649299621582031
1701886295542291000,14.933291015625,-0.09354035556316376,0.07643389701843262,0.039569854736328125
1701886295559288800,14.950288818359375,-0.035453084856271744,0.06631207466125488,0.015163421630859375
1701886295576276000,14.96727587890625,-0.003104548901319504,0.02167510986328125,0.023476600646972656
1701886295593273900,14.98427392578125,0.05309118330478668,0.017267942428588867,0.02279376983642578
1701886295610265300,15.001265380859374,0.09125732630491257,0.03597092628479004,0.013062477111816406
1701886295627262200,15.01826220703125,0.09847217798233032,0.029303312301635742,-0.0020580291748046875
1701886295644255200,15.035255126953125,0.08032132685184479,-0.011194944381713867,0.044884681701660156
1701886295661260500,15.052260498046875,0.09825877845287323,-0.008493185043334961,0.033863067626953125
1701886295678239000,15.069239013671876,0.08578784018754959,0.03160500526428223,-0.000247955322265625
1701886295695232800,15.086232666015626,0.04214515909552574,0.0034499168395996094,-0.011551856994628906
1701886295712217300,15.10321728515625,0.0030039623379707336,-0.03941679000854492,-0.027782440185546875
1701886295729220000,15.12022021484375,-0.030313456431031227,-0.03835153579711914,-0.05236625671386719
1701886295746214700,15.137214599609376,-0.05446300655603409,-0.05015110969543457,-0.05803203582763672
1701886295763206100,15.1542060546875,-0.05779767408967018,-0.05209684371948242,-0.07794952392578125
1701886295780200700,15.17120068359375,-0.0393427237868309,-0.07684588432312012,-0.06416702270507812
1701886295797193000,15.18819287109375,-0.019818909466266632,-0.08261728286743164,-0.060385704040527344
1701886295814187500,15.2051875,-0.00986345112323761,-0.07840466499328613,-0.060622215270996094
1701886295831169300,15.222169189453124,-0.017437882721424103,-0.07865214347839355,-0.03680419921875
1701886295848174000,15.239174072265625,-0.08129111677408218,-0.06081700325012207,-0.04130363464355469
1701886295865166000,15.256166015625,-0.12493114173412323,-0.06653237342834473,-0.04589653015136719
1701886295882157600,15.273157470703126,-0.12082935124635696,-0.07139754295349121,-0.07945442199707031
1701886295899143000,15.290142822265626,-0.08211646229028702,-0.06534123420715332,-0.08375072479248047
1701886295916147200,15.307147216796874,-0.015549233183264732,-0.09097409248352051,-0.0642099380493164
1701886295933139500,15.324139404296876,0.021396666765213013,-0.07817697525024414,-0.04436016082763672
1701886295950134000,15.341134033203126,0.06869526207447052,-0.05533289909362793,-0.042845726013183594
1701886295967126000,15.3581259765625,0.047316666692495346,-0.027127981185913086,-0.0745859146118164
1701886295984120300,15.375120361328126,0.031262870877981186,-0.030661821365356445,-0.09124088287353516
1701886296001101800,15.392101806640625,-0.007403496652841568,-0.00415802001953125,-0.05889606475830078
1701886296018107000,15.40910693359375,-0.024136988446116447,0.025806665420532227,-0.022670745849609375
1701886296035100000,15.426099853515625,-0.05668661743402481,0.016292333602905273,-0.010523796081542969
1701886296052104400,15.4431044921875,-0.04109152406454086,0.006273508071899414,-0.023705482482910156
1701886296069085200,15.460085205078125,0.04348567873239517,-0.007636308670043945,-0.027177810668945312
1701886296086081000,15.4770810546875,0.10887552052736282,0.00247955322265625,-0.0159912109375
1701886296103072300,15.494072265625,0.10665012151002884,0.008395910263061523,-0.008737564086914062
1701886296120066800,15.51106689453125,0.08872106671333313,0.03012537956237793,-0.024201393127441406
1701886296137059000,15.52805908203125,0.04499131813645363,0.08138823509216309,0.018106460571289062
1701886296154053000,15.54505322265625,0.013360019773244858,0.1072688102722168,0.07381248474121094
1701886296171036200,15.5620361328125,-0.06684484332799911,0.1061856746673584,0.13362789154052734
1701886296188039700,15.579039794921876,-0.13504692912101746,0.08902287483215332,0.1111154556274414
1701886296205029000,15.596029052734375,-0.16910140216350555,0.08458304405212402,0.07776260375976562
1701886296222016000,15.61301611328125,-0.15944387018680573,0.03647565841674805,0.05852794647216797
1701886296239018500,15.6300185546875,-0.05707838013768196,0.03175759315490723,0.009873390197753906
1701886296256013000,15.647012939453125,0.029310233891010284,0.031972646713256836,-0.010610580444335938
1701886296273015000,15.66401513671875,0.040608830749988556,0.04082608222961426,0.008226394653320312
1701886296289999600,15.68099951171875,-0.001736002042889595,0.028684139251708984,0.027121543884277344
1701886296306989300,15.6979892578125,-0.054535090923309326,0.020863056182861328,0.01626110076904297
1701886296323988500,15.714988525390625,-0.0825093537569046,0.012775421142578125,-0.04195690155029297
1701886296340977000,15.731976806640626,-0.0540819987654686,-0.013416528701782227,-0.07221221923828125
1701886296357972500,15.748972412109374,-0.02772163227200508,-0.041734933853149414,-0.07707786560058594
1701886296374965000,15.765965087890624,0.011282403022050858,-0.020335674285888672,-0.09107685089111328
1701886296391948500,15.782948486328126,0.00956101343035698,0.006922245025634766,-0.04660320281982422
1701886296408958700,15.799958740234375,-0.055530622601509094,0.00911712646484375,-0.020910263061523438
1701886296425945600,15.816945556640626,-0.09874840825796127,0.0053594112396240234,0.05692768096923828
1701886296442938000,15.833938232421875,-0.09548445045948029,-0.010337591171264648,0.08028507232666016
1701886296459930000,15.85093017578125,-0.03899525851011276,-0.003496885299682617,0.01129150390625
1701886296476924400,15.86792431640625,0.04257199913263321,-0.0431971549987793,-0.06192302703857422
1701886296493921800,15.884921875,0.14126399159431458,-0.05289411544799805,-0.10168743133544922
1701886296510911200,15.9019111328125,0.18994104862213135,-0.04737448692321777,-0.13990211486816406
1701886296527906000,15.918906005859375,0.19731411337852478,-0.05225658416748047,-0.12055778503417969
1701886296544897800,15.935897705078125,0.12687581777572632,-0.07039189338684082,-0.09144401550292969
1701886296561876000,15.9528759765625,0.07731460779905319,-0.058606863021850586,-0.08489227294921875
1701886296578883600,15.969883544921874,0.07202321290969849,-0.05850505828857422,-0.05891132354736328
1701886296595879700,15.986879638671875,0.11250603199005127,-0.03948473930358887,-0.03301525115966797
1701886296612858000,16.003858154296875,0.09087371826171875,-0.025335073471069336,-0.016722679138183594
1701886296629861600,16.020861572265623,0.03813520818948746,-0.03601479530334473,0.028499603271484375
1701886296646858000,16.03785791015625,-0.05200209096074104,-0.03988385200500488,0.03451824188232422
1701886296663853300,16.054853271484376,-0.09870430082082748,-0.02524399757385254,0.006518363952636719
1701886296680841500,16.071841552734377,-0.10393375158309937,-0.029541492462158203,-0.0076313018798828125
1701886296697836000,16.0888359375,-0.04510418325662613,-0.028740882873535156,-0.027022361755371094
1701886296714830000,16.105830078125,0.013990264385938644,-0.022940874099731445,-0.05136299133300781
1701886296731818200,16.122818359375,0.042445108294487,-0.03240966796875,-0.032176971435546875
1701886296748814800,16.13981494140625,0.010571151971817017,-0.02748703956604004,-0.00341033935546875
1701886296765814300,16.156814208984375,0.01274346187710762,-0.019669055938720703,0.08702564239501953
1701886296782800600,16.173800537109376,-0.006815370172262192,-0.014341115951538086,0.1426715850830078
1701886296799798000,16.190798095703126,-0.02418578416109085,0.04076552391052246,0.035025596618652344
1701886296816789800,16.207789794921876,-0.0703449472784996,0.06389307975769043,-0.1057281494140625
1701886296833785300,16.224785400390626,-0.019676871597766876,0.04682040214538574,-0.11702442169189453
1701886296850776000,16.241776123046876,0.03927764669060707,0.01325082778930664,-0.017154693603515625
1701886296867769600,16.25876953125,0.07928310334682465,0.051294803619384766,0.006665229797363281
1701886296884755500,16.27575537109375,0.03276387229561806,0.09243893623352051,-0.018079757690429688
1701886296901754000,16.292754150390625,-0.013325557112693787,0.09992861747741699,0.0010280609130859375
1701886296918754300,16.30975439453125,0.03684646636247635,0.0742807388305664,0.07627582550048828
1701886296935741000,16.326740966796876,0.06538671255111694,0.060948848724365234,0.08427906036376953
1701886296952726300,16.343726318359376,0.04461447522044182,0.04119586944580078,0.03392505645751953
1701886296969730000,16.36072998046875,0.01516612246632576,0.0011801719665527344,-0.026220321655273438
1701886296986724000,16.37772412109375,0.08646079897880554,-0.02809762954711914,-0.04339885711669922
1701886297003717600,16.394717529296877,0.15948066115379333,-0.0269620418548584,-0.05531597137451172
1701886297020710000,16.4117099609375,0.16399407386779785,-0.011273384094238281,-0.0854349136352539
1701886297037702000,16.428701904296876,0.13766855001449585,-0.014755964279174805,-0.07190418243408203
1701886297054699300,16.44569921875,0.09679247438907623,-0.03265881538391113,-0.08292579650878906
1701886297071690800,16.462690673828124,0.018838107585906982,-0.0511929988861084,-0.08379936218261719
1701886297088683000,16.47968310546875,-0.020492535084486008,-0.07354331016540527,-0.09468841552734375
1701886297105674000,16.496674072265623,-0.03625047206878662,-0.0850534439086914,-0.11461925506591797
1701886297122669600,16.513669677734374,-0.004753626883029938,-0.08496427536010742,-0.10499858856201172
1701886297139664100,16.5306640625,0.08038876205682755,-0.08847236633300781,-0.03326702117919922
1701886297156655400,16.5476552734375,0.0640789046883583,-0.07867002487182617,0.000347137451171875
1701886297173651700,16.564651611328124,-0.0054630860686302185,-0.08881711959838867,0.0007305145263671875
1701886297190642700,16.581642578125,-0.09837493300437927,-0.08009815216064453,-0.03705120086669922
1701886297207634700,16.598634765625,-0.1054731085896492,-0.09308910369873047,-0.02210521697998047
1701886297224628500,16.61562841796875,-0.08989093452692032,-0.0818936824798584,-0.04533576965332031
1701886297241608200,16.632608154296875,-0.07819097489118576,-0.07942795753479004,-0.053863525390625
1701886297258616000,16.649615966796876,-0.07970485091209412,-0.06703519821166992,-0.06226062774658203
1701886297275610400,16.6666103515625,-0.10682415962219238,-0.06383728981018066,-0.04658794403076172
1701886297292599300,16.683599365234375,-0.09099313616752625,-0.055124759674072266,-0.04018974304199219
1701886297309597000,16.700596923828126,-0.10859493911266327,-0.045639753341674805,0.009610176086425781
1701886297326590000,16.71758984375,-0.0924692153930664,-0.03697800636291504,0.03034496307373047
1701886297343582700,16.734582763671874,-0.0895906388759613,-0.020018815994262695,0.031401634216308594
1701886297360575700,16.75157568359375,-0.09564483165740967,-0.0038802623748779297,0.008185386657714844
1701886297377570000,16.768570068359374,-0.06827083230018616,-0.012087106704711914,0.0039424896240234375
1701886297394559200,16.785559326171875,-0.027101274579763412,-0.011038064956665039,-0.015638351440429688
1701886297411553000,16.802552978515624,0.01912173628807068,-0.016087770462036133,-0.044487953186035156
1701886297428546600,16.819546630859374,0.060904111713171005,-0.029807090759277344,-0.05920124053955078
1701886297445545700,16.836545654296874,0.1289866417646408,-0.04111838340759277,-0.03964519500732422
1701886297462525200,16.853525146484376,0.17373061180114746,0.005604982376098633,-0.01895904541015625
1701886297479529200,16.870529296875,0.10276072472333908,0.01801300048828125,-0.03125286102294922
1701886297496522800,16.887522705078126,0.09638693928718567,0.031188249588012695,-0.06827449798583984
1701886297513516300,16.904516357421876,0.1030682697892189,0.005602121353149414,-0.052623748779296875
1701886297530508500,16.921508544921874,0.11525150388479233,0.008836746215820312,-0.046500205993652344
1701886297547502800,16.9385029296875,0.06433086842298508,0.04533076286315918,-0.020475387573242188
1701886297564484900,16.95548486328125,-0.010962393134832382,0.03376483917236328,0.004618644714355469
1701886297581487000,16.972487060546875,-0.014621317386627197,0.03894400596618652,-0.047271728515625
1701886297598481700,16.989481689453125,-0.07856923341751099,0.04822540283203125,-0.008872032165527344
1701886297615472600,17.00647265625,-0.05670996755361557,-0.07643961906433105,0.0574188232421875
1701886297632468200,17.02346826171875,0.10310113430023193,-0.054009199142456055,0.022455215454101562
1701886297649462800,17.040462890625,0.15208429098129272,-0.02683854103088379,0.030582427978515625
1701886297666455000,17.057455078125,0.07111624628305435,-0.004426717758178711,0.011765480041503906
1701886297683449300,17.074449462890627,0.08769562095403671,0.02109050750732422,-0.06902408599853516
1701886297700439000,17.09143896484375,0.05699308216571808,0.04744553565979004,-0.03916358947753906
1701886297717432000,17.10843212890625,-0.08133883029222488,0.015487909317016602,0.020685195922851562
1701886297734428000,17.125427978515624,-0.2112610638141632,0.0014693737030029297,0.050408363342285156
1701886297751421700,17.142421630859374,-0.3066927194595337,0.02532958984375,0.04140281677246094
1701886297768412200,17.159412109375,-0.2929368317127228,-0.01834869384765625,0.06509208679199219
1701886297785411300,17.176411376953126,-0.20526301860809326,0.008259296417236328,0.04449939727783203
1701886297802398200,17.193398193359375,-0.0604766383767128,-0.026426076889038086,0.004048347473144531
1701886297819395600,17.2103955078125,0.03940967470407486,-0.022903919219970703,-0.049971580505371094
1701886297836386800,17.22738671875,-0.0065645575523376465,-0.028943538665771484,-0.055057525634765625
1701886297853383000,17.2443828125,-0.040132150053977966,-0.04400014877319336,-0.030878067016601562
1701886297870371600,17.26137158203125,-0.17493624985218048,-0.030757427215576172,-0.03473091125488281
1701886297887369200,17.278369140625,-0.2754640579223633,-0.039566993713378906,-0.033562660217285156
1701886297904361000,17.29536083984375,-0.1820695847272873,-0.007772684097290039,-0.07138538360595703
1701886297921355300,17.312355224609377,0.05062602460384369,-0.016960859298706055,-0.10021781921386719
1701886297938343200,17.32934326171875,0.13767339289188385,0.03998541831970215,-0.03679656982421875
1701886297955346700,17.3463466796875,0.07952538132667542,-0.02263951301574707,0.065826416015625
1701886297972321000,17.363321044921875,-0.0022242888808250427,0.08548641204833984,0.1882038116455078
1701886297989330000,17.380329833984376,0.048956647515296936,-0.08849835395812988,0.21996402740478516
1701886298006321400,17.3973212890625,0.24499298632144928,0.05755424499511719,0.023839950561523438
1701886298023315000,17.41431494140625,0.22674258053302765,0.08174824714660645,-0.04677009582519531
1701886298040307200,17.43130712890625,0.10324612259864807,0.029477834701538086,-0.0015401840209960938
1701886298057301000,17.448301025390624,0.07882453501224518,0.003314971923828125,-0.13344383239746094
1701886298074305000,17.465304931640624,0.08807210624217987,0.08889389038085938,-0.13449954986572266
1701886298091288000,17.4822880859375,0.05835142731666565,-0.011152029037475586,-0.025995254516601562
1701886298108280300,17.4992802734375,0.05858004093170166,0.04013180732727051,0.0055179595947265625
1701886298125271300,17.516271240234374,0.09520095586776733,0.034555912017822266,-0.09276294708251953
1701886298142267000,17.533266845703125,0.19297051429748535,0.021262407302856445,-0.1662464141845703
1701886298159259100,17.550259033203126,0.23676076531410217,0.05026602745056152,-0.19487571716308594
1701886298176256000,17.567256103515625,0.17132192850112915,-0.0012810230255126953,-0.25862979888916016
1701886298193237200,17.5842373046875,0.052311062812805176,0.0173492431640625,-0.3275270462036133
1701886298210240300,17.601240234375,0.059131920337677,-0.04406881332397461,-0.16578006744384766
1701886298227233500,17.618233642578126,0.13939672708511353,-0.11550474166870117,0.061771392822265625
1701886298244227300,17.635227294921876,0.250637412071228,-0.013170719146728516,0.06612777709960938
1701886298261220900,17.652220947265626,0.031298160552978516,-0.05369830131530762,-0.07262897491455078
1701886298278203000,17.669202880859373,-0.20257580280303955,-0.04227042198181152,-0.18065929412841797
1701886298295207700,17.686207763671874,-0.26148638129234314,-0.04159879684448242,-0.1479206085205078
1701886298312196900,17.70319677734375,-0.1465018391609192,-0.02755427360534668,-0.008859634399414062
1701886298329194000,17.720194091796873,-0.08596861362457275,-0.0337672233581543,0.08677864074707031
1701886298346186500,17.7371865234375,-0.129458487033844,-0.07467770576477051,0.2906064987182617
1701886298363181800,17.754181884765625,-0.1765460968017578,-0.0072252750396728516,0.21683406829833984
1701886298380170000,17.771169921875,-0.3345908522605896,0.0294497013092041,0.09741592407226562
1701886298397169200,17.788169189453125,-0.3771708011627197,-0.013252496719360352,0.11046314239501953
1701886298414160000,17.805159912109374,-0.10996434092521667,-0.09516596794128418,0.07151031494140625
1701886298431154000,17.82215380859375,0.05777108669281006,-0.12027740478515625,-0.05735015869140625
1701886298448146700,17.839146728515626,0.15141808986663818,-0.1371614933013916,-0.12148284912109375
1701886298465140500,17.856140380859376,0.167430579662323,-0.057134389877319336,-0.23503684997558594
1701886298482133000,17.873133056640626,0.05392870306968689,-0.04328131675720215,-0.23985862731933594
1701886298499126500,17.89012646484375,0.015951961278915405,0.014792203903198242,-0.2520923614501953
1701886298516119800,17.907119873046874,-0.011521697044372559,0.03543281555175781,-0.2530555725097656
1701886298533113600,17.924113525390624,-0.09618240594863892,0.02572178840637207,0.15874671936035156
1701886298550106000,17.941106201171873,-0.09091973304748535,0.07494115829467773,0.31172847747802734
1701886298567100400,17.958100341796875,-0.15488842129707336,-0.0184023380279541,0.2983856201171875
1701886298584092700,17.9750927734375,0.007264316082000732,0.010381698608398438,0.10009193420410156
1701886298601076000,17.992075927734376,0.2643377184867859,0.009692192077636719,-0.027009010314941406
1701886298618079200,18.009079345703125,0.45148876309394836,0.030414104461669922,-0.1525716781616211
1701886298635070200,18.0260703125,0.41790705919265747,-0.01193380355834961,-0.26041126251220703
1701886298652065800,18.043065673828124,0.2711525559425354,-0.046380043029785156,-0.15015506744384766
1701886298669050000,18.060050048828124,0.11087954044342041,0.002261638641357422,-0.14633750915527344
1701886298686052400,18.07705224609375,-0.0004121065139770508,0.03225994110107422,-0.19553184509277344
1701886298703043300,18.094043212890625,-0.05986928939819336,0.024492979049682617,-0.13958168029785156
1701886298720038700,18.11103857421875,-0.0004888474941253662,0.00908660888671875,-0.12248802185058594
1701886298737033000,18.128032958984374,0.08318597078323364,-0.02037334442138672,0.009676933288574219
1701886298754025700,18.145025634765624,0.16355301439762115,-0.06659269332885742,0.09780597686767578
1701886298771019800,18.162019775390625,0.1319991648197174,-0.025407791137695312,0.11868095397949219
1701886298788011800,18.17901171875,0.04656907916069031,-0.01975536346435547,0.01912403106689453
1701886298805006300,18.19600634765625,0.09035752713680267,-0.015999794006347656,-0.0852670669555664
1701886298821995300,18.212995361328126,0.12310992181301117,-0.008674144744873047,-0.18233680725097656
1701886298838992600,18.22999267578125,0.13715814054012299,-0.06844949722290039,-0.17745494842529297
1701886298855974700,18.246974609375,-0.037953153252601624,-0.10569906234741211,0.01569366455078125
1701886298872979700,18.263979736328125,-0.14129456877708435,0.024709224700927734,0.048460960388183594
1701886298889970700,18.280970703125,-0.2733452022075653,0.03677845001220703,0.05090808868408203
1701886298906966800,18.297966796875,-0.2880363464355469,0.05410194396972656,-0.00077056884765625
1701886298923958300,18.314958251953126,-0.1608794927597046,0.019304275512695312,0.004355430603027344
1701886298940952800,18.331952880859376,-0.02418181300163269,0.023633956909179688,-0.018530845642089844
1701886298957945000,18.348945068359374,0.006311073899269104,0.0038313865661621094,0.016117095947265625
1701886298974939100,18.365939208984376,0.0010711699724197388,0.007313728332519531,0.05103111267089844
1701886298991928600,18.382928466796876,-0.024751529097557068,0.02856922149658203,0.057224273681640625
1701886299008926500,18.399926513671875,-0.029243335127830505,0.010904312133789062,0.04823017120361328
1701886299025914600,18.41691455078125,0.005075320601463318,0.017970561981201172,0.010968208312988281
1701886299042912300,18.433912353515623,0.08531445264816284,0.00196075439453125,0.0013971328735351562
1701886299059899400,18.4508994140625,0.09364615380764008,-0.014397621154785156,0.002712249755859375
1701886299076898800,18.46789892578125,0.03701600432395935,0.0026140213012695312,0.028740882873535156
1701886299093891300,18.484891357421876,-0.07690802216529846,0.034121036529541016,0.04078483581542969
1701886299110882800,18.5018828125,-0.12837833166122437,0.05964946746826172,0.047163963317871094
1701886299127880200,18.518880126953125,-0.12722991406917572,0.042288780212402344,0.056954383850097656
1701886299144869000,18.535869140625,-0.08642784506082535,0.04407835006713867,0.04825019836425781
1701886299161864200,18.5528642578125,-0.021626785397529602,0.04564809799194336,0.04814720153808594
1701886299178858500,18.5698583984375,-0.02257290482521057,0.04548788070678711,0.014580726623535156
1701886299195851000,18.58685107421875,-0.09176898002624512,0.015129566192626953,0.043366432189941406
1701886299212842000,18.603842041015625,-0.09302528202533722,0.018065929412841797,-0.02006816864013672
1701886299229837600,18.620837646484375,-0.036858513951301575,-0.012391090393066406,-0.045487403869628906
1701886299246821600,18.637821533203127,0.03365233540534973,-0.0071964263916015625,-0.06060028076171875
1701886299263824000,18.654823974609375,0.05943639576435089,-0.014528751373291016,-0.11704635620117188
1701886299280818200,18.671818115234377,0.05683061480522156,-0.013102531433105469,-0.12377071380615234
1701886299297800000,18.688800048828124,-0.00830128788948059,0.020299911499023438,-0.013197898864746094
1701886299314803500,18.705803466796876,-0.06445073336362839,0.0736699104309082,0.11214542388916016
1701886299331798800,18.722798828125,-0.13801084458827972,0.12318563461303711,0.20693683624267578
1701886299348791800,18.739791748046876,-0.22823670506477356,0.12509679794311523,0.2083292007446289
1701886299365784000,18.7567841796875,-0.24999181926250458,0.10899972915649414,0.17955780029296875
1701886299382775800,18.77377587890625,-0.1353670358657837,0.0585331916809082,0.1624126434326172
1701886299399772400,18.7907724609375,-0.000293731689453125,0.050792694091796875,0.07309150695800781
1701886299416765400,18.807765380859376,0.10017964243888855,0.042308807373046875,0.04654407501220703
1701886299433756700,18.824756591796874,0.09256190061569214,0.041706085205078125,0.03920936584472656
1701886299450742000,18.841741943359374,0.03451111912727356,0.05302572250366211,0.02679157257080078
1701886299467744000,18.858743896484373,-0.011630050837993622,0.016490936279296875,0.008699417114257812
1701886299484734500,18.875734375,-0.009016595780849457,-0.010867118835449219,0.009571075439453125
1701886299501733600,18.892733642578126,0.02976405620574951,-0.01987457275390625,-0.052115440368652344
1701886299518724600,18.909724609375,0.06441403180360794,-0.047205448150634766,-0.07120513916015625
1701886299535713500,18.926713623046876,0.09292992949485779,-0.0556178092956543,-0.10385894775390625
1701886299552708400,18.943708251953126,0.11235348135232925,-0.0641021728515625,-0.11260128021240234
1701886299569706000,18.9607060546875,0.07085295766592026,-0.09214448928833008,-0.11674976348876953
1701886299586697500,18.977697509765626,0.05841831862926483,-0.11966514587402344,-0.13979148864746094
1701886299603690000,18.99468994140625,0.10120171308517456,-0.13537931442260742,-0.14263916015625
1701886299620684300,19.011684326171874,0.1608145833015442,-0.1499185562133789,-0.13594722747802734
1701886299637676800,19.0286767578125,0.17662456631660461,-0.12597036361694336,-0.11420154571533203
1701886299654670600,19.045670654296874,0.10164116322994232,-0.1307368278503418,-0.13970947265625
1701886299671663000,19.0626630859375,0.06336064636707306,-0.11514711380004883,-0.15508460998535156
1701886299688657400,19.079657470703125,0.0438438281416893,-0.12795448303222656,-0.16133403778076172
1701886299705649400,19.0966494140625,0.08098820596933365,-0.12018299102783203,-0.17649459838867188
1701886299722641000,19.113640869140625,0.12132542580366135,-0.12947654724121094,-0.1530132293701172
1701886299739636000,19.130635986328127,0.12311674654483795,-0.12287282943725586,-0.13301563262939453
1701886299756630500,19.147630615234377,0.07216770201921463,-0.10070228576660156,-0.11665534973144531
1701886299773622000,19.1646220703125,0.017939306795597076,-0.07324409484863281,-0.09083366394042969
1701886299790618000,19.1816181640625,-0.001894935965538025,-0.06407451629638672,-0.01644134521484375
1701886299807601200,19.19860107421875,-0.041023850440979004,-0.03323554992675781,-0.0008363723754882812
1701886299824605000,19.21560498046875,-0.041727855801582336,-0.03584098815917969,-0.01897907257080078
1701886299841596000,19.232595947265626,-0.00036447495222091675,-0.03707599639892578,-0.022408485412597656
1701886299858590200,19.249590087890624,0.0419912114739418,-0.04257965087890625,-0.02592945098876953
1701886299875582500,19.26658251953125,0.051918648183345795,-0.03289985656738281,0.0002346038818359375
1701886299892576500,19.283576416015624,-0.024329468607902527,-0.00890493392944336,0.027254104614257812
1701886299909558000,19.30055810546875,-0.09662401676177979,0.025102615356445312,0.030282974243164062
1701886299926564000,19.317564208984376,-0.12024173140525818,0.024940013885498047,0.061989784240722656
1701886299943555600,19.3345556640625,-0.11121129989624023,0.04407644271850586,0.07854843139648438
1701886299960550000,19.3515498046875,-0.0924563929438591,0.043483734130859375,0.07960987091064453
1701886299977531000,19.36853076171875,-0.03631272912025452,0.05627775192260742,0.057170867919921875
1701886299994537500,19.385537353515623,0.009994208812713623,0.0451664924621582,0.0532989501953125
1701886300011534800,19.402534912109374,-0.002620011568069458,0.043566226959228516,0.040439605712890625
1701886300028523300,19.419523193359375,-0.06192821264266968,0.049986839294433594,0.022670745849609375
1701886300045512200,19.43651220703125,-0.07658335566520691,0.03586912155151367,0.008429527282714844
1701886300062509800,19.453509765625,-0.01142331212759018,0.02813100814819336,-0.010725975036621094
1701886300079501800,19.470501708984376,0.048051781952381134,0.030283451080322266,-0.024662017822265625
1701886300096496000,19.48749609375,0.06475487351417542,0.06293678283691406,-0.07573699951171875
1701886300113488400,19.50448828125,0.06829623878002167,0.0677938461303711,-0.04954338073730469
1701886300130483200,19.521483154296874,0.05051090568304062,0.05849599838256836,0.058368682861328125
1701886300147475200,19.53847509765625,-0.038987815380096436,0.09572553634643555,0.11361503601074219
1701886300164467700,19.5554677734375,-0.15272995829582214,0.07834577560424805,0.1254720687866211
1701886300181460500,19.57246044921875,-0.1772698014974594,0.0687265396118164,0.11588573455810547
1701886300198455800,19.589455810546873,-0.10859532654285431,0.048328399658203125,0.0713815689086914
1701886300215448000,19.606447998046875,-0.006046496331691742,0.0037336349487304688,0.012396812438964844
1701886300232439300,19.623439208984376,0.04386138170957565,-0.0016422271728515625,-0.05066680908203125
1701886300249435000,19.640434814453126,0.0009139403700828552,0.004500865936279297,-0.03568077087402344
1701886300266429400,19.657429443359376,-0.11076467484235764,0.020225048065185547,0.02861499786376953
1701886300283418600,19.674418701171874,-0.17920003831386566,0.03953742980957031,0.03431987762451172
1701886300300417800,19.691417724609376,-0.19659781455993652,0.020634174346923828,0.029623031616210938
1701886300317403000,19.70840283203125,-0.12027661502361298,-0.002815723419189453,0.019394874572753906
1701886300334400000,19.72539990234375,-0.04244855046272278,-0.027923107147216797,0.013444900512695312
1701886300351397000,19.742397216796874,-0.002336755394935608,-0.023647785186767578,-0.021196365356445312
1701886300368389000,19.75938916015625,0.025381088256835938,-0.0339360237121582,0.0071468353271484375
1701886300385381400,19.77638134765625,-0.008022822439670563,-0.031100749969482422,0.021140098571777344
1701886300402375700,19.793375732421875,-0.06396213918924332,-0.0444331169128418,-0.0043239593505859375
1701886300419367200,19.8103671875,-0.0728139579296112,-0.04302644729614258,-0.058594703674316406
1701886300436363000,19.827363037109375,-0.01643497496843338,-0.059667110443115234,-0.10304737091064453
1701886300453354200,19.844354248046876,0.03126448392868042,-0.06583547592163086,-0.12853240966796875
1701886300470348500,19.8613486328125,0.11221785098314285,-0.08521080017089844,-0.1627788543701172
1701886300487330600,19.87833056640625,0.1216011717915535,-0.08784198760986328,-0.1378927230834961
1701886300504336000,19.8953359375,0.10701187700033188,-0.08920907974243164,-0.0693368911743164
1701886300521327600,19.91232763671875,0.015228301286697388,-0.04953575134277344,-0.06245994567871094
1701886300538322000,19.929322021484374,-0.061935801059007645,-0.015301227569580078,-0.07562923431396484
1701886300555311000,19.94631103515625,-0.02084163948893547,-0.003222942352294922,-0.07057380676269531
1701886300572305200,19.96330517578125,0.08105790615081787,-0.015398502349853516,-0.04623889923095703
1701886300589303800,19.9803037109375,0.14472608268260956,-0.0032715797424316406,-0.060294151306152344
1701886300606295000,19.997294921875,0.11946029961109161,0.016738414764404297,-0.044677734375
1701886300623276500,20.014276611328125,0.019352108240127563,0.036170005798339844,-0.0248260498046875
1701886300640281600,20.031281494140625,-0.025515247136354446,0.04454660415649414,-0.02451801300048828
1701886300657273300,20.0482734375,0.02315162867307663,0.02501535415649414,-0.030365943908691406
1701886300674260700,20.0652607421875,0.10394563525915146,0.03285837173461914,-0.05090808868408203
1701886300691260700,20.0822607421875,0.162272647023201,0.012093067169189453,-0.06151866912841797
1701886300708254700,20.099254638671876,0.2161993831396103,0.015861988067626953,-0.05302238464355469
1701886300725246700,20.116246826171874,0.2167128026485443,0.01592111587524414,-0.03385162353515625
1701886300742238000,20.133238037109376,0.19492729008197784,0.017189979553222656,-0.023679733276367188
1701886300759221000,20.150220947265623,0.11878587305545807,0.04167604446411133,-0.012950897216796875
1701886300776227800,20.167227783203124,0.038050584495067596,0.056000709533691406,0.0020112991333007812
1701886300793220000,20.18422021484375,-0.04467768967151642,0.06832551956176758,0.01152801513671875
1701886300810214000,20.2012138671875,-0.07852216064929962,0.03717851638793945,0.039116859436035156
1701886300827207000,20.21820703125,-0.011430490761995316,0.039537906646728516,0.004517555236816406
1701886300844201700,20.23520166015625,0.04891086742281914,0.013042449951171875,-0.0022935867309570312
1701886300861193200,20.252193115234373,0.07731916755437851,-0.02432870864868164,-0.052506446838378906
1701886300878197200,20.269197265625,0.07768374681472778,-0.05052661895751953,-0.07744979858398438
1701886300895180000,20.286179931640625,0.059375256299972534,-0.04115009307861328,-0.048793792724609375
1701886300912174300,20.30317431640625,-0.0011976659297943115,-0.025424957275390625,-0.028387069702148438
1701886300929153000,20.320153076171874,-0.06553822755813599,-0.009799957275390625,0.0018100738525390625
1701886300946161000,20.337160888671875,-0.14314815402030945,0.0002732276916503906,0.04121971130371094
1701886300963153000,20.35415283203125,-0.18622766435146332,-0.004571437835693359,0.10341644287109375
1701886300980137000,20.371136962890624,-0.16380861401557922,-0.006131172180175781,0.10749626159667969
1701886300997139500,20.388139404296876,-0.14126792550086975,-0.024089813232421875,0.09627342224121094
1701886301014123300,20.405123291015624,-0.09523532539606094,-0.03821706771850586,0.007153511047363281
1701886301031126000,20.4221259765625,-0.028522290289402008,-0.07989120483398438,-0.07186031341552734
1701886301048120300,20.439120361328126,0.04389213025569916,-0.10502338409423828,-0.09694957733154297
1701886301065109800,20.45610986328125,0.053052954375743866,-0.08959484100341797,-0.06773757934570312
1701886301082107100,20.473107177734374,-0.0318232923746109,-0.055585384368896484,-0.03819561004638672
1701886301099099600,20.490099609375,-0.11555059254169464,-0.032867431640625,-0.0522613525390625
1701886301116093700,20.50709375,-0.1274861991405487,-0.05235624313354492,-0.04765510559082031
1701886301133082000,20.52408203125,-0.03620930388569832,-0.05584430694580078,-0.06708335876464844
1701886301150080000,20.541080078125,0.0732576996088028,-0.06775903701782227,-0.085968017578125
