time,seconds_elapsed,z,y,x
1701886019109789200,0.1427890625,-0.2721071243286133,-0.126068115234375,-0.06969726085662842
1701886019126781700,0.15978173828125,-0.20058917999267578,-0.11709165573120117,0.006698131561279297
1701886019143770600,0.1767705078125,-0.3259592056274414,-0.1714487075805664,0.09504330158233643
1701886019160768300,0.193768310546875,-0.4664483070373535,-0.2704029083251953,0.0797872543334961
1701886019177756400,0.21075634765625,-0.6670646667480469,-0.30065202713012695,0.007070302963256836
1701886019194751700,0.227751708984375,-0.9749565124511719,-0.3876218795776367,-0.04986691474914551
1701886019211741200,0.2447412109375,-1.326575756072998,-0.457888126373291,-0.12634611129760742
1701886019228737300,0.2617373046875,-1.5294690132141113,-0.6032228469848633,-0.3003113269805908
1701886019245726500,0.2787265625,-1.3687386512756348,-0.8159117698669434,-0.5706195831298828
1701886019262723000,0.29572314453125,-1.121964454650879,-0.847994327545166,-0.892096996307373
1701886019279711500,0.31271142578125,-1.7464909553527832,-0.8779821395874023,-1.2548463344573975
1701886019296707300,0.329707275390625,-3.0603232383728027,-1.139805793762207,-1.2084825038909912
1701886019313699300,0.34669921875,-3.541350841522217,-1.3879168033599854,-0.9309210777282715
1701886019330693600,0.363693603515625,-2.1899962425231934,-1.731205701828003,-1.0333037376403809
1701886019347683600,0.38068359375,-0.549954891204834,-2.203538179397583,-1.0741517543792725
1701886019364676600,0.397676513671875,0.48374366760253906,-2.0797181129455566,-1.406796932220459
1701886019381671000,0.4146708984375,-0.6916165351867676,-1.9558906555175781,-2.0384116172790527
1701886019398658800,0.431658935546875,-2.6067516803741455,-2.0046496391296387,-2.0129122734069824
1701886019415655400,0.448655517578125,-3.4775662422180176,-2.0570647716522217,-1.6357464790344238
1701886019432647700,0.465647705078125,-2.9456591606140137,-2.44510817527771,-1.0354728698730469
1701886019449638100,0.48263818359375,-0.9722914695739746,-2.6077921390533447,-0.2595682144165039
1701886019466633500,0.499633544921875,0.5402369499206543,-2.249267578125,-0.3918757438659668
1701886019483624200,0.516624267578125,0.3357522487640381,-1.909623146057129,-0.9115757942199707
1701886019500608300,0.533608154296875,-1.6743301153182983,-1.6248044967651367,-1.0555906295776367
1701886019517615000,0.550614990234375,-3.2142179012298584,-1.8250296115875244,-0.5123186111450195
1701886019534599400,0.567599365234375,-3.0625123977661133,-1.9457483291625977,-0.5698785781860352
1701886019551596000,0.584595947265625,-1.8746213912963867,-2.3642210960388184,-0.45147132873535156
1701886019568584400,0.60158447265625,-0.630264163017273,-2.346409320831299,-0.7370166778564453
1701886019585581000,0.6185810546875,0.5725712776184082,-2.151628255844116,-0.6388387680053711
1701886019602577400,0.635577392578125,1.0642495155334473,-2.0734763145446777,-0.09836483001708984
1701886019619557000,0.65255712890625,1.1838030815124512,-2.34110689163208,0.45329952239990234
1701886019636557300,0.669557373046875,0.872333824634552,-2.4434051513671875,1.2236461639404297
1701886019653553000,0.686552978515625,-0.10814997553825378,-2.557116985321045,1.7550630569458008
1701886019670571000,0.703571044921875,-0.696290135383606,-2.709434986114502,1.4728069305419922
1701886019687524600,0.720524658203125,-0.670229434967041,-2.6423323154449463,0.9067401885986328
1701886019704541000,0.737541015625,-0.47263604402542114,-2.7727746963500977,0.6756095886230469
1701886019721517600,0.754517578125,-0.10258102416992188,-2.965973377227783,0.8662176132202148
1701886019738499300,0.771499267578125,-0.1689929962158203,-3.124155282974243,1.6551809310913086
1701886019755503900,0.78850390625,0.18726623058319092,-2.8541951179504395,2.5379018783569336
1701886019772494300,0.805494384765625,0.34606921672821045,-2.6561644077301025,3.717818260192871
1701886019789491200,0.8224912109375,0.41223037242889404,-2.2195730209350586,5.184103012084961
1701886019806477300,0.839477294921875,0.4040168523788452,-1.3826818466186523,6.189181327819824
1701886019823478500,0.856478515625,0.28396785259246826,-0.4340801239013672,6.723014831542969
1701886019840460800,0.873460693359375,-0.03277122974395752,0.44559383392333984,6.67881965637207
1701886019857461800,0.890461669921875,-0.7297697067260742,1.054518222808838,6.120771884918213
1701886019874453500,0.90745361328125,-0.9392849206924438,1.5214476585388184,5.197068691253662
1701886019891444500,0.924444580078125,-0.8581293821334839,1.7026000022888184,4.404724597930908
1701886019908435200,0.941435302734375,-0.3176013231277466,1.796379566192627,3.848543167114258
1701886019925434000,0.95843408203125,0.6048927307128906,1.7477154731750488,3.558398723602295
1701886019942424300,0.97542431640625,1.4561253786087036,1.7324519157409668,3.587007999420166
1701886019959415800,0.992415771484375,1.6804741621017456,1.4320282936096191,3.4659481048583984
1701886019976409600,1.00940966796875,1.6107611656188965,1.1827750205993652,3.1342201232910156
1701886019993401000,1.026401123046875,1.9113484621047974,1.4982433319091797,2.4932937622070312
1701886020010385200,1.04338525390625,1.639835238456726,1.6372079849243164,2.127898693084717
1701886020027387000,1.060386962890625,0.8210915327072144,1.6068825721740723,1.770988941192627
1701886020044375800,1.077375732421875,-0.279518723487854,1.3697776794433594,1.1511154174804688
1701886020061373000,1.094373046875,-1.5355608463287354,1.0147924423217773,0.3012733459472656
1701886020078363400,1.11136328125,-1.7247945070266724,0.7376422882080078,-0.40228939056396484
1701886020095356200,1.128356201171875,-1.3637652397155762,0.6262998580932617,-0.5596904754638672
1701886020112343300,1.14534326171875,-0.8969008922576904,0.3896293640136719,-0.43124866485595703
1701886020129339100,1.162339111328125,-0.3464283347129822,0.15889787673950195,-0.2941570281982422
1701886020146340000,1.179340087890625,0.3154481053352356,0.11085081100463867,-0.2021803855895996
1701886020163314700,1.196314697265625,0.8471759557723999,-0.015454769134521484,0.006125450134277344
1701886020180319000,1.213319091796875,1.2204445600509644,-0.0643610954284668,0.2571754455566406
1701886020197312800,1.230312744140625,1.357560634613037,-0.06660985946655273,0.4910564422607422
1701886020214304500,1.247304443359375,1.2892205715179443,0.04152822494506836,0.5168890953063965
1701886020231294200,1.264294189453125,1.1834197044372559,0.09695863723754883,0.5839524269104004
1701886020248287700,1.281287841796875,0.809380054473877,-0.009521007537841797,0.6620059013366699
1701886020265281800,1.29828173828125,0.030276864767074585,-0.3213057518005371,0.5993423461914062
1701886020282278700,1.315278564453125,-0.7197199463844299,-0.4695143699645996,0.013311386108398438
1701886020299263700,1.332263671875,-0.9376512169837952,-0.3263225555419922,-0.6739673614501953
1701886020316260900,1.3492607421875,-0.7753477096557617,-0.09673547744750977,-0.8151555061340332
1701886020333242400,1.366242431640625,-0.34271347522735596,0.0071926116943359375,-0.6516780853271484
1701886020350242600,1.38324267578125,0.04063093662261963,-0.1352829933166504,-0.4818124771118164
1701886020367238100,1.400238037109375,0.3065286874771118,-0.1578660011291504,-0.5459952354431152
1701886020384230700,1.417230712890625,0.3888876438140869,-0.17293977737426758,-0.6660881042480469
1701886020401224000,1.434223876953125,0.4417138993740082,-0.12762165069580078,-0.7420449256896973
1701886020418211600,1.451211669921875,0.5463162064552307,-0.14217519760131836,-0.4707956314086914
1701886020435209700,1.468209716796875,0.4719499349594116,-0.25582265853881836,0.004607200622558594
1701886020452201700,1.48520166015625,0.47319215536117554,-0.1787118911743164,0.30301856994628906
1701886020469190100,1.502190185546875,0.22259819507598877,-0.04082202911376953,0.3968791961669922
1701886020486185500,1.519185546875,-0.11537033319473267,0.10223913192749023,0.38617610931396484
1701886020503174000,1.536173828125,-0.23569181561470032,0.28478050231933594,0.3991875648498535
1701886020520167700,1.553167724609375,-0.11924436688423157,0.33353185653686523,0.4894533157348633
1701886020537163500,1.57016357421875,0.01637047529220581,0.19382858276367188,0.8094801902770996
1701886020554152400,1.58715234375,-0.18982651829719543,0.034310340881347656,1.0336542129516602
1701886020571149300,1.6041494140625,-0.5178091526031494,0.049828529357910156,0.7237019538879395
1701886020588135400,1.621135498046875,-0.6961300373077393,0.16519451141357422,0.2874608039855957
1701886020605138000,1.638137939453125,-0.5490201711654663,0.3471102714538574,0.06312894821166992
1701886020622114600,1.655114501953125,-0.07591882348060608,0.42444467544555664,0.09845685958862305
1701886020639123200,1.672123291015625,0.35810378193855286,0.29427194595336914,0.43842315673828125
1701886020656111400,1.689111328125,0.3868023455142975,0.05824089050292969,0.5870599746704102
1701886020673102000,1.70610205078125,0.15441080927848816,-0.07985877990722656,0.2842426300048828
1701886020690101200,1.723101318359375,-0.22596028447151184,0.005779743194580078,-0.2369694709777832
1701886020707089000,1.7400888671875,-0.2720251679420471,0.14336061477661133,-0.5209622383117676
1701886020724081400,1.757081298828125,0.06922641396522522,0.1378641128540039,-0.3370323181152344
1701886020741074000,1.774073974609375,0.6569428443908691,0.06220054626464844,0.04570436477661133
1701886020758065700,1.791065673828125,0.7054115533828735,-0.11866044998168945,0.35973024368286133
1701886020775057200,1.80805712890625,0.39450153708457947,-0.23658466339111328,0.21573162078857422
1701886020792051000,1.825051025390625,0.06557536125183105,-0.11150360107421875,-0.24832963943481445
1701886020809038600,1.84203857421875,-0.059508293867111206,-0.01593780517578125,-0.43892621994018555
1701886020826038000,1.8590380859375,0.07644101977348328,-0.01000356674194336,-0.4029226303100586
1701886020843023000,1.876023193359375,0.2723132073879242,-0.09706592559814453,-0.18726205825805664
1701886020860019000,1.89301904296875,0.2542668581008911,-0.22265958786010742,-0.0920095443725586
1701886020877014800,1.910014892578125,0.019505828619003296,-0.3053460121154785,-0.31932497024536133
1701886020894007000,1.927007080078125,-0.07124629616737366,-0.3007473945617676,-0.6753058433532715
1701886020911000000,1.944,0.1464782953262329,-0.2518448829650879,-0.810457706451416
1701886020927987500,1.960987548828125,0.5686286687850952,-0.23076915740966797,-0.7528314590454102
1701886020944982500,1.977982421875,0.8926500082015991,-0.2709345817565918,-0.5604519844055176
1701886020961978400,1.994978271484375,0.8582314848899841,-0.3373727798461914,-0.39484357833862305
1701886020978962000,2.0119619140625,0.5536868572235107,-0.3002796173095703,-0.4812779426574707
1701886020995966200,2.02896630859375,0.2615843415260315,-0.2296905517578125,-0.544154167175293
1701886021012956200,2.0459560546875,0.2317173182964325,-0.06504535675048828,-0.5416393280029297
1701886021029944600,2.062944580078125,0.392361581325531,-0.023493289947509766,-0.3452763557434082
1701886021046937300,2.079937255859375,0.7543365955352783,-0.01652050018310547,-0.018610000610351562
1701886021063931100,2.09693115234375,0.9725274443626404,-0.00834512710571289,0.33399295806884766
1701886021080934700,2.1139345703125,0.3802182078361511,-0.04296684265136719,0.6034884452819824
1701886021097912300,2.130912353515625,-0.7236953973770142,-0.13091278076171875,0.3985438346862793
1701886021114901800,2.14790185546875,-1.4731175899505615,-0.0021042823791503906,0.0067901611328125
1701886021131900000,2.16489990234375,-1.6721513271331787,0.13289690017700195,-0.21706867218017578
1701886021148894200,2.181894287109375,-1.0337257385253906,0.12318229675292969,-0.12413883209228516
1701886021165886500,2.198886474609375,0.08611011505126953,0.16956663131713867,0.20879602432250977
1701886021182881300,2.21588134765625,1.0110204219818115,0.2146315574645996,0.5030736923217773
1701886021199870000,2.232869873046875,1.4038745164871216,0.16463088989257812,0.6099176406860352
1701886021216865800,2.24986572265625,1.113318920135498,0.08109283447265625,0.4084162712097168
1701886021233857800,2.26685791015625,0.46863868832588196,-0.05671882629394531,0.06833505630493164
1701886021250851600,2.2838515625,-0.12060961127281189,-0.06096506118774414,-0.2818026542663574
1701886021267831000,2.3008310546875,-0.3359643816947937,0.0021004676818847656,-0.45668935775756836
1701886021284836400,2.31783642578125,-0.19950085878372192,0.07172584533691406,-0.3942408561706543
1701886021301836000,2.3348359375,0.257835328578949,0.12171697616577148,-0.09322834014892578
1701886021318808800,2.351808837890625,0.6663184762001038,0.14837217330932617,0.22658777236938477
1701886021335809800,2.368809814453125,0.749688982963562,0.1728515625,0.3961668014526367
1701886021352806700,2.385806640625,0.36373862624168396,0.10214757919311523,0.33992671966552734
1701886021369799700,2.402799560546875,-0.1609610915184021,0.035706520080566406,0.03765392303466797
1701886021386795800,2.419795654296875,-0.3925854563713074,0.08917760848999023,-0.18262672424316406
1701886021403784200,2.4367841796875,-0.28492578864097595,0.07361841201782227,-0.1419062614440918
1701886021420778000,2.453778076171875,0.002697467803955078,0.023795604705810547,0.020479202270507812
1701886021437761500,2.470761474609375,0.23322948813438416,-0.033559322357177734,0.1662435531616211
1701886021454761000,2.487760986328125,0.2903662621974945,-0.05252647399902344,0.115203857421875
1701886021471753200,2.504753173828125,0.21955624222755432,-0.025438308715820312,0.025915145874023438
1701886021488745000,2.521744873046875,0.017969995737075806,-0.0338897705078125,-0.020697593688964844
1701886021505731000,2.53873095703125,-0.1619865894317627,-0.06386089324951172,-0.10278606414794922
1701886021522730200,2.555730224609375,-0.20410078763961792,-0.10774993896484375,-0.1089792251586914
1701886021539723500,2.5727236328125,-0.11891511082649231,-0.11113452911376953,-0.044180870056152344
1701886021556716800,2.589716796875,-0.03052222728729248,-0.09862375259399414,0.028349876403808594
1701886021573709000,2.606708984375,-0.004738658666610718,-0.10891485214233398,0.027367591857910156
1701886021590702600,2.62370263671875,0.04115578532218933,-0.13466691970825195,0.015612602233886719
1701886021607692500,2.640692626953125,0.0469399094581604,-0.13359546661376953,0.04256439208984375
1701886021624686600,2.6576865234375,0.010271191596984863,-0.1338362693786621,-0.008172035217285156
1701886021641677000,2.674677001953125,-0.041642725467681885,-0.13439130783081055,-0.13545608520507812
1701886021658669800,2.691669921875,-0.04977995157241821,-0.16150617599487305,-0.18512725830078125
1701886021675664100,2.7086640625,-0.02254626154899597,-0.1953907012939453,-0.1896381378173828
1701886021692657700,2.72565771484375,0.029528111219406128,-0.21245622634887695,-0.15457725524902344
1701886021709648000,2.74264794921875,0.07251212000846863,-0.1948089599609375,-0.13699913024902344
1701886021726642200,2.75964208984375,0.07112273573875427,-0.16928815841674805,-0.22769832611083984
1701886021743634400,2.776634521484375,0.018139123916625977,-0.17433452606201172,-0.2916240692138672
1701886021760638700,2.793638671875,-0.033133625984191895,-0.16489124298095703,-0.3765296936035156
1701886021777617200,2.8106171875,-0.027966409921646118,-0.20186996459960938,-0.35780906677246094
1701886021794611700,2.82761181640625,0.03047618269920349,-0.19946718215942383,-0.29306888580322266
1701886021811606000,2.84460595703125,0.07919490337371826,-0.18947219848632812,-0.19689559936523438
1701886021828593700,2.86159375,0.1013786792755127,-0.14977502822875977,-0.14828014373779297
1701886021845590800,2.8785908203125,0.06938421726226807,-0.13832569122314453,-0.1472024917602539
1701886021862585300,2.89558544921875,0.07479837536811829,-0.10501766204833984,-0.18274497985839844
1701886021879573200,2.9125732421875,0.04736274480819702,-0.10239219665527344,-0.1537637710571289
1701886021896553500,2.929553466796875,0.04306069016456604,-0.06416559219360352,-0.10967731475830078
1701886021913562400,2.946562255859375,-0.008949309587478638,-0.03208637237548828,-0.07501888275146484
1701886021930567700,2.963567626953125,-0.11528560519218445,-0.06021261215209961,-0.013438224792480469
1701886021947554300,2.98055419921875,-0.15780827403068542,-0.05769062042236328,-0.04083824157714844
1701886021964532000,2.997531982421875,-0.11124694347381592,-0.07911968231201172,-0.03960227966308594
1701886021981531100,3.01453125,-0.004804730415344238,-0.0596766471862793,-0.047260284423828125
1701886021998519600,3.03151953125,0.1127626895904541,-0.017853736877441406,-0.05818653106689453
1701886022015513000,3.04851318359375,0.23706665635108948,0.0359349250793457,-0.02382946014404297
1701886022032504000,3.065504150390625,0.20676708221435547,0.07018232345581055,0.04999828338623047
1701886022049505300,3.08250537109375,0.058804452419281006,0.12575674057006836,0.10004806518554688
1701886022066493700,3.09949365234375,-0.024409443140029907,0.1533069610595703,0.107940673828125
1701886022083486500,3.116486572265625,-0.05044850707054138,0.1488819122314453,0.10789299011230469
1701886022100478700,3.133478759765625,-0.03173741698265076,0.0989980697631836,0.10152530670166016
1701886022117471700,3.1504716796875,0.037424176931381226,0.06344032287597656,0.06551933288574219
1701886022134463700,3.167463623046875,0.09866136312484741,0.04213666915893555,0.010787010192871094
1701886022151452700,3.18445263671875,0.1751854419708252,0.04687643051147461,-0.009369850158691406
1701886022168435200,3.201435302734375,0.20691734552383423,0.07041215896606445,0.014375686645507812
1701886022185441800,3.21844189453125,0.15127971768379211,0.10684442520141602,0.01871204376220703
1701886022202423800,3.235423828125,0.10945174098014832,0.09859418869018555,-0.011655807495117188
1701886022219426000,3.252426025390625,0.07332509756088257,0.06754827499389648,-0.0034151077270507812
1701886022236420400,3.26942041015625,0.1370607614517212,0.055744171142578125,-0.024214744567871094
1701886022253401000,3.286401123046875,0.150312602519989,0.004364013671875,0.0017833709716796875
1701886022270404600,3.303404541015625,0.18618637323379517,0.010024070739746094,-0.0005445480346679688
1701886022287378700,3.320378662109375,0.16342613101005554,0.020128250122070312,0.0065326690673828125
1701886022304389600,3.3373896484375,0.07362887263298035,0.0048007965087890625,0.018465042114257812
1701886022321383000,3.3543828125,0.06506645679473877,0.032056331634521484,0.005171775817871094
1701886022338373600,3.37137353515625,0.05397316813468933,0.006518363952636719,-0.0034818649291992188
1701886022355375900,3.3883759765625,0.06735420227050781,-0.0041790008544921875,-0.026213645935058594
1701886022372347000,3.405346923828125,0.1015012264251709,-0.026581764221191406,-0.09067630767822266
1701886022389355000,3.42235498046875,0.1428549885749817,-0.04153251647949219,-0.09139347076416016
1701886022406344400,3.439344482421875,0.12170422077178955,-0.05412006378173828,-0.03257465362548828
1701886022423327000,3.456326904296875,0.03445780277252197,-0.0061893463134765625,0.0021924972534179688
1701886022440330000,3.473330078125,-0.06353023648262024,-0.002872943878173828,0.022089004516601562
1701886022457323300,3.4903232421875,-0.12541794776916504,0.0008306503295898438,-0.0072994232177734375
1701886022474311700,3.507311767578125,-0.12069198489189148,-0.023333072662353516,-0.02660655975341797
1701886022491308000,3.52430810546875,-0.05001944303512573,-0.02649688720703125,-0.021750450134277344
1701886022508300300,3.54130029296875,0.05144590139389038,-0.023893356323242188,-0.049704551696777344
1701886022525293300,3.558293212890625,0.04766041040420532,-0.02680206298828125,-0.03846263885498047
1701886022542282200,3.5752822265625,0.006151676177978516,-0.0009326934814453125,-0.04192543029785156
1701886022559278000,3.592278076171875,-0.0758410394191742,0.0007348060607910156,-0.03068065643310547
1701886022576270600,3.6092705078125,-0.08399611711502075,-0.03589439392089844,-0.05365180969238281
1701886022593253600,3.626253662109375,0.01634332537651062,-0.06925153732299805,-0.11385059356689453
1701886022610252000,3.643251953125,0.12364855408668518,-0.06947994232177734,-0.13350677490234375
1701886022627250700,3.660250732421875,0.16788679361343384,-0.08628320693969727,-0.06377315521240234
1701886022644241200,3.6772412109375,0.18514257669448853,0.005204200744628906,0.014780044555664062
1701886022661232600,3.694232666015625,0.06730008125305176,0.011978626251220703,0.06297016143798828
1701886022678224000,3.711223876953125,-0.00924074649810791,0.05137777328491211,0.0383148193359375
1701886022695221200,3.72822119140625,-0.011974841356277466,0.06097126007080078,0.10901641845703125
1701886022712211000,3.7452109375,0.07158762216567993,0.054979801177978516,0.12915897369384766
1701886022729203000,3.762202880859375,0.11979401111602783,0.06896352767944336,0.11852455139160156
1701886022746196700,3.77919677734375,0.09584268927574158,0.04056978225708008,0.0916280746459961
1701886022763201000,3.796200927734375,0.05310043692588806,0.001434326171875,-0.0070476531982421875
1701886022780178200,3.81317822265625,0.06063741445541382,-0.007030487060546875,-0.024005889892578125
1701886022797164000,3.8301640625,0.11123007535934448,-0.04828310012817383,-0.040721893310546875
1701886022814164200,3.847164306640625,0.1990349292755127,-0.0016369819641113281,-0.0662698745727539
1701886022831160800,3.864160888671875,0.22980958223342896,0.025302886962890625,-0.05768775939941406
1701886022848149200,3.881149169921875,0.16524332761764526,0.022615432739257812,-0.06823158264160156
1701886022865143800,3.898143798828125,0.05950653553009033,0.008505821228027344,-0.0700521469116211
1701886022882143500,3.9151435546875,0.013527065515518188,-0.0434870719909668,-0.07229042053222656
1701886022899132700,3.932132568359375,0.06034034490585327,-0.048201560974121094,-0.07798099517822266
1701886022916118500,3.949118408203125,0.09225413203239441,-0.04705953598022461,-0.034117698669433594
1701886022933104000,3.966104248046875,0.07661783695220947,-0.022067546844482422,-0.014240264892578125
1701886022950106600,3.983106689453125,0.02823925018310547,-0.003985881805419922,0.00044727325439453125
1701886022967099600,4.000099609375,-0.019325435161590576,-0.0003447532653808594,-0.018815040588378906
1701886022984088800,4.0170888671875,-0.03836566209793091,-0.03486442565917969,-0.009877204895019531
1701886023001081000,4.0340810546875,0.014038383960723877,-0.03138589859008789,-0.054368019104003906
1701886023018076700,4.05107666015625,0.057983338832855225,-0.0509953498840332,-0.07961177825927734
1701886023035071000,4.068071044921875,0.06913921236991882,-0.02666473388671875,-0.0985708236694336
1701886023052047000,4.085047119140625,0.0846930742263794,-0.015433311462402344,-0.07845020294189453
1701886023069052400,4.102052490234375,0.07222425937652588,0.0011496543884277344,-0.03824329376220703
1701886023086050000,4.119050048828125,0.03653234243392944,-0.006762027740478516,-0.008214950561523438
1701886023103040000,4.1360400390625,0.0010526776313781738,0.0002951622009277344,-0.011107444763183594
1701886023120032800,4.15303271484375,0.0049738287925720215,-0.006855964660644531,0.008779525756835938
1701886023137025300,4.170025390625,0.08083289861679077,0.005081653594970703,0.029254913330078125
1701886023154017500,4.187017578125,0.11694550514221191,0.006525516510009766,0.043807029724121094
1701886023171010000,4.204010009765625,0.1233426034450531,0.017545223236083984,0.015535354614257812
1701886023187998500,4.22099853515625,0.0917089581489563,0.008765220642089844,0.007353782653808594
1701886023205000000,4.238,0.12253132462501526,0.007263660430908203,0.008342742919921875
1701886023221987800,4.25498779296875,0.185501366853714,0.011882781982421875,0.010583877563476562
1701886023238979600,4.2719794921875,0.1990765631198883,0.03594970703125,0.0854787826538086
1701886023255974100,4.28897412109375,0.11552673578262329,0.10835790634155273,0.11625862121582031
1701886023272966000,4.3059658203125,-0.04516354203224182,0.10871171951293945,0.06250858306884766
1701886023289958000,4.3229580078125,-0.1488018035888672,0.06297159194946289,-0.022963523864746094
1701886023306951200,4.339951171875,-0.05387336015701294,0.002850055694580078,-0.10593032836914062
1701886023323942400,4.3569423828125,0.15490075945854187,-0.03876829147338867,-0.12920570373535156
1701886023340937000,4.37393701171875,0.35050293803215027,-0.04391288757324219,-0.13637638092041016
1701886023357928000,4.390927978515625,0.4274599850177765,0.0012784004211425781,-0.1307392120361328
1701886023374918000,4.40791796875,0.30884137749671936,0.027944087982177734,-0.05069923400878906
1701886023391914000,4.4249140625,0.07648691534996033,0.053058624267578125,0.02928924560546875
1701886023408904400,4.441904541015625,-0.1137816309928894,0.05739116668701172,0.0880270004272461
1701886023425890000,4.45889013671875,-0.17487117648124695,0.04466533660888672,0.11092758178710938
1701886023442891500,4.4758916015625,-0.11798316240310669,0.04579734802246094,0.06462574005126953
1701886023459873300,4.492873291015625,-0.0347389280796051,0.017340660095214844,-0.006075859069824219
1701886023476876800,4.509876708984375,0.04756450653076172,0.0038280487060546875,-0.06201362609863281
1701886023493868800,4.526868896484375,0.0646699070930481,0.010016918182373047,-0.06880474090576172
1701886023510861300,4.543861328125,0.008062601089477539,0.01132059097290039,-0.050850868225097656
1701886023527851500,4.5608515625,-0.03756606578826904,0.018689632415771484,-0.057076454162597656
1701886023544847000,4.57784716796875,-0.05878940224647522,0.027513980865478516,-0.03790092468261719
1701886023561835800,4.594835693359375,-0.01393049955368042,0.03719902038574219,-0.03371238708496094
1701886023578830800,4.611830810546875,0.04423397779464722,0.02750396728515625,-0.03441333770751953
1701886023595828000,4.628827880859375,0.11659753322601318,0.018227577209472656,-0.03043651580810547
1701886023612817200,4.645817138671875,0.10889273881912231,0.01694202423095703,0.04149818420410156
1701886023629809400,4.662809326171875,0.03764599561691284,0.029779434204101562,-0.0019502639770507812
1701886023646802200,4.67980224609375,0.01860746741294861,0.006591796875,-0.006283760070800781
1701886023663796200,4.696796142578125,0.0506095290184021,0.024105548858642578,0.009472846984863281
1701886023680787200,4.713787109375,0.11457154154777527,0.028343677520751953,0.055291175842285156
1701886023697779500,4.730779541015625,0.120648592710495,0.04967975616455078,0.12861061096191406
1701886023714772200,4.747772216796875,0.05770108103752136,0.08618879318237305,0.0995931625366211
1701886023731764700,4.7647646484375,-0.0328429639339447,0.0773611068725586,0.030855178833007812
1701886023748756700,4.7817568359375,-0.006853371858596802,0.05889463424682617,-0.034423828125
1701886023765740500,4.798740478515625,0.060407042503356934,0.01872539520263672,-0.041342735290527344
1701886023782742500,4.815742431640625,0.1120176911354065,0.009197711944580078,-0.032303810119628906
1701886023799735300,4.8327353515625,0.08095327019691467,0.02347421646118164,0.0022325515747070312
1701886023816728000,4.84972802734375,-0.007454097270965576,0.013086795806884766,0.02158832550048828
1701886023833720000,4.866719970703125,-0.03383290767669678,0.030782222747802734,0.011228561401367188
1701886023850719200,4.88371923828125,0.0026197433471679688,0.029433250427246094,0.034404754638671875
1701886023867702300,4.900702392578125,0.059224218130111694,0.031812191009521484,0.027578353881835938
1701886023884693000,4.91769287109375,0.11638996005058289,0.015363216400146484,0.010959625244140625
1701886023901687600,4.9346875,0.08831754326820374,0.002407550811767578,0.028989791870117188
1701886023918685400,4.951685546875,0.024266928434371948,-0.005750179290771484,-0.011309623718261719
1701886023935676000,4.968676025390625,-0.020696640014648438,-0.023022174835205078,-0.06508350372314453
1701886023952668200,4.985668212890625,-0.016517341136932373,-0.03436422348022461,-0.0757131576538086
1701886023969660400,5.002660400390625,0.017303168773651123,-0.040196895599365234,-0.06739139556884766
1701886023986653400,5.0196533203125,0.04790571331977844,-0.01290130615234375,-0.030027389526367188
1701886024003646000,5.03664599609375,0.02637544274330139,-0.039778709411621094,-0.027143478393554688
1701886024020638500,5.053638427734375,0.06694570183753967,-0.04789304733276367,-0.024483680725097656
1701886024037630700,5.070630615234375,0.08276385068893433,-0.059972286224365234,-0.04139137268066406
1701886024054623700,5.087623779296875,0.08250769972801208,-0.056685447692871094,-0.08539009094238281
1701886024071612200,5.104612060546875,0.0631692111492157,-0.04616832733154297,-0.10816097259521484
1701886024088610000,5.121610107421875,0.022273004055023193,-0.019954681396484375,-0.06339550018310547
1701886024105607400,5.138607421875,0.01704627275466919,0.021197795867919922,0.020181655883789062
1701886024122594000,5.155593994140625,-0.029426932334899902,0.036292076110839844,0.09258174896240234
1701886024139581400,5.17258154296875,-0.048286229372024536,0.03628730773925781,0.11211872100830078
1701886024156579800,5.189579833984375,-0.024284005165100098,0.020477771759033203,0.0775461196899414
1701886024173560800,5.206560791015625,0.031386345624923706,0.00973653793334961,0.04223060607910156
1701886024190564400,5.223564453125,0.07712402939796448,-0.01164865493774414,0.03537750244140625
1701886024207556400,5.240556396484375,0.06402945518493652,0.019388198852539062,-0.008687973022460938
1701886024224550000,5.2575498046875,0.05248093605041504,0.03216695785522461,-0.014538764953613281
1701886024241541400,5.274541259765625,0.022151172161102295,0.0454559326171875,-0.0296630859375
1701886024258533600,5.29153369140625,0.03899374604225159,0.044881343841552734,-0.03969860076904297
1701886024275527700,5.308527587890625,0.06126749515533447,0.025824546813964844,-0.039760589599609375
1701886024292519700,5.325519775390625,0.08757263422012329,0.021973609924316406,-0.04944419860839844
1701886024309511700,5.34251171875,0.1231532096862793,0.010370254516601562,-0.02425670623779297
1701886024326498300,5.359498291015625,0.09163475036621094,0.05016040802001953,0.011052131652832031
1701886024343496200,5.37649609375,0.01801961660385132,0.07033014297485352,0.04127311706542969
1701886024360490800,5.39349072265625,0.005982875823974609,0.09954690933227539,0.0510711669921875
1701886024377482200,5.410482177734375,0.022709667682647705,0.07915639877319336,0.050228118896484375
1701886024394471400,5.427471435546875,0.08070629835128784,0.04390573501586914,0.0002994537353515625
1701886024411464400,5.44446435546875,0.1428869366645813,0.008765220642089844,-0.06389427185058594
1701886024428460500,5.46146044921875,0.23263591527938843,-0.005316257476806641,-0.10297584533691406
1701886024445452500,5.47845263671875,0.2237558364868164,-0.023348331451416016,-0.058846473693847656
1701886024462442200,5.495442138671875,0.16628426313400269,0.031113147735595703,0.014667510986328125
1701886024479437800,5.512437744140625,0.061472535133361816,0.08249044418334961,0.03400611877441406
1701886024496430600,5.5294306640625,-0.033276110887527466,0.06508970260620117,0.04267406463623047
1701886024513422800,5.5464228515625,-0.03842779994010925,0.02795267105102539,0.026114463806152344
1701886024530415400,5.563415283203125,0.05881905555725098,-0.00402069091796875,-0.02939891815185547
1701886024547408100,5.580408203125,0.1654132604598999,-0.030244827270507812,-0.0418243408203125
1701886024564401000,5.59740087890625,0.21507328748703003,-0.022638797760009766,-0.07164669036865234
1701886024581392100,5.61439208984375,0.1712832748889923,-0.023513317108154297,-0.07213020324707031
1701886024598386400,5.631386474609375,0.07519617676734924,0.0041065216064453125,-0.03351593017578125
1701886024615378200,5.648378173828125,-0.006538063287734985,-0.0022125244140625,-0.009521484375
1701886024632371500,5.665371337890625,-0.0564521849155426,-0.02663278579711914,-0.03788280487060547
1701886024649362400,5.682362548828125,0.008608520030975342,-0.03458690643310547,0.0005140304565429688
1701886024666356700,5.699356689453125,0.07776898145675659,-0.004706382751464844,0.015076637268066406
1701886024683348700,5.7163486328125,0.062430888414382935,0.0239105224609375,0.03479194641113281
1701886024700341500,5.733341552734375,-0.012424468994140625,0.04447793960571289,0.028867721557617188
1701886024717333800,5.750333740234375,-0.07981255650520325,0.011369705200195312,0.0164947509765625
1701886024734326300,5.767326171875,-0.07174605131149292,-0.02672433853149414,0.004027366638183594
1701886024751318800,5.78431884765625,-0.0036735236644744873,-0.054821014404296875,-0.003932952880859375
1701886024768312000,5.80131201171875,0.09243112802505493,-0.039237022399902344,-0.054931640625
1701886024785285600,5.81828564453125,0.13678359985351562,-0.022653579711914062,-0.07126045227050781
1701886024802296300,5.83529638671875,0.11242005228996277,0.013599872589111328,-0.0774221420288086
1701886024819286500,5.85228662109375,0.03380846977233887,0.026324748992919922,-0.058559417724609375
1701886024836284400,5.869284423828125,-0.00401991605758667,0.03533029556274414,0.003981590270996094
1701886024853273900,5.88627392578125,-0.019025802612304688,0.03470897674560547,0.08052730560302734
1701886024870267000,5.903266845703125,0.038940221071243286,0.051245689392089844,0.102142333984375
1701886024887258600,5.920258544921875,0.056116700172424316,0.03636932373046875,0.10365009307861328
1701886024904249900,5.937249755859375,0.056241750717163086,0.04363059997558594,0.022780418395996094
1701886024921244200,5.954244140625,0.02266964316368103,0.013319969177246094,-0.03850555419921875
1701886024938237000,5.97123681640625,0.07258075475692749,0.004271507263183594,-0.08516407012939453
1701886024955229700,5.988229736328125,0.11059844493865967,0.0061168670654296875,-0.06791400909423828
1701886024972219600,6.0052197265625,0.12440547347068787,0.009470939636230469,-0.03058910369873047
1701886024989214200,6.022214111328125,0.08296841382980347,0.03231334686279297,-0.02109813690185547
1701886025006207200,6.039207275390625,0.010885536670684814,0.04427146911621094,-0.011993408203125
1701886025023200000,6.056199951171875,-0.023051351308822632,0.03327751159667969,-0.031973838806152344
1701886025040193000,6.073193115234375,0.03309991955757141,0.014053821563720703,-0.04695701599121094
1701886025057185800,6.090185791015625,0.09527181088924408,0.0012569427490234375,-0.03260517120361328
1701886025074176800,6.1071767578125,0.12308108806610107,0.03148603439331055,-0.026907920837402344
1701886025091170000,6.124170166015625,0.08134469389915466,0.018110275268554688,0.02727222442626953
1701886025108152600,6.141152587890625,0.0006611645221710205,0.042630672454833984,0.01863384246826172
1701886025125155300,6.1581552734375,-0.0504998117685318,0.004031181335449219,0.03313446044921875
1701886025142148000,6.175148193359375,-0.01855628192424774,0.033400535583496094,0.009267807006835938
1701886025159139300,6.192139404296875,0.05495533347129822,0.019116878509521484,-0.019928932189941406
1701886025176134100,6.209134033203125,0.13170713186264038,0.05339670181274414,-0.05860328674316406
1701886025193125400,6.22612548828125,0.11591002345085144,0.04351186752319336,-0.07310295104980469
1701886025210116900,6.243116943359375,0.07834523916244507,0.029616355895996094,-0.07284927368164062
1701886025227112400,6.260112548828125,0.032611995935440063,0.02539825439453125,-0.004584312438964844
1701886025244103400,6.277103515625,-0.028371095657348633,0.0017066001892089844,0.0200653076171875
1701886025261095700,6.294095703125,-0.009793952107429504,0.034987449645996094,0.015166282653808594
1701886025278086400,6.31108642578125,0.03212553262710571,0.03355264663696289,0.03767204284667969
1701886025295080000,6.328079833984375,0.09670084714889526,0.04151296615600586,0.0023097991943359375
1701886025312074000,6.345073974609375,0.14216753840446472,0.01078033447265625,-0.013178825378417969
1701886025329065700,6.362065673828125,0.13858142495155334,0.009324073791503906,-0.023527145385742188
1701886025346059000,6.37905908203125,0.04621344804763794,0.006968498229980469,-0.0287017822265625
1701886025363051500,6.396051513671875,-0.021963834762573242,0.024558067321777344,-0.057723045349121094
1701886025380044000,6.4130439453125,-0.04149523377418518,0.03388023376464844,-0.038700103759765625
1701886025397036000,6.4300361328125,-0.014503329992294312,0.043548583984375,-0.02423095703125
1701886025414028000,6.447028076171875,0.041247397661209106,0.06231880187988281,-0.02021503448486328
1701886025431009000,6.464009033203125,0.07895427942276001,0.02349710464477539,0.0024576187133789062
1701886025448009700,6.481009765625,0.04536527395248413,0.007140636444091797,-0.012131690979003906
1701886025465004800,6.4980048828125,0.04987260699272156,-0.041132450103759766,-0.02768230438232422
1701886025481989000,6.514989013671875,0.09616374969482422,-0.031009674072265625,-0.05603790283203125
1701886025498991900,6.531991943359375,0.18356984853744507,-0.03754997253417969,0.0027303695678710938
1701886025515980800,6.548980712890625,0.1305234134197235,0.023224353790283203,-0.0088653564453125
1701886025532980500,6.56598046875,0.016769230365753174,0.04468250274658203,-0.020765304565429688
1701886025549969700,6.5829697265625,-0.07907348871231079,0.05651044845581055,-0.009242057800292969
1701886025566962200,6.599962158203125,-0.12848550081253052,0.037967681884765625,0.04943275451660156
1701886025583955000,6.616954833984375,-0.07265490293502808,0.028212547302246094,0.07735252380371094
1701886025600947200,6.633947265625,-0.03885778784751892,0.0133819580078125,0.05275440216064453
1701886025617940200,6.650940185546875,0.03598582744598389,-0.007061958312988281,0.003559112548828125
1701886025634922800,6.6679228515625,0.09052085876464844,-0.002780437469482422,-0.040711402893066406
1701886025651922400,6.68492236328125,0.12308010458946228,-0.0033311843872070312,-0.07034111022949219
1701886025668907300,6.7019072265625,0.1252143383026123,0.011076927185058594,-0.06978225708007812
1701886025685912800,6.718912841796875,0.07672733068466187,0.006974220275878906,-0.05034828186035156
1701886025702902800,6.73590283203125,0.0272824764251709,0.002315998077392578,-0.03984642028808594
1701886025719895600,6.7528955078125,0.06073001027107239,-0.009349346160888672,-0.010462760925292969
1701886025736887800,6.7698876953125,0.09961768984794617,0.016157150268554688,-0.014169692993164062
1701886025753877500,6.78687744140625,0.08971744775772095,0.017447471618652344,-0.05153656005859375
1701886025770873000,6.803873046875,0.06978198885917664,0.0331110954284668,-0.031586647033691406
1701886025787865900,6.820865966796875,0.05752366781234741,0.015361309051513672,-0.006276130676269531
1701886025804854800,6.837854736328125,0.0676276683807373,0.017329692840576172,0.013449668884277344
1701886025821851000,6.854850830078125,0.06932717561721802,0.03207254409790039,0.03328514099121094
1701886025838843600,6.87184375,0.06466394662857056,0.03704118728637695,0.01403045654296875
1701886025855836000,6.8888359375,0.04820847511291504,0.03576040267944336,-0.014780998229980469
1701886025872828200,6.905828125,0.019672363996505737,-0.009392738342285156,-0.0061054229736328125
1701886025889821200,6.9228212890625,0.046845436096191406,-0.003971576690673828,-0.049719810485839844
1701886025906811100,6.93981103515625,0.06681627035140991,-0.035663604736328125,-0.043717384338378906
1701886025923808500,6.95680859375,0.11297264695167542,-0.0034613609313964844,-0.051568031311035156
1701886025940791300,6.973791259765625,0.0981435477733612,0.01461935043334961,-0.03000640869140625
1701886025957791500,6.99079150390625,0.04813241958618164,0.028015613555908203,0.020842552185058594
1701886025974784000,7.007783935546875,-0.028212130069732666,0.044280052185058594,0.07083892822265625
1701886025991773400,7.0247734375,-0.0956251323223114,0.040022850036621094,0.07213020324707031
1701886026008758800,7.0417587890625,-0.11596408486366272,0.021506786346435547,0.048623085021972656
1701886026025761500,7.058761474609375,-0.0626259446144104,0.018630027770996094,-0.0037240982055664062
1701886026042754300,7.07575439453125,0.015736252069473267,0.011993885040283203,-0.007590293884277344
1701886026059731200,7.092731201171875,0.029463469982147217,0.019231319427490234,0.022644996643066406
1701886026076739800,7.10973974609375,0.015579581260681152,0.04016399383544922,0.0438079833984375
1701886026093731800,7.12673193359375,-0.025223076343536377,0.05154085159301758,0.08790206909179688
1701886026110722000,7.14372216796875,-0.052753448486328125,0.0572810173034668,0.0746755599975586
1701886026127718400,7.160718505859375,-0.05762508511543274,0.04815340042114258,0.055182456970214844
1701886026144711400,7.17771142578125,0.004097104072570801,0.07658767700195312,0.021511077880859375
1701886026161702100,7.1947021484375,0.024350076913833618,0.04208660125732422,0.024692535400390625
1701886026178693600,7.211693603515625,0.03939810395240784,0.05946969985961914,-0.014700889587402344
1701886026195688400,7.2286884765625,0.028218597173690796,0.009377002716064453,0.0030012130737304688
1701886026212679700,7.2456796875,0.07853493094444275,0.007185459136962891,-0.05106925964355469
1701886026229672700,7.262672607421875,0.17123857140541077,-0.02169656753540039,-0.033649444580078125
1701886026246665200,7.279665283203125,0.2184237241744995,0.017006874084472656,-0.06210803985595703
1701886026263658000,7.296657958984375,0.17037665843963623,0.01334381103515625,-0.07040023803710938
1701886026280649700,7.313649658203125,0.11344942450523376,0.04410123825073242,-0.06440353393554688
1701886026297641700,7.330641845703125,0.06295508146286011,0.035920143127441406,0.01871490478515625
1701886026314633000,7.347633056640625,0.034929484128952026,0.05009651184082031,0.052463531494140625
1701886026331620400,7.364620361328125,0.019591420888900757,0.029805660247802734,0.0763540267944336
1701886026348617700,7.38161767578125,0.040548622608184814,0.027101516723632812,0.030782699584960938
1701886026365615900,7.398615966796875,0.08933442831039429,0.00845956802368164,-0.034508705139160156
1701886026382600000,7.415599853515625,0.13500690460205078,-0.014452457427978516,-0.07536125183105469
1701886026399599900,7.432599853515625,0.1391376256942749,-0.02760171890258789,-0.11100578308105469
1701886026416589800,7.44958984375,0.1188746988773346,-0.024178028106689453,-0.1213521957397461
1701886026433585400,7.46658544921875,0.09186854958534241,-0.018994808197021484,-0.09226226806640625
1701886026450576100,7.483576171875,0.043811798095703125,-0.018649578094482422,-0.090911865234375
1701886026467568600,7.500568603515625,0.03172045946121216,-0.017807960510253906,-0.028051376342773438
1701886026484561000,7.517560791015625,0.0061397552490234375,-0.012688636779785156,-0.03259754180908203
1701886026501548000,7.534548095703125,-0.008328855037689209,-0.02595233917236328,-0.036721229553222656
1701886026518548700,7.551548828125,0.01446622610092163,-0.027978897094726562,-0.015855789184570312
1701886026535539000,7.5685390625,0.049036651849746704,-0.0013442039489746094,0.019414901733398438
1701886026552531000,7.585531005859375,0.031966060400009155,0.01941394805908203,0.030089378356933594
1701886026569523000,7.60252294921875,-0.036774277687072754,0.024394989013671875,0.03601837158203125
1701886026586517200,7.619517333984375,-0.09411546587944031,0.015182971954345703,0.036231040954589844
1701886026603509800,7.636509765625,-0.0791960060596466,0.0011172294616699219,0.04119396209716797
1701886026620501500,7.65350146484375,-0.009296506643295288,0.0011725425720214844,0.016752243041992188
1701886026637494300,7.670494384765625,0.05009844899177551,0.011551380157470703,-0.02612781524658203
1701886026654486800,7.68748681640625,0.0445462167263031,0.007685661315917969,-0.01597309112548828
1701886026671476500,7.7044765625,0.016779065132141113,0.023484230041503906,-0.00554656982421875
1701886026688471600,7.721471435546875,-0.005114316940307617,0.019722461700439453,0.03844165802001953
1701886026705447000,7.738447021484375,-0.042092591524124146,0.048521995544433594,0.058182716369628906
1701886026722456800,7.755456787109375,-0.055226296186447144,0.051987648010253906,0.03341102600097656
1701886026739449900,7.772449951171875,-0.01588517427444458,0.037062644958496094,-0.015212059020996094
1701886026756446500,7.789446533203125,0.08018437027931213,0.017656326293945312,-0.021390914916992188
1701886026773432800,7.806432861328125,0.14289245009422302,0.00879812240600586,-0.02134227752685547
1701886026790430200,7.82343017578125,0.1235177218914032,0.014263153076171875,-0.011351585388183594
1701886026807420200,7.840420166015625,0.0860787034034729,0.0378570556640625,0.0031528472900390625
1701886026824414700,7.857414794921875,0.02554112672805786,0.04677248001098633,0.012861251831054688
1701886026841405200,7.8744052734375,-0.00032570958137512207,0.04502677917480469,0.03182506561279297
1701886026858398000,7.89139794921875,0.015566140413284302,0.029227256774902344,0.03029918670654297
1701886026875390500,7.908390380859375,0.06666919589042664,0.028976917266845703,-0.0036745071411132812
1701886026892379400,7.92537939453125,0.12048566341400146,0.024040699005126953,-0.01381683349609375
1701886026909375500,7.94237548828125,0.12163430452346802,0.03876543045043945,-0.032978057861328125
1701886026926368000,7.959367919921875,0.04926609992980957,0.037465572357177734,-0.03275489807128906
1701886026943360800,7.97636083984375,-0.030361980199813843,0.035447120666503906,0.0004444122314453125
1701886026960342300,7.99334228515625,-0.0711529552936554,-0.005112648010253906,-0.010582923889160156
1701886026977345800,8.010345703125,0.015992581844329834,-0.029964923858642578,-0.036086082458496094
1701886026994338300,8.02733837890625,0.13884001970291138,-0.029235363006591797,-0.027571678161621094
1701886027011331300,8.044331298828125,0.16367775201797485,0.00029277801513671875,-0.046095848083496094
1701886027028323600,8.061323486328124,0.08130905032157898,0.01066446304321289,-0.058976173400878906
1701886027045315800,8.07831591796875,0.0016757547855377197,0.02304553985595703,-0.018423080444335938
1701886027062319400,8.0953193359375,-0.040313273668289185,0.025424480438232422,0.04615974426269531
1701886027079300600,8.112300537109375,-0.044614195823669434,0.02236461639404297,0.09027385711669922
1701886027096294100,8.129294189453125,-0.07301753759384155,0.03179311752319336,0.09019947052001953
1701886027113286400,8.146286376953125,-0.08321863412857056,0.029961585998535156,0.046001434326171875
1701886027130279000,8.16327880859375,-0.04366403818130493,0.01287698745727539,0.015599250793457031
1701886027147271400,8.180271484375,0.019118785858154297,0.00044155120849609375,-0.025434494018554688
1701886027164262000,8.197261962890625,0.07235610485076904,-0.010821819305419922,-0.08966732025146484
1701886027181261300,8.21426123046875,0.04877752065658569,-0.011944770812988281,-0.09899139404296875
1701886027198247400,8.231247314453125,0.03610283136367798,-0.015579700469970703,-0.09834480285644531
1701886027215237000,8.248237060546876,0.04666176438331604,0.010718822479248047,-0.03472137451171875
1701886027232223500,8.265223388671876,0.02307268977165222,0.03213787078857422,-0.014225006103515625
1701886027249227000,8.28222705078125,-0.0033098459243774414,0.03912782669067383,-0.0027980804443359375
1701886027266219800,8.2992197265625,0.0051063597202301025,0.05464506149291992,0.03643035888671875
1701886027283212500,8.316212646484376,0.03642749786376953,0.050626277923583984,0.05055046081542969
1701886027300204300,8.333204345703125,0.02267107367515564,0.04634714126586914,0.060402870178222656
1701886027317196800,8.35019677734375,0.012319177389144897,0.05567646026611328,0.036957740783691406
1701886027334190300,8.3671904296875,0.030282914638519287,0.06067657470703125,0.0026502609252929688
1701886027351182800,8.384182861328124,0.05897161364555359,0.05590629577636719,-0.01650524139404297
1701886027368174800,8.4011748046875,0.08412835001945496,0.046802520751953125,-0.001911163330078125
1701886027385167600,8.418167724609376,0.05643540620803833,0.037799835205078125,0.0031986236572265625
1701886027402157000,8.435156982421875,0.013613134622573853,0.042821407318115234,0.017688751220703125
1701886027419149600,8.452149658203124,0.01908174157142639,0.04796314239501953,0.013092994689941406
1701886027436148500,8.4691484375,0.07277345657348633,0.04349374771118164,0.037194252014160156
1701886027453137700,8.4861376953125,0.09155347943305969,0.04789400100708008,0.03695392608642578
1701886027470130700,8.503130615234374,0.08180674910545349,0.042258262634277344,0.022090911865234375
1701886027487126000,8.5201259765625,0.04276439547538757,0.06023406982421875,0.0070590972900390625
1701886027504113000,8.53711279296875,-0.0010291635990142822,0.03953218460083008,-0.007610321044921875
1701886027521108500,8.5541083984375,-0.015540450811386108,0.02285003662109375,-0.008641242980957031
1701886027538101000,8.57110107421875,0.009180068969726562,0.007015705108642578,-0.02008819580078125
1701886027555093800,8.58809375,0.03809916973114014,-0.009075641632080078,-0.025948524475097656
1701886027572085800,8.605085693359374,0.09441474080085754,-0.009204387664794922,-0.05050849914550781
1701886027589077500,8.622077392578126,0.1206347644329071,0.0015845298767089844,-0.030541419982910156
1701886027606071600,8.639071533203126,0.10444885492324829,0.03561258316040039,-0.020583152770996094
1701886027623060200,8.656060302734375,0.017966926097869873,0.020995616912841797,-0.020127296447753906
1701886027640055800,8.673055908203125,-0.04821580648422241,0.005975246429443359,-0.005219459533691406
1701886027657048800,8.690048828125,-0.05318856239318848,-0.00793600082397461,0.009435653686523438
1701886027674044000,8.7070439453125,-0.0026473701000213623,-0.002322673797607422,-0.0005388259887695312
1701886027691031800,8.72403173828125,0.04874688386917114,0.01696920394897461,-0.029138565063476562
1701886027708015900,8.741015869140625,0.06322956085205078,0.026993751525878906,-0.019298553466796875
1701886027725016000,8.75801611328125,0.04990231990814209,0.036427974700927734,0.009317398071289062
1701886027742011600,8.77501171875,0.0066596269607543945,0.011700630187988281,-0.005515098571777344
1701886027759004700,8.792004638671875,-0.008676737546920776,-0.017973899841308594,-0.04436206817626953
1701886027775996700,8.80899658203125,0.048187315464019775,-0.013700485229492188,-0.044648170471191406
1701886027792989200,8.8259892578125,0.08060973882675171,0.0005249977111816406,-0.054879188537597656
1701886027809981400,8.8429814453125,0.07967999577522278,0.012016773223876953,-0.09235572814941406
1701886027826975700,8.859975830078126,0.07555979490280151,0.02411031723022461,-0.06595516204833984
1701886027843967200,8.87696728515625,0.06240278482437134,0.032955169677734375,0.00348663330078125
1701886027860959500,8.89395947265625,0.05256721377372742,0.05594348907470703,0.07283496856689453
1701886027877952000,8.910951904296875,0.009002983570098877,0.04793262481689453,0.11727237701416016
1701886027894942000,8.92794189453125,-0.03213447332382202,0.05280256271362305,0.09886646270751953
1701886027911937300,8.944937255859376,-0.039414554834365845,0.04562711715698242,0.049643516540527344
1701886027928930000,8.961929931640626,-0.0033654868602752686,0.028708934783935547,-0.024599075317382812
1701886027945922600,8.978922607421875,0.06784439086914062,0.016650676727294922,-0.060194969177246094
1701886027962915600,8.99591552734375,0.12454003095626831,0.006834506988525391,-0.08941173553466797
1701886027979906600,9.012906494140625,0.11458927392959595,0.0028014183044433594,-0.06499099731445312
1701886027996900900,9.02990087890625,0.06541082262992859,-0.005497932434082031,-0.04943370819091797
1701886028013893000,9.04689306640625,0.010608166456222534,0.011386871337890625,-0.01851367950439453
1701886028030885600,9.0638857421875,-0.018145382404327393,0.01819324493408203,0.030971527099609375
1701886028047878000,9.0808779296875,-0.009647667407989502,0.03871297836303711,0.04141712188720703
1701886028064870700,9.09787060546875,0.00789099931716919,0.034764766693115234,0.022459983825683594
1701886028081852400,9.114852294921874,0.026028454303741455,0.024956226348876953,0.012785911560058594
1701886028098853600,9.131853515625,0.010507345199584961,0.010357856750488281,0.007902145385742188
1701886028115850500,9.1488505859375,0.00022971630096435547,0.0058422088623046875,-0.0062618255615234375
1701886028132830500,9.16583056640625,0.0038593411445617676,0.02174663543701172,-0.005279541015625
1701886028149833500,9.18283349609375,-0.0009782910346984863,0.03719663619995117,0.03368949890136719
1701886028166826500,9.199826416015625,-0.009578943252563477,0.050286293029785156,0.057175636291503906
1701886028183818500,9.216818603515625,-0.029959052801132202,0.03850603103637695,0.08981895446777344
1701886028200811300,9.233811279296875,-0.06372955441474915,0.05412626266479492,0.06836986541748047
1701886028217803800,9.2508037109375,-0.04947647452354431,0.031190872192382812,0.046733856201171875
1701886028234793200,9.267793212890625,0.0024169087409973145,0.02802276611328125,0.03509807586669922
1701886028251771600,9.284771728515626,0.05651554465293884,0.039730072021484375,0.027681350708007812
1701886028268783000,9.301783203125,0.03309071063995361,0.03652667999267578,-0.03171348571777344
1701886028285772500,9.3187724609375,-0.004109233617782593,0.015536785125732422,-0.046622276306152344
1701886028302764000,9.335763916015624,-0.012152045965194702,0.015005111694335938,-0.03264141082763672
1701886028319759000,9.352759033203125,0.009843438863754272,0.03396415710449219,-0.013695716857910156
1701886028336751900,9.369751953125,0.0365508496761322,0.038435935974121094,0.00455474853515625
1701886028353744600,9.38674462890625,0.07243368029594421,0.023645877838134766,0.013775825500488281
1701886028370737200,9.403737060546876,0.10242927074432373,0.018032073974609375,0.007848739624023438
1701886028387729200,9.420729248046875,0.11248001456260681,0.01686573028564453,-0.012011528015136719
1701886028404722400,9.437722412109375,0.06953197717666626,0.006103992462158203,-0.036083221435546875
1701886028421710800,9.4547109375,0.021101295948028564,0.01039886474609375,-0.07944679260253906
1701886028438708700,9.471708740234375,0.011252880096435547,0.011368274688720703,-0.05490684509277344
1701886028455689200,9.488689208984376,0.06288984417915344,0.017694950103759766,-0.025231361389160156
1701886028472692500,9.5056923828125,0.08228501677513123,0.02804422378540039,-0.019988059997558594
1701886028489684500,9.5226845703125,0.0695173442363739,0.019071578979492188,-0.043616294860839844
1701886028506678800,9.5396787109375,0.07044419646263123,0.005656242370605469,-0.009565353393554688
1701886028523670000,9.556669921875,0.0488983690738678,0.025464534759521484,-0.0042896270751953125
1701886028540660200,9.57366015625,-0.0014203190803527832,0.000934600830078125,-0.013531684875488281
1701886028557655600,9.590655517578124,-0.02109503746032715,-0.004834651947021484,-0.05719566345214844
1701886028574648300,9.6076484375,0.01804673671722412,-0.018486976623535156,-0.06218910217285156
1701886028591638000,9.624637939453125,0.06103861331939697,-0.006106853485107422,-0.04135894775390625
1701886028608636000,9.641635986328126,0.0890110433101654,0.03137540817260742,-0.03893852233886719
1701886028625617400,9.658617431640625,0.06574127078056335,0.05410432815551758,-0.0032835006713867188
1701886028642620400,9.675620361328125,0.014773815870285034,0.06129312515258789,0.05650806427001953
1701886028659610400,9.6926103515625,-0.05912715196609497,0.06261062622070312,0.1299886703491211
1701886028676603400,9.709603271484376,-0.11972200870513916,0.052781105041503906,0.12500953674316406
1701886028693596200,9.72659619140625,-0.07754296064376831,0.04655170440673828,0.08069801330566406
1701886028710589000,9.7435888671875,0.0315403938293457,0.02499866485595703,0.034995079040527344
1701886028727576800,9.760576904296874,0.12063917517662048,0.009050369262695312,-0.029109954833984375
1701886028744575000,9.777574951171875,0.14425218105316162,0.013287067413330078,-0.07288265228271484
1701886028761566200,9.794566162109374,0.08261710405349731,0.017589092254638672,-0.0722341537475586
1701886028778559000,9.81155908203125,0.0058450400829315186,0.028401851654052734,-0.06609630584716797
1701886028795551500,9.828551513671876,-0.03202545642852783,0.019872665405273438,-0.026796340942382812
1701886028812541000,9.845541015625,-0.013726651668548584,0.016258716583251953,-0.016489028930664062
1701886028829536500,9.86253662109375,0.019613832235336304,0.017839431762695312,-0.002132415771484375
1701886028846529500,9.879529541015625,0.06371140480041504,0.028169631958007812,0.017426490783691406
1701886028863521500,9.896521484375,0.07971611618995667,0.023656368255615234,0.036696434020996094
1701886028880514600,9.9135146484375,0.07424870133399963,0.02780771255493164,0.03155326843261719
1701886028897506800,9.9305068359375,0.03289896249771118,0.02232646942138672,-0.011843681335449219
1701886028914499600,9.94749951171875,0.0010719895362854004,-0.0017027854919433594,-0.030953407287597656
1701886028931489800,9.96448974609375,-0.014590054750442505,0.00376129150390625,-0.044251441955566406
1701886028948484600,9.981484619140625,0.02381265163421631,0.010316848754882812,-0.048575401306152344
1701886028965466600,9.998466552734374,0.06289249658584595,0.02285623550415039,-0.0037240982055664062
1701886028982468400,10.01546826171875,0.07226911187171936,0.030645370483398438,0.036403656005859375
1701886028999463000,10.032462890625,0.023491114377975464,0.03277730941772461,0.05722618103027344
1701886029016453000,10.049453125,-0.05692043900489807,0.039621829986572266,0.09736442565917969
1701886029033450200,10.0664501953125,-0.08627226948738098,0.05395698547363281,0.09352588653564453
1701886029050440400,10.0834404296875,-0.09503543376922607,0.04858541488647461,0.09794998168945312
1701886029067433000,10.100432861328125,-0.07208496332168579,0.04283475875854492,0.043755531311035156
1701886029084425200,10.11742529296875,-0.03473132848739624,0.032039642333984375,-0.019205093383789062
1701886029101421000,10.134421142578125,-0.014187753200531006,0.022377490997314453,-0.038817405700683594
1701886029118408200,10.151408203125,0.007232338190078735,0.02686023712158203,-0.025328636169433594
1701886029135399700,10.168399658203125,0.010924875736236572,0.026323318481445312,-0.011411666870117188
1701886029152391000,10.185390869140624,-0.018858671188354492,0.029772281646728516,0.022126197814941406
1701886029169393200,10.20239306640625,-0.012305468320846558,0.02840900421142578,-0.002712249755859375
1701886029186381000,10.219381103515625,0.01342955231666565,0.013400554656982422,-0.008914947509765625
1701886029203373300,10.236373291015624,0.062320321798324585,0.007637977600097656,-0.023921966552734375
1701886029220366000,10.253365966796874,0.0744878351688385,0.0021796226501464844,-0.010042190551757812
1701886029237358600,10.270358642578126,0.08690494298934937,0.015697002410888672,-0.0010786056518554688
1701886029254351600,10.2873515625,0.07017260789871216,0.024625778198242188,0.02237415313720703
1701886029271343400,10.30434326171875,0.038274675607681274,0.02799367904663086,0.03141975402832031
1701886029288336400,10.32133642578125,0.04250010848045349,0.03176403045654297,-0.0030546188354492188
1701886029305329000,10.338328857421875,0.023523002862930298,0.029265403747558594,-0.01832103729248047
1701886029322318600,10.355318603515625,0.027841955423355103,0.026070594787597656,-0.06333732604980469
1701886029339314000,10.37231396484375,-0.008503645658493042,-0.020261287689208984,-0.08450698852539062
1701886029356306700,10.389306640625,0.04176822304725647,-0.0698542594909668,-0.1436786651611328
1701886029373299200,10.40629931640625,0.1473143994808197,-0.062272071838378906,-0.12861251831054688
1701886029390292000,10.4232919921875,0.19801408052444458,-0.038210391998291016,-0.059166908264160156
1701886029407284200,10.4402841796875,0.11078840494155884,0.04288291931152344,-0.02671527862548828
1701886029424277200,10.45727734375,-0.050472795963287354,0.06087541580200195,-0.0032567977905273438
1701886029441259000,10.474259033203126,-0.16183681786060333,0.0645756721496582,0.057281494140625
1701886029458262800,10.4912626953125,-0.14846593141555786,0.07211112976074219,0.14020538330078125
1701886029475254300,10.508254150390625,-0.08796313405036926,0.05752706527709961,0.15372085571289062
1701886029492247600,10.52524755859375,0.0005061924457550049,0.04111433029174805,0.1083526611328125
1701886029509228500,10.542228515625,0.0726410448551178,0.03401899337768555,0.03894805908203125
1701886029526233600,10.559233642578125,0.12479838728904724,0.012852668762207031,-0.005944252014160156
1701886029543224800,10.576224853515624,0.12432295083999634,0.026531219482421875,-0.044045448303222656
1701886029560217300,10.59321728515625,0.07730206847190857,0.04602766036987305,-0.024717330932617188
1701886029577209300,10.610209228515625,-0.025000572204589844,0.04560422897338867,-0.009137153625488281
1701886029594203600,10.62720361328125,-0.060924023389816284,0.05535602569580078,0.010035514831542969
1701886029611185200,10.64418505859375,-0.03972145915031433,0.02715158462524414,0.02943706512451172
1701886029628188200,10.661188232421875,0.018430769443511963,0.04639148712158203,0.024089813232421875
1701886029645177600,10.678177490234376,0.06227278709411621,0.051186561584472656,0.003947257995605469
1701886029662173400,10.69517333984375,0.09364011883735657,0.03638315200805664,-0.0011920928955078125
1701886029679165400,10.71216552734375,0.0822296142578125,0.022143840789794922,0.03708934783935547
1701886029696158500,10.729158447265625,0.0593334436416626,0.016845703125,0.041893959045410156
1701886029713133600,10.746133544921875,-0.0023005008697509766,0.016634464263916016,0.027988433837890625
1701886029730143700,10.763143798828125,-0.04474160075187683,0.0117340087890625,-0.009805679321289062
1701886029747136000,10.780135986328125,-0.008854657411575317,0.04991006851196289,-0.00037670135498046875
1701886029764129000,10.79712890625,0.02756902575492859,0.06833314895629883,-0.011069297790527344
1701886029781120500,10.81412060546875,0.044072479009628296,0.08176374435424805,-0.035999298095703125
1701886029798114000,10.831114013671876,0.042019784450531006,0.07045173645019531,-0.08500480651855469
1701886029815105800,10.848105712890625,0.05474269390106201,0.045687198638916016,-0.1143341064453125
1701886029832098800,10.865098876953125,0.09218616783618927,0.02711629867553711,-0.07640361785888672
1701886029849091600,10.882091552734375,0.0710471123456955,0.03765535354614258,-0.03221607208251953
1701886029866084400,10.89908447265625,0.045397788286209106,0.03746366500854492,0.00145721435546875
1701886029883076600,10.91607666015625,0.07269522547721863,0.004061222076416016,0.034935951232910156
1701886029900068000,10.933068115234375,0.12210237979888916,0.003749847412109375,0.05805206298828125
1701886029917062700,10.950062744140626,0.11597651243209839,0.01163339614868164,0.027984619140625
1701886029934054700,10.9670546875,0.04676249623298645,0.016642093658447266,-0.04076957702636719
1701886029951046700,10.984046630859375,0.012146145105361938,0.008509635925292969,-0.09576797485351562
1701886029968040000,11.0010400390625,0.019770845770835876,-0.003513336181640625,-0.13069915771484375
1701886029985032400,11.018032470703124,0.05606094002723694,-0.01412343978881836,-0.13605022430419922
1701886030002025200,11.035025146484376,0.10686229169368744,-0.003921031951904297,-0.16530609130859375
1701886030019014400,11.052014404296875,0.1555531919002533,-0.016677379608154297,-0.11230850219726562
1701886030036012500,11.069012451171876,0.17528052628040314,-0.004462242126464844,-0.05772113800048828
1701886030052991700,11.08599169921875,0.13561666011810303,-0.00034236907958984375,0.017212867736816406
1701886030069995500,11.10299560546875,0.07695484161376953,0.04117918014526367,0.019698143005371094
1701886030086987300,11.1199873046875,-0.005425214767456055,0.0438389778137207,0.06039714813232422
1701886030103980300,11.136980224609376,-0.08277234435081482,0.05852031707763672,0.013487815856933594
1701886030120972500,11.15397265625,-0.1076916754245758,0.017776012420654297,-0.0067424774169921875
1701886030137965800,11.1709658203125,-0.016553431749343872,-0.026549816131591797,-0.06114387512207031
1701886030154952200,11.1879521484375,0.14836084842681885,-0.03870868682861328,-0.05650901794433594
1701886030171953400,11.204953369140625,0.240737646818161,-0.004500389099121094,-0.02039623260498047
1701886030188943000,11.221943115234374,0.16053235530853271,0.071929931640625,0.007575035095214844
1701886030205936000,11.23893603515625,-0.060657352209091187,0.09418153762817383,0.07391643524169922
1701886030222925000,11.255925048828125,-0.2574566602706909,0.08060503005981445,0.1480112075805664
1701886030239921200,11.272921142578125,-0.29993534088134766,0.06058931350708008,0.23444366455078125
1701886030256913400,11.289913330078125,-0.169122576713562,0.02525806427001953,0.20299243927001953
1701886030273906700,11.30690673828125,0.06699448823928833,0.008533954620361328,0.12730789184570312
1701886030290898400,11.3238984375,0.1920032799243927,-0.028133869171142578,0.042583465576171875
1701886030307887400,11.340887451171875,0.19875559210777283,-0.03035879135131836,-0.011684417724609375
1701886030324887800,11.3578876953125,0.06922915577888489,-0.013211250305175781,-0.05919647216796875
1701886030341872600,11.37487255859375,-0.0868903398513794,-0.008237361907958984,-0.04321002960205078
1701886030358859800,11.39185986328125,-0.17763982713222504,-0.025217533111572266,-0.04574012756347656
1701886030375861800,11.40886181640625,-0.14434200525283813,-0.016510009765625,0.004509925842285156
1701886030392854300,11.425854248046875,-0.09476408362388611,-0.004256725311279297,0.06291961669921875
1701886030409847300,11.442847412109375,-0.06130576133728027,0.006313323974609375,0.07774066925048828
1701886030426839600,11.459839599609374,-0.07460582256317139,-0.012598514556884766,0.07768917083740234
1701886030443832000,11.47683203125,-0.05591610074043274,-0.021398544311523438,0.05370521545410156
1701886030460824600,11.493824462890625,-0.0250931978225708,-0.020879268646240234,0.029407501220703125
1701886030477817300,11.5108173828125,-0.03867131471633911,0.017311573028564453,0.0011911392211914062
1701886030494809600,11.5278095703125,-0.09803539514541626,0.039891719818115234,-0.046988487243652344
1701886030511802600,11.544802734375,-0.09213206171989441,0.04765796661376953,-0.0865621566772461
1701886030528794600,11.561794677734374,-0.01758021116256714,0.022638320922851562,-0.10754871368408203
1701886030545781800,11.57878173828125,0.07939420640468597,0.01660776138305664,-0.13301753997802734
1701886030562783000,11.595782958984374,0.13727305829524994,-0.002074718475341797,-0.14822101593017578
1701886030579773000,11.61277294921875,0.18463805317878723,0.024488449096679688,-0.13299179077148438
1701886030596765200,11.62976513671875,0.2126167118549347,0.03872823715209961,-0.06325054168701172
1701886030613758000,11.646758056640625,0.1928441822528839,0.08099222183227539,0.021390914916992188
1701886030630750200,11.663750244140624,0.1251075565814972,0.11189508438110352,0.07622623443603516
1701886030647743200,11.6807431640625,0.06549207866191864,0.1216278076171875,0.07685565948486328
1701886030664732700,11.697732666015625,0.03597185015678406,0.10575199127197266,0.023298263549804688
1701886030681728500,11.714728515625,0.10354293882846832,0.1042795181274414,-0.040686607360839844
1701886030698710000,11.7317099609375,0.20916946232318878,0.0698385238647461,-0.08578300476074219
1701886030715713300,11.74871337890625,0.25274747610092163,0.07933378219604492,-0.09529972076416016
1701886030732700700,11.76570068359375,0.1938515603542328,0.07558727264404297,-0.06109905242919922
1701886030749700900,11.782700927734375,0.07846461236476898,0.08497953414916992,0.007760047912597656
1701886030766690800,11.79969091796875,0.0014541000127792358,0.07542276382446289,0.07541084289550781
1701886030783683800,11.816683837890626,0.0036237239837646484,0.041405677795410156,0.0943288803100586
1701886030800676400,11.83367626953125,0.045016080141067505,0.0362238883972168,0.11760711669921875
1701886030817669400,11.85066943359375,0.08876100182533264,0.0541996955871582,0.08783531188964844
1701886030834661400,11.867661376953125,0.06085401773452759,0.06676959991455078,0.07324409484863281
1701886030851654000,11.88465380859375,-0.05005517601966858,0.05840921401977539,0.07223987579345703
1701886030868646400,11.901646484375,-0.19400551915168762,0.0684976577758789,-0.0007781982421875
1701886030885639700,11.9186396484375,-0.2172955870628357,0.020815372467041016,-0.06567668914794922
1701886030902631200,11.935631103515625,-0.09085127711296082,-0.005801677703857422,-0.09270858764648438
1701886030919624200,11.952624267578125,0.06415373086929321,-0.03925752639770508,-0.0893564224243164
1701886030936603400,11.969603271484376,0.10369107127189636,-0.00901937484741211,-0.06498908996582031
1701886030953610000,11.98660986328125,0.030355751514434814,0.007712841033935547,-0.03836345672607422
1701886030970601700,12.003601806640624,-0.07354605197906494,0.015545845031738281,0.04101848602294922
1701886030987594800,12.0205947265625,-0.13366663455963135,0.023482799530029297,0.15393829345703125
1701886031004576800,12.03757666015625,-0.13802888989448547,0.024385452270507812,0.21706390380859375
1701886031021580300,12.054580322265625,-0.13018196821212769,0.022521495819091797,0.18728160858154297
1701886031038572500,12.071572509765625,-0.10530570149421692,0.009014606475830078,0.09309196472167969
1701886031055562000,12.08856201171875,-0.04584002494812012,-0.010036945343017578,-0.025518417358398438
1701886031072557600,12.1055576171875,0.03061327338218689,-0.04187726974487305,-0.10017871856689453
1701886031089550300,12.12255029296875,0.060861408710479736,-0.024575233459472656,-0.11571502685546875
1701886031106542600,12.13954248046875,-0.008351624011993408,-0.024609088897705078,-0.11041831970214844
1701886031123535600,12.15653564453125,-0.08288419246673584,-0.005249500274658203,-0.0902566909790039
1701886031140528000,12.173528076171875,-0.05570545792579651,-0.004292964935302734,-0.056270599365234375
1701886031157521000,12.19052099609375,0.015260368585586548,-0.02694988250732422,-0.008359909057617188
1701886031174513000,12.207512939453125,0.10946968197822571,-0.029841899871826172,0.005474090576171875
1701886031191504000,12.22450390625,0.14067384600639343,-0.014406681060791016,0.015612602233886719
1701886031208498400,12.24149853515625,0.128387451171875,-0.01447916030883789,0.020307540893554688
1701886031225491500,12.258491455078126,0.07523548603057861,-0.04405641555786133,0.006045341491699219
1701886031242479900,12.27547998046875,0.037973225116729736,-0.04925823211669922,-0.041957855224609375
1701886031259476000,12.29247607421875,0.028942465782165527,-0.06316804885864258,-0.08464241027832031
1701886031276468700,12.30946875,0.040802061557769775,-0.04287290573120117,-0.1173849105834961
1701886031293461500,12.32646142578125,0.049761682748794556,-0.031103134155273438,-0.11127471923828125
1701886031310452700,12.34345263671875,0.026543915271759033,-0.013793468475341797,-0.10471343994140625
1701886031327446500,12.360446533203126,0.010865509510040283,-0.005743503570556641,-0.07338905334472656
1701886031344439300,12.377439208984375,-0.011106520891189575,-0.01672220230102539,-0.08561134338378906
1701886031361433900,12.394433837890626,-0.03736892342567444,-0.027500152587890625,-0.07856369018554688
1701886031378423800,12.411423828125,-0.05668047070503235,-0.024571895599365234,-0.057282447814941406
1701886031395410200,12.42841015625,-0.016092687845230103,-0.001194000244140625,-0.0308685302734375
1701886031412409600,12.44540966796875,0.04440140724182129,-0.0002770423889160156,0.02420806884765625
1701886031429401600,12.462401611328126,0.10080060362815857,0.02817535400390625,0.055701255798339844
1701886031446395100,12.47939501953125,0.08318030834197998,0.04564046859741211,0.02418041229248047
1701886031463387100,12.49638720703125,0.03235343098640442,0.05764484405517578,-0.021516799926757812
1701886031480380000,12.5133798828125,-0.017405718564987183,0.05091428756713867,-0.05802726745605469
1701886031497371600,12.53037158203125,-0.0037147700786590576,0.05999183654785156,-0.055390357971191406
1701886031514365200,12.547365234375,0.015435993671417236,0.06508016586303711,-0.009196281433105469
1701886031531357700,12.564357666015624,0.034646421670913696,0.09345149993896484,0.01265716552734375
1701886031548350000,12.581349853515626,0.03661930561065674,0.10138845443725586,0.04840087890625
1701886031565340000,12.59833984375,0.05822065472602844,0.09032869338989258,0.07847118377685547
1701886031582335000,12.6153349609375,0.09107816219329834,0.07038402557373047,0.0805654525756836
1701886031599328000,12.632327880859375,0.03633067011833191,0.08788681030273438,-0.027398109436035156
1701886031616320500,12.649320556640625,0.027387619018554688,0.11178016662597656,-0.028525352478027344
1701886031633313300,12.666313232421874,0.05142584443092346,0.1205892562866211,0.0643157958984375
1701886031650305500,12.683305419921876,0.07198524475097656,0.08898544311523438,0.07502269744873047
1701886031667298300,12.70029833984375,0.09542465209960938,0.05238914489746094,0.06591033935546875
1701886031684290800,12.717290771484375,0.010193109512329102,0.055318355560302734,0.03014373779296875
1701886031701286400,12.734286376953126,0.006614625453948975,0.1037592887878418,0.03418254852294922
1701886031718273000,12.75127294921875,-0.01681417226791382,0.13704156875610352,0.14268016815185547
1701886031735268600,12.7682685546875,-0.052132368087768555,0.1486358642578125,0.20226097106933594
1701886031752258000,12.785258056640625,-0.13962140679359436,0.11365652084350586,0.2500896453857422
1701886031769254000,12.80225390625,-0.15410292148590088,0.09127998352050781,0.2046337127685547
1701886031786239700,12.81923974609375,-0.13206925988197327,0.07658100128173828,0.1243276596069336
1701886031803227400,12.836227294921875,-0.04636451601982117,0.06152009963989258,0.048168182373046875
1701886031820224300,12.853224365234375,0.027306407690048218,0.017586708068847656,0.0005502700805664062
1701886031837225200,12.87022509765625,0.05994260311126709,0.0170440673828125,-0.026788711547851562
1701886031854217200,12.88721728515625,0.06274867057800293,-0.0013976097106933594,-0.019820213317871094
1701886031871209500,12.90420947265625,0.025082677602767944,0.00014495849609375,-0.06970596313476562
1701886031888202000,12.921201904296876,0.016373276710510254,-0.01669931411743164,-0.07125663757324219
1701886031905194800,12.93819482421875,0.027401119470596313,-0.008539199829101562,-0.07216930389404297
1701886031922186500,12.9551865234375,0.03891834616661072,-0.004624366760253906,-0.058411598205566406
1701886031939179000,12.972178955078125,0.056062132120132446,-0.00524139404296875,-0.04450702667236328
1701886031956174300,12.98917431640625,0.04784208536148071,-0.006066322326660156,-0.05464935302734375
1701886031973161000,13.006160888671875,0.029490619897842407,-0.016515731811523438,-0.0839242935180664
1701886031990159600,13.02315966796875,0.03373068571090698,-0.016080379486083984,-0.11716175079345703
1701886032007151900,13.04015185546875,0.07774585485458374,-0.014305591583251953,-0.06823158264160156
1701886032024142300,13.057142333984375,0.10749998688697815,0.015984535217285156,-0.029595375061035156
1701886032041135400,13.07413525390625,0.07392740249633789,0.007683753967285156,-0.037789344787597656
1701886032058127600,13.091127685546875,0.043487370014190674,0.014254570007324219,-0.04622936248779297
1701886032075117300,13.108117431640625,0.04768538475036621,0.011337757110595703,-0.02590179443359375
1701886032092113000,13.12511279296875,0.051939576864242554,0.00876760482788086,0.004206657409667969
1701886032109115100,13.142115234375,0.046649932861328125,0.0010466575622558594,0.038878440856933594
1701886032126098000,13.159097900390625,0.02660280466079712,0.0018391609191894531,0.05412006378173828
1701886032143087600,13.176087646484374,0.02535325288772583,-0.026218891143798828,0.05934906005859375
1701886032160083200,13.193083251953125,0.013634860515594482,-0.0401763916015625,0.05009746551513672
1701886032177076200,13.210076171875,0.025289803743362427,-0.039209842681884766,0.055568695068359375
1701886032194068200,13.227068115234376,-0.038816899061203,-0.02816152572631836,0.057160377502441406
1701886032211061200,13.244061279296876,-0.12832483649253845,-0.00229644775390625,0.0015964508056640625
1701886032228053500,13.261053466796875,-0.19250227510929108,0.029098033905029297,-0.019647598266601562
1701886032245055000,13.278054931640625,-0.18374556303024292,0.0426640510559082,-0.027120590209960938
1701886032262033200,13.295033203125,-0.18597126007080078,0.045497894287109375,-0.035040855407714844
1701886032279033900,13.312033935546875,-0.156706303358078,0.053023338317871094,-0.048493385314941406
1701886032296023800,13.32902392578125,-0.07374206185340881,0.04143238067626953,-0.014108657836914062
1701886032313017000,13.34601708984375,0.008945077657699585,0.04472827911376953,0.011301040649414062
1701886032330008000,13.363008056640625,0.03269118070602417,0.03733682632446289,0.031038284301757812
1701886032347002600,13.380002685546875,0.029043138027191162,0.00982666015625,0.046334266662597656
1701886032363992000,13.396991943359374,0.07188209891319275,0.00815439224243164,0.042938232421875
1701886032380989400,13.413989501953125,0.08538800477981567,0.030641555786132812,0.0927591323852539
1701886032397979600,13.430979736328124,0.05879199504852295,0.10929107666015625,0.07999420166015625
1701886032414961700,13.447961669921876,-0.02447807788848877,0.15736913681030273,0.062076568603515625
1701886032431954400,13.464954345703125,-0.06706856191158295,0.1303558349609375,0.007350921630859375
1701886032448957700,13.481957763671875,-0.000009655952453613281,0.06482791900634766,-0.08677196502685547
1701886032465946600,13.498946533203124,0.16444821655750275,0.006403446197509766,-0.11295032501220703
1701886032482942500,13.5159423828125,0.2959582805633545,-0.0016241073608398438,-0.13265037536621094
1701886032499935000,13.53293505859375,0.2869287133216858,0.031020164489746094,-0.12531185150146484
1701886032516928000,13.549927978515624,0.1563434600830078,0.06067991256713867,-0.03396129608154297
1701886032533920000,13.566919921875,0.013741344213485718,0.10427618026733398,0.10050773620605469
1701886032550912800,13.583912841796876,-0.13127413392066956,0.12087249755859375,0.26654052734375
1701886032567905500,13.600905517578125,-0.26356303691864014,0.1093435287475586,0.2812156677246094
1701886032584895200,13.617895263671874,-0.24520692229270935,0.08546686172485352,0.24897098541259766
1701886032601890600,13.634890625,-0.14270666241645813,0.07389259338378906,0.15254592895507812
1701886032618883300,13.65188330078125,-0.01655539870262146,0.040027618408203125,0.025217056274414062
1701886032635875600,13.66887548828125,0.06465719640254974,0.010838031768798828,-0.0968475341796875
1701886032652866000,13.685865966796875,0.05667336285114288,-0.006206035614013672,-0.18324756622314453
1701886032669858000,13.702858154296875,-0.003436833620071411,0.0034275054931640625,-0.21876049041748047
1701886032686856200,13.719856201171876,-0.05771110951900482,0.013259410858154297,-0.19893360137939453
1701886032703843600,13.736843505859374,-0.04813946783542633,0.03972768783569336,-0.091827392578125
1701886032720841700,13.753841796875,-0.001988530158996582,0.0667877197265625,0.0008535385131835938
1701886032737831200,13.7708310546875,0.034857675433158875,0.05944061279296875,0.05884361267089844
1701886032754822100,13.787822265625,0.07559728622436523,0.05636739730834961,0.12673664093017578
1701886032771818200,13.804818359375,0.08750809729099274,0.027954578399658203,0.1884908676147461
1701886032788809500,13.8218095703125,0.007942214608192444,0.03571128845214844,0.12140464782714844
1701886032805791000,13.838791015625,-0.0952221155166626,0.038799285888671875,0.06897163391113281
1701886032822794200,13.855794189453125,-0.14607033133506775,0.07505178451538086,0.02997303009033203
1701886032839786200,13.8727861328125,-0.1346130073070526,0.07725143432617188,0.022828102111816406
1701886032856780500,13.889780517578124,-0.0738830417394638,0.07445526123046875,0.035266876220703125
1701886032873772000,13.90677197265625,0.0410844087600708,0.06745338439941406,0.02802562713623047
1701886032890764800,13.923764892578125,0.1532159298658371,0.07416629791259766,-0.00885009765625
1701886032907757600,13.940757568359375,0.2163478583097458,0.08027076721191406,-0.020577430725097656
1701886032924750000,13.95775,0.20003128051757812,0.0719609260559082,-0.013214111328125
1701886032941742300,13.974742431640625,0.15090395510196686,0.06319141387939453,-0.00615692138671875
1701886032958735000,13.991735107421874,0.10586996376514435,0.05473613739013672,-0.0030765533447265625
1701886032975724500,14.008724609375,0.10219646990299225,0.06979608535766602,0.004360198974609375
1701886032992721000,14.025720947265626,0.13391728699207306,0.04724407196044922,-0.0034246444702148438
1701886033009712600,14.042712646484375,0.12499703466892242,0.03787374496459961,-0.0204925537109375
1701886033026705700,14.05970556640625,0.11635807156562805,0.003845691680908203,-0.057129859924316406
1701886033043698000,14.076697998046875,0.1268627792596817,-0.024455547332763672,-0.1123647689819336
1701886033060687000,14.09368701171875,0.1914651095867157,-0.0594325065612793,-0.051560401916503906
1701886033077683000,14.110682861328126,0.16322050988674164,-0.040955543518066406,-0.013560295104980469
1701886033094676700,14.1276767578125,0.08116023242473602,-0.026952266693115234,-0.022609710693359375
1701886033111667700,14.144667724609375,-0.02902977168560028,-0.017690181732177734,-0.011541366577148438
1701886033128661500,14.16166162109375,-0.11546170711517334,0.015873432159423828,-0.034338951110839844
1701886033145653000,14.178653076171875,-0.178070068359375,0.02099466323852539,-0.033400535583496094
1701886033162643200,14.195643310546876,-0.2635834515094757,0.04391336441040039,-0.07160186767578125
1701886033179638500,14.212638427734374,-0.24864938855171204,-0.0024995803833007812,-0.07842731475830078
1701886033196631600,14.229631591796876,-0.12939214706420898,-0.059093475341796875,-0.11121273040771484
1701886033213613000,14.246613037109375,0.03134898841381073,-0.12398147583007812,-0.1342172622680664
1701886033230616600,14.263616455078125,0.1674545854330063,-0.11408376693725586,-0.18279743194580078
1701886033247609300,14.280609375,0.1810697615146637,-0.08773422241210938,-0.1955575942993164
1701886033264602000,14.29760205078125,0.08264316618442535,-0.07439470291137695,-0.19739246368408203
1701886033281586200,14.314586181640625,-0.042241066694259644,-0.08910322189331055,-0.14597415924072266
1701886033298587100,14.331587158203124,-0.06302078068256378,-0.10311126708984375,-0.08465194702148438
1701886033315579400,14.348579345703126,0.04652312397956848,-0.09084033966064453,-0.048259735107421875
1701886033332572400,14.365572509765625,0.19532334804534912,-0.048343658447265625,-0.04364776611328125
1701886033349564000,14.38256396484375,0.2391788214445114,0.0031366348266601562,-0.043679237365722656
1701886033366558200,14.39955810546875,0.17120887339115143,0.03898048400878906,-0.014252662658691406
1701886033383550000,14.416550048828125,0.0029155313968658447,0.04488325119018555,0.014896392822265625
1701886033400543000,14.43354296875,-0.15240229666233063,0.0597081184387207,0.01962757110595703
1701886033417534200,14.4505341796875,-0.13711154460906982,0.07091665267944336,0.023548126220703125
1701886033434528800,14.46752880859375,-0.016688421368598938,0.08788585662841797,0.008074760437011719
1701886033451518000,14.48451806640625,0.13029450178146362,0.10497808456420898,0.0017538070678710938
1701886033468513000,14.501512939453125,0.20515303313732147,0.10733938217163086,0.03889656066894531
1701886033485502200,14.518502197265626,0.13894137740135193,0.1173105239868164,0.07192707061767578
1701886033502498600,14.53549853515625,0.012788504362106323,0.11685037612915039,0.0852212905883789
1701886033519490600,14.552490478515624,-0.0750405490398407,0.12580156326293945,0.11756038665771484
1701886033536483300,14.5694833984375,-0.08931535482406616,0.13488101959228516,0.10181331634521484
1701886033553476000,14.58647607421875,-0.04194158315658569,0.1437830924987793,0.11794757843017578
1701886033570468400,14.60346826171875,-0.012859046459197998,0.15001773834228516,0.12856483459472656
1701886033587461000,14.620461181640625,-0.00463905930519104,0.1397542953491211,0.13236522674560547
1701886033604437200,14.637437255859375,-0.01855921745300293,0.09939336776733398,0.13584423065185547
1701886033621443300,14.654443359375,-0.015999674797058105,0.10136890411376953,0.057559967041015625
1701886033638439000,14.67143896484375,0.05296775698661804,0.08024215698242188,0.012359619140625
1701886033655431700,14.688431640625,0.15935149788856506,0.09815311431884766,-0.003627777099609375
1701886033672421000,14.705421142578125,0.14320889115333557,0.09041070938110352,0.057219505310058594
1701886033689416400,14.72241650390625,0.00019446015357971191,0.021565914154052734,0.07800483703613281
1701886033706409000,14.739408935546875,-0.1115385890007019,-0.0826563835144043,0.011015892028808594
1701886033723401700,14.756401611328124,0.007129490375518799,-0.17032384872436523,-0.056670188903808594
1701886033740391700,14.7733916015625,0.1811913549900055,-0.13338804244995117,-0.12142753601074219
1701886033757389600,14.7903896484375,0.2138288915157318,-0.04778003692626953,-0.14536285400390625
1701886033774379500,14.807379638671875,0.023599714040756226,-0.036194801330566406,-0.18306350708007812
1701886033791372300,14.824372314453125,-0.13579502701759338,-0.115875244140625,-0.1649465560913086
1701886033808365000,14.841364990234375,-0.14920595288276672,-0.11224603652954102,-0.21837806701660156
1701886033825357000,14.858357177734375,0.010679364204406738,-0.11995887756347656,-0.26659488677978516
1701886033842350000,14.87535009765625,0.21835657954216003,-0.10951995849609375,-0.27436161041259766
1701886033859341800,14.892341796875,0.3927631676197052,-0.12080717086791992,-0.30953025817871094
1701886033876336400,14.90933642578125,0.3180888295173645,-0.07337045669555664,-0.2180490493774414
1701886033893327600,14.92632763671875,0.04526782035827637,-0.00867605209350586,0.03557586669921875
1701886033910308600,14.94330859375,-0.2582463324069977,0.09307479858398438,0.2834014892578125
1701886033927310300,14.960310302734374,-0.49112868309020996,0.11356353759765625,0.4365806579589844
1701886033944308500,14.97730859375,-0.4198126196861267,0.1259598731994629,0.48331356048583984
1701886033961297700,14.994297607421874,-0.2545797526836395,0.08521509170532227,0.38272571563720703
1701886033978290700,15.011290771484376,-0.015172600746154785,0.08930492401123047,0.18817424774169922
1701886033995280100,15.028280029296875,0.08486148715019226,0.047756195068359375,-0.002178192138671875
1701886034012276200,15.045276123046875,0.05633723735809326,0.05341672897338867,-0.11877822875976562
1701886034029268500,15.0622685546875,-0.04996234178543091,0.004689693450927734,-0.1811227798461914
1701886034046261000,15.079260986328125,-0.11888387799263,-0.021082401275634766,-0.15944576263427734
1701886034063250400,15.09625048828125,-0.11436274647712708,0.000102996826171875,-0.08349609375
1701886034080246500,15.11324658203125,-0.09436523914337158,0.0555567741394043,0.007447242736816406
1701886034097238000,15.130238037109375,-0.12143540382385254,0.07478713989257812,0.06828975677490234
1701886034114232000,15.147232177734375,-0.07342132925987244,0.054375648498535156,0.08888435363769531
1701886034131224000,15.16422412109375,-0.015415608882904053,0.027743816375732422,0.08482646942138672
1701886034148206300,15.181206298828124,0.07204976677894592,0.009219169616699219,0.016546249389648438
1701886034165200000,15.198199951171874,0.15372276306152344,0.024361133575439453,-0.1268463134765625
1701886034182198500,15.215198486328125,0.20627209544181824,0.03280830383300781,-0.19235992431640625
1701886034199194400,15.2321943359375,0.22165021300315857,0.05392265319824219,-0.18314361572265625
1701886034216187400,15.2491875,0.16804289817810059,0.07283592224121094,-0.07143306732177734
1701886034233179100,15.26617919921875,0.08759161829948425,0.10760116577148438,0.07110881805419922
1701886034250171400,15.28317138671875,0.000549018383026123,0.15160179138183594,0.16502761840820312
1701886034267165700,15.300165771484375,-0.060494035482406616,0.19847726821899414,0.20997238159179688
1701886034284157700,15.31715771484375,-0.07563245296478271,0.22786951065063477,0.21849727630615234
1701886034301149700,15.334149658203126,-0.09457355737686157,0.1852588653564453,0.22858333587646484
1701886034318139600,15.3511396484375,-0.13955408334732056,0.10462284088134766,0.1925516128540039
1701886034335138800,15.368138916015624,-0.11530554294586182,0.06478261947631836,0.03484344482421875
1701886034352128000,15.3851279296875,0.003567129373550415,0.030460834503173828,-0.06608009338378906
1701886034369120000,15.4021201171875,0.1609053611755371,0.022803306579589844,-0.16065311431884766
1701886034386113000,15.419113037109375,0.23140102624893188,-0.012554645538330078,-0.14782142639160156
1701886034403105800,15.436105712890624,0.15646305680274963,0.0006976127624511719,-0.10907459259033203
1701886034420098600,15.4530986328125,0.01601874828338623,-0.023036479949951172,-0.06479644775390625
1701886034437094000,15.470093994140624,-0.09746962785720825,-0.011327743530273438,-0.03795909881591797
1701886034454080000,15.487080078125,-0.0810854434967041,0.03165149688720703,0.012838363647460938
1701886034471076000,15.504076171875,-0.0004767477512359619,0.08069896697998047,0.02050304412841797
1701886034488069000,15.521069091796875,0.024632900953292847,0.09529781341552734,0.05260276794433594
1701886034505055000,15.538054931640625,-0.02126559615135193,0.073699951171875,0.05942058563232422
1701886034522056200,15.55505615234375,-0.08413675427436829,0.017435073852539062,0.07936763763427734
1701886034539046400,15.57204638671875,-0.07895642518997192,-0.01960134506225586,0.05143928527832031
1701886034556039400,15.589039306640625,0.047579050064086914,0.017923831939697266,-0.01869964599609375
1701886034573028400,15.6060283203125,0.15738657116889954,0.0831613540649414,-0.038407325744628906
1701886034590024400,15.6230244140625,0.15800902247428894,0.1596512794494629,0.01579570770263672
1701886034607017000,15.640016845703125,0.010763406753540039,0.17661285400390625,0.170989990234375
1701886034624009500,15.657009521484374,-0.19038352370262146,0.1801300048828125,0.2953767776489258
1701886034641002000,15.674001953125,-0.31274646520614624,0.1753368377685547,0.31999969482421875
1701886034657994800,15.690994873046876,-0.29606178402900696,0.18613767623901367,0.30756473541259766
1701886034674987300,15.7079873046875,-0.13632893562316895,0.19359874725341797,0.29663562774658203
1701886034691980000,15.72497998046875,0.03537392616271973,0.16442489624023438,0.2682456970214844
1701886034708969500,15.741969482421876,0.11688891053199768,0.10311746597290039,0.22469425201416016
1701886034725965000,15.758965087890624,0.11016896367073059,0.04717874526977539,0.1221151351928711
1701886034742957600,15.77595751953125,0.12187930941581726,-0.008795738220214844,-0.05260467529296875
1701886034759949800,15.79294970703125,0.17806968092918396,-0.034071922302246094,-0.16441726684570312
1701886034776932900,15.809932861328125,0.22416958212852478,-0.05578899383544922,-0.22543048858642578
1701886034793933300,15.826933349609375,0.22752645611763,-0.03466081619262695,-0.23511219024658203
1701886034810917400,15.84391748046875,0.10202851891517639,-0.006022930145263672,-0.23656368255615234
1701886034827921200,15.860921142578125,-0.041157811880111694,0.014748573303222656,-0.1795215606689453
1701886034844913000,15.877912841796874,-0.12683239579200745,0.030782222747802734,-0.08931541442871094
1701886034861906000,15.894906005859376,-0.10986900329589844,0.009520530700683594,-0.038229942321777344
1701886034878898200,15.911898193359375,-0.009057283401489258,-0.01121377944946289,0.0021228790283203125
1701886034895888100,15.92888818359375,0.129805326461792,-0.03790998458862305,-0.010760307312011719
1701886034912883500,15.945883544921875,0.23949411511421204,-0.04551553726196289,-0.08039093017578125
1701886034929876200,15.962876220703125,0.2676323354244232,-0.04673910140991211,-0.08576679229736328
1701886034946868700,15.97986865234375,0.17609435319900513,-0.008460521697998047,-0.06066703796386719
1701886034963861800,15.99686181640625,0.015414685010910034,-0.00365447998046875,0.00804901123046875
1701886034980853800,16.013853759765624,-0.1230105459690094,-0.005106925964355469,0.04642772674560547
1701886034997844500,16.030844482421877,-0.15588614344596863,-0.007916927337646484,0.035671234130859375
1701886035014830000,16.047830078125,-0.1056455671787262,-0.040198326110839844,-0.02933025360107422
1701886035031831800,16.064831787109377,0.03307753801345825,-0.04128599166870117,-0.08446979522705078
1701886035048824300,16.08182421875,0.14374524354934692,-0.032372474670410156,-0.056618690490722656
1701886035065813500,16.0988134765625,0.09667026996612549,0.010102272033691406,-0.05146312713623047
1701886035082809900,16.115809814453126,-0.052694499492645264,0.0030221939086914062,-0.02732086181640625
1701886035099802400,16.13280224609375,-0.16707107424736023,-0.058194637298583984,-0.03351593017578125
1701886035116794600,16.149794677734373,-0.11842763423919678,-0.10320472717285156,-0.08838939666748047
1701886035133787400,16.166787353515623,0.01072925329208374,-0.131500244140625,-0.07975006103515625
1701886035150780200,16.1837802734375,0.13293230533599854,-0.06552839279174805,-0.07353401184082031
1701886035167777800,16.20077783203125,0.13122084736824036,-0.01689624786376953,-0.012547492980957031
1701886035184765000,16.217764892578124,-0.007675617933273315,0.03543710708618164,0.06883907318115234
1701886035201758000,16.234758056640626,-0.1885266900062561,0.043428897857666016,0.12506675720214844
1701886035218750000,16.25175,-0.2925121784210205,0.06343793869018555,0.14148998260498047
1701886035235744000,16.268743896484374,-0.2741113007068634,0.05697345733642578,0.159454345703125
1701886035252735500,16.285735595703127,-0.16482241451740265,0.019150257110595703,0.10713481903076172
1701886035269727200,16.302727294921876,-0.0637049674987793,-0.025905609130859375,0.04907512664794922
1701886035286718700,16.31971875,0.021790146827697754,-0.051989078521728516,-0.06650161743164062
1701886035303713800,16.3367138671875,0.07372963428497314,-0.07988691329956055,-0.14190959930419922
1701886035320708400,16.353708251953126,0.13552933931350708,-0.06623983383178711,-0.13352203369140625
1701886035337697800,16.37069775390625,0.12457433342933655,-0.026215076446533203,-0.09845352172851562
1701886035354691800,16.38769189453125,0.09060972929000854,0.0378718376159668,-0.03480052947998047
1701886035371683800,16.404683837890627,0.04165607690811157,0.09290361404418945,0.005475044250488281
1701886035388676000,16.421676025390624,-0.006818652153015137,0.11160993576049805,0.04913139343261719
1701886035405666600,16.43866650390625,-0.049781590700149536,0.08438396453857422,0.047522544860839844
1701886035422661400,16.455661376953124,-0.012537539005279541,0.03652143478393555,0.005522727966308594
1701886035439654700,16.472654541015626,0.08855855464935303,-0.019583702087402344,-0.04609107971191406
1701886035456646400,16.489646484375,0.20602214336395264,-0.016520977020263672,-0.09595775604248047
1701886035473639400,16.506639404296877,0.24840590357780457,0.007435798645019531,-0.09629154205322266
1701886035490632000,16.5236318359375,0.20195335149765015,0.050853729248046875,-0.038298606872558594
1701886035507625000,16.540625,0.07066911458969116,0.07021808624267578,0.044734954833984375
1701886035524617000,16.557616943359374,-0.029415994882583618,0.08345174789428711,0.07432270050048828
1701886035541609700,16.574609619140624,-0.05463528633117676,0.06209850311279297,0.05863189697265625
1701886035558602500,16.5916025390625,0.01074516773223877,0.04474020004272461,0.04184532165527344
1701886035575595300,16.60859521484375,0.029046952724456787,0.023389816284179688,0.020389556884765625
1701886035592584200,16.625584228515624,-0.028256207704544067,0.026002883911132812,0.05831336975097656
1701886035609580300,16.642580322265626,-0.08914342522621155,0.05306291580200195,0.09173297882080078
1701886035626572500,16.659572509765624,-0.11998826265335083,0.07914400100708008,0.12413787841796875
1701886035643563000,16.67656298828125,-0.12151993811130524,0.06797170639038086,0.11530780792236328
1701886035660559400,16.693559326171876,-0.0945793092250824,0.01697063446044922,0.027963638305664062
1701886035677551400,16.71055126953125,-0.039879053831100464,-0.05288887023925781,-0.05400848388671875
1701886035694543000,16.727543212890627,0.08462892472743988,-0.056528568267822266,-0.12940311431884766
1701886035711531000,16.744531005859375,0.14243203401565552,-0.03934526443481445,-0.14558887481689453
1701886035728528400,16.7615283203125,0.1049443781375885,0.017913818359375,-0.15949058532714844
1701886035745521000,16.77852099609375,-0.024940043687820435,-0.0013170242309570312,-0.09643268585205078
1701886035762513700,16.795513671875,-0.0918983519077301,0.008068561553955078,-0.019110679626464844
1701886035779505400,16.81250537109375,-0.08680945634841919,-0.011939048767089844,0.04761695861816406
1701886035796499200,16.829499267578125,-0.007017359137535095,0.011258602142333984,0.03174400329589844
1701886035813491500,16.846491455078127,0.09628547728061676,0.019668102264404297,0.001262664794921875
1701886035830484000,16.86348388671875,0.14027130603790283,0.032482147216796875,-0.03323936462402344
1701886035847476000,16.88047607421875,0.09781508147716522,-0.007472515106201172,-0.019908905029296875
1701886035864469800,16.8974697265625,0.007177829742431641,-0.01941061019897461,-0.058685302734375
1701886035881461800,16.914461669921874,0.012759879231452942,-0.014252185821533203,-0.048908233642578125
1701886035898440700,16.931440673828124,0.05273666977882385,0.011530399322509766,-0.004726409912109375
1701886035915447000,16.948447021484377,0.08168905973434448,0.047841548919677734,0.0013933181762695312
1701886035932439600,16.965439453125,0.10122576355934143,0.09303426742553711,0.012256622314453125
1701886035949432300,16.982432373046876,0.08622094988822937,0.11361408233642578,0.017942428588867188
1701886035966424300,16.99942431640625,0.028408542275428772,0.09899234771728516,0.06185722351074219
1701886035983415000,17.0164150390625,-0.09608427435159683,0.08264732360839844,0.07119178771972656
1701886036000409600,17.03340966796875,-0.1895565390586853,0.05062294006347656,0.060494422912597656
1701886036017403000,17.05040283203125,-0.1430048793554306,0.038741111755371094,0.04845237731933594
1701886036034395400,17.0673955078125,0.021108612418174744,0.03688812255859375,0.03134632110595703
1701886036051388200,17.08438818359375,0.19296260178089142,0.05898094177246094,0.03344249725341797
1701886036068380000,17.1013798828125,0.22083911299705505,0.08477449417114258,0.02208995819091797
1701886036085373200,17.118373291015626,0.10598133504390717,0.10937643051147461,0.025571823120117188
1701886036102362400,17.1353623046875,-0.0660206526517868,0.07518720626831055,-0.009716987609863281
1701886036119358500,17.1523583984375,-0.12293028831481934,0.036257266998291016,-0.0030908584594726562
1701886036136347600,17.16934765625,-0.08077168464660645,0.022466182708740234,-0.03951740264892578
1701886036153346300,17.18634619140625,0.05363273620605469,0.009829998016357422,-0.052539825439453125
1701886036170335200,17.203335205078126,0.15589892864227295,0.017169952392578125,-0.0018815994262695312
1701886036187329500,17.22032958984375,0.17022429406642914,0.05388927459716797,0.025882720947265625
1701886036204321000,17.237321044921874,0.05998963117599487,0.04168367385864258,0.08270549774169922
1701886036221313800,17.254313720703124,-0.052479326725006104,0.03299093246459961,0.07238292694091797
1701886036238306600,17.271306640625,-0.1322796791791916,0.028172969818115234,0.02227020263671875
1701886036255299600,17.288299560546875,-0.10544221848249435,0.017632484436035156,-0.03442096710205078
1701886036272291300,17.305291259765625,-0.02525341510772705,-0.0010609626770019531,-0.08585834503173828
1701886036289284400,17.322284423828126,0.06117585301399231,-0.01775503158569336,-0.07866764068603516
1701886036306284800,17.339284912109374,0.10793127119541168,-0.02312755584716797,-0.08916091918945312
1701886036323269600,17.35626953125,0.07261566817760468,-0.026633739471435547,-0.04465770721435547
1701886036340261600,17.37326171875,-0.02910195291042328,-0.0062160491943359375,0.02413463592529297
1701886036357254100,17.390254150390625,-0.12554806470870972,0.022823333740234375,0.039681434631347656
1701886036374248000,17.407248046875,-0.18708202242851257,0.03201913833618164,0.05475330352783203
1701886036391230000,17.42422998046875,-0.1713106334209442,0.050225257873535156,0.039794921875
1701886036408221700,17.4412216796875,-0.09446439146995544,0.04872751235961914,-0.0099639892578125
1701886036425220000,17.45822021484375,-0.009084150195121765,0.03358888626098633,-0.07840633392333984
1701886036442219800,17.4752197265625,0.07178355753421783,0.029749393463134766,-0.09313774108886719
1701886036459210500,17.49221044921875,0.08640655875205994,0.04585599899291992,-0.0681619644165039
1701886036476202800,17.50920263671875,0.04149658977985382,0.06166648864746094,0.0054149627685546875
1701886036493192400,17.5261923828125,-0.027194827795028687,0.06743860244750977,0.0691366195678711
1701886036510188000,17.54318798828125,-0.05932606756687164,0.07221126556396484,0.11217880249023438
1701886036527178200,17.56017822265625,-0.02239634096622467,0.0795755386352539,0.08215141296386719
1701886036544175900,17.57717578125,0.061534956097602844,0.06277227401733398,0.003170013427734375
1701886036561165800,17.594165771484374,0.14541542530059814,0.05136394500732422,-0.03773784637451172
1701886036578158300,17.611158447265623,0.16735383868217468,0.04566192626953125,-0.02866649627685547
1701886036595151600,17.628151611328125,0.08942815661430359,0.0407261848449707,0.0057525634765625
1701886036612143000,17.64514306640625,-0.012263193726539612,0.08443212509155273,0.030710220336914062
1701886036629136400,17.662136474609376,-0.07983754575252533,0.10237455368041992,0.059688568115234375
1701886036646129200,17.679129150390626,-0.07203911244869232,0.08137083053588867,0.0633993148803711
1701886036663122000,17.696121826171876,-0.022608354687690735,0.016926288604736328,0.022882461547851562
1701886036680113000,17.71311279296875,0.02547578513622284,0.014548778533935547,-0.04605293273925781
1701886036697107500,17.730107421875,0.009144231677055359,0.019106388092041016,-0.05510997772216797
1701886036714099200,17.74709912109375,-0.05582636594772339,0.02523326873779297,-0.020841598510742188
1701886036731092200,17.76409228515625,-0.14641119539737701,0.036253929138183594,0.053264617919921875
1701886036748084500,17.78108447265625,-0.17040395736694336,0.04707002639770508,0.13085174560546875
1701886036765077000,17.798076904296874,-0.12919628620147705,0.04271078109741211,0.18370342254638672
1701886036782069800,17.81506982421875,-0.0902235209941864,0.04042530059814453,0.17212390899658203
1701886036799062800,17.832062744140625,-0.03550511598587036,0.016965389251708984,0.11585140228271484
1701886036816055000,17.849054931640627,-0.0188000351190567,-0.002865314483642578,0.006809234619140625
1701886036833047800,17.8660478515625,0.016418486833572388,-0.02147054672241211,-0.07717037200927734
1701886036850040000,17.8830400390625,0.05483633279800415,-0.008724212646484375,-0.11261272430419922
1701886036867029000,17.900029052734375,0.04059280455112457,0.023744583129882812,-0.11743545532226562
1701886036884024800,17.91702490234375,-0.04092299938201904,0.056233882904052734,-0.05974292755126953
1701886036901013500,17.934013427734374,-0.12520545721054077,0.050388336181640625,-0.04042625427246094
1701886036918015200,17.95101513671875,-0.08431088924407959,0.03143167495727539,0.021154403686523438
1701886036935003600,17.968003662109375,0.05411180853843689,0.04133796691894531,0.08766841888427734
1701886036951995400,17.984995361328124,0.1516665369272232,0.05975341796875,0.09100532531738281
1701886036968988200,18.00198828125,0.17372101545333862,0.07105588912963867,0.06996822357177734
1701886036985970400,18.018970458984374,0.10937076807022095,0.07124662399291992,0.03843498229980469
1701886037002970600,18.035970703125,0.05887046456336975,0.06506729125976562,-0.02214527130126953
1701886037019966000,18.052966064453123,0.04597236216068268,0.020540714263916016,-0.06419754028320312
1701886037036955600,18.06995556640625,0.10830442607402802,-0.0034003257751464844,-0.10630989074707031
1701886037053954800,18.086954833984375,0.20813636481761932,-0.035439491271972656,-0.11844253540039062
1701886037070934500,18.1039345703125,0.2922396659851074,-0.02611541748046875,-0.10514450073242188
1701886037087936300,18.120936279296874,0.26114773750305176,-0.011299610137939453,-0.06652164459228516
1701886037104929000,18.137928955078124,0.16212067008018494,0.013071060180664062,-0.03650474548339844
1701886037121921800,18.154921875,0.015221387147903442,0.01739978790283203,0.0031480789184570312
1701886037138914800,18.171914794921875,-0.09294666349887848,0.0347142219543457,-0.00110626220703125
1701886037155906800,18.18890673828125,-0.10335232317447662,0.008150100708007812,0.0021467208862304688
1701886037172899800,18.20589990234375,-0.02048175036907196,-0.013712406158447266,-0.07695674896240234
1701886037189891800,18.222891845703124,0.10578130185604095,-0.039177894592285156,-0.10329437255859375
1701886037206886000,18.239885986328126,0.1372062712907791,-0.03521299362182617,-0.08995819091796875
1701886037223877000,18.256877197265624,0.09267778694629669,-0.03079700469970703,-0.06046009063720703
1701886037240870100,18.2738701171875,0.002082124352455139,-0.024892330169677734,0.007819175720214844
1701886037257862100,18.290862060546875,-0.09360438585281372,-0.016105175018310547,0.08047676086425781
1701886037274856400,18.3078564453125,-0.11871609091758728,-0.003322124481201172,0.07538509368896484
1701886037291847700,18.32484765625,-0.06822699308395386,-0.014772415161132812,0.011127471923828125
1701886037308839400,18.34183935546875,0.019529223442077637,-0.025352001190185547,-0.05258750915527344
1701886037325831200,18.3588310546875,0.07487064599990845,-0.015650272369384766,-0.0821380615234375
1701886037342826200,18.375826171875,0.0652613639831543,0.00850057601928711,-0.08165264129638672
1701886037359818000,18.39281787109375,-0.014240428805351257,0.005791187286376953,-0.0319976806640625
1701886037376810500,18.409810546875,-0.08806950598955154,0.012730598449707031,0.022835731506347656
1701886037393803300,18.42680322265625,-0.09133835136890411,0.03969287872314453,0.07785320281982422
1701886037410796500,18.443796630859374,-0.06087729334831238,0.07039642333984375,0.10712242126464844
1701886037427787800,18.460787841796876,-0.04479719698429108,0.08478546142578125,0.09273052215576172
1701886037444770600,18.4777705078125,-0.06144420802593231,0.07399702072143555,0.06801795959472656
1701886037461774300,18.4947744140625,-0.06039056181907654,0.053070068359375,0.047776222229003906
1701886037478766600,18.5117666015625,-0.03678281605243683,0.03684043884277344,-0.0011997222900390625
1701886037495758800,18.5287587890625,0.0014152079820632935,0.01703786849975586,-0.026483535766601562
1701886037512748500,18.54574853515625,0.07501602172851562,0.007315635681152344,-0.031998634338378906
1701886037529741600,18.562741455078125,0.09266965091228485,-0.005214214324951172,-0.007049560546875
1701886037546740000,18.579739990234376,0.05214063823223114,0.022280216217041016,0.005177497863769531
1701886037563726800,18.596726806640625,-0.012621790170669556,0.054637908935546875,0.02261829376220703
1701886037580724200,18.61372412109375,-0.06407107412815094,0.08279561996459961,0.040060997009277344
1701886037597715500,18.630715576171873,-0.0856831893324852,0.09965181350708008,0.07536697387695312
1701886037614707500,18.64770751953125,-0.07297135889530182,0.0957179069519043,0.09973430633544922
1701886037631699700,18.66469970703125,-0.03197018802165985,0.09461021423339844,0.06454658508300781
1701886037648692700,18.681692626953126,0.03569711744785309,0.06347179412841797,-0.009675025939941406
1701886037665685200,18.698685302734376,0.11559471487998962,0.027992725372314453,-0.0835866928100586
1701886037682686700,18.715686767578124,0.1471371352672577,0.012085437774658203,-0.1275501251220703
1701886037699667700,18.732667724609374,0.1372167468070984,0.02215290069580078,-0.13681793212890625
1701886037716665900,18.749665771484374,0.09927135705947876,0.05780744552612305,-0.0966482162475586
1701886037733655600,18.766655517578126,0.07111069560050964,0.05458688735961914,-0.03791999816894531
1701886037750648300,18.7836484375,0.040514037013053894,0.06038856506347656,-0.027703285217285156
1701886037767638500,18.800638427734373,0.04295492172241211,0.04092073440551758,-0.03262901306152344
1701886037784633000,18.817633056640624,0.08906306326389313,0.011026382446289062,-0.04286384582519531
1701886037801625900,18.8346259765625,0.14843234419822693,-0.01655864715576172,-0.07659721374511719
1701886037818621700,18.85162158203125,0.20138812065124512,-0.004122257232666016,-0.05145740509033203
1701886037835608000,18.868608154296876,0.15689268708229065,0.042583465576171875,-0.024602890014648438
1701886037852604200,18.885604248046874,0.03956995904445648,0.07826662063598633,-0.026955604553222656
1701886037869593600,18.902593505859375,-0.0854991227388382,0.07055377960205078,-0.004996299743652344
1701886037886591200,18.91959130859375,-0.16165049374103546,0.07694864273071289,-0.008708953857421875
1701886037903579400,18.936579345703127,-0.14049969613552094,0.06817436218261719,-0.008158683776855469
1701886037920574500,18.953574462890625,-0.09460324048995972,0.06351423263549805,0.015297889709472656
1701886037937567000,18.97056689453125,-0.04790565371513367,0.02552318572998047,0.025094032287597656
1701886037954560000,18.98756005859375,-0.0025056153535842896,0.0028357505798339844,0.058800697326660156
1701886037971551700,19.0045517578125,-0.014648482203483582,0.00861358642578125,0.09776592254638672
1701886037988545000,19.021544921875,-0.08907900750637054,0.033084869384765625,0.10356521606445312
1701886038005544000,19.0385439453125,-0.1253717690706253,0.07131004333496094,0.07547569274902344
1701886038022527000,19.05552685546875,-0.14517508447170258,0.07027006149291992,0.09437274932861328
1701886038039522300,19.072522216796877,-0.1296750158071518,0.07795953750610352,0.08364391326904297
1701886038056515300,19.089515380859375,-0.12277504801750183,0.042075157165527344,0.05307197570800781
1701886038073507600,19.106507568359376,-0.07237155735492706,0.02056741714477539,0.02227497100830078
1701886038090502400,19.12350244140625,-0.008576497435569763,0.010164260864257812,0.03513908386230469
1701886038107483400,19.1404833984375,0.05891542136669159,0.04748249053955078,0.03872108459472656
1701886038124483300,19.1574833984375,0.06592012941837311,0.07089042663574219,0.0724649429321289
1701886038141477400,19.174477294921875,0.020474538207054138,0.08313941955566406,0.08587169647216797
1701886038158471000,19.191470947265625,-0.09269814193248749,0.07979393005371094,0.06588554382324219
1701886038175451100,19.208451171875,-0.15755829215049744,0.04593372344970703,0.020035743713378906
1701886038192450300,19.2254501953125,-0.10708235949277878,0.027835845947265625,-0.040070533752441406
1701886038209448700,19.24244873046875,0.0010716170072555542,0.01610088348388672,-0.07170963287353516
1701886038226441700,19.259441650390624,0.14506778120994568,0.030218124389648438,-0.09257316589355469
1701886038243433500,19.27643359375,0.1910828948020935,0.012450695037841797,-0.1112213134765625
1701886038260426500,19.293426513671875,0.10254330933094025,0.018268585205078125,-0.19096660614013672
1701886038277418500,19.31041845703125,0.09569691121578217,0.004397869110107422,-0.0873708724975586
1701886038294413800,19.327413818359375,0.1242503970861435,0.06329154968261719,0.06500434875488281
1701886038311403300,19.3444033203125,0.0911467969417572,0.0773320198059082,0.12510299682617188
1701886038328397000,19.36139697265625,0.050071924924850464,0.0682516098022461,0.11206340789794922
1701886038345386500,19.378386474609375,-0.053930893540382385,0.018996238708496094,0.044902801513671875
1701886038362382600,19.395382568359373,0.0007322579622268677,0.01343679428100586,-0.013884544372558594
1701886038379374300,19.412374267578127,0.11177122592926025,-0.014213085174560547,-0.038646697998046875
1701886038396356600,19.429356689453126,0.18298429250717163,-0.021456241607666016,-0.04730033874511719
1701886038413357600,19.446357666015626,0.12619884312152863,0.0008959770202636719,-0.049457550048828125
1701886038430353200,19.463353271484376,0.005154430866241455,0.013436317443847656,-0.02214527130126953
1701886038447345200,19.48034521484375,-0.10891687870025635,0.04008054733276367,0.028902053833007812
1701886038464338000,19.497337890625,-0.15133565664291382,0.032303810119628906,0.09256172180175781
1701886038481330400,19.514330322265625,-0.08346980810165405,0.03390693664550781,0.07830238342285156
1701886038498323500,19.531323486328127,0.019793793559074402,0.03832721710205078,0.015074729919433594
1701886038515315200,19.548315185546876,0.04653553664684296,0.05590391159057617,-0.13025951385498047
1701886038532308500,19.56530859375,0.015187427401542664,0.05014371871948242,-0.22591781616210938
1701886038549290500,19.58229052734375,0.029032662510871887,0.037706851959228516,-0.29752635955810547
1701886038566293500,19.59929345703125,0.09603933990001678,0.00014591217041015625,-0.24695205688476562
1701886038583286000,19.6162861328125,0.2079256772994995,0.019232749938964844,-0.12685680389404297
1701886038600278000,19.633278076171877,0.22783932089805603,0.07265329360961914,-0.0008058547973632812
1701886038617271600,19.650271484375,0.17616355419158936,0.12015962600708008,0.12074947357177734
1701886038634264600,19.6672646484375,0.08073809742927551,0.1461949348449707,0.18827438354492188
1701886038651256000,19.684256103515626,-0.03179895877838135,0.14472675323486328,0.1675548553466797
1701886038668249300,19.701249267578124,-0.0791286826133728,0.14557981491088867,0.10672283172607422
1701886038685241900,19.718241943359374,-0.04332074522972107,0.1216120719909668,0.06768035888671875
1701886038702234600,19.735234619140623,0.022402137517929077,0.09599018096923828,0.0662698745727539
1701886038719227000,19.752226806640625,0.06824621558189392,0.06553077697753906,0.04054546356201172
1701886038736220000,19.769219970703126,0.08499813079833984,0.04902505874633789,0.006009101867675781
1701886038753212200,19.786212158203124,0.08017504215240479,0.0006351470947265625,-0.03285694122314453
1701886038770205000,19.803204833984374,0.0597665011882782,0.0070476531982421875,-0.007519721984863281
1701886038787196400,19.820196533203124,0.011285006999969482,0.032901763916015625,0.032962799072265625
1701886038804190500,19.8371904296875,-0.08369407057762146,0.042877197265625,0.05848884582519531
1701886038821184500,19.8541845703125,-0.19955897331237793,0.04713582992553711,0.09352493286132812
1701886038838175500,19.871175537109377,-0.2840057611465454,0.04864072799682617,0.12137031555175781
1701886038855167500,19.88816748046875,-0.2421693205833435,0.028683185577392578,0.08354949951171875
1701886038872160500,19.905160400390624,-0.11806127429008484,-0.03548479080200195,0.015666961669921875
1701886038889153300,19.9221533203125,0.06647378206253052,-0.08302783966064453,-0.041548728942871094
1701886038906146000,19.93914599609375,0.17665264010429382,-0.10938358306884766,-0.07789325714111328
1701886038923128300,19.95612841796875,0.18096378445625305,-0.08701515197753906,-0.059096336364746094
1701886038940130300,19.97313037109375,0.09154015779495239,-0.05364704132080078,-0.03447532653808594
1701886038957119700,19.99011962890625,-0.04260578751564026,-0.04022502899169922,0.009648323059082031
1701886038974120200,20.0071201171875,-0.13892853260040283,-0.04214143753051758,0.01905345916748047
1701886038991108400,20.0241083984375,-0.1397418975830078,-0.04932260513305664,0.008078575134277344
1701886039008091000,20.0410908203125,-0.07909384369850159,-0.07563972473144531,-0.042128562927246094
1701886039025091600,20.058091552734375,0.005470752716064453,-0.0966482162475586,-0.048587799072265625
1701886039042089500,20.07508935546875,0.061702728271484375,-0.1013803482055664,-0.054245948791503906
1701886039059078700,20.09207861328125,0.055966317653656006,-0.09637928009033203,-0.049286842346191406
1701886039076072000,20.109072021484376,-0.001832127571105957,-0.08622550964355469,-0.0527496337890625
1701886039093062000,20.126061767578125,-0.0790368914604187,-0.05521583557128906,-0.060314178466796875
1701886039110059000,20.14305908203125,-0.13208475708961487,-0.028827667236328125,-0.057857513427734375
1701886039127050200,20.16005029296875,-0.12052014470100403,-0.006536006927490234,-0.022525787353515625
1701886039144042200,20.177042236328123,-0.08837336301803589,-0.0038819313049316406,-0.0019426345825195312
1701886039161035000,20.194034912109377,-0.05074980854988098,-0.005872249603271484,0.003383636474609375
1701886039178027000,20.211027099609375,-0.017661601305007935,-0.012650012969970703,0.03361320495605469
1701886039195020300,20.228020263671876,-0.01938563585281372,0.003986835479736328,0.04957389831542969
1701886039212012800,20.2450126953125,-0.04920664429664612,0.006033420562744141,0.06084251403808594
1701886039229002500,20.26200244140625,-0.007693856954574585,0.01658916473388672,0.060672760009765625
1701886039245999400,20.278999267578126,0.04346397519111633,0.026951313018798828,0.055863380432128906
1701886039262979600,20.2959794921875,0.07926663756370544,0.03137540817260742,0.02142333984375
1701886039279983000,20.312983154296877,0.0866524875164032,0.036847591400146484,-0.03611278533935547
1701886039296975600,20.3299755859375,0.08483779430389404,0.0530390739440918,-0.05905628204345703
1701886039313968400,20.346968505859376,0.09139049053192139,0.060587406158447266,-0.009215354919433594
1701886039330961000,20.3639609375,0.08388862013816833,0.07790184020996094,0.06492137908935547
1701886039347953700,20.38095361328125,0.04767927527427673,0.06017732620239258,0.08964729309082031
1701886039364946200,20.3979462890625,0.019429057836532593,0.05144453048706055,0.08092784881591797
1701886039381939200,20.414939208984375,0.027532100677490234,0.07247447967529297,0.057816505432128906
1701886039398931000,20.431930908203125,0.05514255166053772,0.07798528671264648,0.024776458740234375
1701886039415924200,20.44892431640625,0.04578229784965515,0.07867860794067383,-0.008337020874023438
1701886039432913400,20.465913330078124,-0.001495271921157837,0.08515739440917969,-0.02109050750732422
1701886039449909800,20.48290966796875,-0.049144089221954346,0.08682537078857422,0.0042285919189453125
1701886039466901200,20.4999013671875,-0.0788356363773346,0.09811687469482422,0.015481948852539062
1701886039483894300,20.516894287109373,-0.10231947898864746,0.08440446853637695,0.011069297790527344
1701886039500886500,20.533886474609375,-0.09042450785636902,0.07485580444335938,-0.017751693725585938
1701886039517880800,20.550880859375,-0.014747947454452515,0.06634664535522461,-0.008653640747070312
1701886039534872000,20.5678720703125,0.0941445529460907,0.05785799026489258,0.000232696533203125
1701886039551864800,20.58486474609375,0.14851394295692444,0.0689859390258789,0.005532264709472656
1701886039568857300,20.601857421875,0.14307570457458496,0.09405851364135742,-0.041626930236816406
1701886039585850400,20.618850341796875,0.11226266622543335,0.11478519439697266,-0.06931686401367188
1701886039602842600,20.635842529296873,0.08652821183204651,0.1258869171142578,-0.06292915344238281
1701886039619833300,20.652833251953126,0.06760963797569275,0.10257959365844727,-0.0095062255859375
1701886039636830200,20.669830322265625,0.029547899961471558,0.08872127532958984,0.03866863250732422
