time,seconds_elapsed,z,y,x
1701885782673442300,0.1374423828125,-1.3608713150024414,-1.7781262397766113,-0.35889554023742676
1701885782690435600,0.154435546875,-1.221886157989502,-1.8495423793792725,-0.06146097183227539
1701885782707420000,0.171419921875,-2.2668275833129883,-1.707466959953308,0.2943234443664551
1701885782724415700,0.188415771484375,-3.7775864601135254,-2.075032949447632,0.01783466339111328
1701885782741404400,0.205404296875,-3.721224308013916,-2.1881227493286133,-0.6114034652709961
1701885782758405600,0.222405517578125,-2.8866944313049316,-2.538079023361206,-1.308732509613037
1701885782775393800,0.239393798828125,-1.460141658782959,-3.0439200401306152,-1.2612648010253906
1701885782792384500,0.256384521484375,-0.24269390106201172,-3.1435546875,-1.25217866897583
1701885782809377800,0.273377685546875,-1.407127857208252,-3.65956449508667,-1.2787981033325195
1701885782826371300,0.290371337890625,-3.0925850868225098,-3.7283682823181152,-1.469245433807373
1701885782843358200,0.307358154296875,-5.320562839508057,-3.844186782836914,-1.936901569366455
1701885782860342800,0.3243427734375,-4.964312553405762,-4.525774002075195,-1.002678394317627
1701885782877345500,0.341345458984375,-0.45549583435058594,-4.59169340133667,-0.9843921661376953
1701885782894331100,0.3583310546875,2.804314136505127,-4.723781585693359,-0.17702579498291016
1701885782911330800,0.375330810546875,4.435262680053711,-5.706790924072266,0.46909046173095703
1701885782928310000,0.39231005859375,1.079467535018921,-4.508808612823486,0.8327226638793945
1701885782945306000,0.40930615234375,-2.015991687774658,-4.31479549407959,1.6442575454711914
1701885782962305800,0.426305908203125,-1.9247195720672607,-3.9646353721618652,2.49240779876709
1701885782979293400,0.44329345703125,1.235443353652954,-3.7453455924987793,3.3373804092407227
1701885782996287200,0.460287353515625,4.395946979522705,-3.4412641525268555,3.573810577392578
1701885783013274000,0.477274169921875,5.8633832931518555,-3.229348659515381,3.806417465209961
1701885783030258700,0.4942587890625,5.712561130523682,-3.36502742767334,3.916360855102539
1701885783047260700,0.5112607421875,3.7089812755584717,-2.603131055831909,3.705998420715332
1701885783064256800,0.5282568359375,2.3247787952423096,-2.027327060699463,4.201960563659668
1701885783081244000,0.545243896484375,1.915946364402771,-1.201235294342041,4.810755729675293
1701885783098226200,0.56222607421875,1.8172582387924194,-0.34299659729003906,5.239461898803711
1701885783115221500,0.579221435546875,1.3922313451766968,0.3769240379333496,5.243329048156738
1701885783132220400,0.596220458984375,0.8236410617828369,0.9494798183441162,4.7975263595581055
1701885783149217300,0.61321728515625,0.04833376407623291,1.4003944396972656,4.182534217834473
1701885783166200600,0.63020068359375,-1.0978184938430786,1.4772999286651611,3.626150131225586
1701885783183194600,0.647194580078125,-1.1629290580749512,1.6014442443847656,2.9823789596557617
1701885783200191000,0.66419091796875,-0.45516014099121094,1.65598726272583,2.6258153915405273
1701885783217176000,0.681176025390625,0.33214670419692993,1.390106201171875,2.5521163940429688
1701885783234164000,0.6981640625,1.0305949449539185,1.499983310699463,2.11514949798584
1701885783251161900,0.715161865234375,1.5393035411834717,1.5627050399780273,1.7653284072875977
1701885783268152800,0.73215283203125,1.715026617050171,1.5155506134033203,1.4370074272155762
1701885783285139000,0.749138916015625,1.5956025123596191,1.16400146484375,1.52392578125
1701885783302130700,0.766130615234375,1.3332768678665161,0.9638833999633789,1.4881906509399414
1701885783319115500,0.783115478515625,1.0474956035614014,1.033271312713623,0.9517278671264648
1701885783336121300,0.800121337890625,0.991089940071106,0.9982547760009766,0.33290576934814453
1701885783353096000,0.817095947265625,1.0221490859985352,0.7508926391601562,0.053862571716308594
1701885783370089500,0.83408935546875,0.8344500064849854,0.3363771438598633,-0.04926586151123047
1701885783387101000,0.851100830078125,0.8368984460830688,0.2718510627746582,-0.29901647567749023
1701885783404081000,0.868080810546875,1.0100497007369995,0.39659976959228516,-0.8243260383605957
1701885783421074700,0.88507470703125,1.1370564699172974,0.3911747932434082,-1.0320196151733398
1701885783438068500,0.902068359375,0.6122676134109497,0.19988203048706055,-1.2340078353881836
1701885783455055600,0.9190556640625,0.2588619589805603,-0.14528703689575195,-1.6022295951843262
1701885783472050700,0.93605078125,0.38885730504989624,-0.30970335006713867,-1.8085074424743652
1701885783489039400,0.953039306640625,0.7203802466392517,-0.2250356674194336,-1.5134000778198242
1701885783506028800,0.97002880859375,1.1955163478851318,-0.1228175163269043,-0.9595451354980469
1701885783523024400,0.9870244140625,1.310022234916687,-0.16465520858764648,-0.6695008277893066
1701885783540016400,1.004016357421875,1.6594598293304443,-0.42285680770874023,-0.07898807525634766
1701885783557006600,1.021006591796875,1.6991182565689087,-0.5950527191162109,0.3587656021118164
1701885783573999400,1.037999267578125,1.6468232870101929,-0.4999046325683594,0.5555820465087891
1701885783590990600,1.054990478515625,1.5951775312423706,-0.41045045852661133,0.7813539505004883
1701885783607984400,1.071984375,1.8712855577468872,-0.18694114685058594,1.0393633842468262
1701885783624968700,1.08896875,1.9787445068359375,-0.15531158447265625,1.2341418266296387
1701885783641969200,1.10596923828125,1.8356494903564453,-0.10647153854370117,1.0419797897338867
1701885783658957000,1.12295703125,1.3613026142120361,0.07649755477905273,0.7608232498168945
1701885783675949000,1.139948974609375,1.2137677669525146,0.3857865333557129,0.5592222213745117
1701885783692950000,1.156949951171875,1.167531967163086,0.33676958084106445,0.8640670776367188
1701885783709932300,1.173932373046875,0.901338517665863,0.39293575286865234,1.3528432846069336
1701885783726925300,1.19092529296875,0.3409506678581238,-0.13538360595703125,0.5828704833984375
1701885783743913000,1.207912841796875,0.32360291481018066,-0.028544902801513672,0.2869424819946289
1701885783760906500,1.224906494140625,0.06680476665496826,0.13338184356689453,-0.08925867080688477
1701885783777901000,1.241901123046875,0.37806230783462524,-0.33023643493652344,-0.24581050872802734
1701885783794884000,1.258884033203125,0.8849866390228271,-0.5145063400268555,-0.32711219787597656
1701885783811870000,1.275869873046875,1.3806793689727783,-0.7380032539367676,-0.6541905403137207
1701885783828863000,1.292863037109375,1.7884230613708496,-0.9618434906005859,-0.9152131080627441
1701885783845863700,1.30986376953125,1.8968546390533447,-0.9620466232299805,-1.0955185890197754
1701885783862849000,1.32684912109375,1.6464195251464844,-1.126110553741455,-1.0380520820617676
1701885783879848200,1.34384814453125,1.437633991241455,-1.2896099090576172,-1.2374558448791504
1701885783896841000,1.360841064453125,1.2722926139831543,-1.1365785598754883,-1.5133323669433594
1701885783913828900,1.377828857421875,1.199769377708435,-1.0678153038024902,-1.5311784744262695
1701885783930822400,1.394822509765625,1.1642636060714722,-1.066678524017334,-1.3023920059204102
1701885783947816200,1.411816162109375,1.211999535560608,-1.100815773010254,-0.9051814079284668
1701885783964799700,1.4287998046875,1.37514066696167,-0.9752635955810547,-0.5333752632141113
1701885783981805300,1.445805419921875,1.1682324409484863,-0.8831949234008789,-0.5539717674255371
1701885783998785800,1.462785888671875,0.9580407738685608,-0.884831428527832,-0.7662463188171387
1701885784015779600,1.479779541015625,0.7957140207290649,-0.7962374687194824,-0.9215269088745117
1701885784032772000,1.496772216796875,0.6925508975982666,-0.708613395690918,-0.9243731498718262
1701885784049764400,1.513764404296875,0.8664709329605103,-0.6208329200744629,-0.7115921974182129
1701885784066757600,1.530757568359375,1.049576997756958,-0.6284232139587402,-0.42090511322021484
1701885784083751400,1.54775146484375,1.1128686666488647,-0.6841282844543457,-0.1668996810913086
1701885784100730400,1.56473046875,1.1333327293395996,-0.6127629280090332,-0.2182140350341797
1701885784117732000,1.581732177734375,1.1725893020629883,-0.5666232109069824,-0.22369956970214844
1701885784134723300,1.598723388671875,1.218533992767334,-0.5008187294006348,-0.12534809112548828
1701885784151719200,1.61571923828125,1.2491226196289062,-0.4703178405761719,0.047748565673828125
1701885784168705300,1.632705322265625,1.322777509689331,-0.3587150573730469,0.07852840423583984
1701885784185688000,1.64968798828125,1.2851821184158325,-0.3312034606933594,0.09445667266845703
1701885784202685700,1.666685791015625,1.203902244567871,-0.34697532653808594,0.12877655029296875
1701885784219678700,1.6836787109375,1.1244832277297974,-0.3603553771972656,0.01718616485595703
1701885784236674600,1.700674560546875,1.1690236330032349,-0.37579870223999023,-0.20457172393798828
1701885784253661000,1.717660888671875,1.2469229698181152,-0.39086008071899414,-0.17455577850341797
1701885784270654500,1.734654541015625,1.380794644355774,-0.3550548553466797,0.03375816345214844
1701885784287638300,1.75163818359375,1.5777177810668945,-0.3488636016845703,0.21357345581054688
1701885784304633000,1.768633056640625,1.678530216217041,-0.3003511428833008,0.35593700408935547
1701885784321632800,1.7856328125,1.527775526046753,-0.2514352798461914,0.2970247268676758
1701885784338621000,1.802620849609375,1.2495920658111572,-0.30049705505371094,0.2004556655883789
1701885784355614700,1.81961474609375,0.9774847626686096,-0.35295963287353516,0.10481548309326172
1701885784372603100,1.83660302734375,0.8743981719017029,-0.38623952865600586,0.034423828125
1701885784389596200,1.85359619140625,0.8213182687759399,-0.36098575592041016,-0.08163261413574219
1701885784406585300,1.87058544921875,0.9489273428916931,-0.3269948959350586,-0.1716136932373047
1701885784423580700,1.88758056640625,1.1529806852340698,-0.3971991539001465,-0.21036624908447266
1701885784440570600,1.904570556640625,1.3365070819854736,-0.3364405632019043,-0.3629484176635742
1701885784457551400,1.92155126953125,1.4578137397766113,-0.3343334197998047,-0.4129219055175781
1701885784474549500,1.938549560546875,1.3907164335250854,-0.4344162940979004,-0.4302511215209961
1701885784491549200,1.955549072265625,1.1340305805206299,-0.47994089126586914,-0.4349384307861328
1701885784508537000,1.972537109375,0.9658783674240112,-0.48291492462158203,-0.5335311889648438
1701885784525527600,1.989527587890625,0.9107233285903931,-0.43544626235961914,-0.5901641845703125
1701885784542517800,2.006517822265625,1.0186666250228882,-0.40842485427856445,-0.5141887664794922
1701885784559512300,2.02351220703125,1.1849371194839478,-0.4181532859802246,-0.30185604095458984
1701885784576505900,2.040505859375,1.2374720573425293,-0.4340243339538574,-0.166473388671875
1701885784593494800,2.057494873046875,1.212290644645691,-0.4021477699279785,-0.2534294128417969
1701885784610483500,2.0744833984375,1.1792023181915283,-0.4227147102355957,-0.3594379425048828
1701885784627479000,2.09147900390625,1.20427405834198,-0.4596066474914551,-0.37415504455566406
1701885784644469200,2.10846923828125,1.2659635543823242,-0.5070972442626953,-0.27198219299316406
1701885784661460500,2.12546044921875,1.368661642074585,-0.47562456130981445,-0.22136306762695312
1701885784678451700,2.14245166015625,1.3760677576065063,-0.4630751609802246,-0.12697887420654297
1701885784695444200,2.1594443359375,1.3359986543655396,-0.3923187255859375,-0.07664299011230469
1701885784712426000,2.176426025390625,1.237377643585205,-0.3847169876098633,-0.05742835998535156
1701885784729418500,2.19341845703125,1.1780725717544556,-0.37973451614379883,-0.1304006576538086
1701885784746418700,2.210418701171875,1.1366430521011353,-0.39483213424682617,-0.17116451263427734
1701885784763409700,2.22740966796875,1.147839069366455,-0.3918294906616211,-0.2133331298828125
1701885784780405500,2.244405517578125,1.2334325313568115,-0.4070568084716797,-0.14334774017333984
1701885784797397800,2.261397705078125,1.193105697631836,-0.3955960273742676,-0.12789058685302734
1701885784814383900,2.2783837890625,1.06521475315094,-0.4106473922729492,-0.20975971221923828
1701885784831378700,2.295378662109375,1.0272878408432007,-0.3672780990600586,-0.3101968765258789
1701885784848369000,2.312368896484375,1.0099321603775024,-0.3649325370788574,-0.41283226013183594
1701885784865356800,2.329356689453125,1.1147003173828125,-0.35056066513061523,-0.3303031921386719
1701885784882353000,2.346352783203125,1.1439484357833862,-0.3557143211364746,-0.24086284637451172
1701885784899344000,2.36334375,1.0569868087768555,-0.36087751388549805,-0.15002727508544922
1701885784916337400,2.38033740234375,0.9443655610084534,-0.31416988372802734,-0.1786632537841797
1701885784933325000,2.397324951171875,0.9304100275039673,-0.3047490119934082,-0.11231136322021484
1701885784950306600,2.414306640625,0.900672972202301,-0.2953152656555176,-0.09791755676269531
1701885784967313200,2.431313232421875,0.89129638671875,-0.35765933990478516,-0.09317398071289062
1701885784984300300,2.44830029296875,0.9372513294219971,-0.4000086784362793,-0.12264251708984375
1701885785001294800,2.465294921875,1.0222880840301514,-0.41820335388183594,-0.09952926635742188
1701885785018284800,2.482284912109375,1.1327245235443115,-0.39680957794189453,-0.08122539520263672
1701885785035275800,2.49927587890625,1.1707067489624023,-0.3750472068786621,-0.1010293960571289
1701885785052266500,2.5162666015625,1.134437084197998,-0.3679227828979492,-0.13357067108154297
1701885785069265200,2.53326513671875,1.0455987453460693,-0.41852283477783203,-0.08964920043945312
1701885785086240800,2.55024072265625,1.029599905014038,-0.4547734260559082,-0.11276817321777344
1701885785103241200,2.5672412109375,1.0273499488830566,-0.4870457649230957,-0.1410694122314453
1701885785120224300,2.584224365234375,1.0045884847640991,-0.4801468849182129,-0.1643667221069336
1701885785137213000,2.601212890625,1.0435714721679688,-0.4660663604736328,-0.19126605987548828
1701885785154216000,2.6182158203125,1.0333868265151978,-0.4244823455810547,-0.13959884643554688
1701885785171210200,2.635210205078125,1.0433067083358765,-0.3938889503479004,-0.08137989044189453
1701885785188202000,2.652201904296875,1.0118467807769775,-0.3974123001098633,-0.008077621459960938
1701885785205192400,2.6691923828125,0.9274739027023315,-0.37467241287231445,-0.007943153381347656
1701885785222180000,2.68618017578125,0.8442617058753967,-0.3508720397949219,-0.023573875427246094
1701885785239167500,2.70316748046875,0.8408027291297913,-0.3173961639404297,-0.12166690826416016
1701885785256168200,2.720168212890625,0.8348450660705566,-0.36154890060424805,-0.11471748352050781
1701885785273157400,2.737157470703125,0.8848526477813721,-0.35901641845703125,-0.11854076385498047
1701885785290149000,2.754149169921875,0.9218915104866028,-0.3425116539001465,-0.1075124740600586
1701885785307131600,2.771131591796875,0.9568829536437988,-0.34122705459594727,-0.11095619201660156
1701885785324131600,2.788131591796875,0.9691441655158997,-0.3404073715209961,-0.16257667541503906
1701885785341126100,2.805126220703125,1.067598581314087,-0.354550838470459,-0.18606948852539062
1701885785358108700,2.822108642578125,1.1464354991912842,-0.3754920959472656,-0.16612911224365234
1701885785375107000,2.839107177734375,1.2200077772140503,-0.3930540084838867,-0.14899826049804688
1701885785392101400,2.856101318359375,1.1209831237792969,-0.38588380813598633,-0.01598072052001953
1701885785409083400,2.87308349609375,1.0578083992004395,-0.34827375411987305,-0.038394927978515625
1701885785426079500,2.89007958984375,1.104711890220642,-0.34052515029907227,-0.10682010650634766
1701885785443077600,2.90707763671875,1.1748287677764893,-0.3826479911804199,-0.13320350646972656
1701885785460058000,2.92405810546875,1.2527927160263062,-0.4432368278503418,-0.12569808959960938
1701885785477059600,2.9410595703125,1.3537518978118896,-0.39385128021240234,-0.25441646575927734
1701885785494047500,2.958047607421875,1.3714022636413574,-0.39028167724609375,-0.26776599884033203
1701885785511042300,2.975042236328125,1.2975795269012451,-0.3615298271179199,-0.2798309326171875
1701885785528024600,2.992024658203125,1.198305368423462,-0.34241390228271484,-0.27697181701660156
1701885785545020400,3.0090205078125,1.0727044343948364,-0.31197023391723633,-0.29310035705566406
1701885785562020000,3.02602001953125,1.016206979751587,-0.30768871307373047,-0.23641014099121094
1701885785578998300,3.042998291015625,0.9615887999534607,-0.2894768714904785,-0.2468709945678711
1701885785595999000,3.0599990234375,0.9951149225234985,-0.27911376953125,-0.25676441192626953
1701885785612984800,3.07698486328125,0.9788858294487,-0.26514577865600586,-0.1803750991821289
1701885785629983000,3.09398291015625,0.9777105450630188,-0.23791170120239258,-0.1191110610961914
1701885785646976800,3.110976806640625,0.927894115447998,-0.2217097282409668,-0.10100364685058594
1701885785663964000,3.1279638671875,0.9715561866760254,-0.2133798599243164,-0.03256416320800781
1701885785680958500,3.14495849609375,0.9868521690368652,-0.21736574172973633,-0.017698287963867188
1701885785697951200,3.161951171875,0.9962012767791748,-0.2602229118347168,-0.027489662170410156
1701885785714940200,3.178940185546875,1.055997371673584,-0.26974916458129883,-0.028326988220214844
1701885785731936500,3.1959365234375,1.1464401483535767,-0.2694993019104004,-0.03439140319824219
1701885785748915500,3.21291552734375,1.2028402090072632,-0.28171253204345703,-0.04652976989746094
1701885785765912600,3.22991259765625,1.1461418867111206,-0.321439266204834,-0.04533958435058594
1701885785782913300,3.246913330078125,1.0965125560760498,-0.32525110244750977,-0.10664939880371094
1701885785799887000,3.26388720703125,1.0722593069076538,-0.3584275245666504,-0.12092781066894531
1701885785816884500,3.280884521484375,1.1142630577087402,-0.37259531021118164,-0.08814430236816406
1701885785833883600,3.297883544921875,1.1321393251419067,-0.3520059585571289,-0.1310873031616211
1701885785850867500,3.314867431640625,1.0775710344314575,-0.32690858840942383,-0.2314319610595703
1701885785867866600,3.33186669921875,1.036116600036621,-0.3007688522338867,-0.3269376754760742
1701885785884857900,3.34885791015625,0.9982079863548279,-0.34062814712524414,-0.3406229019165039
1701885785901851000,3.365850830078125,0.9747267961502075,-0.36870718002319336,-0.2807426452636719
1701885785918846000,3.382845947265625,0.9355453252792358,-0.39821481704711914,-0.21405315399169922
1701885785935834000,3.399834228515625,0.9314059019088745,-0.38593244552612305,-0.135589599609375
1701885785952830700,3.416830810546875,0.9576911926269531,-0.38370704650878906,-0.0007257461547851562
1701885785969816300,3.43381640625,1.0051629543304443,-0.3547816276550293,0.032482147216796875
1701885785986808600,3.45080859375,1.0453389883041382,-0.38593244552612305,-0.06084918975830078
1701885786003795000,3.467794921875,1.0901132822036743,-0.4011087417602539,-0.12072086334228516
1701885786020791800,3.484791748046875,1.1195131540298462,-0.3526644706726074,-0.23195934295654297
1701885786037783000,3.501782958984375,1.0726951360702515,-0.33521175384521484,-0.2694740295410156
1701885786054761700,3.51876171875,0.9624046683311462,-0.3631401062011719,-0.203582763671875
1701885786071768800,3.535768798828125,0.8482541441917419,-0.4049649238586426,-0.15710735321044922
1701885786088758300,3.55275830078125,0.82940673828125,-0.42490720748901367,-0.25876712799072266
1701885786105749200,3.569749267578125,0.9055451154708862,-0.4134082794189453,-0.3299245834350586
1701885786122738400,3.586738525390625,0.9797013998031616,-0.3512883186340332,-0.28623199462890625
1701885786139732500,3.603732421875,1.0405617952346802,-0.27310657501220703,-0.11197376251220703
1701885786156724700,3.620724853515625,0.8786382675170898,-0.24239301681518555,0.03893852233886719
1701885786173720000,3.637719970703125,0.6744925379753113,-0.2612900733947754,0.10616493225097656
1701885786190709000,3.654708984375,0.595414400100708,-0.28429079055786133,0.0939950942993164
1701885786207698000,3.671697998046875,0.6378014087677002,-0.2948136329650879,0.06981372833251953
1701885786224691500,3.68869140625,0.8175495862960815,-0.29305601119995117,0.014246940612792969
1701885786241682700,3.7056826171875,0.9832679033279419,-0.31410837173461914,0.0134735107421875
1701885786258674400,3.72267431640625,1.0890922546386719,-0.36257457733154297,-0.030717849731445312
1701885786275665400,3.73966552734375,1.0916048288345337,-0.3749685287475586,-0.10394096374511719
1701885786292647000,3.75664697265625,1.0382858514785767,-0.3844642639160156,-0.1824655532836914
1701885786309648000,3.77364794921875,1.0226455926895142,-0.3740859031677246,-0.24570465087890625
1701885786326641700,3.7906416015625,1.020552635192871,-0.34325408935546875,-0.2754936218261719
1701885786343632100,3.807632080078125,0.9381046891212463,-0.3551516532897949,-0.30446624755859375
1701885786360624400,3.824624267578125,0.8883054256439209,-0.3323073387145996,-0.3854055404663086
1701885786377614300,3.8416142578125,0.913408100605011,-0.3453512191772461,-0.3751869201660156
1701885786394605300,3.858605224609375,1.0039442777633667,-0.34665584564208984,-0.2440662384033203
1701885786411603200,3.875603271484375,1.0502595901489258,-0.3281426429748535,-0.14081192016601562
1701885786428589000,3.892589111328125,0.9874320030212402,-0.33058643341064453,-0.061827659606933594
1701885786445577700,3.90957763671875,0.9108692407608032,-0.2772359848022461,-0.07490825653076172
1701885786462574000,3.926573974609375,0.8340305089950562,-0.22435235977172852,-0.09329509735107422
1701885786479565000,3.94356494140625,0.8403170704841614,-0.20960521697998047,-0.06901836395263672
1701885786496557300,3.960557373046875,0.843490481376648,-0.2147374153137207,-0.054589271545410156
1701885786513548500,3.977548583984375,0.8575214147567749,-0.22609519958496094,-0.055080413818359375
1701885786530540500,3.99454052734375,0.8009272217750549,-0.2246856689453125,-0.03628730773925781
1701885786547531500,4.011531494140625,0.7584048509597778,-0.23232603073120117,-0.06158256530761719
1701885786564523800,4.028523681640625,0.7525480389595032,-0.26877450942993164,-0.08714485168457031
1701885786581512200,4.04551220703125,0.8176741003990173,-0.2610001564025879,-0.13690662384033203
1701885786598507000,4.062507080078125,0.9189743995666504,-0.28397178649902344,-0.07483577728271484
1701885786615495200,4.0794951171875,0.9211524724960327,-0.270601749420166,-0.000926971435546875
1701885786632489700,4.09648974609375,0.8574651479721069,-0.2626791000366211,0.07880401611328125
1701885786649481200,4.113481201171875,0.7562866806983948,-0.2658200263977051,0.11967945098876953
1701885786666463000,4.130462890625,0.6898410320281982,-0.25307655334472656,0.1250753402709961
1701885786683454700,4.147454833984375,0.6617778539657593,-0.2666358947753906,0.03255462646484375
1701885786700456000,4.1644560546875,0.7132328748703003,-0.2779412269592285,-0.09609603881835938
1701885786717448700,4.18144873046875,0.8338521718978882,-0.29914283752441406,-0.15355968475341797
1701885786734439700,4.198439697265625,0.9501492977142334,-0.3164052963256836,-0.15780067443847656
1701885786751426300,4.21542626953125,0.9787479043006897,-0.33009910583496094,-0.22350120544433594
1701885786768423400,4.23242333984375,0.9714208245277405,-0.38085412979125977,-0.2310037612915039
1701885786785414100,4.2494140625,0.9892577528953552,-0.39098548889160156,-0.26158905029296875
1701885786802406400,4.266406494140625,0.9834737181663513,-0.41739606857299805,-0.2439126968383789
1701885786819396900,4.28339697265625,1.084658145904541,-0.3552675247192383,-0.23940372467041016
1701885786836390700,4.300390625,1.1486005783081055,-0.34076404571533203,-0.20145893096923828
1701885786853380900,4.317380859375,1.156767725944519,-0.3103804588317871,-0.16202163696289062
1701885786870378800,4.334378662109375,1.040036678314209,-0.3187222480773926,-0.15964221954345703
1701885786887363300,4.35136328125,0.9115013480186462,-0.29477930068969727,-0.24945545196533203
1701885786904357000,4.368357177734375,0.8231515288352966,-0.30356407165527344,-0.2768278121948242
1701885786921347300,4.385347412109375,0.8314683437347412,-0.3164200782775879,-0.2374591827392578
1701885786938339600,4.402339599609375,0.9014062881469727,-0.338409423828125,-0.13643836975097656
1701885786955327700,4.41932763671875,0.9984114170074463,-0.34198427200317383,-0.07891368865966797
1701885786972323000,4.436322998046875,1.0091294050216675,-0.326688289642334,-0.08309459686279297
1701885786989314000,4.45331396484375,0.9609881639480591,-0.32425355911254883,-0.10992431640625
1701885787006305800,4.470305908203125,0.9129223823547363,-0.29293060302734375,-0.07007884979248047
1701885787023294000,4.4872939453125,0.8066880106925964,-0.3166079521179199,-0.05456066131591797
1701885787040278500,4.504278564453125,0.6924394369125366,-0.382904052734375,-0.1417675018310547
1701885787057280300,4.5212802734375,0.6964975595474243,-0.376223087310791,-0.2582988739013672
1701885787074260500,4.538260498046875,0.8324430584907532,-0.37122154235839844,-0.25514888763427734
1701885787091266300,4.555266357421875,0.9401881098747253,-0.37289953231811523,-0.2113943099975586
1701885787108256000,4.572256103515625,0.9381151795387268,-0.3186964988708496,-0.22774314880371094
1701885787125247000,4.5892470703125,0.8525711894035339,-0.28708744049072266,-0.2037363052368164
1701885787142236000,4.60623583984375,0.7429919838905334,-0.2686123847961426,-0.1360940933227539
1701885787159219500,4.623219482421875,0.6094009876251221,-0.27176523208618164,-0.059258460998535156
1701885787176222500,4.640222412109375,0.5850751399993896,-0.2585625648498535,-0.057417869567871094
1701885787193213400,4.65721337890625,0.6564908027648926,-0.2391343116760254,-0.0958404541015625
1701885787210193000,4.67419287109375,0.785225510597229,-0.28438901901245117,-0.14153671264648438
1701885787227197000,4.691197021484375,0.9045490622520447,-0.3211965560913086,-0.19730472564697266
1701885787244189700,4.708189697265625,0.9578260779380798,-0.3327951431274414,-0.2612771987915039
1701885787261172700,4.7251728515625,0.9560044407844543,-0.3329453468322754,-0.24195575714111328
1701885787278166300,4.742166259765625,0.8911174535751343,-0.3039970397949219,-0.2215557098388672
1701885787295163100,4.7591630859375,0.8823934197425842,-0.29432010650634766,-0.2017354965209961
1701885787312157200,4.7761572265625,0.9136282205581665,-0.25699424743652344,-0.25589561462402344
1701885787329149000,4.79314892578125,0.9409989714622498,-0.2789335250854492,-0.2909221649169922
1701885787346128100,4.810128173828125,0.9692678451538086,-0.29087066650390625,-0.3214387893676758
1701885787363129900,4.8271298828125,0.9698567390441895,-0.33440351486206055,-0.27388477325439453
1701885787380112000,4.84411181640625,0.9333587884902954,-0.34931373596191406,-0.22101116180419922
1701885787397113300,4.86111328125,0.9322300553321838,-0.3306112289428711,-0.20279598236083984
1701885787414101800,4.878101806640625,0.9234772324562073,-0.3109402656555176,-0.23241138458251953
1701885787431094000,4.895093994140625,0.920749843120575,-0.315093994140625,-0.18477725982666016
1701885787448088800,4.9120888671875,0.8586380481719971,-0.29935550689697266,-0.0935049057006836
1701885787465079300,4.929079345703125,0.7435916066169739,-0.26512956619262695,-0.08766651153564453
1701885787482071800,4.94607177734375,0.6676425933837891,-0.24774646759033203,-0.09288406372070312
1701885787499057000,4.963056884765625,0.6429802179336548,-0.2744612693786621,-0.09489154815673828
1701885787516052700,4.980052734375,0.6705120801925659,-0.3217134475708008,-0.09825515747070312
1701885787533041700,4.997041748046875,0.7548330426216125,-0.31518983840942383,-0.13962745666503906
1701885787550042400,5.01404248046875,0.8245458006858826,-0.29168272018432617,-0.14084243774414062
1701885787567029200,5.031029296875,0.8561404943466187,-0.24200057983398438,-0.14589500427246094
1701885787584021500,5.048021484375,0.8198391199111938,-0.2097330093383789,-0.06698417663574219
1701885787601012700,5.0650126953125,0.6870334148406982,-0.19722747802734375,0.03168678283691406
1701885787618004700,5.082004638671875,0.5884369611740112,-0.18791866302490234,0.032647132873535156
1701885787634994000,5.098993896484375,0.5670130252838135,-0.1803269386291504,0.027088165283203125
1701885787651990300,5.115990234375,0.652654767036438,-0.21185827255249023,-0.008761405944824219
1701885787668979200,5.132979248046875,0.7347903847694397,-0.23975419998168945,-0.05990409851074219
1701885787685969700,5.1499697265625,0.7905904650688171,-0.30154895782470703,-0.12069129943847656
1701885787702964200,5.166964111328125,0.8053452372550964,-0.3230628967285156,-0.1752309799194336
1701885787719953700,5.18395361328125,0.7897294759750366,-0.2976999282836914,-0.1602630615234375
1701885787736947000,5.200947021484375,0.7074570655822754,-0.3078746795654297,0.010685920715332031
1701885787753938200,5.217938232421875,0.5705299377441406,-0.30290651321411133,0.06266593933105469
1701885787770929400,5.234929443359375,0.503403902053833,-0.2810497283935547,0.030614852905273438
1701885787787921200,5.251921142578125,0.5030127763748169,-0.2378702163696289,-0.05000782012939453
1701885787804896300,5.268896240234375,0.5743985772132874,-0.2189774513244629,-0.10839271545410156
1701885787821904400,5.285904296875,0.6461972594261169,-0.2341623306274414,-0.14316558837890625
1701885787838895600,5.3028955078125,0.6959376931190491,-0.25489377975463867,-0.15396785736083984
1701885787855884800,5.319884765625,0.6940580606460571,-0.2671165466308594,-0.15977191925048828
1701885787872878800,5.33687890625,0.7116420269012451,-0.2652430534362793,-0.18009185791015625
1701885787889871400,5.353871337890625,0.7650501132011414,-0.26723289489746094,-0.1908588409423828
1701885787906862300,5.3708623046875,0.8312293291091919,-0.29933595657348633,-0.19327831268310547
1701885787923854300,5.387854248046875,0.8902314305305481,-0.30641984939575195,-0.24826526641845703
1701885787940845300,5.40484521484375,0.9058679342269897,-0.3017721176147461,-0.2869091033935547
1701885787957837600,5.421837646484375,0.875356137752533,-0.2704133987426758,-0.24750328063964844
1701885787974828500,5.43882861328125,0.8157438635826111,-0.243316650390625,-0.17824649810791016
1701885787991821000,5.455821044921875,0.7614037990570068,-0.2416973114013672,-0.14383220672607422
1701885788008812000,5.47281201171875,0.7098103761672974,-0.24623727798461914,-0.16261672973632812
1701885788025804300,5.48980419921875,0.691205620765686,-0.2555994987487793,-0.23984050750732422
1701885788042789600,5.50678955078125,0.7115480303764343,-0.2757110595703125,-0.2581329345703125
1701885788059787800,5.523787841796875,0.7522159218788147,-0.2444596290588379,-0.26515960693359375
1701885788076781000,5.540781005859375,0.8154523968696594,-0.23392295837402344,-0.13641643524169922
1701885788093770800,5.557770751953125,0.8509584665298462,-0.20787858963012695,-0.015936851501464844
1701885788110761700,5.57476171875,0.7710272669792175,-0.1925196647644043,0.0713949203491211
1701885788127754000,5.59175390625,0.7046740651130676,-0.17353582382202148,0.09112358093261719
1701885788144745200,5.6087451171875,0.5755010843276978,-0.14157390594482422,0.06773185729980469
1701885788161735400,5.6257353515625,0.5353074073791504,-0.12665414810180664,0.07030010223388672
1701885788178730800,5.642730712890625,0.5008202791213989,-0.19707202911376953,0.08049488067626953
1701885788195720700,5.659720703125,0.5515812635421753,-0.2514181137084961,0.021144866943359375
1701885788212711700,5.676711669921875,0.6565025448799133,-0.2645077705383301,-0.08719921112060547
1701885788229703000,5.693702880859375,0.7645757794380188,-0.2430582046508789,-0.15272808074951172
1701885788246696000,5.710696044921875,0.8190041780471802,-0.2254800796508789,-0.14940929412841797
1701885788263687200,5.727687255859375,0.7754226326942444,-0.22091007232666016,-0.14048099517822266
1701885788280678400,5.744678466796875,0.705339789390564,-0.21688127517700195,-0.15491008758544922
1701885788297669400,5.76166943359375,0.6287174224853516,-0.24229812622070312,-0.13569259643554688
1701885788314662400,5.778662353515625,0.6324026584625244,-0.27159738540649414,-0.13130855560302734
1701885788331654000,5.79565380859375,0.6728842854499817,-0.2863473892211914,-0.11319828033447266
1701885788348644600,5.81264453125,0.7169640064239502,-0.28603601455688477,-0.10470962524414062
1701885788365630200,5.829630126953125,0.7259345650672913,-0.27227020263671875,-0.11506271362304688
1701885788382628400,5.84662841796875,0.7139340043067932,-0.26840925216674805,-0.15919208526611328
1701885788399620400,5.863620361328125,0.7070780396461487,-0.23937511444091797,-0.1876811981201172
1701885788416611600,5.880611572265625,0.630542516708374,-0.2325611114501953,-0.14369869232177734
1701885788433603600,5.897603515625,0.5252668857574463,-0.189697265625,-0.1309976577758789
1701885788450596000,5.91459619140625,0.4060569703578949,-0.16132593154907227,-0.1275339126586914
1701885788467586800,5.9315869140625,0.4075646698474884,-0.15772008895874023,-0.08768558502197266
1701885788484578300,5.948578369140625,0.47410354018211365,-0.1807727813720703,-0.0926504135131836
1701885788501571800,5.96557177734375,0.6132626533508301,-0.22423887252807617,-0.07519340515136719
1701885788518561300,5.982561279296875,0.6314948797225952,-0.25373220443725586,0.009767532348632812
1701885788535553500,5.999553466796875,0.46292996406555176,-0.21121835708618164,0.04420948028564453
1701885788552543000,6.01654296875,0.29829686880111694,-0.15568828582763672,-0.032012939453125
1701885788569532400,6.033532470703125,0.3407776355743408,-0.1268939971923828,-0.0542144775390625
1701885788586530600,6.050530517578125,0.583116888999939,-0.14140892028808594,0.04653453826904297
1701885788603521300,6.067521240234375,0.8361691236495972,-0.1717662811279297,0.112762451171875
1701885788620510200,6.08451025390625,0.870771050453186,-0.1944742202758789,0.06418514251708984
1701885788637501700,6.101501708984375,0.7993227243423462,-0.20880651473999023,-0.07433509826660156
1701885788654486800,6.11848681640625,0.697933554649353,-0.23131418228149414,-0.1736431121826172
1701885788671484200,6.135484130859375,0.6797317862510681,-0.2660646438598633,-0.1910409927368164
1701885788688478000,6.15247802734375,0.7097139954566956,-0.2798762321472168,-0.1405801773071289
1701885788705470000,6.169469970703125,0.6563971042633057,-0.25497007369995117,-0.12254905700683594
1701885788722461200,6.186461181640625,0.5589855909347534,-0.22987699508666992,-0.19568538665771484
1701885788739452200,6.2034521484375,0.5571056604385376,-0.19899511337280273,-0.25901126861572266
1701885788756445000,6.22044482421875,0.6665234565734863,-0.2203841209411621,-0.2565803527832031
1701885788773436700,6.237436767578125,0.8152597546577454,-0.23544836044311523,-0.20103740692138672
1701885788790427600,6.254427734375,0.8536806106567383,-0.26999425888061523,-0.14961624145507812
1701885788807419100,6.271419189453125,0.7709043622016907,-0.282473087310791,-0.1551046371459961
1701885788824412000,6.288411865234375,0.6495049595832825,-0.29033803939819336,-0.22736549377441406
1701885788841402600,6.305402587890625,0.6705931425094604,-0.27749061584472656,-0.26181793212890625
1701885788858391300,6.322391357421875,0.7628093957901001,-0.27226781845092773,-0.23945045471191406
1701885788875385600,6.339385498046875,0.8382363319396973,-0.23712539672851562,-0.24860477447509766
1701885788892368000,6.356367919921875,0.837211549282074,-0.22399377822875977,-0.25711631774902344
1701885788909366800,6.37336669921875,0.7476353049278259,-0.21750688552856445,-0.24125099182128906
1701885788926360600,6.390360595703125,0.6612166166305542,-0.20241546630859375,-0.1922283172607422
1701885788943340300,6.40734033203125,0.6261289715766907,-0.1925339698791504,-0.14438343048095703
1701885788960346000,6.42434619140625,0.7120124101638794,-0.16914939880371094,-0.17432022094726562
1701885788977336300,6.44133642578125,0.8260853290557861,-0.23091888427734375,-0.1091165542602539
1701885788994327600,6.45832763671875,0.8025387525558472,-0.2652435302734375,0.029630661010742188
1701885789011319800,6.47531982421875,0.6699890494346619,-0.26752519607543945,0.019181251525878906
1701885789028310800,6.492310791015625,0.539725124835968,-0.19486665725708008,-0.07799816131591797
1701885789045303300,6.50930322265625,0.4966285228729248,-0.15193700790405273,-0.1332225799560547
1701885789062290400,6.52629052734375,0.5355463624000549,-0.16373014450073242,-0.14283466339111328
1701885789079287600,6.54328759765625,0.7011301517486572,-0.22959423065185547,-0.13983821868896484
1701885789096277200,6.56027734375,0.7883309125900269,-0.29140186309814453,-0.11346721649169922
1701885789113269200,6.577269287109375,0.7761052846908569,-0.33394670486450195,-0.16702556610107422
1701885789130259700,6.594259765625,0.6696962714195251,-0.37363624572753906,-0.23754024505615234
1701885789147244800,6.611244873046875,0.6145551204681396,-0.38010120391845703,-0.2391653060913086
1701885789164256500,6.628256591796875,0.6232370734214783,-0.35898828506469727,-0.1285696029663086
1701885789181236000,6.645236083984375,0.614595890045166,-0.30820560455322266,0.00148773193359375
1701885789198227500,6.6622275390625,0.5925498008728027,-0.25820302963256836,0.01171112060546875
1701885789215218200,6.67921826171875,0.5526370406150818,-0.24675559997558594,-0.016941070556640625
1701885789232211700,6.696211669921875,0.4775620698928833,-0.20163393020629883,-0.059062957763671875
1701885789249202400,6.713202392578125,0.3554960787296295,-0.26666784286499023,-0.08684158325195312
1701885789266194000,6.73019384765625,0.23093891143798828,-0.3218708038330078,-0.12361621856689453
1701885789283180300,6.74718017578125,0.2005956768989563,-0.30167627334594727,-0.11620521545410156
1701885789300177000,6.764177001953125,0.24653959274291992,-0.25067615509033203,-0.007052421569824219
1701885789317169400,6.78116943359375,0.28144076466560364,-0.21206140518188477,0.0772247314453125
1701885789334157600,6.798157470703125,0.27803680300712585,-0.20520353317260742,0.0927114486694336
1701885789351155500,6.815155517578125,0.24343037605285645,-0.23433828353881836,0.03982830047607422
1701885789368144000,6.832143798828125,0.2641262114048004,-0.2546234130859375,-0.07123565673828125
1701885789385132800,6.8491328125,0.3457582890987396,-0.25843334197998047,-0.1913919448852539
1701885789402126800,6.866126953125,0.465678334236145,-0.24888849258422852,-0.1713085174560547
1701885789419119400,6.883119384765625,0.5045561790466309,-0.22866392135620117,-0.10587882995605469
1701885789436110000,6.900110107421875,0.49154970049858093,-0.2038273811340332,-0.10264110565185547
1701885789453092400,6.91709228515625,0.4525561034679413,-0.15860557556152344,-0.13173770904541016
1701885789470093600,6.934093505859375,0.43549278378486633,-0.1466808319091797,-0.10850715637207031
1701885789487085800,6.9510859375,0.45243483781814575,-0.11569786071777344,-0.07605266571044922
1701885789504076800,6.968076904296875,0.475290983915329,-0.10505437850952148,-0.0010786056518554688
1701885789521068800,6.98506884765625,0.4756193459033966,-0.13570737838745117,0.014996528625488281
1701885789538059500,7.0020595703125,0.5556610822677612,-0.1682295799255371,-0.07607650756835938
1701885789555053300,7.01905322265625,0.6829687356948853,-0.1810932159423828,-0.1292247772216797
1701885789572043500,7.03604345703125,0.7573016285896301,-0.20078468322753906,-0.11822795867919922
1701885789589035500,7.053035400390625,0.7385005354881287,-0.17589044570922852,-0.09517765045166016
1701885789606026800,7.07002685546875,0.6428911685943604,-0.1352529525756836,-0.06219005584716797
1701885789623018800,7.087018798828125,0.5423680543899536,-0.09551620483398438,-0.015002250671386719
1701885789640009500,7.104009521484375,0.47115182876586914,-0.08199024200439453,0.054931640625
1701885789656992300,7.1209921875,0.4027407169342041,-0.11004495620727539,0.06085968017578125
1701885789673990100,7.137990234375,0.3312673568725586,-0.13619327545166016,-0.00212860107421875
1701885789690985700,7.15498583984375,0.2923696041107178,-0.16010141372680664,-0.11519050598144531
1701885789707976700,7.171976806640625,0.3663606345653534,-0.1762394905090332,-0.1958475112915039
1701885789724968700,7.18896875,0.5339961647987366,-0.20044946670532227,-0.21461009979248047
1701885789741966800,7.205966796875,0.7025182247161865,-0.2140512466430664,-0.20857810974121094
1701885789758952400,7.222952392578125,0.7835811972618103,-0.23046636581420898,-0.22039222717285156
1701885789775939800,7.23993994140625,0.7360832095146179,-0.23488283157348633,-0.2052602767944336
1701885789792935400,7.256935302734375,0.6122382879257202,-0.21915245056152344,-0.19347190856933594
1701885789809926700,7.2739267578125,0.4740369915962219,-0.21664905548095703,-0.17212677001953125
1701885789826919000,7.2909189453125,0.43840262293815613,-0.18348360061645508,-0.15976619720458984
1701885789843910000,7.307909912109375,0.46575942635536194,-0.1651759147644043,-0.07649898529052734
1701885789860902400,7.32490234375,0.45986923575401306,-0.15462017059326172,-0.056593894958496094
1701885789877890000,7.34189013671875,0.4464706480503082,-0.16475868225097656,-0.07598018646240234
1701885789894885400,7.358885498046875,0.4706122875213623,-0.17486000061035156,-0.11959171295166016
1701885789911876400,7.37587646484375,0.5409953594207764,-0.20406103134155273,-0.1492013931274414
1701885789928866600,7.392866455078125,0.605679452419281,-0.19323444366455078,-0.15912151336669922
1701885789945861600,7.409861572265625,0.6230731010437012,-0.16751384735107422,-0.15828609466552734
1701885789962848800,7.426848876953125,0.5873832702636719,-0.13064861297607422,-0.14229965209960938
1701885789979843000,7.443843017578125,0.4897075295448303,-0.10799455642700195,-0.06259536743164062
1701885789996835300,7.46083544921875,0.3666001558303833,-0.07255983352661133,-0.051288604736328125
1701885790013826600,7.47782666015625,0.28334441781044006,-0.05797433853149414,-0.05514717102050781
1701885790030818800,7.49481884765625,0.28807806968688965,-0.053266048431396484,-0.03607940673828125
1701885790047809500,7.5118095703125,0.33045366406440735,-0.07300853729248047,0.01618194580078125
1701885790064802000,7.528802001953125,0.4103256165981293,-0.07879400253295898,0.014675140380859375
1701885790081793000,7.54579296875,0.47578155994415283,-0.03289031982421875,0.0034389495849609375
1701885790098785300,7.562785400390625,0.4807017147541046,-0.06478738784790039,0.0304718017578125
1701885790115777300,7.57977734375,0.4992431402206421,-0.0979766845703125,-0.024774551391601562
1701885790132768000,7.59676806640625,0.513970136642456,-0.1378931999206543,-0.08129501342773438
1701885790149759000,7.613759033203125,0.5571029186248779,-0.14362335205078125,-0.11294364929199219
1701885790166752800,7.630752685546875,0.6044272184371948,-0.12723350524902344,-0.15355587005615234
1701885790183742700,7.64774267578125,0.603650689125061,-0.10407781600952148,-0.15399551391601562
1701885790200735000,7.66473486328125,0.6128495931625366,-0.08454608917236328,-0.07252216339111328
1701885790217725700,7.6817255859375,0.5397587418556213,-0.08604717254638672,-0.005518913269042969
1701885790234719200,7.69871923828125,0.4278751313686371,-0.11983728408813477,0.0022096633911132812
1701885790251709400,7.71570947265625,0.3768424093723297,-0.14700794219970703,-0.06842994689941406
1701885790268701700,7.73270166015625,0.43167218565940857,-0.2078847885131836,-0.1311025619506836
1701885790285689900,7.74968994140625,0.5610824823379517,-0.22939586639404297,-0.17476463317871094
1701885790302685000,7.766684814453125,0.6787592172622681,-0.2680201530456543,-0.17441558837890625
1701885790319676200,7.78367626953125,0.7147706747055054,-0.27585601806640625,-0.21936798095703125
1701885790336673800,7.800673828125,0.671065092086792,-0.26621007919311523,-0.23873615264892578
1701885790353657000,7.817656982421875,0.5464024543762207,-0.23975753784179688,-0.17878437042236328
1701885790370654200,7.834654296875,0.39274582266807556,-0.2175140380859375,-0.13293170928955078
1701885790387640000,7.85164013671875,0.2956983149051666,-0.2098526954650879,-0.111724853515625
1701885790404635000,7.868634765625,0.2789098024368286,-0.19702911376953125,-0.10560417175292969
1701885790421626000,7.885626220703125,0.32579708099365234,-0.1992959976196289,-0.08542823791503906
1701885790438618400,7.902618408203125,0.36737802624702454,-0.20173263549804688,-0.0705575942993164
1701885790455609300,7.919609375,0.3963871896266937,-0.20427322387695312,-0.05503273010253906
1701885790472598300,7.936598388671875,0.40099629759788513,-0.18784523010253906,-0.0013589859008789062
1701885790489592800,7.9535927734375,0.35884904861450195,-0.18761110305786133,-0.025338172912597656
1701885790506591700,7.970591796875,0.3102993369102478,-0.19359731674194336,-0.10211658477783203
1701885790523576300,7.987576416015625,0.2699500322341919,-0.17911481857299805,-0.15475845336914062
1701885790540567600,8.004567626953126,0.3108641803264618,-0.17273426055908203,-0.10599231719970703
1701885790557561300,8.021561279296876,0.3762543499469757,-0.16176176071166992,-0.06265735626220703
1701885790574551600,8.038551513671875,0.4496324062347412,-0.16091680526733398,-0.03437232971191406
1701885790591542800,8.055542724609374,0.47049957513809204,-0.19070720672607422,-0.092437744140625
1701885790608535300,8.072535400390626,0.44887250661849976,-0.1999835968017578,-0.1211080551147461
1701885790625523700,8.089523681640625,0.4044773280620575,-0.1923842430114746,-0.10059928894042969
1701885790642518300,8.106518310546875,0.39402076601982117,-0.14583253860473633,-0.07431888580322266
1701885790659511300,8.12351123046875,0.3998870253562927,-0.12516450881958008,-0.039703369140625
1701885790676502300,8.140502197265626,0.4048275947570801,-0.1393747329711914,-0.034834861755371094
1701885790693492700,8.15749267578125,0.4174712896347046,-0.14934682846069336,-0.05035400390625
1701885790710485000,8.174485107421875,0.4527684450149536,-0.13636493682861328,-0.13249778747558594
1701885790727475500,8.191475341796876,0.4730485677719116,-0.12635040283203125,-0.15663528442382812
1701885790744469000,8.208468994140626,0.4560428559780121,-0.1692819595336914,-0.16148948669433594
1701885790761459200,8.225459228515625,0.48706603050231934,-0.1829509735107422,-0.22878360748291016
1701885790778448600,8.24244873046875,0.5385334491729736,-0.19389009475708008,-0.19417095184326172
1701885790795439600,8.259439697265625,0.5460547208786011,-0.16350221633911133,-0.16641712188720703
1701885790812435000,8.27643505859375,0.5059873461723328,-0.12700414657592773,-0.10505867004394531
1701885790829426000,8.293426025390625,0.4595167636871338,-0.08690500259399414,-0.03850555419921875
1701885790846418200,8.310418212890625,0.41293859481811523,-0.1004343032836914,0.06041431427001953
1701885790863406000,8.327406005859375,0.38512954115867615,-0.09198713302612305,0.04842376708984375
1701885790880401200,8.344401123046875,0.3518255949020386,-0.09924983978271484,0.011152267456054688
1701885790897392400,8.361392333984375,0.35090023279190063,-0.1128087043762207,-0.0077800750732421875
1701885790914386400,8.378386474609375,0.4075896739959717,-0.10396623611450195,-0.06667041778564453
1701885790931374600,8.39537451171875,0.44704747200012207,-0.13011407852172852,-0.11101531982421875
1701885790948368000,8.412367919921875,0.4917352795600891,-0.15079498291015625,-0.15111064910888672
1701885790965359000,8.429359130859375,0.5366026163101196,-0.17035436630249023,-0.16161251068115234
1701885790982348000,8.44634814453125,0.5321564078330994,-0.1683363914489746,-0.16552066802978516
1701885790999350800,8.463350830078125,0.46076500415802,-0.15949010848999023,-0.12949657440185547
1701885791016334800,8.4803349609375,0.3745324909687042,-0.12702369689941406,-0.07897758483886719
1701885791033325800,8.497325927734375,0.3170342743396759,-0.11902475357055664,-0.07688045501708984
1701885791050327300,8.514327392578124,0.30962154269218445,-0.10766744613647461,-0.032700538635253906
1701885791067309800,8.531309814453126,0.31152623891830444,-0.11715888977050781,-0.01840686798095703
1701885791084292400,8.548292236328125,0.33260977268218994,-0.12848329544067383,-0.049025535583496094
1701885791101281300,8.56528125,0.3632008731365204,-0.16511297225952148,-0.09859752655029297
1701885791118285800,8.582285888671874,0.41579464077949524,-0.16139602661132812,-0.1528339385986328
1701885791135275800,8.59927587890625,0.44498303532600403,-0.16585588455200195,-0.1623830795288086
1701885791152268000,8.61626806640625,0.4601582884788513,-0.1445164680480957,-0.10875225067138672
1701885791169259000,8.633259033203124,0.3996169865131378,-0.1290750503540039,-0.06016063690185547
1701885791186248200,8.650248291015625,0.31028276681900024,-0.1328282356262207,-0.06391525268554688
1701885791203245800,8.667245849609374,0.2799264192581177,-0.12737178802490234,-0.07259082794189453
1701885791220227000,8.68422705078125,0.29724812507629395,-0.12671804428100586,-0.08186149597167969
1701885791237225200,8.70122509765625,0.3725578188896179,-0.13003873825073242,-0.04825305938720703
1701885791254219000,8.718218994140624,0.4267865717411041,-0.12852811813354492,-0.01945209503173828
1701885791271209000,8.735208984375,0.3955046534538269,-0.14734983444213867,-0.014598846435546875
1701885791288201500,8.752201416015625,0.34932541847229004,-0.11918830871582031,-0.033512115478515625
1701885791305189400,8.769189453125,0.2894207835197449,-0.12514829635620117,-0.06710243225097656
1701885791322184700,8.786184814453126,0.2913617491722107,-0.1453862190246582,-0.08748340606689453
1701885791339175700,8.80317578125,0.3466043770313263,-0.1649456024169922,-0.09255409240722656
1701885791356167700,8.820167724609375,0.38684511184692383,-0.17312240600585938,-0.08803653717041016
1701885791373155800,8.83715576171875,0.43590405583381653,-0.15740585327148438,-0.06888866424560547
1701885791390151200,8.854151123046876,0.4269961416721344,-0.15043401718139648,-0.08162593841552734
1701885791407142100,8.87114208984375,0.3559712767601013,-0.10601663589477539,-0.07534122467041016
1701885791424132400,8.88813232421875,0.23768118023872375,-0.13949060440063477,-0.06495952606201172
1701885791441117200,8.9051171875,0.1871355175971985,-0.16414260864257812,-0.14226341247558594
1701885791458116000,8.9221162109375,0.27340808510780334,-0.18930578231811523,-0.19613170623779297
1701885791475110400,8.9391103515625,0.41659271717071533,-0.2109389305114746,-0.17730998992919922
1701885791492101000,8.95610107421875,0.4955454468727112,-0.1964735984802246,-0.15179729461669922
1701885791509092600,8.973092529296874,0.4688614010810852,-0.15685176849365234,-0.17197799682617188
1701885791526084400,8.99008447265625,0.3821660876274109,-0.12459754943847656,-0.1332235336303711
1701885791543075600,9.00707568359375,0.34423771500587463,-0.09564018249511719,-0.008136749267578125
1701885791560067300,9.0240673828125,0.2780076861381531,-0.08334875106811523,0.0972127914428711
1701885791577059800,9.041059814453124,0.2255275547504425,-0.07480287551879883,0.09023475646972656
1701885791594051000,9.058051025390625,0.20188990235328674,-0.09331274032592773,0.02359485626220703
1701885791611042300,9.075042236328125,0.24917852878570557,-0.10771560668945312,-0.058681488037109375
1701885791628023800,9.09202392578125,0.3432477116584778,-0.13113164901733398,-0.10719776153564453
1701885791645025800,9.10902587890625,0.3982107639312744,-0.1399073600769043,-0.16483592987060547
1701885791662015500,9.126015380859375,0.4154132008552551,-0.1269211769104004,-0.19688034057617188
1701885791679011300,9.14301123046875,0.395946741104126,-0.11228752136230469,-0.13649272918701172
1701885791695990800,9.15999072265625,0.38645681738853455,-0.07735538482666016,-0.060837745666503906
1701885791712992500,9.176992431640626,0.339923620223999,-0.06817436218261719,0.0040531158447265625
1701885791729984500,9.193984619140625,0.2891830801963806,-0.06988000869750977,0.02068328857421875
1701885791746975700,9.210975830078125,0.23985952138900757,-0.09325981140136719,-0.017014503479003906
1701885791763970300,9.22797021484375,0.27033892273902893,-0.10144758224487305,-0.07887554168701172
1701885791780958700,9.244958740234376,0.3435119688510895,-0.09964513778686523,-0.09804821014404297
1701885791797951200,9.261951171875,0.4131319522857666,-0.107513427734375,-0.11213493347167969
1701885791814942700,9.278942626953125,0.38959380984306335,-0.12469911575317383,-0.11109733581542969
1701885791831934200,9.295934326171874,0.32629454135894775,-0.12688302993774414,-0.15697765350341797
1701885791848925400,9.312925537109376,0.23057813942432404,-0.14776372909545898,-0.1640033721923828
1701885791865918000,9.32991796875,0.2296372950077057,-0.11476564407348633,-0.17607688903808594
1701885791882905900,9.34690576171875,0.27913278341293335,-0.13883638381958008,-0.1071767807006836
1701885791899901200,9.363901123046874,0.3615044951438904,-0.1253662109375,-0.014164924621582031
1701885791916892200,9.38089208984375,0.4010778069496155,-0.13854312896728516,0.043315887451171875
1701885791933884700,9.397884765625,0.3742028474807739,-0.10105228424072266,-0.023767471313476562
1701885791950875600,9.414875732421875,0.3381583094596863,-0.1317157745361328,-0.04355907440185547
1701885791967868000,9.431867919921874,0.3400399684906006,-0.1324748992919922,-0.06337928771972656
1701885791984859000,9.44885888671875,0.36438918113708496,-0.15784168243408203,-0.07909488677978516
1701885792001851100,9.46585107421875,0.35345837473869324,-0.14979982376098633,-0.10326290130615234
1701885792018842400,9.48284228515625,0.35714709758758545,-0.14121532440185547,-0.10860824584960938
1701885792035834400,9.49983447265625,0.3349510431289673,-0.11747455596923828,-0.1422719955444336
1701885792052825600,9.51682568359375,0.31398823857307434,-0.12174606323242188,-0.14204692840576172
1701885792069817000,9.533817138671875,0.3597080707550049,-0.1011056900024414,-0.1460704803466797
1701885792086809600,9.5508095703125,0.39845582842826843,-0.10859489440917969,-0.07378864288330078
1701885792103801300,9.56780126953125,0.4356236159801483,-0.10251092910766602,-0.03006458282470703
1701885792120792000,9.5847919921875,0.4086478352546692,-0.08835506439208984,-0.044608116149902344
1701885792137783600,9.601783447265625,0.34734341502189636,-0.09059858322143555,-0.0019330978393554688
1701885792154776600,9.618776611328125,0.2330799102783203,-0.1378617286682129,-0.061100006103515625
1701885792171755500,9.635755615234375,0.2864149212837219,-0.1777515411376953,-0.03161430358886719
1701885792188750800,9.652750732421875,0.3623178005218506,-0.11028718948364258,0.001911163330078125
1701885792205742600,9.66974267578125,0.20796406269073486,-0.09378385543823242,-0.16596508026123047
1701885792222742300,9.6867421875,0.12213962525129318,-0.1315169334411621,-0.23221778869628906
1701885792239734300,9.703734375,0.20308206975460052,-0.14979028701782227,-0.07212543487548828
1701885792256725500,9.7207255859375,0.38344618678092957,-0.11505413055419922,0.03958320617675781
1701885792273730800,9.737730712890626,0.4027603566646576,-0.0918269157409668,0.027009010314941406
1701885792290709000,9.754708984375,0.29440104961395264,-0.09821701049804688,-0.047614097595214844
1701885792307701000,9.771700927734376,0.23199468851089478,-0.14218378067016602,-0.07871246337890625
1701885792324692000,9.78869189453125,0.2673717439174652,-0.1325993537902832,-0.10569953918457031
1701885792341678000,9.805677978515625,0.3166274428367615,-0.1450653076171875,-0.08325481414794922
1701885792358675700,9.82267578125,0.39220374822616577,-0.11730098724365234,-0.0655508041381836
1701885792375667700,9.839667724609376,0.3992414176464081,-0.11447334289550781,-0.06664371490478516
1701885792392656000,9.85665576171875,0.33833396434783936,-0.11705970764160156,-0.12071704864501953
1701885792409651200,9.873651123046875,0.2732466459274292,-0.1195220947265625,-0.15465068817138672
1701885792426642200,9.89064208984375,0.28603652119636536,-0.10413360595703125,-0.17360401153564453
1701885792443634400,9.907634521484376,0.33177804946899414,-0.12004566192626953,-0.13906097412109375
1701885792460622600,9.92462255859375,0.3486051857471466,-0.11094856262207031,-0.08424091339111328
1701885792477618700,9.94161865234375,0.33616992831230164,-0.09352302551269531,-0.06802558898925781
1701885792494609000,9.95860888671875,0.31092435121536255,-0.0805964469909668,-0.056122779846191406
1701885792511601000,9.975600830078125,0.3153059482574463,-0.08189821243286133,-0.011242866516113281
1701885792528592100,9.992592041015625,0.29053694009780884,-0.06581974029541016,0.018344879150390625
1701885792545584400,10.00958447265625,0.2503186762332916,-0.06621551513671875,-0.039322853088378906
1701885792562568400,10.026568359375,0.23924927413463593,-0.07615184783935547,-0.07722187042236328
1701885792579563500,10.0435634765625,0.2715635597705841,-0.09988784790039062,-0.0825338363647461
1701885792596560000,10.060559814453125,0.3162320852279663,-0.11266088485717773,-0.09224128723144531
1701885792613551400,10.07755126953125,0.3562676012516022,-0.10108137130737305,-0.1056070327758789
1701885792630542000,10.0945419921875,0.36357253789901733,-0.09291791915893555,-0.07039070129394531
1701885792647533600,10.111533447265625,0.3425460457801819,-0.09946298599243164,-0.02545928955078125
1701885792664526300,10.1285263671875,0.2884082496166229,-0.08744525909423828,0.018858909606933594
1701885792681515300,10.145515380859376,0.2319858819246292,-0.0818796157836914,-0.018484115600585938
1701885792698506800,10.1625068359375,0.19333727657794952,-0.11481046676635742,-0.07091903686523438
1701885792715499800,10.179499755859375,0.2223636656999588,-0.10878562927246094,-0.09428119659423828
1701885792732492000,10.196491943359375,0.24331387877464294,-0.11201906204223633,-0.09829330444335938
1701885792749473800,10.213473876953126,0.24279755353927612,-0.11955738067626953,-0.0972299575805664
1701885792766475500,10.2304755859375,0.21955642104148865,-0.11176729202270508,-0.08127880096435547
1701885792783464400,10.24746435546875,0.23945683240890503,-0.10862112045288086,-0.02696514129638672
1701885792800459000,10.264458984375,0.2539798319339752,-0.0918574333190918,-0.006542205810546875
1701885792817451000,10.281450927734374,0.2750403881072998,-0.10956430435180664,0.04149436950683594
1701885792834439400,10.298439453125,0.26992958784103394,-0.11408519744873047,0.01771068572998047
1701885792851436800,10.315436767578126,0.24473193287849426,-0.1429438591003418,-0.0206756591796875
1701885792868425200,10.33242529296875,0.23655128479003906,-0.13387584686279297,-0.10711669921875
1701885792885418000,10.34941796875,0.21209505200386047,-0.11926412582397461,-0.13032245635986328
1701885792902395100,10.36639501953125,0.1899847686290741,-0.1429452896118164,-0.10145282745361328
1701885792919401000,10.38340087890625,0.17895780503749847,-0.20101642608642578,-0.10651302337646484
1701885792936392200,10.40039208984375,0.25225573778152466,-0.19156455993652344,-0.14095211029052734
1701885792953384400,10.417384521484376,0.2936793565750122,-0.18926715850830078,-0.17385005950927734
1701885792970372600,10.43437255859375,0.3373900055885315,-0.1210017204284668,-0.23321056365966797
1701885792987370500,10.45137060546875,0.34814655780792236,-0.08387184143066406,-0.18564605712890625
1701885793004359000,10.46835888671875,0.3184080719947815,-0.025856494903564453,-0.06440544128417969
1701885793021351000,10.485350830078126,0.2593815326690674,0.007362842559814453,0.05637168884277344
1701885793038342100,10.502342041015625,0.13665461540222168,-0.005811214447021484,0.11374568939208984
1701885793055334400,10.51933447265625,0.0650903657078743,-0.01361846923828125,0.09109306335449219
1701885793072326000,10.536325927734374,0.08384286612272263,-0.018716812133789062,0.018833160400390625
1701885793089318100,10.553318115234376,0.20876425504684448,-0.020213603973388672,-0.04088020324707031
1701885793106311000,10.570310791015626,0.3403903543949127,-0.02178668975830078,-0.0760812759399414
1701885793123297000,10.587297119140626,0.4332413077354431,-0.045928001403808594,-0.09620475769042969
1701885793140292600,10.604292724609374,0.46761849522590637,-0.045244693756103516,-0.0916299819946289
1701885793157283600,10.62128369140625,0.42425537109375,-0.03925466537475586,-0.07094192504882812
1701885793174276000,10.638276123046875,0.331464022397995,-0.04221487045288086,-0.06461811065673828
1701885793191266300,10.655266357421874,0.24342966079711914,-0.031047344207763672,-0.0868062973022461
1701885793208260600,10.672260498046874,0.2330321967601776,-0.042548179626464844,-0.05180072784423828
1701885793225248000,10.689248046875,0.26152098178863525,-0.03949165344238281,0.012040138244628906
1701885793242239200,10.7062392578125,0.2888906002044678,-0.027039051055908203,0.027324676513671875
1701885793259238000,10.72323779296875,0.26721498370170593,-0.025725841522216797,0.027983665466308594
1701885793276225500,10.7402255859375,0.18252140283584595,-0.030527114868164062,-0.03309822082519531
1701885793293214500,10.75721435546875,0.1313062608242035,-0.039652347564697266,-0.08555412292480469
1701885793310208800,10.774208740234375,0.15358677506446838,-0.02878856658935547,-0.06575870513916016
1701885793327198700,10.79119873046875,0.22013500332832336,-0.0129547119140625,-0.05121135711669922
1701885793344184600,10.8081845703125,0.2824939787387848,-0.016775131225585938,-0.027357101440429688
1701885793361184500,10.8251845703125,0.2678733468055725,-0.02114725112915039,-0.03192615509033203
1701885793378163700,10.842163818359374,0.23786485195159912,-0.02988576889038086,-0.06917762756347656
1701885793395153700,10.859153564453125,0.24241548776626587,-0.033156394958496094,-0.049231529235839844
1701885793412156400,10.876156494140625,0.2563186585903168,-0.022907257080078125,-0.01537322998046875
1701885793429153800,10.89315380859375,0.24803964793682098,-0.009465217590332031,0.012858390808105469
1701885793446142500,10.910142578125,0.230169415473938,-0.022144317626953125,-0.012724876403808594
1701885793463134500,10.927134521484374,0.25839555263519287,-0.04523181915283203,-0.058506011962890625
1701885793480125000,10.944125,0.3397749662399292,-0.0720362663269043,-0.027489662170410156
1701885793497119000,10.961118896484376,0.37569549679756165,-0.0854635238647461,-0.04396820068359375
1701885793514109200,10.978109130859375,0.33847421407699585,-0.10400962829589844,-0.08456611633300781
1701885793531101400,10.995101318359374,0.28290146589279175,-0.12154817581176758,-0.10487174987792969
1701885793548092400,11.012092529296876,0.2704556882381439,-0.11413717269897461,-0.09651374816894531
1701885793565083600,11.029083740234375,0.27268609404563904,-0.11130046844482422,-0.0928182601928711
1701885793582077000,11.046076904296875,0.264110267162323,-0.12223196029663086,-0.11753082275390625
1701885793599068000,11.06306787109375,0.25971612334251404,-0.1365523338317871,-0.103240966796875
1701885793616048600,11.080048583984375,0.22625313699245453,-0.15510797500610352,-0.10300540924072266
1701885793633051400,11.097051513671875,0.1898878961801529,-0.15983200073242188,-0.12662601470947266
1701885793650042600,11.114042724609375,0.1630406677722931,-0.11417627334594727,-0.17284393310546875
1701885793667033300,11.131033447265626,0.16036272048950195,-0.10163497924804688,-0.08963203430175781
1701885793684027100,11.148027099609376,0.1323613077402115,-0.1038203239440918,-0.08829498291015625
1701885793701007400,11.16500732421875,0.13065800070762634,-0.11674880981445312,-0.1449718475341797
1701885793718009000,11.182009033203125,0.15881524980068207,-0.13790035247802734,-0.1195669174194336
1701885793735000300,11.199000244140626,0.1418399214744568,-0.13332033157348633,-0.11713790893554688
1701885793751993600,11.21599365234375,0.15008623898029327,-0.07010698318481445,-0.10446453094482422
1701885793768984600,11.232984619140625,0.16074222326278687,-0.03550148010253906,-0.04384899139404297
1701885793785975800,11.249975830078125,0.17102108895778656,-0.025556564331054688,0.05464935302734375
1701885793802964700,11.26696484375,0.22174006700515747,-0.012054920196533203,0.09443092346191406
1701885793819958800,11.283958740234375,0.14702068269252777,-0.03569221496582031,0.08111190795898438
1701885793836951300,11.300951416015625,0.11737176775932312,-0.033238887786865234,0.013452529907226562
1701885793853942500,11.317942626953124,0.11958139389753342,-0.0559391975402832,-0.037215232849121094
1701885793870934800,11.334934814453124,0.1972503811120987,-0.0700225830078125,-0.088409423828125
1701885793887926000,11.351926025390625,0.2953192889690399,-0.08830547332763672,-0.17281532287597656
1701885793904918300,11.368918212890625,0.37901967763900757,-0.08540534973144531,-0.22231197357177734
1701885793921909000,11.385908935546874,0.4018153250217438,-0.09415149688720703,-0.1692485809326172
1701885793938901500,11.402901611328126,0.37304365634918213,-0.0823817253112793,-0.09150981903076172
1701885793955892200,11.419892333984375,0.29180407524108887,-0.04769468307495117,-0.04210376739501953
1701885793972884700,11.436884765625,0.1846078634262085,-0.04766511917114258,-0.045378684997558594
1701885793989875000,11.453875,0.16613507270812988,-0.06258726119995117,-0.06009483337402344
1701885794006871800,11.470871826171875,0.1937393844127655,-0.08289527893066406,-0.090423583984375
1701885794023852500,11.4878525390625,0.21628320217132568,-0.08010005950927734,-0.14898204803466797
1701885794040854000,11.50485400390625,0.22700726985931396,-0.11951160430908203,-0.15441608428955078
1701885794057842000,11.521842041015624,0.2440875768661499,-0.1092686653137207,-0.12596893310546875
1701885794074835700,11.538835693359376,0.29018115997314453,-0.12160348892211914,-0.038765907287597656
1701885794091823900,11.555823974609375,0.28225618600845337,-0.10092449188232422,0.0050983428955078125
1701885794108818200,11.572818115234375,0.22482876479625702,-0.09116935729980469,0.019824981689453125
1701885794125806000,11.58980615234375,0.17049822211265564,-0.07659053802490234,-0.017792701721191406
1701885794142801400,11.606801513671876,0.17864304780960083,-0.061903953552246094,-0.02723407745361328
1701885794159789000,11.6237890625,0.17967009544372559,-0.056939125061035156,-0.04184436798095703
1701885794176788200,11.640788330078125,0.17785395681858063,-0.048404693603515625,-0.03730964660644531
1701885794193773600,11.657773681640625,0.16149145364761353,-0.038498878479003906,-0.008432388305664062
1701885794210770400,11.6747705078125,0.09387758374214172,-0.05435991287231445,-0.0038976669311523438
1701885794227748900,11.691748779296875,0.0686766654253006,-0.04697418212890625,-0.06672477722167969
1701885794244751600,11.708751708984375,0.12185816466808319,-0.05231285095214844,-0.04850196838378906
1701885794261740000,11.725739990234375,0.1813332885503769,-0.04709196090698242,-0.04441642761230469
1701885794278737200,11.742737060546874,0.20384474098682404,-0.05216169357299805,-0.035003662109375
1701885794295726000,11.75972607421875,0.18408527970314026,-0.047297000885009766,-0.020606040954589844
1701885794312715000,11.776715087890626,0.18327079713344574,-0.038158416748046875,0.012973785400390625
1701885794329709000,11.793708984375,0.16164490580558777,-0.03315448760986328,0.02743816375732422
1701885794346693000,11.810693115234375,0.13528719544410706,-0.043299198150634766,0.06061744689941406
1701885794363692800,11.82769287109375,0.14203429222106934,-0.021785736083984375,0.035376548767089844
1701885794380684000,11.84468408203125,0.12857861816883087,-0.05443096160888672,-0.02417755126953125
1701885794397676800,11.8616767578125,0.14424379169940948,-0.09577369689941406,-0.12665271759033203
1701885794414668300,11.878668212890625,0.22437648475170135,-0.10587310791015625,-0.13742828369140625
1701885794431659500,11.895659423828125,0.32024437189102173,-0.046378135681152344,-0.0842733383178711
1701885794448651300,11.9126513671875,0.323841392993927,-0.006954193115234375,0.026723861694335938
1701885794465642800,11.929642822265626,0.21970883011817932,-0.032666683197021484,0.05027961730957031
1701885794482645000,11.94664501953125,0.1585855782032013,-0.07566356658935547,-0.028228759765625
1701885794499614700,11.96361474609375,0.16472622752189636,-0.10878658294677734,-0.12691116333007812
1701885794516618800,11.98061865234375,0.25098034739494324,-0.09922647476196289,-0.14698410034179688
1701885794533609500,11.997609375,0.32979634404182434,-0.06791496276855469,-0.10730838775634766
1701885794550601500,12.0146015625,0.3235079348087311,-0.011324405670166016,-0.06211566925048828
1701885794567588400,12.03158837890625,0.2711331844329834,0.012147903442382812,0.05598640441894531
1701885794584585700,12.048585693359374,0.17868517339229584,0.05266380310058594,0.1538228988647461
1701885794601576000,12.065575927734375,0.08496180176734924,0.041170597076416016,0.16327953338623047
1701885794618568400,12.082568359375,0.05351779982447624,0.040665626525878906,0.10839176177978516
1701885794635556000,12.09955615234375,0.1282292753458023,0.0002484321594238281,0.05051612854003906
1701885794652551400,12.116551513671874,0.287849098443985,-0.012268543243408203,0.011358261108398438
1701885794669542700,12.133542724609375,0.3931768238544464,-0.03871917724609375,-0.026963233947753906
1701885794686535000,12.150534912109375,0.35217469930648804,-0.07999181747436523,-0.10766792297363281
1701885794703522800,12.167522705078126,0.2306644469499588,-0.1003413200378418,-0.18681621551513672
1701885794720518000,12.184517822265626,0.1514599770307541,-0.0653085708618164,-0.17298126220703125
1701885794737500400,12.20150048828125,0.14592188596725464,-0.06694793701171875,-0.09696006774902344
1701885794754501600,12.218501708984375,0.21133928000926971,-0.053668975830078125,-0.011979103088378906
1701885794771490800,12.23549072265625,0.21840915083885193,-0.06625223159790039,0.0007915496826171875
1701885794788484900,12.25248486328125,0.1566193699836731,-0.0905613899230957,-0.03543281555175781
1701885794805476000,12.26947607421875,0.09430447965860367,-0.11937904357910156,-0.1091909408569336
1701885794822465300,12.28646533203125,0.08537489920854568,-0.14669036865234375,-0.13009929656982422
1701885794839459300,12.303459228515624,0.09704270958900452,-0.16369390487670898,-0.1314830780029297
1701885794856451800,12.320451904296876,0.10918116569519043,-0.14610815048217773,-0.15682315826416016
1701885794873449000,12.337448974609375,0.1414235532283783,-0.14178180694580078,-0.13313007354736328
1701885794890434300,12.354434326171875,0.126692995429039,-0.15566396713256836,-0.11372947692871094
1701885794907427000,12.371427001953125,0.11545291543006897,-0.15511226654052734,-0.12299919128417969
1701885794924418600,12.38841845703125,0.08522750437259674,-0.15895843505859375,-0.14104080200195312
1701885794941420300,12.405420166015626,0.09858398884534836,-0.1370830535888672,-0.14916038513183594
1701885794958399700,12.422399658203124,0.0997166633605957,-0.1478872299194336,-0.08566570281982422
1701885794975395600,12.4393955078125,0.114873506128788,-0.1254887580871582,-0.06958866119384766
1701885794992385300,12.45638525390625,0.11678439378738403,-0.10874032974243164,-0.039017677307128906
1701885795009376300,12.473376220703125,0.12654218077659607,-0.08307218551635742,-0.05724525451660156
1701885795026368800,12.49036865234375,0.14147624373435974,-0.08653402328491211,-0.04278373718261719
1701885795043359700,12.50735986328125,0.1663540005683899,-0.07609987258911133,-0.06147956848144531
1701885795060354800,12.524354736328124,0.20668160915374756,-0.07497930526733398,-0.05611133575439453
1701885795077342200,12.54134228515625,0.24114474654197693,-0.07741165161132812,-0.05099678039550781
1701885795094336300,12.558336181640625,0.27399468421936035,-0.08002471923828125,-0.04026603698730469
1701885795111326200,12.575326171875,0.20953063666820526,-0.05887174606323242,-0.04784202575683594
1701885795128318500,12.592318359375,0.1520397961139679,-0.016087055206298828,-0.016130447387695312
1701885795145306600,12.609306640625,0.08603541553020477,0.012639999389648438,0.020843505859375
1701885795162302000,12.626302001953125,0.025966819375753403,0.03103160858154297,0.05648612976074219
1701885795179293000,12.64329296875,0.013917781412601471,0.037723541259765625,0.05270576477050781
1701885795196285400,12.660285400390626,0.05560426414012909,0.018139362335205078,0.04766654968261719
1701885795213273000,12.677273193359374,0.16878069937229156,0.003101825714111328,0.031409263610839844
1701885795230268400,12.694268310546875,0.2672657072544098,0.010249614715576172,0.010358810424804688
1701885795247259100,12.711259033203126,0.28772684931755066,0.0014634132385253906,0.013005256652832031
1701885795264242200,12.7282421875,0.22031556069850922,-0.06679105758666992,-0.05661582946777344
1701885795281243100,12.7452431640625,0.2533600628376007,-0.09651327133178711,-0.19461536407470703
1701885795298235100,12.762235107421875,0.35366442799568176,-0.12258529663085938,-0.20145893096923828
1701885795315226400,12.779226318359376,0.4111892879009247,-0.10683917999267578,-0.17738819122314453
1701885795332203500,12.79620361328125,0.3819625973701477,-0.07500553131103516,-0.14641571044921875
1701885795349210000,12.813210205078125,0.29192885756492615,-0.047896385192871094,-0.08637809753417969
1701885795366203400,12.830203369140625,0.22498080134391785,-0.03931427001953125,0.017066001892089844
1701885795383193600,12.847193603515626,0.14631961286067963,-0.042127132415771484,0.0908346176147461
1701885795400184800,12.864184814453125,0.08159191906452179,-0.047762393951416016,0.07125091552734375
1701885795417175000,12.881175048828124,0.049535490572452545,-0.07093238830566406,0.064910888671875
1701885795434171000,12.8981708984375,0.014075420796871185,-0.08925390243530273,0.04139900207519531
1701885795451157800,12.91515771484375,0.017994491383433342,-0.12682867050170898,-0.021081924438476562
1701885795468154600,12.932154541015626,0.07113152742385864,-0.14925909042358398,-0.03553962707519531
1701885795485143000,12.94914306640625,0.13392724096775055,-0.12091350555419922,-0.10079479217529297
1701885795502135600,12.966135498046874,0.18065395951271057,-0.1303420066833496,-0.13734149932861328
1701885795519124000,12.9831240234375,0.2394653856754303,-0.1129770278930664,-0.17747116088867188
1701885795536121300,13.000121337890626,0.2298400104045868,-0.1167454719543457,-0.16256141662597656
1701885795553107000,13.01710693359375,0.12670202553272247,-0.09047365188598633,-0.18373489379882812
1701885795570102300,13.034102294921874,0.008994612842798233,-0.0664677619934082,-0.1371898651123047
1701885795587093500,13.051093505859376,-0.0848022997379303,-0.05098390579223633,-0.017709732055664062
1701885795604085800,13.068085693359375,-0.13189589977264404,-0.026902198791503906,0.06238079071044922
1701885795621076700,13.08507666015625,-0.10056306421756744,-0.02791309356689453,0.08292007446289062
1701885795638068700,13.10206884765625,-0.045506104826927185,0.022708892822265625,0.04578208923339844
1701885795655060200,13.119060302734376,0.007489468902349472,0.004871845245361328,0.06979656219482422
1701885795672052500,13.136052490234375,0.10107225179672241,0.009018421173095703,0.06853675842285156
1701885795689043500,13.15304345703125,0.14635123312473297,-0.027462482452392578,0.028074264526367188
1701885795706035700,13.17003564453125,0.16103290021419525,-0.04482555389404297,-0.045617103576660156
1701885795723024000,13.18702392578125,0.14988838136196136,-0.05710124969482422,-0.11882686614990234
1701885795740019000,13.20401904296875,0.23873253166675568,-0.04238748550415039,-0.1530447006225586
1701885795757010000,13.221010009765624,0.3145711421966553,-0.053998470306396484,-0.08996772766113281
1701885795774003200,13.238003173828124,0.33833014965057373,-0.055547237396240234,-0.016138076782226562
1701885795790992600,13.25499267578125,0.25638455152511597,-0.03773641586303711,0.019804000854492188
1701885795807986000,13.27198583984375,0.20911897718906403,-0.03128767013549805,0.0455474853515625
1701885795824977000,13.288976806640624,0.16847945749759674,-0.0018525123596191406,0.046539306640625
1701885795841969200,13.30596923828125,0.17710347473621368,-0.01250314712524414,0.007081031799316406
1701885795858960400,13.32296044921875,0.20838744938373566,-0.023119449615478516,-0.032082557678222656
1701885795875952000,13.3399521484375,0.2209855020046234,-0.043933868408203125,-0.06647491455078125
1701885795892943600,13.356943603515624,0.19661873579025269,-0.06422090530395508,-0.08622550964355469
1701885795909934800,13.373934814453126,0.1301582157611847,-0.06473731994628906,-0.09036827087402344
1701885795926928000,13.390927978515625,0.09352259337902069,-0.07785701751708984,-0.051422119140625
1701885795943919000,13.407919189453125,0.07996675372123718,-0.07667827606201172,-0.04122352600097656
1701885795960910300,13.424910400390624,0.06981483846902847,-0.08062267303466797,-0.040780067443847656
1701885795977901800,13.44190185546875,0.07889613509178162,-0.07466459274291992,-0.03537559509277344
1701885795994894600,13.45889453125,0.06070726737380028,-0.09743213653564453,-0.006041526794433594
1701885796011885800,13.4758857421875,0.015392597764730453,-0.10144662857055664,-0.0047054290771484375
1701885796028876800,13.492876708984374,-0.02867719903588295,-0.04727602005004883,-0.0032787322998046875
1701885796045866200,13.5098662109375,-0.08144877851009369,-0.08164310455322266,0.034885406494140625
1701885796062860300,13.5268603515625,-0.0767330452799797,-0.1268606185913086,-0.057468414306640625
1701885796079852500,13.5438525390625,0.03379780799150467,-0.1386103630065918,-0.09779167175292969
1701885796096843800,13.56084375,0.20383070409297943,-0.14219093322753906,-0.11300086975097656
1701885796113835800,13.577835693359376,0.2635277807712555,-0.14353179931640625,-0.10218238830566406
1701885796130827300,13.5948271484375,0.19037163257598877,-0.13922119140625,-0.11840629577636719
1701885796147825200,13.6118251953125,0.09150069206953049,-0.12372684478759766,-0.0999307632446289
1701885796164810200,13.628810302734376,0.02148454636335373,-0.09599447250366211,-0.027380943298339844
1701885796181802800,13.645802734375,-0.03644104301929474,-0.04781627655029297,0.012047767639160156
1701885796198793700,13.662793701171875,-0.043883971869945526,0.02354717254638672,-0.006348609924316406
1701885796215786000,13.679785888671875,-0.03879981487989426,0.04454183578491211,0.0020599365234375
1701885796232766700,13.6967666015625,-0.010709837079048157,0.028584957122802734,0.008656501770019531
1701885796249769500,13.71376953125,0.02421349287033081,-0.02305316925048828,-0.024766921997070312
1701885796266761500,13.730761474609375,0.09518009424209595,-0.025986671447753906,-0.08677101135253906
1701885796283752000,13.747751953125,0.22139346599578857,0.011981487274169922,-0.10910797119140625
1701885796300732400,13.764732421875,0.3465011715888977,0.06580448150634766,-0.05375862121582031
1701885796317737000,13.781737060546876,0.3767409324645996,0.10479497909545898,0.03961944580078125
1701885796334727400,13.7987275390625,0.3254282474517822,0.10642337799072266,0.07022953033447266
1701885796351719700,13.8157197265625,0.23504799604415894,0.06771612167358398,0.04675769805908203
1701885796368710700,13.832710693359376,0.23347891867160797,0.04331398010253906,0.022630691528320312
1701885796385702700,13.84970263671875,0.3198122978210449,0.03402137756347656,0.0027294158935546875
1701885796402694000,13.86669384765625,0.3986988663673401,0.06822729110717773,-0.05526161193847656
1701885796419682000,13.88368212890625,0.4042525291442871,0.09809637069702148,-0.07862091064453125
1701885796436681500,13.900681396484375,0.3099140524864197,0.10861444473266602,-0.05332469940185547
1701885796453669400,13.91766943359375,0.1643175184726715,0.11469268798828125,0.011055946350097656
1701885796470660900,13.934660888671875,0.02064477652311325,0.1244649887084961,0.09433650970458984
1701885796487652400,13.95165234375,-0.0508778840303421,0.12823820114135742,0.15212249755859375
1701885796504645000,13.96864501953125,-0.02346092462539673,0.1587686538696289,0.17920589447021484
1701885796521636000,13.985635986328125,0.08519743382930756,0.16292238235473633,0.2177906036376953
1701885796538627600,14.002627685546875,0.16487814486026764,0.16207265853881836,0.2121429443359375
1701885796555616800,14.01961669921875,0.2071712464094162,0.11005258560180664,0.17032432556152344
1701885796572611000,14.036611083984376,0.18150866031646729,0.04497957229614258,0.070159912109375
1701885796589603000,14.05360302734375,0.19275596737861633,-0.015663623809814453,-0.04544544219970703
1701885796606594000,14.070593994140625,0.1806919425725937,-0.07136392593383789,-0.1504230499267578
1701885796623580400,14.087580322265625,0.19277191162109375,-0.07580280303955078,-0.22515869140625
1701885796640580000,14.104580078125,0.2207707017660141,-0.10573911666870117,-0.21172046661376953
1701885796657569800,14.12156982421875,0.20985868573188782,-0.12386894226074219,-0.14445877075195312
1701885796674558200,14.13855810546875,0.142373189330101,-0.13704395294189453,-0.13838577270507812
1701885796691545000,14.155545166015624,0.0607067346572876,-0.15273189544677734,-0.1703023910522461
1701885796708544300,14.172544189453125,0.038024574518203735,-0.15764093399047852,-0.1288776397705078
1701885796725536500,14.18953662109375,0.025577418506145477,-0.17533588409423828,-0.049251556396484375
1701885796742524700,14.206524658203126,0.02175721526145935,-0.18573665618896484,0.010343551635742188
1701885796759520000,14.22352001953125,-0.014045633375644684,-0.16363096237182617,-0.083740234375
1701885796776511000,14.240510986328125,-0.04654760658740997,-0.25322914123535156,-0.1221017837524414
1701885796793503200,14.257503173828125,-0.0050570666790008545,-0.2986311912536621,-0.22622203826904297
1701885796810494500,14.274494384765624,0.13603505492210388,-0.28591299057006836,-0.28147315979003906
1701885796827487500,14.291487548828124,0.23234499990940094,-0.258882999420166,-0.2278270721435547
1701885796844476000,14.308475830078125,0.16683882474899292,-0.1955399513244629,-0.13292312622070312
1701885796861468700,14.32546875,-0.009334459900856018,-0.11292314529418945,-0.05551719665527344
1701885796878461000,14.3424609375,-0.18254560232162476,-0.04473733901977539,-0.007103919982910156
1701885796895453400,14.359453369140626,-0.25343558192253113,-0.02663707733154297,0.05812835693359375
1701885796912444400,14.3764443359375,-0.17303088307380676,-0.03546285629272461,0.09635162353515625
1701885796929436700,14.393436767578125,0.014829233288764954,-0.07109642028808594,0.049887657165527344
1701885796946428000,14.410427978515624,0.2356368750333786,-0.09355688095092773,-0.04982566833496094
1701885796963420200,14.427420166015626,0.4219200015068054,-0.09455251693725586,-0.10437679290771484
1701885796980411100,14.4444111328125,0.4951687753200531,-0.03849649429321289,-0.12201118469238281
1701885796997402600,14.461402587890625,0.4279744625091553,0.01944255828857422,-0.11356067657470703
1701885797014395400,14.4783955078125,0.29843398928642273,0.0931243896484375,-0.10857582092285156
1701885797031387000,14.495386962890626,0.16546569764614105,0.10953855514526367,-0.03230762481689453
1701885797048375300,14.512375244140625,0.06990954279899597,0.10510063171386719,-0.013760566711425781
1701885797065369600,14.52936962890625,0.04272356629371643,0.0416874885559082,-0.007075309753417969
1701885797082350800,14.546350830078126,0.083109050989151,0.0396876335144043,-0.00138092041015625
1701885797099353600,14.563353515625,0.12272621691226959,0.0766143798828125,0.009703636169433594
1701885797116344800,14.5803447265625,0.1565198004245758,0.1208653450012207,0.0007734298706054688
1701885797133333800,14.597333740234374,0.1713392287492752,0.12455463409423828,-0.04285144805908203
1701885797150328000,14.614328125,0.1796071082353592,0.07895660400390625,-0.0977334976196289
1701885797167320000,14.631320068359376,0.2169555425643921,0.017776012420654297,-0.13860607147216797
1701885797184301000,14.648301025390625,0.2646506130695343,-0.03710794448852539,-0.13560009002685547
1701885797201303600,14.665303466796875,0.27171969413757324,-0.07499361038208008,-0.030096054077148438
1701885797218294800,14.682294677734374,0.21015308797359467,-0.04452323913574219,0.029152870178222656
1701885797235286800,14.699286865234376,0.10357198119163513,-0.00017309188842773438,0.05463695526123047
1701885797252278300,14.7162783203125,0.058605536818504333,0.04734230041503906,0.06935977935791016
1701885797269270500,14.7332705078125,0.05964367836713791,0.043511390686035156,0.04335594177246094
1701885797286261500,14.750261474609376,0.04691950976848602,-0.0019674301147460938,-0.027463912963867188
1701885797303253800,14.767253662109376,0.011638283729553223,-0.053171634674072266,-0.10860729217529297
1701885797320244000,14.784243896484375,0.026423215866088867,-0.08948230743408203,-0.1747589111328125
1701885797337248800,14.801248779296875,0.10800541937351227,-0.09421539306640625,-0.18290042877197266
1701885797354228700,14.818228759765624,0.21843723952770233,-0.11643552780151367,-0.13784503936767578
1701885797371220700,14.835220703125,0.284521222114563,-0.10833740234375,-0.09078502655029297
1701885797388212000,14.8522119140625,0.24961552023887634,-0.1186838150024414,-0.03381156921386719
1701885797405204000,14.869203857421875,0.1026197001338005,-0.119842529296875,-0.028188705444335938
1701885797422195200,14.8861953125,-0.022595033049583435,-0.08374643325805664,-0.0996999740600586
1701885797439187500,14.9031875,-0.10497111082077026,-0.10582494735717773,-0.15396499633789062
1701885797456178700,14.9201787109375,-0.09414240717887878,-0.1430954933166504,-0.20382976531982422
1701885797473162800,14.937162841796875,0.024649128317832947,-0.20280885696411133,-0.20653247833251953
1701885797490162000,14.954161865234376,0.16323402523994446,-0.22007226943969727,-0.16878604888916016
1701885797507154200,14.971154296875,0.23571929335594177,-0.19938278198242188,-0.09372806549072266
1701885797524143000,14.98814306640625,0.2186112254858017,-0.1115865707397461,-0.05923271179199219
1701885797541140000,15.005139892578125,0.13460829854011536,-0.0034637451171875,0.030029296875
1701885797558127400,15.02212744140625,-0.012543022632598877,0.08258771896362305,0.10373592376708984
1701885797575122200,15.0391220703125,-0.15399715304374695,0.07634592056274414,0.1212930679321289
1701885797592111900,15.05611181640625,-0.17609970271587372,0.03610038757324219,-0.037993431091308594
1701885797609104100,15.073104248046874,-0.03484596312046051,-0.04260587692260742,-0.19885826110839844
1701885797626084900,15.0900849609375,0.21658755838871002,-0.10349464416503906,-0.2729787826538086
1701885797643084300,15.107084228515625,0.43397021293640137,-0.11133480072021484,-0.2959480285644531
1701885797660077000,15.1240771484375,0.5204366445541382,-0.08094072341918945,-0.2524242401123047
1701885797677072400,15.141072265625,0.44214293360710144,-0.012296199798583984,-0.1522665023803711
1701885797694062000,15.15806201171875,0.295212984085083,0.07366180419921875,-0.030785560607910156
1701885797711054300,15.175054443359375,0.09235397726297379,0.11414384841918945,0.10955524444580078
1701885797728043000,15.19204296875,-0.07916871458292007,0.12603235244750977,0.1846761703491211
1701885797745031000,15.209031005859375,-0.11635194718837738,0.1255946159362793,0.2134532928466797
1701885797762028800,15.22602880859375,-0.07385095953941345,0.12145757675170898,0.2210988998413086
1701885797779021000,15.24302099609375,-0.009552590548992157,0.13809728622436523,0.13520526885986328
1701885797796012300,15.26001220703125,0.03765968233346939,0.1283106803894043,0.0240631103515625
1701885797813004500,15.277004638671874,0.06902839988470078,0.09383583068847656,-0.06293296813964844
1701885797829994500,15.293994384765625,0.11760880798101425,0.005728244781494141,0.011977195739746094
1701885797846988300,15.31098828125,0.18733415007591248,-0.04546928405761719,0.04245948791503906
1701885797863970000,15.327969970703125,0.21871134638786316,-0.05822896957397461,0.016765594482421875
1701885797880971000,15.344970947265624,0.19843082129955292,-0.017561912536621094,-0.056705474853515625
1701885797897960000,15.3619599609375,0.14389468729496002,0.017127037048339844,-0.16338539123535156
1701885797914957000,15.37895703125,0.0786094218492508,-0.005238056182861328,-0.2219829559326172
1701885797931945700,15.39594580078125,0.04050993546843529,-0.035982608795166016,-0.2183094024658203
1701885797948938000,15.41293798828125,0.012972258031368256,-0.0705404281616211,-0.1707172393798828
1701885797965923300,15.42992333984375,0.023364854976534843,-0.08785247802734375,-0.11711788177490234
1701885797982923800,15.446923828125,0.06156032159924507,-0.10317277908325195,-0.029550552368164062
1701885797999906300,15.46390625,0.10849729180335999,-0.07115840911865234,-0.008654594421386719
1701885798016905000,15.480905029296874,0.08402029424905777,-0.04025745391845703,-0.012279510498046875
1701885798033896000,15.49789599609375,0.03871489688754082,-0.00971364974975586,-0.07770824432373047
1701885798050885000,15.514885009765624,0.00417365413159132,0.035169124603271484,-0.1293811798095703
1701885798067881700,15.5318818359375,-0.005271637812256813,0.026618003845214844,-0.11926460266113281
1701885798084871400,15.548871337890626,-0.008095878176391125,-0.03530311584472656,-0.15260696411132812
1701885798101862400,15.5658623046875,0.10234350711107254,-0.09544801712036133,-0.1530132293701172
1701885798118844200,15.58284423828125,0.24626494944095612,-0.15137910842895508,-0.06501102447509766
1701885798135846000,15.599845947265624,0.3012474477291107,-0.10979413986206055,0.015641212463378906
1701885798152823600,15.616823486328125,0.2529521882534027,-0.04817390441894531,0.05937671661376953
1701885798169829400,15.633829345703125,0.11723886430263519,0.011830329895019531,0.11275482177734375
1701885798186819000,15.650819091796874,-0.022897537797689438,0.05116748809814453,0.1557455062866211
1701885798203815200,15.667815185546875,-0.1441943496465683,0.059302330017089844,0.12082099914550781
1701885798220803800,15.684803955078126,-0.1638430953025818,0.07168340682983398,0.055365562438964844
1701885798237796600,15.701796630859375,-0.11479297280311584,0.07093143463134766,0.02793598175048828
1701885798254788400,15.718788330078125,-0.0065269991755485535,0.09409904479980469,0.05825233459472656
1701885798271779300,15.735779296875,0.08889533579349518,0.13631677627563477,0.1073312759399414
1701885798288771600,15.752771484375,0.13817624747753143,0.12373781204223633,0.17470359802246094
1701885798305762800,15.7697626953125,0.10132603347301483,0.10349225997924805,0.20852184295654297
1701885798322761200,15.78676123046875,0.0296483151614666,0.06813335418701172,0.16443252563476562
1701885798339745000,15.8037451171875,-0.03643157333135605,0.08084440231323242,0.11627006530761719
1701885798356739600,15.820739501953126,-0.06556668877601624,0.09902191162109375,0.14503955841064453
1701885798373729500,15.8377294921875,-0.09599725902080536,0.14365053176879883,0.21057987213134766
1701885798390721500,15.854721435546875,-0.12727241218090057,0.13624811172485352,0.2648754119873047
1701885798407712300,15.871712158203126,-0.1165708601474762,0.11942291259765625,0.2296133041381836
1701885798424703200,15.888703125,-0.0744602233171463,0.0425105094909668,0.1106719970703125
1701885798441699000,15.905698974609376,0.08383755385875702,-0.010327816009521484,0.0052890777587890625
1701885798458688500,15.9226884765625,0.25582051277160645,-0.07148599624633789,-0.04642295837402344
1701885798475676700,15.9396767578125,0.3144127428531647,-0.09812211990356445,-0.015280723571777344
1701885798492672000,15.956672119140626,0.22147178649902344,-0.10981464385986328,0.012610435485839844
1701885798509670100,15.973670166015625,0.0734877958893776,-0.12251806259155273,-0.0021696090698242188
1701885798526655000,15.990655029296875,0.022960597649216652,-0.10680913925170898,-0.0706491470336914
1701885798543635700,16.0076357421875,0.08757093548774719,-0.11520051956176758,-0.15476226806640625
1701885798560630800,16.024630859375,0.1712835431098938,-0.12734031677246094,-0.243408203125
1701885798577632300,16.04163232421875,0.19469307363033295,-0.15595674514770508,-0.3061065673828125
1701885798594622200,16.058622314453125,0.2024935781955719,-0.1568284034729004,-0.26119327545166016
1701885798611613200,16.07561328125,0.1871751844882965,-0.1604604721069336,-0.1670522689819336
1701885798628605400,16.09260546875,0.15012559294700623,-0.13009262084960938,-0.09599113464355469
1701885798645596700,16.1095966796875,0.11517366021871567,-0.08532524108886719,-0.06410694122314453
1701885798662575400,16.126575439453124,0.05385982245206833,-0.05074167251586914,-0.07501888275146484
1701885798679580000,16.143579833984376,0.04232211410999298,-0.04055452346801758,-0.0771942138671875
1701885798696572400,16.160572509765625,0.03731778264045715,-0.012455940246582031,-0.07939815521240234
1701885798713563400,16.1775634765625,0.03238069638609886,-0.09154939651489258,-0.08856868743896484
1701885798730555000,16.194554931640624,0.11768026649951935,-0.14255762100219727,-0.1506977081298828
1701885798747547400,16.21154736328125,0.2542893588542938,-0.16234588623046875,-0.1789398193359375
1701885798764528400,16.2285283203125,0.35534951090812683,-0.17003965377807617,-0.1574268341064453
1701885798781530400,16.2455302734375,0.34356069564819336,-0.1520700454711914,-0.1580514907836914
1701885798798522000,16.262522216796874,0.2834102213382721,-0.15615034103393555,-0.1283884048461914
1701885798815513300,16.279513427734376,0.17556175589561462,-0.12966299057006836,-0.10702800750732422
1701885798832496400,16.296496337890623,0.12482117861509323,-0.10597896575927734,-0.04635047912597656
1701885798849496000,16.31349609375,0.04131963849067688,-0.07255697250366211,0.014424324035644531
1701885798866489300,16.3304892578125,-0.0528654083609581,-0.06453371047973633,0.021497726440429688
1701885798883480000,16.34747998046875,-0.09972438216209412,-0.054064273834228516,-0.025867462158203125
1701885798900463000,16.364463134765625,-0.1627102792263031,-0.04442787170410156,-0.11134147644042969
1701885798917462800,16.381462890625,-0.2070084810256958,-0.019501686096191406,-0.1723928451538086
1701885798934456800,16.398456787109374,-0.22424492239952087,0.0023441314697265625,-0.19487571716308594
1701885798951443700,16.415443603515627,-0.20942340791225433,0.039437294006347656,-0.14991188049316406
1701885798968439000,16.43243896484375,-0.11968307197093964,0.06215810775756836,-0.052924156188964844
1701885798985420500,16.449420654296876,-0.00911841168999672,0.01634502410888672,0.10487937927246094
1701885799002422800,16.4664228515625,0.09613309800624847,-0.05180835723876953,0.15573406219482422
1701885799019413800,16.483413818359374,0.21274417638778687,-0.05319833755493164,0.13976764678955078
1701885799036394800,16.500394775390625,0.2644065320491791,-0.05820131301879883,0.11485958099365234
1701885799053394700,16.517394775390624,0.21858839690685272,-0.04710721969604492,0.09238815307617188
1701885799070388700,16.534388671875,0.10288014262914658,-0.016931533813476562,0.1323995590209961
1701885799087380500,16.55138037109375,-0.009605787694454193,0.030711650848388672,0.13860607147216797
1701885799104372700,16.568372802734373,-0.07334880530834198,0.0389714241027832,0.11461257934570312
1701885799121364000,16.585364013671875,-0.08134464174509048,0.03608417510986328,0.0652780532836914
1701885799138356000,16.60235595703125,-0.0704762265086174,0.018373489379882812,-0.03214836120605469
1701885799155347200,16.61934716796875,-0.03453762084245682,0.011383056640625,-0.1059713363647461
1701885799172339500,16.63633935546875,0.023260213434696198,-0.013056278228759766,-0.14543819427490234
1701885799189331000,16.6533310546875,0.11594337970018387,-0.020683765411376953,-0.11633682250976562
1701885799206322700,16.67032275390625,0.18475396931171417,-0.01601123809814453,-0.028377532958984375
1701885799223314000,16.68731396484375,0.14225390553474426,0.0034799575805664062,0.0517730712890625
1701885799240305700,16.7043056640625,0.03311324119567871,0.05486154556274414,0.0886087417602539
1701885799257311700,16.721311767578126,-0.056389644742012024,0.0811910629272461,0.08565521240234375
1701885799274289400,16.738289306640624,-0.0493030846118927,0.06252527236938477,0.09067153930664062
1701885799291281000,16.755281005859374,0.024391263723373413,0.032862186431884766,0.05574226379394531
1701885799308273000,16.77227294921875,0.11105028539896011,0.021157264709472656,0.010945320129394531
1701885799325264000,16.789263916015624,0.001422591507434845,-0.00013875961303710938,0.10167789459228516
1701885799342256600,16.806256591796874,-0.44568851590156555,0.07246828079223633,0.1855936050415039
1701885799359247600,16.82324755859375,-0.8104851245880127,0.06813812255859375,0.15559864044189453
1701885799376240000,16.840240234375,-0.8654657006263733,0.1411728858947754,0.02947235107421875
1701885799393231000,16.857231201171874,-0.5754971504211426,-0.0021162033081054688,0.07686138153076172
1701885799410221000,16.874220947265623,-0.012793131172657013,-0.010686874389648438,0.0740671157836914
1701885799427215600,16.891215576171874,0.4707794189453125,-0.04696989059448242,0.0006561279296875
1701885799444207400,16.908207275390627,0.6563693881034851,-0.0584101676940918,-0.045035362243652344
1701885799461182500,16.925182373046876,0.619377613067627,-0.04865121841430664,-0.03971672058105469
1701885799478190000,16.942190185546874,0.415569543838501,-0.07021522521972656,0.0014352798461914062
1701885799495181300,16.959181396484375,0.2329462319612503,-0.0421142578125,0.034562110900878906
1701885799512173300,16.97617333984375,0.08166355639696121,-0.03841829299926758,0.033061981201171875
1701885799529164300,16.993164306640626,-0.03009147197008133,-0.046140193939208984,-0.02290821075439453
1701885799546156500,17.010156494140624,-0.06269638240337372,-0.07031059265136719,-0.0894918441772461
1701885799563144700,17.027144775390624,0.03793250769376755,-0.09936761856079102,-0.17733001708984375
1701885799580140000,17.04414013671875,0.2124904841184616,-0.13181447982788086,-0.2500886917114258
1701885799597131500,17.061131591796876,0.4382499158382416,-0.15165090560913086,-0.2743539810180664
1701885799614135000,17.078135009765624,0.5708215236663818,-0.15946245193481445,-0.2815389633178711
1701885799631114800,17.09511474609375,0.5732335448265076,-0.16939830780029297,-0.2673616409301758
1701885799648104700,17.112104736328124,0.4208758473396301,-0.14860248565673828,-0.2506866455078125
1701885799665100000,17.12910009765625,0.24878738820552826,-0.11666345596313477,-0.2233591079711914
1701885799682079700,17.146079833984373,0.14274191856384277,-0.09125661849975586,-0.1957101821899414
1701885799699081500,17.16308154296875,0.14133280515670776,-0.08498859405517578,-0.12527942657470703
1701885799716073700,17.18007373046875,0.0897131860256195,-0.08440971374511719,-0.016411781311035156
1701885799733064700,17.197064697265624,-0.07989489287137985,-0.08986234664916992,0.054152488708496094
1701885799750056000,17.214055908203125,-0.2847626209259033,-0.010325908660888672,0.019461631774902344
1701885799767046700,17.231046630859375,-0.42530664801597595,0.0447239875793457,-0.00653076171875
1701885799784043000,17.24804296875,-0.3505904972553253,0.08520936965942383,-0.006320953369140625
1701885799801031400,17.265031494140626,-0.11267262697219849,0.08121204376220703,0.06375885009765625
1701885799818023200,17.282023193359375,0.09811770170927048,0.05617332458496094,0.11433601379394531
1701885799835016000,17.299015869140625,0.21707972884178162,0.01021718978881836,0.16432571411132812
1701885799852007200,17.316007080078126,0.18530568480491638,0.02442026138305664,0.13312911987304688
1701885799868998400,17.332998291015624,0.052776992321014404,0.0036416053771972656,0.06889057159423828
1701885799885989400,17.3499892578125,-0.007522638887166977,-0.02216625213623047,-0.015206336975097656
1701885799902982000,17.36698193359375,0.0176539309322834,-0.066650390625,-0.04761505126953125
1701885799919974100,17.38397412109375,0.09942089766263962,-0.10453462600708008,-0.10812664031982422
1701885799936964900,17.40096484375,0.18814988434314728,-0.11243057250976562,-0.10548877716064453
1701885799953957400,17.417957275390624,0.22529636323451996,-0.11276721954345703,-0.08262157440185547
1701885799970948400,17.4349482421875,0.2229156643152237,-0.09903192520141602,-0.053920745849609375
1701885799987940900,17.45194091796875,0.218739852309227,-0.07866811752319336,-0.0966787338256836
1701885800004931800,17.468931884765624,0.21295371651649475,-0.05315256118774414,-0.12878990173339844
1701885800021924400,17.48592431640625,0.16870179772377014,-0.08978557586669922,-0.11331462860107422
1701885800038905000,17.502905029296876,0.07707226276397705,-0.13515567779541016,-0.16411876678466797
1701885800055907300,17.5199072265625,0.04009801149368286,-0.12589073181152344,-0.2288799285888672
1701885800072895700,17.536895751953125,0.07111630588769913,-0.12648820877075195,-0.1669635772705078
1701885800089890800,17.553890869140623,0.11028502136468887,-0.06684303283691406,-0.09405136108398438
1701885800106882000,17.570882080078125,0.08304178714752197,-0.017086029052734375,-0.020977020263671875
1701885800123857400,17.587857421875,0.03162534162402153,0.0038080215454101562,0.06669330596923828
1701885800140865300,17.604865234375,-0.03082829713821411,0.04214286804199219,0.13467884063720703
1701885800157858000,17.621858154296874,-0.08510644733905792,0.058164119720458984,0.15799808502197266
1701885800174848800,17.638848876953126,-0.09929560124874115,0.06589984893798828,0.11164093017578125
1701885800191841000,17.655841064453124,-0.0919506624341011,0.027561187744140625,0.06345558166503906
1701885800208831500,17.67283154296875,-0.05724085122346878,-0.0044345855712890625,-0.029733657836914062
1701885800225824800,17.68982470703125,0.03445959463715553,-0.02959442138671875,-0.13685226440429688
1701885800242815700,17.706815673828125,0.1286863088607788,-0.0379180908203125,-0.2232675552368164
1701885800259806000,17.723805908203126,0.16406890749931335,-0.009925365447998047,-0.23137283325195312
1701885800276798700,17.740798828125,0.1324750781059265,0.016805171966552734,-0.1455545425415039
1701885800293791000,17.757791015625,0.04085829108953476,0.0478816032409668,0.0028667449951171875
1701885800310784800,17.77478466796875,-0.04891407489776611,0.06359720230102539,0.059554100036621094
1701885800327764500,17.791764404296874,-0.07966160774230957,0.07303762435913086,0.06253528594970703
1701885800344764200,17.80876416015625,0.003508418332785368,0.06226301193237305,0.058681488037109375
1701885800361760800,17.8257607421875,0.15474283695220947,0.055220603942871094,0.029760360717773438
1701885800378749200,17.842749267578125,0.20159471035003662,0.04262351989746094,-0.008220672607421875
1701885800395739000,17.85973876953125,0.19011951982975006,0.030852317810058594,-0.035605430603027344
1701885800412732200,17.876732177734375,0.1349005550146103,0.03932809829711914,-0.06661033630371094
1701885800429725000,17.893724853515625,0.06978344172239304,0.035080909729003906,-0.06386947631835938
1701885800446716000,17.9107158203125,0.04377364367246628,0.055151939392089844,-0.0025854110717773438
1701885800463705000,17.927705078125,0.0319284051656723,0.08048725128173828,0.038901329040527344
1701885800480699600,17.94469970703125,0.004277840256690979,0.13406705856323242,0.056224822998046875
1701885800497691600,17.961691650390627,-0.023261040449142456,0.18593120574951172,0.05412006378173828
1701885800514683000,17.978682861328124,-0.06809010356664658,0.19595003128051758,0.05526447296142578
1701885800531675000,17.9956748046875,-0.14400258660316467,0.17934942245483398,0.06905841827392578
1701885800548666000,18.012666015625,-0.22880689799785614,0.1304316520690918,0.07112312316894531
1701885800565648000,18.02964794921875,-0.25157561898231506,0.09948348999023438,0.06749248504638672
1701885800582643700,18.046643798828125,-0.11507846415042877,0.07282638549804688,0.08185005187988281
1701885800599644200,18.06364404296875,0.11351487040519714,0.04004049301147461,0.12782669067382812
1701885800616630500,18.080630615234377,0.3191741704940796,0.011282920837402344,0.12079238891601562
1701885800633628000,18.0976279296875,0.39788132905960083,-0.017938613891601562,0.09080791473388672
1701885800650613800,18.11461376953125,0.3545868396759033,-0.023547649383544922,0.028687477111816406
1701885800667611400,18.131611328125,0.196334570646286,-0.09596872329711914,-0.013873100280761719
1701885800684599800,18.148599853515623,0.05663713067770004,-0.0897669792175293,-0.1172943115234375
1701885800701591800,18.165591796875,-0.01562151126563549,-0.10439920425415039,-0.1670989990234375
1701885800718588200,18.182588134765624,0.0037382878363132477,-0.0720677375793457,-0.163482666015625
1701885800735575000,18.199574951171876,0.03438612073659897,-0.04178667068481445,-0.12917804718017578
1701885800752566500,18.21656640625,0.04794377461075783,-0.0196685791015625,-0.07980918884277344
1701885800769557000,18.233556884765626,0.010588426142930984,-0.02193450927734375,0.013302803039550781
1701885800786551800,18.2505517578125,-0.07067450881004333,-0.0355219841003418,0.06664180755615234
1701885800803542000,18.2675419921875,-0.16676455736160278,-0.07102251052856445,0.07579898834228516
1701885800820533200,18.284533203125,-0.17319685220718384,-0.09432601928710938,-0.0220184326171875
1701885800837524700,18.301524658203125,-0.08386653661727905,-0.11736106872558594,-0.08709907531738281
1701885800854517500,18.318517578125,0.06231378763914108,-0.11528730392456055,-0.17610645294189453
1701885800871506400,18.33550634765625,0.14985932409763336,-0.12508773803710938,-0.1962738037109375
1701885800888500200,18.352500244140625,0.1798320710659027,-0.10354900360107422,-0.19507408142089844
1701885800905489400,18.369489501953126,0.1336275339126587,-0.09363555908203125,-0.11531543731689453
1701885800922483700,18.386483642578124,0.06606312096118927,-0.08358526229858398,-0.05012321472167969
1701885800939475700,18.403475830078126,0.0016757436096668243,-0.06058025360107422,-0.04725074768066406
1701885800956466700,18.420466796875,-0.0310185756534338,-0.057412147521972656,-0.045044898986816406
1701885800973456000,18.437455810546876,0.0031714998185634613,-0.045176029205322266,-0.03950691223144531
1701885800990448000,18.4544482421875,0.07463045418262482,-0.0711822509765625,-0.039032936096191406
1701885801007444700,18.47144482421875,0.11183387041091919,-0.05469322204589844,-0.047515869140625
1701885801024433700,18.48843359375,0.10046574473381042,-0.07649421691894531,-0.04642200469970703
1701885801041428200,18.50542822265625,0.08707383275032043,-0.06387519836425781,-0.1022787094116211
1701885801058414300,18.522414306640623,0.08375203609466553,-0.05996084213256836,-0.08590507507324219
1701885801075411700,18.53941162109375,0.08192185312509537,-0.032207489013671875,-0.08394050598144531
1701885801092400400,18.556400390625,0.05236130952835083,-0.019057273864746094,-0.07672309875488281
1701885801109382400,18.57338232421875,0.03786817193031311,-0.024666786193847656,-0.05554771423339844
1701885801126383900,18.5903837890625,0.07377292960882187,-0.010905742645263672,-0.03962516784667969
1701885801143376100,18.607376220703124,0.10376118123531342,-0.0209197998046875,-0.032588958740234375
1701885801160366600,18.62436669921875,0.12383141368627548,-0.016620159149169922,-0.020780563354492188
1701885801177360100,18.641360107421875,0.10309255868196487,-0.01249837875366211,-0.004290580749511719
1701885801194350800,18.658350830078124,0.07993092387914658,-0.0032215118408203125,0.03151988983154297
1701885801211342600,18.675342529296874,0.0644250363111496,0.005866050720214844,0.028957366943359375
1701885801228333800,18.692333740234375,0.06468372792005539,0.023588180541992188,-0.0027713775634765625
1701885801245326300,18.709326416015625,0.07873743772506714,0.021448135375976562,-0.04443645477294922
1701885801262317600,18.726317626953126,0.06486781686544418,0.03339672088623047,-0.0766744613647461
1701885801279309600,18.7433095703125,-0.0041876062750816345,-0.016150951385498047,-0.04094409942626953
1701885801296301300,18.76030126953125,-0.03436153382062912,-0.03691577911376953,-0.05843353271484375
1701885801313293300,18.777293212890626,0.02524513006210327,-0.023106098175048828,-0.075958251953125
1701885801330284300,18.7942841796875,0.13180136680603027,0.0021562576293945312,-0.04015541076660156
1701885801347275500,18.811275634765625,0.18483668565750122,0.06085395812988281,-0.017818450927734375
1701885801364264400,18.828264404296874,0.11974475532770157,0.0609889030456543,0.018593788146972656
1701885801381259800,18.845259765625,0.003630436956882477,0.07517719268798828,0.0751800537109375
1701885801398250800,18.862250732421874,-0.0644584447145462,0.08335399627685547,0.13978862762451172
1701885801415225900,18.879225830078123,-0.09606844931840897,0.08310556411743164,0.13043594360351562
1701885801432232000,18.89623193359375,-0.0852169468998909,0.04280424118041992,0.08603858947753906
1701885801449226800,18.913226806640626,-0.011746890842914581,0.01573801040649414,0.01651763916015625
1701885801466220500,18.930220458984376,0.06744203716516495,0.013249874114990234,-0.038318634033203125
1701885801483206700,18.94720654296875,0.13870221376419067,0.006482601165771484,-0.030370712280273438
1701885801500201200,18.964201171875,0.127397820353508,0.01416635513305664,-0.026543617248535156
1701885801517193000,18.98119287109375,0.061179667711257935,-0.0019192695617675781,-0.045932769775390625
1701885801534185500,18.998185546875,0.0049631595611572266,0.0010023117065429688,-0.06568241119384766
1701885801551176700,19.0151767578125,-0.00006160140037536621,-0.013267040252685547,-0.022554397583007812
1701885801568168200,19.032168212890625,0.03917902708053589,0.006916999816894531,0.040195465087890625
1701885801585158100,19.049158203125,0.05806027352809906,0.025506973266601562,0.08299064636230469
1701885801602152700,19.066152587890624,0.02617192268371582,-0.001953125,0.02855205535888672
1701885801619144200,19.083144287109373,-0.04476235806941986,-0.03095102310180664,-0.06436729431152344
1701885801636147200,19.100147216796874,-0.04165724664926529,-0.06306934356689453,-0.12354469299316406
1701885801653127200,19.117127197265624,0.058226779103279114,-0.0629277229309082,-0.11539554595947266
1701885801670117400,19.134117431640625,0.14773200452327728,-0.06653594970703125,-0.06749534606933594
1701885801687111400,19.151111328125,0.18281289935112,-0.055507659912109375,-0.05233573913574219
1701885801704101600,19.1681015625,0.1178869754076004,-0.04959583282470703,-0.06606388092041016
1701885801721094000,19.185093994140626,0.0398484468460083,-0.033730506896972656,-0.06466007232666016
1701885801738083300,19.202083251953123,0.010591402649879456,-0.03697967529296875,-0.024649620056152344
1701885801755075800,19.219075927734377,0.041836246848106384,-0.05343198776245117,0.01926898956298828
1701885801772068400,19.236068359375,0.06204096972942352,-0.051959991455078125,0.015311241149902344
1701885801789060900,19.253060791015624,0.04789714515209198,-0.050386905670166016,-0.03196907043457031
1701885801806052400,19.27005224609375,0.04342280328273773,-0.053690433502197266,-0.05505561828613281
1701885801823039500,19.28703955078125,0.02120751142501831,-0.04688215255737305,-0.04916095733642578
1701885801840040000,19.3040400390625,0.048156723380088806,-0.04517936706542969,-0.019517898559570312
1701885801857030400,19.321030517578127,0.06980571150779724,-0.04915189743041992,-0.023838043212890625
1701885801874015500,19.338015380859375,0.06661425530910492,-0.0528874397277832,-0.061524391174316406
1701885801891010800,19.3550107421875,0.06754423677921295,-0.05505037307739258,-0.07444953918457031
1701885801908002000,19.372001953125,0.036231279373168945,-0.09934186935424805,-0.05338573455810547
1701885801924994600,19.38899462890625,0.019705593585968018,-0.10560798645019531,-0.09948444366455078
1701885801941985500,19.405985595703125,0.003493890166282654,-0.12483644485473633,-0.1496429443359375
1701885801958978000,19.42297802734375,-0.04543842375278473,-0.11248064041137695,-0.12650394439697266
1701885801975969000,19.439968994140624,-0.06928069144487381,-0.0605158805847168,-0.0922088623046875
1701885801992958000,19.4569580078125,-0.08460673689842224,-0.04591941833496094,-0.039244651794433594
1701885802009941800,19.473941650390625,-0.0390315055847168,-0.01661205291748047,0.0474395751953125
1701885802026944800,19.49094482421875,0.005528643727302551,-0.01766061782836914,0.1039876937866211
1701885802043935500,19.507935546875,-0.004464864730834961,-0.030946731567382812,0.09273052215576172
1701885802060927200,19.52492724609375,-0.03270222246646881,-0.022110462188720703,0.037433624267578125
1701885802077920000,19.541919921875,-0.03239063918590546,-0.009022712707519531,-0.03191375732421875
1701885802094911500,19.558911376953127,0.0007369667291641235,-0.014109134674072266,-0.059165000915527344
1701885802111902500,19.57590234375,0.028222307562828064,-0.014472484588623047,-0.10943889617919922
1701885802128894500,19.59289453125,0.05649876594543457,-0.013019084930419922,-0.14531421661376953
1701885802145885700,19.6098857421875,0.08654347062110901,0.009180545806884766,-0.10286426544189453
1701885802162878200,19.626878173828125,0.05183516442775726,0.017196178436279297,-0.011548042297363281
1701885802179868400,19.643868408203126,-0.013876274228096008,0.0443730354309082,0.022386550903320312
1701885802196862200,19.6608623046875,-0.04694541543722153,0.061806678771972656,0.055335044860839844
1701885802213863200,19.67786328125,-0.00898943841457367,0.08779668807983398,0.06860637664794922
1701885802230845000,19.694844970703127,0.04382631182670593,0.059687137603759766,0.09963035583496094
1701885802247835100,19.711835205078124,0.07763165235519409,0.06379318237304688,0.09135246276855469
1701885802264829400,19.728829345703126,0.07806253433227539,0.04212045669555664,0.044696807861328125
1701885802281809400,19.745809326171877,0.10188895463943481,0.02576923370361328,-0.0064563751220703125
1701885802298811000,19.762810791015625,0.10380803048610687,-0.0036487579345703125,-0.009055137634277344
1701885802315792400,19.77979248046875,0.08637519180774689,-0.003265857696533203,0.022434234619140625
1701885802332795400,19.79679541015625,0.022153034806251526,0.0010552406311035156,0.039696693420410156
1701885802349786400,19.813786376953125,-0.08071336895227432,0.012932777404785156,0.0035343170166015625
1701885802366778600,19.830778564453126,-0.10238278657197952,-0.027114391326904297,0.0242919921875
1701885802383766800,19.847766845703124,-0.13613131642341614,-0.04897260665893555,0.05927276611328125
1701885802400761900,19.864761962890626,-0.19081181287765503,-0.04843950271606445,0.007534027099609375
1701885802417753000,19.881753173828123,-0.2037028968334198,-0.0342097282409668,-0.05511283874511719
1701885802434745300,19.898745361328125,-0.13312014937400818,-0.03007030487060547,-0.0704946517944336
1701885802451736600,19.915736572265626,0.009374797344207764,-0.024367809295654297,-0.06619739532470703
1701885802468738000,19.932738037109374,0.15062253177165985,-0.027649402618408203,-0.04780006408691406
1701885802485709300,19.949709228515626,0.17659202218055725,-0.04610872268676758,-0.04267692565917969
1701885802502709200,19.966709228515626,0.11478668451309204,-0.03987264633178711,-0.10891151428222656
1701885802519700500,19.983700439453123,0.033658191561698914,-0.0036602020263671875,-0.11069679260253906
1701885802536698400,20.000698486328126,-0.04195721447467804,-0.024220943450927734,-0.041855812072753906
1701885802553686800,20.017686767578127,-0.050027571618556976,-0.012653827667236328,-0.09284210205078125
1701885802570680000,20.03468017578125,0.02556830644607544,-0.029111862182617188,-0.08724784851074219
1701885802587669000,20.0516689453125,0.1377156674861908,0.014233112335205078,-0.0764617919921875
1701885802604662300,20.068662353515624,0.20516899228096008,0.03421163558959961,-0.07339668273925781
1701885802621653500,20.085653564453125,0.19255399703979492,0.0786747932434082,-0.03652000427246094
1701885802638645800,20.102645751953126,0.13736052811145782,0.09821367263793945,0.04381084442138672
1701885802655636700,20.11963671875,0.057098060846328735,0.10158252716064453,0.12316703796386719
1701885802672626700,20.136626708984377,0.013495787978172302,0.1068582534790039,0.15695476531982422
1701885802689623000,20.153623046875,-0.0025767534971237183,0.08471107482910156,0.1032724380493164
1701885802706613000,20.170613037109376,0.057401761412620544,0.06589174270629883,0.02333354949951172
1701885802723617500,20.187617431640625,0.1689452975988388,0.032382965087890625,-0.05257701873779297
1701885802740596200,20.20459619140625,0.24549362063407898,0.010105609893798828,-0.1269512176513672
1701885802757586400,20.22158642578125,0.28389424085617065,0.014040470123291016,-0.1327342987060547
1701885802774580200,20.238580322265626,0.23319028317928314,0.025078773498535156,-0.054683685302734375
1701885802791570700,20.25557080078125,0.1133173406124115,0.049318790435791016,0.009654045104980469
1701885802808563000,20.27256298828125,-0.04799441993236542,0.06762218475341797,0.03472900390625
1701885802825550800,20.28955078125,-0.06632690876722336,0.0801234245300293,0.024204254150390625
1701885802842543400,20.30654345703125,0.0263536274433136,0.06362104415893555,0.02694416046142578
1701885802859536600,20.32353662109375,0.1840527057647705,0.061453819274902344,0.01474761962890625
1701885802876530400,20.340530517578124,0.2554827332496643,0.0498194694519043,0.0032253265380859375
1701885802893517600,20.357517578125,0.22238175570964813,0.009011268615722656,0.03577232360839844
1701885802910513000,20.374512939453126,0.060270100831985474,0.0023069381713867188,0.0746469497680664
1701885802927504100,20.391504150390624,-0.09937730431556702,0.0044460296630859375,0.1035928726196289
1701885802944496600,20.40849658203125,-0.16042712330818176,0.038440704345703125,0.08741188049316406
1701885802961486000,20.425486083984374,-0.13023453950881958,0.028229236602783203,0.055586814880371094
1701885802978479600,20.442479736328124,-0.06467951834201813,-0.017632007598876953,0.02228832244873047
1701885802995471000,20.45947119140625,-0.0320592075586319,-0.04846906661987305,-0.04449176788330078
1701885803012460800,20.476460693359375,-0.050727322697639465,-0.09314775466918945,-0.10050773620605469
1701885803029457000,20.493456787109373,-0.0967164933681488,-0.10706710815429688,-0.140472412109375
1701885803046446600,20.510446533203126,-0.1316719651222229,-0.11893081665039062,-0.11774826049804688
1701885803063438000,20.52743798828125,-0.14011232554912567,-0.1062464714050293,-0.07047080993652344
1701885803080429600,20.5444296875,-0.14350630342960358,-0.08809757232666016,-0.02317333221435547
1701885803097422000,20.561422119140627,-0.10821578651666641,-0.09414386749267578,-0.004759788513183594
1701885803114413300,20.578413330078124,-0.1160019189119339,-0.11045980453491211,-0.010649681091308594
1701885803131404800,20.59540478515625,-0.11464601755142212,-0.11699104309082031,-0.0789785385131836
1701885803148397000,20.61239697265625,-0.07510900497436523,-0.08431243896484375,-0.12254142761230469
1701885803165385700,20.6293857421875,-0.054440900683403015,-0.11796188354492188,-0.11368560791015625
1701885803182382800,20.6463828125,-0.0066145360469818115,-0.1317911148071289,-0.12820053100585938
1701885803199371500,20.66337158203125,0.05222679674625397,-0.12062358856201172,-0.10894298553466797
1701885803216364000,20.680364013671873,0.11885836720466614,-0.08854007720947266,-0.05457019805908203
1701885803233355000,20.69735498046875,0.11590579152107239,-0.04166984558105469,-0.07650279998779297
1701885803250347000,20.714346923828124,0.07968580722808838,-0.008761882781982422,-0.09283733367919922
1701885803267337700,20.731337646484373,0.07864066958427429,0.015828609466552734,-0.05645751953125
1701885803284331500,20.74833154296875,0.06834590435028076,0.016146183013916016,0.061446189880371094
1701885803301321700,20.76532177734375,0.018531590700149536,0.02290487289428711,0.11126136779785156
1701885803318314000,20.78231396484375,-0.022946476936340332,0.022036075592041016,0.07245445251464844
1701885803335305200,20.79930517578125,0.02195097506046295,0.015644550323486328,0.022748947143554688
1701885803352297500,20.81629736328125,0.13601526618003845,-0.0004210472106933594,-0.036536216735839844
1701885803369288700,20.833288818359375,0.22993183135986328,-0.01094198226928711,-0.08581924438476562
