time,seconds_elapsed,z,y,x
1701885822042208000,0.1522080078125,-2.138493537902832,-0.8902418613433838,-0.30174732208251953
1701885822059202600,0.16920263671875,-2.23091459274292,-1.137876272201538,-0.442791223526001
1701885822076190000,0.18618994140625,-2.0021133422851562,-1.4126133918762207,-0.9441959857940674
1701885822093182200,0.20318212890625,-1.5102362632751465,-1.6206395626068115,-1.3400049209594727
1701885822110176800,0.2201767578125,-1.8113141059875488,-1.7434360980987549,-1.20792818069458
1701885822127165400,0.23716552734375,-2.3116531372070312,-1.9146528244018555,-0.9974942207336426
1701885822144158500,0.254158447265625,-2.6571590900421143,-1.944873332977295,-0.8314085006713867
1701885822161153500,0.271153564453125,-2.204145908355713,-2.183847188949585,-1.0536746978759766
1701885822178139600,0.2881396484375,-1.098189353942871,-2.3814210891723633,-1.3390288352966309
1701885822195137500,0.305137451171875,-0.2711482048034668,-2.2751195430755615,-1.293626308441162
1701885822212123400,0.322123291015625,-0.9615371227264404,-2.239078998565674,-0.42716121673583984
1701885822229121000,0.33912109375,-1.834167242050171,-1.7921946048736572,0.6279549598693848
1701885822246109000,0.35610888671875,-1.9099074602127075,-1.5340776443481445,1.1516389846801758
1701885822263103700,0.373103759765625,-0.8085639476776123,-1.4316706657409668,1.1071786880493164
1701885822280095200,0.39009521484375,0.6966512203216553,-1.5219285488128662,0.9001255035400391
1701885822297080800,0.407080810546875,1.4780871868133545,-1.3421273231506348,0.9066019058227539
1701885822314077700,0.42407763671875,0.8756809234619141,-1.0625925064086914,1.0811595916748047
1701885822331071000,0.441071044921875,-0.028927206993103027,-1.0901761054992676,1.5170841217041016
1701885822348057900,0.458057861328125,-0.17241764068603516,-0.9233508110046387,1.5325422286987305
1701885822365053000,0.475052978515625,0.2895472049713135,-0.9906591176986694,1.2891931533813477
1701885822382050000,0.492050048828125,0.8345547914505005,-0.8783406019210815,1.058365821838379
1701885822399027200,0.509027099609375,0.6785445213317871,-0.6644846200942993,0.9195365905761719
1701885822416024800,0.52602490234375,0.17996293306350708,-0.7879433631896973,1.1171932220458984
1701885822433016800,0.543016845703125,0.04397690296173096,-0.81160968542099,1.2932910919189453
1701885822450001700,0.560001708984375,0.15376949310302734,-0.8803420662879944,1.7305355072021484
1701885822467001600,0.577001708984375,0.3756314814090729,-0.6781012415885925,1.707615852355957
1701885822483996000,0.593995849609375,0.4059997498989105,-0.652018666267395,1.3032293319702148
1701885822500989200,0.6109892578125,0.33315789699554443,-0.7048481702804565,0.9284229278564453
1701885822517975300,0.627975341796875,0.3809375762939453,-0.7408810257911682,0.7501058578491211
1701885822534971400,0.644971435546875,0.5228582620620728,-0.8793984651565552,0.6928520202636719
1701885822551961600,0.661961669921875,0.6695202589035034,-0.9017739295959473,1.0903348922729492
1701885822568951300,0.678951416015625,0.6032419800758362,-0.7726880311965942,1.505599021911621
1701885822585946400,0.6959462890625,0.497393935918808,-0.7238223552703857,1.6682376861572266
1701885822602932700,0.7129326171875,0.2030169665813446,-0.366485595703125,1.5434341430664062
1701885822619931600,0.729931640625,-0.3441466689109802,-0.21986865997314453,1.703749656677246
1701885822636918800,0.746918701171875,-0.5663235187530518,0.10314702987670898,1.535048484802246
1701885822653911800,0.763911865234375,-0.8919787406921387,-0.031409263610839844,2.1039466857910156
1701885822670906400,0.78090625,-0.580680251121521,0.24350333213806152,2.2012767791748047
1701885822687885800,0.7978857421875,-0.2862285077571869,0.3634152412414551,1.9605331420898438
1701885822704889000,0.81488916015625,0.0005030557513237,0.3818535804748535,1.5725889205932617
1701885822721878800,0.831878662109375,0.2234078049659729,0.4288806915283203,0.9980831146240234
1701885822738870300,0.848870361328125,-0.03654903173446655,0.20379257202148438,0.9738922119140625
1701885822755845600,0.865845703125,-0.24657130241394043,0.0978841781616211,0.9710254669189453
1701885822772855300,0.882855224609375,-0.2557005286216736,0.23678016662597656,0.7933006286621094
1701885822789847000,0.899846923828125,-0.12253016233444214,0.39174365997314453,0.6155252456665039
1701885822806834400,0.91683447265625,0.15481263399124146,0.5757951736450195,0.4965362548828125
1701885822823832000,0.93383203125,0.21431243419647217,0.6888976097106934,0.36490678787231445
1701885822840808200,0.95080810546875,0.2344348430633545,0.6610002517700195,0.24903440475463867
1701885822857809700,0.9678095703125,0.16660606861114502,0.34812164306640625,0.45316028594970703
1701885822874796500,0.984796630859375,-0.15342223644256592,0.041778564453125,1.4136381149291992
1701885822891787300,1.001787353515625,0.43936383724212646,0.4173727035522461,1.6522202491760254
1701885822908787000,1.018786865234375,0.7169219255447388,0.4577622413635254,1.63844633102417
1701885822925781000,1.035781005859375,0.5977268218994141,0.31705713272094727,1.5394339561462402
1701885822942774000,1.05277392578125,0.39290034770965576,0.43966197967529297,1.350975513458252
1701885822959764500,1.069764404296875,0.10843110084533691,0.6396503448486328,1.1031980514526367
1701885822976754200,1.086754150390625,-0.23380935192108154,0.602623462677002,1.121168613433838
1701885822993748200,1.103748291015625,-0.5852648615837097,0.5249371528625488,1.1498126983642578
1701885823010742000,1.120741943359375,-0.7217316031455994,0.42940473556518555,1.227640151977539
1701885823027728100,1.13772802734375,-0.5106968283653259,0.4814109802246094,1.2513303756713867
1701885823044722200,1.15472216796875,-0.4361155033111572,0.3864169120788574,1.065079689025879
1701885823061717800,1.1717177734375,-0.21901166439056396,0.2678561210632324,0.7383403778076172
1701885823078705000,1.188704833984375,-0.1281452178955078,0.17394304275512695,0.5972929000854492
1701885823095699000,1.205698974609375,-0.2078263759613037,0.09168434143066406,0.42492151260375977
1701885823112687600,1.2226875,-0.20977365970611572,0.12723064422607422,0.21925783157348633
1701885823129673000,1.2396728515625,-0.28863704204559326,0.1543416976928711,0.10005855560302734
1701885823146671900,1.256671875,-0.21885192394256592,0.23676347732543945,-0.0037784576416015625
1701885823163665000,1.273664794921875,-0.074196457862854,0.20807504653930664,-0.09676694869995117
1701885823180655400,1.2906552734375,0.07867157459259033,0.07468175888061523,-0.2097330093383789
1701885823197646800,1.307646728515625,0.20365512371063232,-0.15992259979248047,-0.36219358444213867
1701885823214641700,1.3246416015625,0.018130183219909668,-0.30959510803222656,-0.38430118560791016
1701885823231633700,1.341633544921875,-0.15517544746398926,-0.40652942657470703,-0.41060686111450195
1701885823248622600,1.35862255859375,0.008740067481994629,-0.3682994842529297,-0.32924699783325195
1701885823265614300,1.3756142578125,0.055928826332092285,-0.2428421974182129,-0.19698858261108398
1701885823282610700,1.392610595703125,0.08907115459442139,-0.22159814834594727,-0.13082599639892578
1701885823299600100,1.40960009765625,-0.01464700698852539,-0.2886972427368164,-0.15298700332641602
1701885823316590300,1.42659033203125,-0.06799697875976562,-0.4639005661010742,-0.16257143020629883
1701885823333582800,1.443582763671875,-0.15515261888504028,-0.5499682426452637,-0.3602619171142578
1701885823350578700,1.46057861328125,-0.14894932508468628,-0.5673513412475586,-0.5179681777954102
1701885823367562000,1.47756201171875,-0.0016045570373535156,-0.5184149742126465,-0.567509651184082
1701885823384559900,1.494559814453125,0.07224547863006592,-0.4839358329772949,-0.5353837013244629
1701885823401551600,1.511551513671875,0.10188961029052734,-0.48965930938720703,-0.5567507743835449
1701885823418540300,1.528540283203125,0.11946713924407959,-0.48558664321899414,-0.5836610794067383
1701885823435545900,1.5455458984375,0.18763911724090576,-0.48761606216430664,-0.5805506706237793
1701885823452526300,1.5625263671875,0.2007877230644226,-0.534454345703125,-0.41104888916015625
1701885823469520400,1.579520263671875,0.020275890827178955,-0.5532684326171875,-0.37911272048950195
1701885823486499800,1.596499755859375,-0.18949705362319946,-0.5338377952575684,-0.42673635482788086
1701885823503497500,1.61349755859375,-0.44568777084350586,-0.425290584564209,-0.5225691795349121
1701885823520493300,1.630493408203125,-0.4915725290775299,-0.2872581481933594,-0.5061259269714355
1701885823537474600,1.647474609375,-0.38273078203201294,-0.18964910507202148,-0.35076904296875
1701885823554477000,1.66447705078125,-0.18238550424575806,-0.17945051193237305,-0.13698577880859375
1701885823571469300,1.68146923828125,-0.03073936700820923,-0.1206355094909668,-0.17155838012695312
1701885823588458200,1.698458251953125,0.06781935691833496,-0.16259241104125977,-0.19713783264160156
1701885823605452000,1.7154521484375,0.051628053188323975,-0.17073631286621094,-0.15303373336791992
1701885823622441000,1.73244091796875,-0.07622623443603516,-0.19961118698120117,-0.09011173248291016
1701885823639436500,1.7494365234375,0.017570436000823975,-0.20343685150146484,0.08480644226074219
1701885823656422700,1.766422607421875,0.07134521007537842,-0.11294221878051758,0.13987255096435547
1701885823673421000,1.783421142578125,0.08111244440078735,-0.11015129089355469,0.1233835220336914
1701885823690414300,1.800414306640625,0.09510940313339233,-0.08505916595458984,0.04407167434692383
1701885823707398400,1.8173984375,0.13911402225494385,-0.10892486572265625,0.021572113037109375
1701885823724394500,1.83439453125,0.04799705743789673,-0.13100099563598633,0.037448883056640625
1701885823741384200,1.85138427734375,-0.0003458857536315918,-0.06939125061035156,0.018664836883544922
1701885823758378800,1.868378662109375,-0.03162306547164917,-0.0854039192199707,0.06054544448852539
1701885823775370000,1.885369873046875,-0.1468144655227661,-0.0925445556640625,0.02587413787841797
1701885823792352800,1.902352783203125,-0.292365163564682,-0.1681079864501953,-0.047718048095703125
1701885823809358300,1.9193583984375,-0.31229132413864136,-0.14245033264160156,-0.18456315994262695
1701885823826346200,1.93634619140625,-0.19626876711845398,-0.13364648818969727,-0.21453237533569336
1701885823843331600,1.95333154296875,-0.04544651508331299,-0.12700843811035156,-0.16673040390014648
1701885823860329700,1.970329833984375,0.019693970680236816,-0.18570804595947266,-0.02011871337890625
1701885823877320400,1.987320556640625,0.06376379728317261,-0.20125579833984375,-0.07727813720703125
1701885823894318600,2.004318603515625,-0.024771451950073242,-0.26100873947143555,-0.25369691848754883
1701885823911305700,2.0213056640625,-0.10591089725494385,-0.23485469818115234,-0.38808107376098633
1701885823928292400,2.038292236328125,-0.10677146911621094,-0.23183393478393555,-0.34757328033447266
1701885823945286100,2.0552861328125,-0.06726765632629395,-0.29505205154418945,-0.10581302642822266
1701885823962277600,2.072277587890625,0.10105752944946289,-0.29953813552856445,0.02235889434814453
1701885823979272200,2.089272216796875,0.1473475992679596,-0.32480859756469727,-0.010230064392089844
1701885823996260400,2.10626025390625,-0.004582405090332031,-0.40091943740844727,-0.16170501708984375
1701885824013251000,2.1232509765625,-0.20777423679828644,-0.45302772521972656,-0.2779808044433594
1701885824030248400,2.14024853515625,-0.2937670648097992,-0.4174351692199707,-0.3697061538696289
1701885824047235300,2.1572353515625,-0.2784556448459625,-0.3760991096496582,-0.4808807373046875
1701885824064230400,2.17423046875,-0.2610745429992676,-0.45856618881225586,-0.3040037155151367
1701885824081223000,2.191222900390625,-0.1886686384677887,-0.39543628692626953,-0.10929298400878906
1701885824098211300,2.20821142578125,-0.1157674491405487,-0.3300333023071289,-0.1741342544555664
1701885824115196400,2.225196533203125,-0.07689906656742096,-0.2913670539855957,-0.3121500015258789
1701885824132197600,2.24219775390625,-0.09591807425022125,-0.28253698348999023,-0.47603797912597656
1701885824149189000,2.259189208984375,-0.07919090241193771,-0.32778120040893555,-0.5056219100952148
1701885824166183000,2.276182861328125,-0.05848957970738411,-0.41333675384521484,-0.42783069610595703
1701885824183168000,2.29316796875,0.07297201454639435,-0.3758101463317871,-0.09190940856933594
1701885824200165600,2.31016552734375,0.26218798756599426,-0.21381044387817383,0.04757499694824219
1701885824217153800,2.32715380859375,0.35640639066696167,-0.13771677017211914,0.11820793151855469
1701885824234148600,2.344148681640625,0.22127892076969147,-0.09204673767089844,0.033743858337402344
1701885824251140600,2.361140625,0.08681236207485199,-0.14291667938232422,-0.15668773651123047
1701885824268127000,2.378126953125,-0.08471762388944626,-0.18183660507202148,-0.3958101272583008
1701885824285126000,2.3951259765625,-0.13770011067390442,-0.20848846435546875,-0.4958829879760742
1701885824302115300,2.412115234375,0.04104197770357132,-0.22086715698242188,-0.4338397979736328
1701885824319108400,2.4291083984375,0.06187482923269272,-0.2571907043457031,-0.29207706451416016
1701885824336095000,2.446094970703125,0.1269584596157074,-0.21732282638549805,-0.11128520965576172
1701885824353091000,2.463091064453125,0.17130282521247864,-0.17393016815185547,-0.027761459350585938
1701885824370084900,2.4800849609375,0.1243308037519455,-0.21484661102294922,-0.016373634338378906
1701885824387074800,2.49707470703125,0.002084381878376007,-0.24435663223266602,-0.11155891418457031
1701885824404063500,2.5140634765625,0.07924345135688782,-0.25681591033935547,-0.2170429229736328
1701885824421057500,2.5310576171875,0.15956732630729675,-0.30083751678466797,-0.2876710891723633
1701885824438047500,2.548047607421875,0.17021284997463226,-0.3784065246582031,-0.1758270263671875
1701885824455048400,2.56504833984375,0.0808948427438736,-0.36444997787475586,-0.05966949462890625
1701885824472024300,2.5820244140625,0.020570911467075348,-0.2996635437011719,-0.15381240844726562
1701885824489022500,2.5990224609375,-0.01320057362318039,-0.2648501396179199,-0.22527027130126953
1701885824506013200,2.61601318359375,0.0059139057993888855,-0.29773426055908203,-0.2753744125366211
1701885824523004400,2.63300439453125,0.010985143482685089,-0.32438135147094727,-0.31769371032714844
1701885824540004900,2.6500048828125,-0.08355653285980225,-0.3378138542175293,-0.28505992889404297
1701885824556989700,2.66698974609375,-0.20943689346313477,-0.2917366027832031,-0.193878173828125
1701885824573966300,2.68396630859375,-0.1989642083644867,-0.25137805938720703,-0.10372638702392578
1701885824590976300,2.700976318359375,-0.12770019471645355,-0.2294764518737793,-0.08615589141845703
1701885824607965000,2.71796484375,-0.12578986585140228,-0.23118209838867188,-0.06203460693359375
1701885824624962000,2.734962158203125,-0.08414404094219208,-0.22627782821655273,-0.1003255844116211
1701885824641954600,2.75195458984375,-0.08462007343769073,-0.21828889846801758,-0.14595603942871094
1701885824658936800,2.768936767578125,0.03361103683710098,-0.16486597061157227,-0.08119392395019531
1701885824675935500,2.785935546875,0.012302450835704803,-0.13713788986206055,0.026946067810058594
1701885824692925400,2.802925537109375,-0.06282071769237518,-0.11193656921386719,0.057417869567871094
1701885824709919000,2.8199189453125,-0.20802554488182068,-0.09189033508300781,0.019023895263671875
1701885824726907400,2.836907470703125,-0.24172534048557281,-0.1116189956665039,-0.031240463256835938
1701885824743902000,2.85390185546875,-0.16068269312381744,-0.18014764785766602,0.03704071044921875
1701885824760894500,2.87089453125,-0.11071605235338211,-0.22267580032348633,-0.016201019287109375
1701885824777884700,2.887884765625,-0.15473449230194092,-0.2542433738708496,-0.1279001235961914
1701885824794875100,2.904875244140625,-0.07873204350471497,-0.23690032958984375,-0.23997116088867188
1701885824811869000,2.921868896484375,0.04443921148777008,-0.2071366310119629,-0.3025979995727539
1701885824828858600,2.938858642578125,0.12732747197151184,-0.19872474670410156,-0.2680349349975586
1701885824845839000,2.955839111328125,0.09787368029356003,-0.19061756134033203,-0.19882869720458984
1701885824862841300,2.97284130859375,0.05576424300670624,-0.17467212677001953,-0.12515926361083984
1701885824879839200,2.989839111328125,0.025514911860227585,-0.14934062957763672,-0.15242767333984375
1701885824896816400,3.00681640625,-0.0288991779088974,-0.17176151275634766,-0.1467733383178711
1701885824913820400,3.0238203125,-0.016435541212558746,-0.15567493438720703,-0.12668704986572266
1701885824930812000,3.04081201171875,-0.007744252681732178,-0.15020132064819336,-0.10716819763183594
1701885824947800800,3.05780078125,0.055801164358854294,-0.12691593170166016,-0.06983280181884766
1701885824964799200,3.07479931640625,0.08706851303577423,-0.11472940444946289,-0.06145286560058594
1701885824981788000,3.091787841796875,0.1394713968038559,-0.11696672439575195,-0.12105178833007812
1701885824998775800,3.10877587890625,0.14375180006027222,-0.13337278366088867,-0.1604776382446289
1701885825015773700,3.125773681640625,0.052643317729234695,-0.18728017807006836,-0.16059303283691406
1701885825032759000,3.142759033203125,0.11233651638031006,-0.16440629959106445,-0.19050884246826172
1701885825049752800,3.1597529296875,0.10557568073272705,-0.18272686004638672,-0.16135406494140625
1701885825066747600,3.17674755859375,0.17365559935569763,-0.17529296875,-0.11684226989746094
1701885825083738600,3.193738525390625,0.1287548989057541,-0.18159008026123047,-0.1294240951538086
1701885825100725200,3.210725341796875,0.08290694653987885,-0.1878652572631836,-0.1611337661743164
1701885825117723100,3.22772314453125,-0.0261385440826416,-0.18394184112548828,-0.23914337158203125
1701885825134703000,3.244703125,-0.1051567792892456,-0.19821453094482422,-0.21159744262695312
1701885825151705300,3.261705322265625,-0.1310674548149109,-0.16372060775756836,-0.1413898468017578
1701885825168685000,3.27868505859375,-0.08888685703277588,-0.11618423461914062,-0.06199932098388672
1701885825185683700,3.29568359375,-0.08826376497745514,-0.1466236114501953,0.006107330322265625
1701885825202679800,3.3126796875,-0.14588071405887604,-0.17574691772460938,-0.05095958709716797
1701885825219672000,3.329672119140625,-0.10401369631290436,-0.18114709854125977,-0.17667102813720703
1701885825236664300,3.346664306640625,-0.04475666582584381,-0.21155977249145508,-0.19980335235595703
1701885825253656000,3.363656005859375,0.014992156066000462,-0.18720722198486328,-0.1256885528564453
1701885825270650400,3.380650390625,0.027738219127058983,-0.13370275497436523,-0.08362388610839844
1701885825287625500,3.39762548828125,-0.06008033826947212,-0.1132206916809082,-0.050515174865722656
1701885825304631600,3.414631591796875,-0.10997389256954193,-0.08203315734863281,0.025714874267578125
1701885825321621800,3.431621826171875,-0.12006230652332306,-0.08864021301269531,0.09710979461669922
1701885825338616000,3.448615966796875,-0.21987593173980713,-0.10979843139648438,0.07365131378173828
1701885825355600600,3.4656005859375,-0.19214533269405365,-0.1395101547241211,0.006457328796386719
1701885825372598000,3.482597900390625,-0.31270480155944824,-0.14352846145629883,-0.0499114990234375
1701885825389590500,3.499590576171875,-0.2696121335029602,-0.10933828353881836,-0.1001272201538086
1701885825406581200,3.516581298828125,-0.265594482421875,-0.13425588607788086,-0.08431625366210938
1701885825423571200,3.5335712890625,-0.21030879020690918,-0.1681513786315918,-0.049594879150390625
1701885825440563200,3.550563232421875,-0.1380327045917511,-0.1613907814025879,-0.10956096649169922
1701885825457559300,3.567559326171875,0.03126637637615204,-0.1640911102294922,-0.1174154281616211
1701885825474548200,3.58454833984375,0.18506070971488953,-0.1514725685119629,-0.13907814025878906
1701885825491538000,3.601537841796875,0.24235838651657104,-0.12978696823120117,-0.08291912078857422
1701885825508545500,3.618545654296875,0.18037600815296173,-0.11942291259765625,-0.04594707489013672
1701885825525524700,3.635524658203125,0.0485905259847641,-0.14307165145874023,-0.10948371887207031
1701885825542513000,3.652512939453125,-0.011986177414655685,-0.14251041412353516,-0.097137451171875
1701885825559498200,3.669498291015625,0.029345721006393433,-0.11798572540283203,-0.061181068420410156
1701885825576499500,3.68649951171875,0.05851832032203674,-0.11826133728027344,-0.05443382263183594
1701885825593492200,3.7034921875,0.012041736394166946,-0.11838388442993164,-0.11400604248046875
1701885825610479600,3.720479736328125,0.0213996022939682,-0.09471273422241211,-0.12641239166259766
1701885825627476700,3.737476806640625,0.050581835210323334,-0.10973024368286133,-0.10613441467285156
1701885825644466700,3.754466796875,0.08823900669813156,-0.15807437896728516,-0.13873958587646484
1701885825661459200,3.771459228515625,0.05590684711933136,-0.1528024673461914,-0.15970516204833984
1701885825678463700,3.788463623046875,0.08761364221572876,-0.14967918395996094,-0.12296009063720703
1701885825695440600,3.805440673828125,0.10771527141332626,-0.16480064392089844,-0.032131195068359375
1701885825712435700,3.822435791015625,0.10012120753526688,-0.18009519577026367,-0.018312454223632812
1701885825729426400,3.839426513671875,0.04431656375527382,-0.20102214813232422,-0.09531116485595703
1701885825746417200,3.856417236328125,-0.05669546499848366,-0.21985244750976562,-0.22411537170410156
1701885825763410000,3.873409912109375,-0.12121942639350891,-0.2745699882507324,-0.26535511016845703
1701885825780400600,3.890400634765625,-0.13599823415279388,-0.2672405242919922,-0.26126575469970703
1701885825797393000,3.907392822265625,-0.09584003686904907,-0.22922134399414062,-0.0694112777709961
1701885825814385400,3.924385498046875,-0.16275624930858612,-0.1595749855041504,0.03384971618652344
1701885825831377200,3.941377197265625,-0.2895347774028778,-0.1581110954284668,0.00926971435546875
1701885825848368000,3.9583681640625,-0.3205811381340027,-0.2353510856628418,-0.10861778259277344
1701885825865361200,3.975361083984375,-0.23182886838912964,-0.3101158142089844,-0.21230030059814453
1701885825882351400,3.992351318359375,-0.042116936296224594,-0.3379249572753906,-0.29023265838623047
1701885825899333600,4.009333740234375,0.16027317941188812,-0.27924251556396484,-0.31743717193603516
1701885825916335000,4.026335205078125,0.21919965744018555,-0.2504000663757324,-0.21654033660888672
1701885825933324500,4.043324462890625,0.08641421794891357,-0.22595643997192383,0.02072906494140625
1701885825950318800,4.06031884765625,-0.12844648957252502,-0.15427875518798828,0.10721302032470703
1701885825967311600,4.0773115234375,-0.2872590124607086,-0.12449455261230469,0.008542060852050781
1701885825984302000,4.094302001953125,-0.34857577085494995,-0.13960981369018555,-0.08217906951904297
1701885826001295000,4.111295166015625,-0.24899384379386902,-0.16250181198120117,-0.15009212493896484
1701885826018285800,4.128285888671875,-0.1211201474070549,-0.18516111373901367,-0.1502838134765625
1701885826035278800,4.14527880859375,0.04884845390915871,-0.1741652488708496,-0.13663673400878906
1701885826052269300,4.162269287109375,0.09478969871997833,-0.18762874603271484,-0.07928752899169922
1701885826069262300,4.179262451171875,0.02520415559411049,-0.18447303771972656,-0.11275291442871094
1701885826086252300,4.196252197265625,0.021231163293123245,-0.16622543334960938,-0.20450401306152344
1701885826103235800,4.21323583984375,0.06895636022090912,-0.16978883743286133,-0.18941593170166016
1701885826120235800,4.23023583984375,0.1592220813035965,-0.17685413360595703,-0.13592815399169922
1701885826137230300,4.247230224609375,0.20437300205230713,-0.18435430526733398,-0.15485668182373047
1701885826154220300,4.26422021484375,0.17340527474880219,-0.18749237060546875,-0.2066211700439453
1701885826171210800,4.281210693359375,0.07713832706212997,-0.17243051528930664,-0.20054149627685547
1701885826188203300,4.298203369140625,-0.04187247157096863,-0.13379192352294922,-0.1940164566040039
1701885826205189400,4.315189453125,-0.0791550949215889,-0.13201045989990234,-0.15886783599853516
1701885826222187300,4.332187255859375,-0.07819107919931412,-0.1253948211669922,-0.11472129821777344
1701885826239180300,4.34918017578125,-0.06878936290740967,-0.14893007278442383,-0.09595298767089844
1701885826256168200,4.366168212890625,0.031014814972877502,-0.14507818222045898,-0.1019134521484375
1701885826273166300,4.383166259765625,0.02672726660966873,-0.1598343849182129,-0.1695394515991211
1701885826290154800,4.40015478515625,0.01711006835103035,-0.15009212493896484,-0.17426109313964844
1701885826307146800,4.417146728515625,0.05715465918183327,-0.11992120742797852,-0.16385173797607422
1701885826324138800,4.434138671875,0.10713168978691101,-0.11606454849243164,-0.08086490631103516
1701885826341130800,4.451130859375,0.09705965965986252,-0.13633060455322266,-0.0066375732421875
1701885826358122000,4.4681220703125,-0.03703076392412186,-0.14411687850952148,0.03898048400878906
1701885826375114500,4.485114501953125,-0.20655208826065063,-0.1254901885986328,-0.0124359130859375
1701885826392108500,4.502108642578125,-0.2555593252182007,-0.0788421630859375,-0.07952404022216797
1701885826409095000,4.519094970703125,-0.21509376168251038,-0.07459783554077148,-0.05109977722167969
1701885826426089000,4.5360888671875,-0.05782315135002136,-0.08977413177490234,-0.005217552185058594
1701885826443078700,4.55307861328125,-0.0074775442481040955,-0.13514232635498047,-0.026581764221191406
1701885826460074000,4.570073974609375,-0.08318723738193512,-0.14325714111328125,-0.10442447662353516
1701885826477064000,4.58706396484375,-0.14528369903564453,-0.10252666473388672,-0.1526641845703125
1701885826494045700,4.604045654296875,-0.09574323147535324,-0.10371685028076172,-0.0869302749633789
1701885826511049200,4.62104931640625,-0.04111424833536148,-0.15478229522705078,-0.08488082885742188
1701885826528039700,4.638039794921875,0.02889954298734665,-0.13130807876586914,-0.16471290588378906
1701885826545032700,4.65503271484375,0.07358919084072113,-0.1453084945678711,-0.1294708251953125
1701885826562023200,4.672023193359375,0.07086971402168274,-0.1527409553527832,-0.0827016830444336
1701885826579016000,4.689015869140625,0.07913094013929367,-0.16285085678100586,-0.09732341766357422
1701885826596007000,4.7060068359375,0.06918831169605255,-0.15777826309204102,-0.13065814971923828
1701885826612998400,4.722998291015625,0.007913067936897278,-0.1422271728515625,-0.16292381286621094
1701885826629991200,4.7399912109375,0.014748521149158478,-0.10308551788330078,-0.10026836395263672
1701885826646984200,4.756984130859375,-0.0035677850246429443,-0.11909341812133789,-0.00994110107421875
1701885826663974100,4.77397412109375,-0.030324585735797882,-0.15185022354125977,-0.026556968688964844
1701885826680967000,4.790966796875,-0.04735755920410156,-0.170013427734375,-0.10497379302978516
1701885826697956900,4.807956787109375,-0.0025922656059265137,-0.16338253021240234,-0.13591384887695312
1701885826714961700,4.824961669921875,0.09790331870317459,-0.1269378662109375,-0.16180419921875
1701885826731941400,4.84194140625,0.07212327420711517,-0.16689252853393555,-0.16755008697509766
1701885826748934100,4.85893408203125,0.007057070732116699,-0.1442732810974121,-0.1434621810913086
1701885826765925000,4.875925048828125,-0.03343479335308075,-0.12521982192993164,-0.090301513671875
1701885826782918000,4.89291796875,-0.017745792865753174,-0.12060689926147461,-0.028446197509765625
1701885826799908600,4.90990869140625,0.031154386699199677,-0.09723997116088867,-0.024301528930664062
1701885826816900400,4.926900390625,0.025538362562656403,-0.1376338005065918,-0.09247779846191406
1701885826833892900,4.943892822265625,-0.010023467242717743,-0.16757822036743164,-0.10276412963867188
1701885826850885000,4.960885009765625,-0.10410002619028091,-0.15263700485229492,-0.1302480697631836
1701885826867875600,4.97787548828125,-0.10702887177467346,-0.11572885513305664,-0.06615638732910156
1701885826884868600,4.99486865234375,-0.0934828668832779,-0.07976198196411133,0.0261383056640625
1701885826901859000,5.011859130859375,-0.07328248769044876,-0.05724000930786133,0.05406665802001953
1701885826918852000,5.02885205078125,-0.0724797397851944,-0.08038568496704102,-0.005591392517089844
1701885826935842600,5.045842529296875,-0.06661006063222885,-0.13246488571166992,-0.06537151336669922
1701885826952828400,5.062828369140625,-0.061787642538547516,-0.13989973068237305,-0.1389627456665039
1701885826969826600,5.07982666015625,-0.1229514554142952,-0.14661121368408203,-0.15345382690429688
1701885826986819300,5.0968193359375,-0.11110730469226837,-0.09859132766723633,-0.10070419311523438
1701885827003810000,5.11381005859375,-0.08268832415342331,-0.10314416885375977,0.009524345397949219
1701885827020792300,5.130792236328125,-0.03633660823106766,-0.07749605178833008,0.04073905944824219
1701885827037795600,5.147795654296875,-0.05933578312397003,-0.10811519622802734,-0.020404815673828125
1701885827054770700,5.164770751953125,-0.10051687806844711,-0.12520313262939453,-0.1579570770263672
1701885827071777000,5.181777099609375,-0.11007209122180939,-0.1496596336364746,-0.18000316619873047
1701885827088769800,5.198769775390625,0.014122866094112396,-0.13372373580932617,-0.14976119995117188
1701885827105753900,5.21575390625,0.13257384300231934,-0.16046905517578125,-0.11871814727783203
1701885827122753500,5.23275341796875,0.13493673503398895,-0.1557331085205078,-0.07319068908691406
1701885827139743700,5.24974365234375,0.03476559370756149,-0.14766311645507812,-0.13349628448486328
1701885827156738300,5.26673828125,-0.011888734996318817,-0.1734142303466797,-0.22266292572021484
1701885827173727700,5.283727783203125,0.034136004745960236,-0.2017965316772461,-0.29299449920654297
1701885827190720800,5.300720703125,0.13274970650672913,-0.24222087860107422,-0.2899465560913086
1701885827207710700,5.317710693359375,0.24302658438682556,-0.220947265625,-0.23766040802001953
1701885827224705300,5.334705322265625,0.25605154037475586,-0.15972137451171875,-0.1775646209716797
1701885827241695200,5.3516953125,0.10255429893732071,-0.12365198135375977,-0.09773635864257812
1701885827258687700,5.368687744140625,-0.041758760809898376,-0.07907295227050781,-0.042758941650390625
1701885827275679200,5.38567919921875,-0.14914149045944214,-0.09405755996704102,-0.023070335388183594
1701885827292669000,5.4026689453125,-0.09082002937793732,-0.13922786712646484,-0.0634927749633789
1701885827309664300,5.419664306640625,-0.019122838973999023,-0.17667484283447266,-0.11896324157714844
1701885827326656000,5.436656005859375,0.09543581306934357,-0.17451238632202148,-0.20367431640625
1701885827343642400,5.453642333984375,0.1315019577741623,-0.20052099227905273,-0.1809225082397461
1701885827360639000,5.470638916015625,0.11973331868648529,-0.18758296966552734,-0.16738033294677734
1701885827377629700,5.487629638671875,-0.02205532044172287,-0.15949392318725586,-0.20929622650146484
1701885827394622500,5.50462255859375,-0.03104102611541748,-0.12807559967041016,-0.19828033447265625
1701885827411613200,5.52161328125,-0.015216656029224396,-0.10871124267578125,-0.11420726776123047
1701885827428606000,5.53860595703125,0.05976325646042824,-0.08040142059326172,-0.05976390838623047
1701885827445597000,5.555596923828125,0.005365028977394104,-0.05522966384887695,0.02801513671875
1701885827462583000,5.5725830078125,-0.12464871257543564,-0.07186508178710938,0.037888526916503906
1701885827479584000,5.589583984375,-0.22125044465065002,-0.10510015487670898,-0.021445274353027344
1701885827496573200,5.6065732421875,-0.23424065113067627,-0.12390995025634766,-0.07657623291015625
1701885827513564000,5.62356396484375,-0.13295301795005798,-0.15934276580810547,-0.10791683197021484
1701885827530552800,5.640552734375,-0.047645777463912964,-0.19780969619750977,-0.07991790771484375
1701885827547552000,5.657552001953125,0.06351229548454285,-0.1912226676940918,0.02995014190673828
1701885827564536800,5.674536865234375,0.04216276854276657,-0.15144014358520508,0.1079568862915039
1701885827581531400,5.691531494140625,-0.039071083068847656,-0.09017181396484375,0.05062103271484375
1701885827598524000,5.70852392578125,-0.1446775496006012,-0.05982685089111328,-0.09347724914550781
1701885827615514600,5.7255146484375,-0.2125408947467804,-0.08096933364868164,-0.17533493041992188
1701885827632508000,5.7425078125,-0.12584730982780457,-0.08520269393920898,-0.19057178497314453
1701885827649498400,5.759498291015625,-0.01069730520248413,-0.10679149627685547,-0.07499027252197266
1701885827666480600,5.776480712890625,-0.0065100789070129395,-0.09669208526611328,-0.01723003387451172
1701885827683482000,5.793482177734375,0.011818863451480865,-0.10261774063110352,-0.046527862548828125
1701885827700471800,5.810471923828125,-0.053240060806274414,-0.11290693283081055,-0.0421142578125
1701885827717463000,5.827463134765625,0.005569338798522949,-0.08538341522216797,-0.05710411071777344
1701885827734460700,5.844460693359375,0.021614402532577515,-0.11468982696533203,-0.057417869567871094
1701885827751449000,5.861448974609375,0.05396374315023422,-0.10574007034301758,-0.05390739440917969
1701885827768442000,5.878442138671875,0.04882726073265076,-0.12664461135864258,-0.07402515411376953
1701885827785432600,5.8954326171875,0.04650646448135376,-0.12972116470336914,-0.12838077545166016
1701885827802425300,5.91242529296875,-0.01322050392627716,-0.14751958847045898,-0.2301807403564453
1701885827819416600,5.92941650390625,-0.007574155926704407,-0.1828312873840332,-0.24552154541015625
1701885827836409300,5.946409423828125,0.08555695414543152,-0.1872563362121582,-0.19418811798095703
1701885827853389600,5.9633896484375,0.15637162327766418,-0.2102189064025879,-0.16556072235107422
1701885827870392800,5.980392822265625,0.2073112577199936,-0.17437076568603516,-0.1691265106201172
1701885827887370500,5.99737060546875,0.12950043380260468,-0.17534399032592773,-0.18085289001464844
1701885827904379000,6.01437890625,0.06670085340738297,-0.16019201278686523,-0.18680858612060547
1701885827921367300,6.0313671875,-0.05470549315214157,-0.09170341491699219,-0.11511802673339844
1701885827938360000,6.048360107421875,-0.12118396162986755,-0.08042144775390625,0.028169631958007812
1701885827955350800,6.065350830078125,-0.09347519278526306,-0.0574946403503418,0.0876779556274414
1701885827972343800,6.08234375,-0.09178861230611801,-0.06168222427368164,0.05448627471923828
1701885827989334300,6.099334228515625,-0.07900147885084152,-0.08637046813964844,-0.06654548645019531
1701885828006327300,6.116327392578125,-0.1184038296341896,-0.1117396354675293,-0.17685604095458984
1701885828023317800,6.13331787109375,-0.020455285906791687,-0.09578323364257812,-0.1816997528076172
1701885828040310000,6.15031005859375,0.008820608258247375,-0.08285760879516602,-0.06080818176269531
1701885828057302500,6.167302490234375,-0.010314300656318665,-0.06717872619628906,0.022203445434570312
1701885828074294500,6.18429443359375,-0.0739000216126442,-0.0675959587097168,0.01239013671875
1701885828091287000,6.201287109375,-0.0990450531244278,-0.09817028045654297,0.0023756027221679688
1701885828108276200,6.218276123046875,-0.11073775589466095,-0.10498666763305664,-0.056186676025390625
1701885828125268700,6.235268798828125,-0.050754569470882416,-0.0810084342956543,-0.10016822814941406
1701885828142261500,6.252261474609375,0.01973089575767517,-0.07457351684570312,-0.04243755340576172
1701885828159240000,6.269239990234375,0.05037529021501541,-0.07322025299072266,0.020502090454101562
1701885828176247600,6.28624755859375,-0.07341385632753372,-0.08920764923095703,0.0061435699462890625
1701885828193236500,6.303236572265625,-0.16634613275527954,-0.10573768615722656,-0.027642250061035156
1701885828210228700,6.320228759765625,-0.16577894985675812,-0.09873247146606445,-0.0003452301025390625
1701885828227218700,6.33721875,-0.09036140143871307,-0.07395696640014648,-0.007617950439453125
1701885828244213200,6.354213134765625,0.036224689334630966,-0.0839238166809082,-0.05505943298339844
1701885828261203200,6.371203125,0.0988292247056961,-0.1088571548461914,-0.09234333038330078
1701885828278195500,6.388195556640625,0.1428709179162979,-0.15102529525756836,-0.13371562957763672
1701885828295187200,6.405187255859375,0.046674106270074844,-0.1793198585510254,-0.18818950653076172
1701885828312180000,6.422179931640625,-0.008250780403614044,-0.16736364364624023,-0.2559185028076172
1701885828329170400,6.43917041015625,-0.053575314581394196,-0.15757036209106445,-0.17829132080078125
1701885828346163500,6.45616357421875,0.0026266388595104218,-0.1260833740234375,-0.06728172302246094
1701885828363150600,6.473150634765625,0.02818692848086357,-0.13408231735229492,0.02483654022216797
1701885828380146700,6.490146728515625,0.04305574297904968,-0.13299942016601562,0.001155853271484375
1701885828397140500,6.507140380859375,-0.019619330763816833,-0.1340928077697754,-0.032639503479003906
1701885828414130700,6.524130615234375,-0.07583940029144287,-0.1210622787475586,-0.10935211181640625
1701885828431121400,6.541121337890625,-0.13253158330917358,-0.15488338470458984,-0.12807178497314453
1701885828448114200,6.5581142578125,-0.08348169922828674,-0.14804887771606445,-0.14700698852539062
1701885828465105200,6.575105224609375,-0.02013976126909256,-0.15056371688842773,-0.08892345428466797
1701885828482098000,6.592097900390625,-0.01919950172305107,-0.1306285858154297,-0.03551673889160156
1701885828499088400,6.60908837890625,-0.10981801152229309,-0.14150333404541016,-0.05956268310546875
1701885828516081200,6.6260810546875,-0.12221971154212952,-0.1437363624572754,-0.15589141845703125
1701885828533072100,6.643072021484375,-0.0286928229033947,-0.1716771125793457,-0.18090057373046875
1701885828550064400,6.660064453125,0.13066837191581726,-0.1725449562072754,-0.13240528106689453
1701885828567056400,6.677056396484375,0.12236596643924713,-0.16286849975585938,-0.1201333999633789
1701885828584048400,6.69404833984375,0.07619354873895645,-0.1186056137084961,-0.06325531005859375
1701885828601039400,6.711039306640625,-0.003982380032539368,-0.0933990478515625,0.012811660766601562
1701885828618031600,6.728031494140625,-0.1191810667514801,-0.051590919494628906,0.044999122619628906
1701885828635024000,6.74502392578125,-0.19946584105491638,-0.04109525680541992,0.03654289245605469
1701885828652015900,6.762015869140625,-0.1726304292678833,-0.06747102737426758,-0.022214889526367188
1701885828669006600,6.779006591796875,-0.03932737186551094,-0.09767913818359375,-0.10622119903564453
1701885828685999900,6.795999755859375,0.14586415886878967,-0.12614107131958008,-0.10758399963378906
1701885828702990300,6.812990234375,0.1872771978378296,-0.1202082633972168,-0.1649799346923828
1701885828719983000,6.829983154296875,0.17064571380615234,-0.09299325942993164,-0.14403343200683594
1701885828736973000,6.84697314453125,0.037238895893096924,-0.08435916900634766,-0.05423736572265625
1701885828753967600,6.863967529296875,-0.00240398570895195,-0.047625064849853516,-0.03749561309814453
1701885828770957600,6.88095751953125,-0.030750032514333725,-0.0510106086730957,0.0018978118896484375
1701885828787950000,6.8979501953125,-0.0451221689581871,-0.07061338424682617,-0.03185749053955078
1701885828804940800,6.91494091796875,-0.026356805115938187,-0.0852804183959961,-0.08499813079833984
1701885828821933800,6.931933837890625,0.002931293100118637,-0.10909795761108398,-0.061608314514160156
1701885828838914600,6.94891455078125,-0.004061125218868256,-0.08966350555419922,-0.10931110382080078
1701885828855917800,6.965917724609375,0.06115096062421799,-0.06482648849487305,-0.10881710052490234
1701885828872905200,6.9829052734375,0.04078342765569687,-0.08226490020751953,-0.09352302551269531
1701885828889901300,6.9999013671875,0.044184453785419464,-0.0898737907409668,-0.0685129165649414
1701885828906891800,7.016891845703125,0.0015540122985839844,-0.11226415634155273,-0.019804954528808594
1701885828923882200,7.03388232421875,-0.09467756748199463,-0.0936589241027832,-0.057457923889160156
1701885828940875300,7.050875244140625,-0.09511084854602814,-0.0691227912902832,-0.08105182647705078
1701885828957868500,7.06786865234375,0.014450863003730774,-0.057181358337402344,-0.03759574890136719
1701885828974866000,7.084865966796875,0.08874723315238953,-0.07481145858764648,-0.0038690567016601562
1701885828991833900,7.101833740234375,0.03127877414226532,-0.07990884780883789,-0.0704641342163086
1701885829008842800,7.1188427734375,-0.04835377261042595,-0.08950138092041016,-0.13210296630859375
1701885829025833500,7.13583349609375,-0.07224336266517639,-0.10730218887329102,-0.10743045806884766
1701885829042828500,7.15282861328125,-0.05137406662106514,-0.08703184127807617,-0.044249534606933594
1701885829059818500,7.169818603515625,-0.03490975871682167,-0.061528682708740234,-0.01943492889404297
1701885829076808200,7.18680810546875,-0.004314839839935303,-0.0509800910949707,-0.009905815124511719
1701885829093805600,7.2038056640625,0.011584006249904633,-0.05976676940917969,0.004563331604003906
1701885829110793500,7.22079345703125,-0.01450713723897934,-0.05617952346801758,-0.029613494873046875
1701885829127785700,7.23778564453125,-0.09024925529956818,-0.0820779800415039,-0.11627388000488281
1701885829144778000,7.254778076171875,-0.13410474359989166,-0.12163639068603516,-0.13579559326171875
1701885829161770200,7.271770263671875,-0.0974179208278656,-0.09125328063964844,-0.1256122589111328
1701885829178760700,7.2887607421875,-0.016796648502349854,-0.06419134140014648,-0.09991264343261719
1701885829195753000,7.3057529296875,0.06202138215303421,-0.022298812866210938,-0.00756072998046875
1701885829212745500,7.322745361328125,0.05802050605416298,0.01716470718383789,0.04573822021484375
1701885829229732000,7.339732177734375,0.03270883113145828,-0.01283884048461914,0.054915428161621094
1701885829246717400,7.356717529296875,-0.05706920102238655,-0.024732112884521484,-0.0032291412353515625
1701885829263718000,7.3737177734375,-0.2043352574110031,-0.11465978622436523,-0.13337039947509766
1701885829280711400,7.39071142578125,-0.19888891279697418,-0.14685726165771484,-0.19333171844482422
1701885829297704400,7.407704345703125,0.014080323278903961,-0.11806535720825195,-0.18077659606933594
1701885829314702300,7.424702392578125,0.20397457480430603,-0.11669778823852539,-0.03823089599609375
1701885829331688400,7.4416884765625,0.2944779396057129,-0.06805562973022461,0.05312824249267578
1701885829348678700,7.4586787109375,0.1544540375471115,-0.04173564910888672,0.029388427734375
1701885829365671700,7.475671630859375,-0.014617066830396652,-0.03451347351074219,-0.0568695068359375
1701885829382659600,7.49265966796875,-0.13981977105140686,-0.0655055046081543,-0.07635498046875
1701885829399655700,7.50965576171875,-0.20310787856578827,-0.09596920013427734,-0.08152103424072266
1701885829416646400,7.526646484375,-0.18956486880779266,-0.11687994003295898,-0.0878896713256836
1701885829433629000,7.54362890625,-0.0993211641907692,-0.1042933464050293,-0.06076335906982422
1701885829450630100,7.560630126953125,-0.020700760185718536,-0.11620664596557617,-0.029153823852539062
1701885829467623200,7.577623046875,0.05759972333908081,-0.11845970153808594,-0.05046653747558594
1701885829484613600,7.594613525390625,0.09172660857439041,-0.1207728385925293,-0.07567024230957031
1701885829501606400,7.6116064453125,0.022893302142620087,-0.13656330108642578,-0.1237344741821289
1701885829518598000,7.628597900390625,-0.06514494121074677,-0.1288166046142578,-0.18160247802734375
1701885829535588900,7.6455888671875,-0.16897113621234894,-0.13471078872680664,-0.20044422149658203
1701885829552580600,7.66258056640625,-0.1390860378742218,-0.1474294662475586,-0.1564645767211914
1701885829569573400,7.679573486328125,-0.043427724391222,-0.11556529998779297,-0.07427406311035156
1701885829586564600,7.696564697265625,0.032205045223236084,-0.09879398345947266,-0.0017337799072265625
1701885829603557000,7.71355712890625,0.07092992216348648,-0.09201192855834961,0.008351325988769531
1701885829620547800,7.7305478515625,0.01932360976934433,-0.09967947006225586,-0.052222251892089844
1701885829637539000,7.7475390625,-0.16989049315452576,-0.11721467971801758,-0.1072397232055664
1701885829654532000,7.764531982421875,-0.21865038573741913,-0.07564115524291992,-0.10960102081298828
1701885829671525600,7.781525634765625,-0.21504667401313782,-0.052796363830566406,-0.03062725067138672
1701885829688515000,7.79851513671875,-0.10096439719200134,-0.030236244201660156,0.056835174560546875
1701885829705496600,7.81549658203125,-0.015605978667736053,-0.04362297058105469,0.11388969421386719
1701885829722498800,7.832498779296875,-0.06105516478419304,-0.08043241500854492,0.05463695526123047
1701885829739489300,7.8494892578125,-0.15291577577590942,-0.11905860900878906,-0.1390371322631836
1701885829756484900,7.86648486328125,-0.12452128529548645,-0.13981103897094727,-0.2413501739501953
1701885829773472000,7.883471923828125,-0.02540821209549904,-0.12862539291381836,-0.22667312622070312
1701885829790462700,7.900462646484375,0.07231826335191727,-0.09551143646240234,-0.12940311431884766
1701885829807458800,7.917458740234375,0.11419811099767685,-0.07836151123046875,0.0017499923706054688
1701885829824447000,7.934447021484375,0.1077297255396843,-0.06758451461791992,0.07904911041259766
1701885829841458000,7.9514580078125,0.10775107890367508,-0.09196853637695312,0.07883834838867188
1701885829858433500,7.96843359375,0.1749698668718338,-0.0915989875793457,-0.04150962829589844
1701885829875426300,7.98542626953125,0.21805927157402039,-0.08000421524047852,-0.14564800262451172
1701885829892406500,8.002406494140626,0.2251165211200714,-0.017546653747558594,-0.15271663665771484
1701885829909409800,8.019409912109374,0.22996392846107483,0.035976409912109375,-0.06243896484375
1701885829926390000,8.03639013671875,0.24354827404022217,0.046097755432128906,0.07430839538574219
1701885829943393500,8.0533935546875,0.20624494552612305,0.02974557876586914,0.10996818542480469
1701885829960383200,8.07038330078125,0.13659650087356567,0.024552345275878906,0.07202816009521484
1701885829977377500,8.08737744140625,0.08012557029724121,0.02392578125,-0.009706497192382812
1701885829994357500,8.104357421875,0.059993673115968704,-0.0036177635192871094,0.0005054473876953125
1701885830011360800,8.12136083984375,0.05956686660647392,-0.012605667114257812,0.03465843200683594
1701885830028350200,8.13835009765625,-0.017046146094799042,0.0005750656127929688,0.04416656494140625
1701885830045345800,8.155345703125,-0.09390886127948761,-0.004078865051269531,-0.000911712646484375
1701885830062335000,8.1723349609375,-0.15909060835838318,-0.0746607780456543,-0.03335380554199219
1701885830079327700,8.18932763671875,-0.05420197546482086,-0.15979671478271484,-0.10661125183105469
1701885830096318500,8.206318359375,0.17084874212741852,-0.18503236770629883,-0.10761642456054688
1701885830113311700,8.223311767578124,0.3212069869041443,-0.21297645568847656,-0.08263969421386719
1701885830130302200,8.24030224609375,0.2476564645767212,-0.20238828659057617,-0.1029653549194336
1701885830147285200,8.25728515625,0.13496989011764526,-0.16141700744628906,-0.2034435272216797
1701885830164287000,8.274286865234375,-0.034510158002376556,-0.1376938819885254,-0.1828594207763672
1701885830181279000,8.291279052734374,-0.15258613228797913,-0.13779544830322266,-0.06136894226074219
1701885830198269400,8.30826953125,-0.15205076336860657,-0.1250004768371582,-0.028675079345703125
1701885830215262500,8.325262451171875,-0.1063990369439125,-0.18607139587402344,-0.06029796600341797
1701885830232253200,8.342253173828125,0.013788148760795593,-0.21915674209594727,-0.1407938003540039
1701885830249246200,8.35924609375,0.1476861536502838,-0.25977468490600586,-0.21059513092041016
1701885830266236200,8.376236083984375,0.22858601808547974,-0.22971487045288086,-0.2442770004272461
1701885830283227400,8.393227294921875,0.12717588245868683,-0.2038865089416504,-0.23692607879638672
1701885830300220400,8.410220458984375,-0.03151167929172516,-0.1877303123474121,-0.22484874725341797
1701885830317202700,8.42720263671875,-0.11051754653453827,-0.19578313827514648,-0.12735939025878906
1701885830334205400,8.444205322265624,-0.10888727009296417,-0.1949162483215332,-0.05030059814453125
1701885830351193900,8.46119384765625,-0.09006983041763306,-0.19096946716308594,-0.0746917724609375
1701885830368189400,8.478189453125,-0.0742766410112381,-0.18683815002441406,-0.18574142456054688
1701885830385180000,8.495179931640624,-0.05476430803537369,-0.18498516082763672,-0.2760162353515625
1701885830402172200,8.512172119140626,-0.0314357653260231,-0.17604923248291016,-0.3024892807006836
1701885830419164200,8.5291640625,-0.06345093250274658,-0.1544032096862793,-0.2410593032836914
1701885830436155000,8.54615478515625,-0.134614497423172,-0.10883665084838867,-0.0781698226928711
1701885830453148000,8.56314794921875,-0.22925437986850739,-0.046410560607910156,-0.002071380615234375
1701885830470137600,8.5801376953125,-0.2824449837207794,-0.010442733764648438,-0.028473854064941406
1701885830487119400,8.597119384765625,-0.2326488345861435,0.001994609832763672,-0.1331024169921875
1701885830504124700,8.614124755859375,-0.16878686845302582,-0.01692485809326172,-0.1743316650390625
1701885830521100800,8.631100830078125,-0.0883236974477768,-0.015421390533447266,-0.1283559799194336
1701885830538094300,8.64809423828125,-0.07811212539672852,0.011470317840576172,-0.06658077239990234
1701885830555099600,8.665099609375,-0.07131727039813995,0.04774284362792969,0.05286407470703125
1701885830572089300,8.68208935546875,-0.1493891179561615,0.10272073745727539,0.11069011688232422
1701885830589082400,8.699082275390625,-0.14694881439208984,0.1463775634765625,0.12805557250976562
1701885830606072800,8.71607275390625,-0.142608642578125,0.1642913818359375,0.13962459564208984
1701885830623065900,8.73306591796875,-0.12423793971538544,0.1423931121826172,0.11624526977539062
1701885830640056600,8.750056640625,-0.14524173736572266,0.07672119140625,0.04041004180908203
1701885830657048800,8.767048828125,-0.11535821110010147,0.09421777725219727,-0.025173187255859375
1701885830674041000,8.784041015625,-0.025374695658683777,0.11333227157592773,0.015198707580566406
1701885830691033000,8.801033203125,0.03353714197874069,0.14675664901733398,0.12256145477294922
1701885830708024000,8.818024169921875,-0.006163254380226135,0.12904930114746094,0.16202354431152344
1701885830725016600,8.8350166015625,-0.14301034808158875,0.10456132888793945,0.13420677185058594
1701885830742007600,8.852007568359374,-0.11876877397298813,0.10236549377441406,0.11382770538330078
1701885830759000600,8.86900048828125,-0.028343819081783295,0.07165670394897461,0.08304405212402344
1701885830775988200,8.88598828125,0.04170010983943939,0.04432535171508789,0.042222023010253906
1701885830792984000,8.902984130859375,0.11163176596164703,0.04072093963623047,0.010515213012695312
1701885830809964000,8.919964111328126,0.053890030831098557,0.011652946472167969,-0.011537551879882812
1701885830826967800,8.9369677734375,0.030645929276943207,-0.01878070831298828,-0.02477741241455078
1701885830843956200,8.953956298828125,-0.0580231249332428,-0.09341812133789062,-0.07597827911376953
1701885830860950500,8.970950439453125,-0.005471155047416687,-0.12754154205322266,-0.13258647918701172
1701885830877937200,8.987937255859375,0.14046131074428558,-0.14388036727905273,-0.14482402801513672
1701885830894935000,9.00493505859375,0.27583786845207214,-0.11444282531738281,-0.12145805358886719
1701885830911925800,9.02192578125,0.3179404139518738,-0.08907604217529297,-0.05427074432373047
1701885830928918500,9.03891845703125,0.16079071164131165,-0.07882022857666016,0.029932022094726562
1701885830945909500,9.055909423828124,-0.06921373307704926,-0.0992579460144043,0.054650306701660156
1701885830962900000,9.07289990234375,-0.20824041962623596,-0.127105712890625,-0.03220081329345703
1701885830979892000,9.08989208984375,-0.1621180772781372,-0.13510704040527344,-0.1306934356689453
1701885830996889300,9.106889404296876,-0.02236994355916977,-0.14701223373413086,-0.17184162139892578
1701885831013876700,9.123876708984374,0.08430591970682144,-0.16758060455322266,-0.14485645294189453
1701885831030859000,9.14085888671875,0.12530481815338135,-0.16368675231933594,-0.11243534088134766
1701885831047859000,9.15785888671875,0.04235602170228958,-0.14605951309204102,-0.15004730224609375
1701885831064854300,9.174854248046875,-0.05696933716535568,-0.14523983001708984,-0.20644187927246094
1701885831081844000,9.191843994140624,-0.037986673414707184,-0.10881948471069336,-0.1617727279663086
1701885831098837000,9.2088369140625,-0.011499937623739243,-0.05761384963989258,-0.07916069030761719
1701885831115827700,9.22582763671875,0.01239035651087761,-0.02189350128173828,-0.006137847900390625
1701885831132820200,9.2428203125,-0.020822063088417053,-0.0077381134033203125,0.018611907958984375
1701885831149811200,9.259811279296875,-0.0790017694234848,-0.008758544921875,-0.010081291198730469
1701885831166804200,9.27680419921875,-0.1337272822856903,-0.009689807891845703,-0.07282352447509766
1701885831183789600,9.29378955078125,-0.08255521953105927,0.024477005004882812,-0.0915975570678711
1701885831200790000,9.3107900390625,0.026935197412967682,0.07184123992919922,-0.032700538635253906
1701885831217778400,9.3277783203125,0.08157388865947723,0.09154272079467773,0.05582427978515625
1701885831234774300,9.344774169921875,-0.031608354300260544,0.07130765914916992,0.12581348419189453
1701885831251757800,9.3617578125,-0.2009209394454956,0.0963435173034668,0.04242229461669922
1701885831268759000,9.378759033203124,-0.2842968702316284,0.09415960311889648,0.006220817565917969
1701885831285745700,9.39574560546875,-0.1845347285270691,0.11257457733154297,0.06476306915283203
1701885831302735400,9.4127353515625,0.02179187908768654,0.11666107177734375,0.17081642150878906
1701885831319726800,9.429726806640625,0.13786855340003967,0.05175495147705078,0.1848011016845703
1701885831336725000,9.44672509765625,0.1275174915790558,-0.00020456314086914062,0.11816215515136719
1701885831353713000,9.463712890625,0.06086953356862068,-0.04184103012084961,0.056740760803222656
1701885831370701800,9.480701904296875,0.02550555393099785,-0.0012364387512207031,-0.0035848617553710938
1701885831387697400,9.497697509765626,0.007734712213277817,0.014811515808105469,-0.007442474365234375
1701885831404689700,9.514689697265625,-0.040679581463336945,0.030254364013671875,0.0033168792724609375
1701885831421680000,9.53168017578125,-0.08487599343061447,-0.009136199951171875,-0.025696754455566406
1701885831438673200,9.548673095703125,-0.18692827224731445,-0.06834888458251953,-0.15087604522705078
1701885831455661300,9.565661376953125,-0.25286442041397095,-0.05915975570678711,-0.30901241302490234
1701885831472657200,9.5826572265625,-0.26224425435066223,-0.012102127075195312,-0.3061513900756836
1701885831489650200,9.599650146484375,-0.2677016258239746,0.041588783264160156,-0.18764114379882812
1701885831506640100,9.61664013671875,-0.25058817863464355,0.07398223876953125,-0.0033578872680664062
1701885831523631400,9.63363134765625,-0.28790757060050964,0.07731389999389648,0.0921182632446289
1701885831540611600,9.650611572265625,-0.27766409516334534,0.04429960250854492,0.11541271209716797
1701885831557606400,9.6676064453125,-0.1711123138666153,-0.02186441421508789,0.0012035369873046875
1701885831574608600,9.684608642578125,-0.01497541181743145,-0.07032299041748047,-0.1383075714111328
1701885831591582000,9.70158203125,0.13766233623027802,-0.08838319778442383,-0.1807851791381836
1701885831608591400,9.71859130859375,0.1784156858921051,-0.09677457809448242,-0.0831308364868164
1701885831625581300,9.735581298828125,0.13251878321170807,-0.08304357528686523,0.03388214111328125
1701885831642576000,9.752575927734375,0.029163822531700134,-0.09720420837402344,-0.009518623352050781
1701885831659565800,9.76956591796875,0.09730173647403717,-0.12778329849243164,-0.18473434448242188
1701885831676558800,9.786558837890626,0.3447926938533783,-0.18848323822021484,-0.35030269622802734
1701885831693546200,9.803546142578124,0.5545985102653503,-0.1860814094543457,-0.4071035385131836
1701885831710542300,9.820542236328125,0.4927482306957245,-0.14957857131958008,-0.35228824615478516
1701885831727533300,9.837533203125,0.23436427116394043,-0.14431190490722656,-0.10774517059326172
1701885831744526000,9.854526123046876,-0.03965388610959053,-0.14997196197509766,0.15100860595703125
1701885831761516500,9.8715166015625,-0.14252454042434692,-0.18408632278442383,0.23736286163330078
1701885831778509800,9.888509765625,0.06612320989370346,-0.1864027976989746,0.14238834381103516
1701885831795500500,9.90550048828125,0.3478773534297943,-0.17857837677001953,0.019060134887695312
1701885831812493000,9.9224931640625,0.5367671251296997,-0.10018539428710938,-0.07778167724609375
1701885831829484300,9.939484375,0.5333690047264099,-0.03879404067993164,-0.004132270812988281
1701885831846466600,9.956466552734375,0.29391172528266907,-0.013093948364257812,0.06598758697509766
1701885831863467500,9.973467529296874,-0.058236829936504364,-0.10734176635742188,0.00001430511474609375
1701885831880456700,9.990456787109375,-0.1954662799835205,-0.17267227172851562,-0.22615337371826172
1701885831897452000,10.0074521484375,0.0071140676736831665,-0.1778712272644043,-0.3890647888183594
1701885831914444300,10.0244443359375,0.29075056314468384,-0.1651773452758789,-0.3512706756591797
1701885831931446300,10.0414462890625,0.39272236824035645,-0.14257574081420898,-0.1994762420654297
1701885831948428000,10.058427978515626,0.28398627042770386,-0.1274118423461914,0.056878089904785156
1701885831965418500,10.07541845703125,-0.002951115369796753,-0.1378316879272461,0.24621009826660156
1701885831982411300,10.092411376953125,-0.249083012342453,-0.1376171112060547,0.27053070068359375
1701885831999402200,10.10940234375,-0.2853451371192932,-0.1114659309387207,0.1859884262084961
1701885832016395000,10.12639501953125,-0.22049979865550995,-0.07275772094726562,0.08021163940429688
1701885832033386000,10.143385986328125,-0.16114814579486847,-0.03865194320678711,-0.01585674285888672
1701885832050378500,10.16037841796875,-0.16493456065654755,0.019389629364013672,-0.06259536743164062
1701885832067368700,10.17736865234375,-0.2155737429857254,0.04180479049682617,-0.09206676483154297
1701885832084363300,10.19436328125,-0.3138708174228668,-0.0018229484558105469,-0.10363388061523438
1701885832101353200,10.211353271484375,-0.2976147532463074,-0.056685447692871094,-0.15082931518554688
1701885832118346000,10.228345947265625,-0.1336093544960022,-0.16829967498779297,-0.14197826385498047
1701885832135336700,10.245336669921874,0.0831880271434784,-0.2246570587158203,-0.14600658416748047
1701885832152329700,10.262329833984374,0.1775907576084137,-0.18678665161132812,-0.2044534683227539
1701885832169320200,10.2793203125,0.13554929196834564,-0.14596271514892578,-0.29815196990966797
1701885832186313500,10.2963134765625,0.08997145295143127,-0.10000944137573242,-0.3078937530517578
1701885832203300900,10.31330078125,0.07242029905319214,-0.10352325439453125,-0.18703460693359375
1701885832220297200,10.330297119140624,0.06241089105606079,-0.12087297439575195,-0.09486103057861328
1701885832237287000,10.347286865234375,0.08931848406791687,-0.10923099517822266,-0.15079784393310547
1701885832254281700,10.36428173828125,0.15430021286010742,-0.06374073028564453,-0.1330394744873047
1701885832271271400,10.381271484375,0.20622430741786957,-0.014975547790527344,-0.04615306854248047
1701885832288261600,10.39826171875,0.11807809770107269,0.05185365676879883,0.08088207244873047
1701885832305253400,10.41525341796875,-0.061748772859573364,0.09229850769042969,0.1487751007080078
1701885832322243000,10.4322431640625,-0.301899254322052,0.08000659942626953,0.21010494232177734
1701885832339228000,10.449227783203124,-0.4464064836502075,0.029474258422851562,0.18653488159179688
1701885832356231200,10.466231201171874,-0.3723504841327667,-0.015366077423095703,0.12968158721923828
1701885832373223000,10.483222900390626,-0.12837882339954376,-0.07667303085327148,0.08872222900390625
1701885832390214400,10.50021435546875,0.08025027811527252,-0.0906667709350586,0.039458274841308594
1701885832407206700,10.51720654296875,0.21779872477054596,-0.033350467681884766,0.009074211120605469
1701885832424198700,10.53419873046875,0.2102760672569275,-0.011327743530273438,0.06593132019042969
1701885832441189400,10.551189453125,0.13878695666790009,0.012442588806152344,0.07360553741455078
1701885832458182000,10.568181884765625,0.04086591303348541,-0.06685400009155273,0.06045341491699219
1701885832475174100,10.585174072265625,0.008885696530342102,-0.09557485580444336,-0.050065040588378906
1701885832492166100,10.602166259765625,0.03259779512882233,-0.18091583251953125,-0.1562347412109375
1701885832509156400,10.61915625,0.06557597219944,-0.21584749221801758,-0.17450523376464844
1701885832526149400,10.6361494140625,0.10531680285930634,-0.17531251907348633,-0.15668582916259766
1701885832543142000,10.653141845703125,0.03223295509815216,-0.17179441452026367,-0.0941915512084961
1701885832560124000,10.6701240234375,-0.12741301953792572,-0.1781773567199707,-0.14169025421142578
1701885832577123600,10.68712353515625,-0.30123937129974365,-0.17879199981689453,-0.22185230255126953
1701885832594115300,10.704115234375,-0.22180485725402832,-0.10810518264770508,-0.2150249481201172
1701885832611110100,10.721110107421875,-0.11766023933887482,-0.06345176696777344,-0.1747417449951172
1701885832628098300,10.738098388671874,-0.045990750193595886,-0.03876781463623047,-0.1382007598876953
1701885832645094100,10.75509423828125,-0.008516281843185425,-0.024394989013671875,-0.09315967559814453
1701885832662084000,10.772083984375,-0.05924401432275772,-0.014522552490234375,-0.1328868865966797
1701885832679075000,10.789074951171875,-0.09308208525180817,-0.013267993927001953,-0.13912391662597656
1701885832696068000,10.806068115234375,-0.09275753796100616,-0.0007901191711425781,-0.10616207122802734
1701885832713056800,10.823056884765625,-0.08609311282634735,0.011573314666748047,-0.029868125915527344
1701885832730048300,10.84004833984375,-0.14218418300151825,-0.024787425994873047,-0.01600933074951172
1701885832747045000,10.857045166015626,-0.134766086935997,-0.027930259704589844,0.0018768310546875
1701885832764035600,10.87403564453125,-0.09598177671432495,-0.06375980377197266,0.0913705825805664
1701885832781023000,10.89102294921875,-0.01730664074420929,-0.07064676284790039,0.2291717529296875
1701885832798016300,10.908016357421875,-0.10827270150184631,-0.02061176300048828,0.2862367630004883
1701885832815012000,10.92501220703125,-0.28470951318740845,0.08175992965698242,0.2562274932861328
1701885832832002600,10.94200244140625,-0.40956002473831177,0.10252189636230469,0.178985595703125
1701885832848993500,10.95899365234375,-0.3392704725265503,0.0511927604675293,0.10630321502685547
1701885832865986000,10.975986083984376,-0.054772406816482544,-0.017200946807861328,0.039585113525390625
1701885832882977000,10.99297705078125,0.21024295687675476,-0.08125925064086914,-0.06019401550292969
1701885832899969000,11.009968994140625,0.32875189185142517,-0.04359245300292969,-0.2304220199584961
1701885832916961500,11.02696142578125,0.24537134170532227,-0.019422531127929688,-0.24843597412109375
1701885832933953500,11.04395361328125,0.11389676481485367,-0.04740095138549805,-0.1758747100830078
1701885832950944300,11.0609443359375,-0.04267849028110504,-0.10481882095336914,-0.16052627563476562
1701885832967936300,11.077936279296875,-0.023888781666755676,-0.15592670440673828,-0.17455101013183594
1701885832984918000,11.09491796875,0.09426786750555038,-0.19944286346435547,-0.0877532958984375
1701885833001921000,11.111921142578124,0.2509276866912842,-0.14877986907958984,-0.03242301940917969
1701885833018900200,11.128900146484375,0.30200570821762085,-0.12606048583984375,0.02367401123046875
1701885833035905000,11.145905029296875,0.26819783449172974,-0.06125688552856445,0.10472774505615234
1701885833052895200,11.162895263671874,0.13304144144058228,-0.0660552978515625,0.12279510498046875
1701885833069888000,11.179887939453126,0.052244700491428375,-0.0917963981628418,0.03368854522705078
1701885833086868500,11.196868408203125,0.01820952445268631,-0.12643909454345703,-0.03174591064453125
1701885833103868700,11.21386865234375,-0.016498342156410217,-0.12042808532714844,-0.062430381774902344
1701885833120862700,11.23086279296875,-0.03886334225535393,-0.05584526062011719,-0.1014862060546875
1701885833137855500,11.24785546875,-0.021183539181947708,-0.0008955001831054688,-0.18455028533935547
1701885833154846500,11.264846435546875,0.019894465804100037,0.0009055137634277344,-0.25794506072998047
1701885833171829000,11.2818291015625,0.08461038768291473,-0.02319478988647461,-0.35973358154296875
1701885833188830000,11.298829833984374,0.06137824058532715,-0.07234621047973633,-0.3622703552246094
1701885833205822700,11.31582275390625,-0.001397743821144104,-0.08619880676269531,-0.16985416412353516
1701885833222810400,11.332810302734375,-0.1282399594783783,-0.04527759552001953,0.15954113006591797
1701885833239795700,11.349795654296875,-0.14536914229393005,-0.06437444686889648,0.33733272552490234
1701885833256797400,11.36679736328125,-0.14659598469734192,0.02168130874633789,0.24439525604248047
1701885833273790200,11.383790283203124,-0.1451457142829895,0.022942066192626953,0.10625362396240234
1701885833290777900,11.40077783203125,-0.14549577236175537,0.04751253128051758,-0.0038213729858398438
1701885833307774000,11.41777392578125,-0.043009817600250244,0.06346273422241211,-0.05652904510498047
1701885833324764400,11.434764404296875,0.1133064404129982,0.09319543838500977,-0.014437675476074219
1701885833341755100,11.451755126953126,0.1234382838010788,0.057512760162353516,0.03732585906982422
1701885833358747600,11.46874755859375,-0.023842288181185722,0.07690668106079102,0.0028524398803710938
1701885833375744000,11.485743896484376,-0.15786351263523102,0.06674432754516602,-0.075469970703125
1701885833392721400,11.502721435546874,-0.09056717902421951,0.07684803009033203,-0.11222362518310547
1701885833409728500,11.519728515625,0.08126556873321533,0.05446624755859375,-0.04819011688232422
1701885833426702000,11.5367021484375,0.2556111216545105,0.07585811614990234,0.015905380249023438
1701885833443711700,11.553711669921874,0.2304033488035202,0.07169914245605469,0.07106876373291016
1701885833460695800,11.57069580078125,0.10328768938779831,0.07983064651489258,0.045281410217285156
1701885833477678600,11.5876787109375,-0.07152240723371506,0.048666954040527344,-0.0193328857421875
1701885833494683600,11.60468359375,-0.0815562754869461,0.024395465850830078,-0.08432292938232422
1701885833511676000,11.621676025390625,-0.02872411161661148,0.021561622619628906,-0.04338359832763672
1701885833528667000,11.6386669921875,0.033120352774858475,0.038974761962890625,0.017571449279785156
1701885833545661400,11.655661376953125,0.08708106726408005,0.043892860412597656,0.0913553237915039
1701885833562637800,11.672637939453125,0.07617523521184921,0.023523807525634766,0.1503286361694336
1701885833579643000,11.689642822265625,0.02155360020697117,0.0007538795471191406,0.1802206039428711
1701885833596633600,11.706633544921875,-0.05359997972846031,-0.025650978088378906,0.11214351654052734
1701885833613623600,11.72362353515625,-0.11837363243103027,-0.11291217803955078,-0.020555496215820312
1701885833630617600,11.74061767578125,-0.17640158534049988,-0.19106101989746094,-0.052359580993652344
1701885833647609300,11.757609375,-0.04976459592580795,-0.17312049865722656,-0.06689643859863281
1701885833664602000,11.77460205078125,0.042254336178302765,-0.16634607315063477,-0.0481414794921875
1701885833681584000,11.791584228515624,0.17293745279312134,-0.1519784927368164,-0.2218027114868164
1701885833698584800,11.808584716796876,0.22180679440498352,-0.1619548797607422,-0.3886604309082031
1701885833715577600,11.82557763671875,0.33853879570961,-0.12686824798583984,-0.44158458709716797
1701885833732568300,11.842568359375,0.3391457498073578,-0.10064697265625,-0.45244884490966797
1701885833749561300,11.859561279296875,0.3462584912776947,-0.06529712677001953,-0.5471897125244141
1701885833766552000,11.876552001953126,0.3205034136772156,-0.10867118835449219,-0.48968982696533203
1701885833783544800,11.893544921875,0.2753967046737671,-0.0624237060546875,-0.3694782257080078
1701885833800532000,11.910531982421874,0.11332303285598755,-0.06215953826904297,-0.07696151733398438
1701885833817529600,11.927529541015625,-0.06108248978853226,0.04589271545410156,0.15059852600097656
1701885833834517000,11.94451708984375,-0.18483784794807434,0.11352968215942383,0.30417537689208984
1701885833851507500,11.961507568359375,-0.39319002628326416,0.1550436019897461,0.3832979202270508
1701885833868502800,11.978502685546875,-0.4530829191207886,0.14675188064575195,0.39986705780029297
1701885833885496300,11.995496337890625,-0.3693310022354126,0.0747532844543457,0.4401283264160156
1701885833902486500,12.012486572265624,-0.1625446230173111,0.06965398788452148,0.3896207809448242
1701885833919479800,12.029479736328126,-0.13413779437541962,0.07419061660766602,0.3433675765991211
1701885833936470500,12.046470458984375,-0.13417673110961914,0.11256122589111328,0.33341121673583984
1701885833953462800,12.063462890625,-0.0877893716096878,0.10166454315185547,0.3250389099121094
1701885833970451000,12.080450927734375,0.016077660024166107,0.023501873016357422,0.18331050872802734
1701885833987444200,12.0974443359375,0.14863888919353485,-0.056005001068115234,-0.012071609497070312
1701885834004440300,12.1144404296875,0.2077408730983734,-0.11894512176513672,-0.13834571838378906
1701885834021433300,12.131433349609376,0.17411941289901733,-0.16260814666748047,-0.17019271850585938
1701885834038419000,12.1484189453125,0.13322709500789642,-0.19775104522705078,-0.07562446594238281
1701885834055411700,12.16541162109375,-0.040353551506996155,-0.15651941299438477,-0.0074062347412109375
1701885834072407600,12.182407470703126,-0.2443602979183197,-0.12772893905639648,-0.08453083038330078
1701885834089387500,12.199387451171875,-0.4424234628677368,-0.14883136749267578,-0.3502531051635742
1701885834106388700,12.216388671875,-0.5270064473152161,-0.23797607421875,-0.5963802337646484
1701885834123378400,12.23337841796875,-0.39587298035621643,-0.2425541877746582,-0.6235952377319336
1701885834140370000,12.250369873046875,-0.23114800453186035,-0.22168493270874023,-0.4946308135986328
1701885834157368000,12.2673681640625,-0.12029597163200378,-0.1520075798034668,-0.33095741271972656
1701885834174356200,12.284356201171875,-0.07079370319843292,-0.11217975616455078,-0.22944068908691406
1701885834191342800,12.3013427734375,-0.10568509995937347,-0.14647579193115234,-0.21976375579833984
1701885834208339700,12.318339599609375,-0.0976884663105011,-0.1987295150756836,-0.25800228118896484
1701885834225332500,12.33533251953125,-0.05136270821094513,-0.2586841583251953,-0.1469411849975586
1701885834242323500,12.352323486328125,-0.02529098093509674,-0.29414892196655273,0.02239513397216797
1701885834259316500,12.36931640625,-0.05567653477191925,-0.28035736083984375,0.05574798583984375
1701885834276307000,12.386306884765625,0.08193714171648026,-0.24005699157714844,0.0679616928100586
1701885834293300000,12.403300048828125,0.23661410808563232,-0.20150041580200195,0.040355682373046875
1701885834310287600,12.42028759765625,0.38560518622398376,-0.1688542366027832,-0.030389785766601562
1701885834327287000,12.437287109375,0.2976491451263428,-0.12862539291381836,-0.0911569595336914
1701885834344264700,12.4542646484375,0.02033574879169464,-0.14249753952026367,-0.17993545532226562
1701885834361267200,12.47126708984375,-0.09169183671474457,-0.11495113372802734,-0.24614334106445312
1701885834378257400,12.48825732421875,0.014111876487731934,-0.07697105407714844,-0.27108097076416016
1701885834395252000,12.505251953125,0.2549641728401184,-0.04281282424926758,-0.18174457550048828
1701885834412242000,12.522241943359376,0.39652594923973083,-0.022511005401611328,-0.14354610443115234
1701885834429234700,12.539234619140625,0.4024951457977295,-0.010986328125,-0.08461475372314453
1701885834446225000,12.556224853515625,0.37524986267089844,0.07482528686523438,0.014039039611816406
1701885834463219200,12.57321923828125,0.37379905581474304,0.12980127334594727,0.22157669067382812
1701885834480209000,12.590208984375,0.1589455008506775,0.23180294036865234,0.17956161499023438
1701885834497201200,12.607201171875,0.012690141797065735,0.2799086570739746,0.025453567504882812
1701885834514193400,12.624193359375,-0.12086409330368042,0.28325653076171875,0.005282402038574219
1701885834531185400,12.641185302734375,-0.036775946617126465,0.23924875259399414,0.033779144287109375
1701885834548176400,12.65817626953125,-0.03299817442893982,0.21363067626953125,0.18546676635742188
1701885834565169400,12.67516943359375,0.022467315196990967,0.23017597198486328,0.2320423126220703
1701885834582160000,12.692159912109375,0.10975602269172668,0.20690059661865234,0.40424251556396484
1701885834599142400,12.709142333984374,0.44521376490592957,0.07761573791503906,0.4793252944946289
1701885834616143600,12.7261435546875,0.24016553163528442,0.30225086212158203,0.05238056182861328
1701885834633133600,12.743133544921875,-0.26174166798591614,0.047672271728515625,0.22538185119628906
1701885834650127400,12.76012744140625,-0.63675856590271,0.1161961555480957,0.18265342712402344
1701885834667120600,12.77712060546875,-0.6417973041534424,0.020627975463867188,0.20911884307861328
1701885834684111000,12.794111083984374,-0.19149038195610046,0.29631900787353516,-0.021001815795898438
1701885834701100800,12.811100830078125,0.08926007151603699,0.02946758270263672,-0.030008316040039062
1701885834718094600,12.828094482421875,0.40624725818634033,0.015825748443603516,-0.046222686767578125
1701885834735075800,12.845075927734374,0.6248669028282166,0.15830278396606445,-0.04333972930908203
1701885834752071000,12.86207080078125,0.4932960271835327,0.12100505828857422,0.3081674575805664
1701885834769073700,12.87907373046875,0.3397182822227478,-0.011547088623046875,0.6174020767211914
1701885834786059800,12.896059814453125,-0.7995740175247192,-0.4168071746826172,0.9843902587890625
1701885834803055000,12.91305517578125,-1.234173059463501,-0.3882303237915039,0.8811464309692383
1701885834820045000,12.930045166015624,-0.3087846636772156,0.7224507331848145,-0.21789073944091797
1701885834837039600,12.94703955078125,-0.12382116913795471,0.5919954776763916,-0.19280338287353516
1701885834854029600,12.964029541015625,-0.11165827512741089,-0.12202787399291992,0.38295745849609375
1701885834871022300,12.981022216796875,-0.26940780878067017,-0.07014727592468262,0.3254423141479492
1701885834888010500,12.998010498046876,-0.24742676317691803,0.22468018531799316,0.08185482025146484
1701885834905003300,13.015003173828125,-0.22921034693717957,0.08260965347290039,-0.13246822357177734
1701885834921996800,13.031996826171875,-0.2046014815568924,0.17268681526184082,-0.3195028305053711
1701885834938989800,13.04898974609375,-0.12192992866039276,0.2946658134460449,-0.5891561508178711
1701885834955980800,13.065980712890624,-0.18298278748989105,0.17088985443115234,-0.46945953369140625
1701885834972973300,13.082973388671874,-0.14385829865932465,-0.09502792358398438,-0.2860584259033203
1701885834989964000,13.099964111328125,-0.29387253522872925,-0.0030248165130615234,-0.31992340087890625
1701885835006956800,13.116956787109375,-0.09353421628475189,0.028962373733520508,-0.5731716156005859
1701885835023944400,13.1339443359375,0.15045477449893951,0.08133363723754883,-0.6779365539550781
1701885835040938200,13.150938232421876,0.21881622076034546,0.029040098190307617,-0.5865859985351562
1701885835057937700,13.167937744140625,0.15624427795410156,-0.11059451103210449,-0.41475391387939453
1701885835074920700,13.184920654296874,0.23461923003196716,-0.04614543914794922,-0.23840618133544922
1701885835091915300,13.201915283203125,0.14205485582351685,-0.25379323959350586,0.04268074035644531
1701885835108908000,13.218907958984374,0.21593134105205536,-0.2485349178314209,-0.09241104125976562
1701885835125898800,13.235898681640625,-0.025036238133907318,-0.09730648994445801,-0.3146810531616211
1701885835142888400,13.252888427734375,0.0149245485663414,-0.11126923561096191,-0.2586708068847656
1701885835159882200,13.26988232421875,0.10200965404510498,-0.05109119415283203,-0.2240123748779297
1701885835176875500,13.28687548828125,0.27453556656837463,-0.11675095558166504,0.08418083190917969
1701885835193866200,13.3038662109375,0.6088381409645081,-0.1131124496459961,0.4747352600097656
1701885835210856000,13.32085595703125,0.627802848815918,-0.13959860801696777,0.9464931488037109
1701885835227846100,13.33784619140625,0.374176949262619,-0.21598148345947266,1.3305082321166992
1701885835244845300,13.35484521484375,-0.10777159780263901,-0.059343814849853516,0.809504508972168
1701885835261833500,13.37183349609375,-0.5960045456886292,0.2567770481109619,-0.07782459259033203
1701885835278826200,13.388826171875,-0.682142972946167,0.18495893478393555,-0.3366527557373047
1701885835295817200,13.405817138671875,-0.3458644449710846,0.12186908721923828,-0.35186100006103516
1701885835312813000,13.42281298828125,0.11765259504318237,0.14996123313903809,-0.19165611267089844
1701885835329801000,13.439801025390626,0.30206048488616943,0.05878305435180664,0.06958293914794922
1701885835346794000,13.4567939453125,0.2174747884273529,-0.11898326873779297,0.3194904327392578
1701885835363784400,13.473784423828125,0.12425610423088074,0.006447315216064453,0.20670700073242188
1701885835380777200,13.490777099609375,-0.0651082992553711,0.21150946617126465,-0.10598278045654297
1701885835397767200,13.50776708984375,-0.4152854382991791,0.23212528228759766,-0.1017599105834961
1701885835414768600,13.5247685546875,-0.4193815588951111,-0.06424498558044434,-0.08268451690673828
1701885835431752000,13.541751953125,-0.1559029519557953,0.010997772216796875,0.062957763671875
1701885835448744700,13.55874462890625,-0.025449395179748535,-0.23373198509216309,0.18546676635742188
1701885835465736000,13.57573583984375,0.2403285801410675,-0.2135331630706787,-0.09196090698242188
1701885835482728700,13.592728759765626,0.25633323192596436,-0.10631942749023438,-0.36516666412353516
1701885835499719200,13.60971923828125,0.05989322066307068,-0.04508256912231445,-0.5873146057128906
1701885835516712400,13.62671240234375,0.05540993809700012,-0.16456818580627441,-0.5820646286010742
1701885835533699800,13.643699951171875,0.12431037425994873,-0.13916707038879395,-0.41520023345947266
1701885835550696000,13.660696044921876,0.07743439078330994,-0.1843726634979248,-0.28092193603515625
1701885835567686700,13.677686767578125,0.23652473092079163,-0.18161940574645996,-0.4283418655395508
1701885835584679700,13.6946796875,0.3822421133518219,-0.08806896209716797,-0.39861392974853516
1701885835601670100,13.711670166015624,0.20276883244514465,0.07066631317138672,-0.14208126068115234
1701885835618660600,13.72866064453125,-0.20261278748512268,-0.12992334365844727,0.08701896667480469
1701885835635656400,13.745656494140626,-0.5112941265106201,-0.24616169929504395,0.20485591888427734
1701885835652646700,13.762646728515625,-0.302132248878479,-0.2778036594390869,0.1708536148071289
1701885835669637400,13.779637451171874,0.0015766918659210205,-0.15336132049560547,0.06159400939941406
1701885835686620000,13.796619873046875,0.15033502876758575,-0.14583468437194824,-0.0029277801513671875
1701885835703621000,13.81362109375,0.13812755048274994,-0.20752310752868652,-0.012151718139648438
1701885835720608300,13.830608154296876,0.21772676706314087,-0.19502735137939453,-0.21417999267578125
1701885835737607400,13.847607421875,0.20157143473625183,-0.2502565383911133,-0.2064828872680664
1701885835754598000,13.864597900390624,0.21640107035636902,-0.2345879077911377,-0.15864086151123047
1701885835771588900,13.8815888671875,0.19466057419776917,-0.0980231761932373,-0.29665184020996094
1701885835788581400,13.898581298828125,0.19743502140045166,-0.17689156532287598,-0.328826904296875
1701885835805572400,13.915572265625,0.18844300508499146,-0.1689460277557373,-0.24999523162841797
1701885835822565400,13.9325654296875,0.00685921311378479,-0.12482976913452148,-0.1797342300415039
1701885835839555800,13.949555908203125,-0.1735776662826538,-0.09927010536193848,-0.19098281860351562
1701885835856549000,13.966549072265625,-0.30449730157852173,-0.3248560428619385,-0.3296537399291992
1701885835873539600,13.98353955078125,-0.23836618661880493,0.35897040367126465,-0.22209453582763672
1701885835890532600,14.00053271484375,-0.24541184306144714,-0.1508803367614746,-0.04494762420654297
1701885835907522300,14.017522216796875,-0.21514981985092163,-0.04253959655761719,0.10839176177978516
1701885835924517000,14.03451708984375,0.007591128349304199,0.18612408638000488,0.12691307067871094
1701885835941506800,14.0515068359375,0.05245298147201538,0.18243694305419922,0.16155242919921875
1701885835958499800,14.068499755859374,0.03953146934509277,0.12140750885009766,0.029639244079589844
1701885835975490600,14.085490478515625,-0.03003174066543579,0.09865808486938477,-0.19030475616455078
1701885835992473000,14.10247314453125,0.0629618763923645,-0.14211797714233398,0.031813621520996094
1701885836009474600,14.119474609375,0.01757293939590454,-0.054181814193725586,-0.05316448211669922
1701885836026467300,14.13646728515625,-0.13956403732299805,0.1023721694946289,-0.13450145721435547
1701885836043454700,14.153454833984375,-0.16301700472831726,-0.04620981216430664,-0.07358360290527344
1701885836060447500,14.170447509765625,0.0912371277809143,0.007861852645874023,-0.042560577392578125
1701885836077450000,14.187449951171875,0.14094915986061096,0.010741233825683594,0.1140432357788086
1701885836094434600,14.2044345703125,-0.04658561944961548,-0.12875676155090332,0.2092885971069336
1701885836111425300,14.22142529296875,-0.3479059636592865,-0.19077062606811523,0.28551673889160156
1701885836128418000,14.23841796875,-0.4123745858669281,-0.19410943984985352,0.26070117950439453
1701885836145409300,14.2554091796875,-0.2193564474582672,-0.06623125076293945,0.1945791244506836
1701885836162399500,14.2723994140625,0.11044396460056305,-0.058943748474121094,0.16790103912353516
1701885836179395300,14.289395263671874,0.2745460271835327,-0.0800933837890625,0.14068317413330078
1701885836196385500,14.306385498046875,0.20174822211265564,0.0011754035949707031,0.03745841979980469
1701885836213376500,14.32337646484375,-0.02219042181968689,-0.0012483596801757812,0.0022268295288085938
1701885836230368800,14.34036865234375,-0.18771597743034363,-0.09860038757324219,0.009055137634277344
1701885836247361000,14.357361083984374,-0.22415471076965332,-0.0652618408203125,-0.08974647521972656
1701885836264353300,14.374353271484376,-0.1804501861333847,-0.01950979232788086,-0.19662761688232422
1701885836281344000,14.391343994140625,-0.09014396369457245,-0.02172088623046875,-0.2496204376220703
1701885836298320000,14.40831982421875,0.0773552805185318,-0.024682998657226562,-0.22869491577148438
1701885836315328300,14.425328369140624,0.2809208035469055,0.05148887634277344,-0.18795108795166016
1701885836332318000,14.44231787109375,0.362603098154068,0.0652613639831543,-0.07412242889404297
1701885836349313800,14.459313720703125,0.3836531937122345,0.043356895446777344,0.053497314453125
1701885836366304500,14.476304443359375,0.32733362913131714,0.07226896286010742,0.149932861328125
1701885836383294700,14.493294677734376,0.23198340833187103,0.04738044738769531,0.19869041442871094
1701885836400288000,14.5102880859375,0.13669541478157043,0.02814483642578125,0.22780323028564453
1701885836417277700,14.527277587890625,-0.07839538156986237,-0.016073226928710938,0.19312667846679688
1701885836434272000,14.54427197265625,-0.27729862928390503,0.010189533233642578,0.09579658508300781
1701885836451262500,14.561262451171874,-0.3714647591114044,0.04272127151489258,0.007414817810058594
1701885836468255200,14.578255126953126,-0.32796013355255127,0.15251779556274414,-0.023740768432617188
1701885836485246000,14.595245849609375,-0.20109008252620697,0.09072351455688477,0.0061893463134765625
1701885836502238700,14.61223876953125,-0.06813079118728638,0.07185792922973633,-0.011190414428710938
1701885836519211500,14.62921142578125,0.04601472616195679,0.12161016464233398,-0.0761566162109375
1701885836536224000,14.64622412109375,0.16677841544151306,0.17900609970092773,-0.11508941650390625
1701885836553208300,14.663208251953124,0.2374977320432663,0.21506261825561523,-0.10962104797363281
1701885836570208800,14.680208740234375,0.2668505012989044,0.28186893463134766,-0.006150245666503906
1701885836587197200,14.697197265625,0.21985670924186707,0.26003026962280273,0.2092142105102539
1701885836604190000,14.71418994140625,0.15256261825561523,0.21717166900634766,0.413787841796875
1701885836621177600,14.731177490234375,0.025069981813430786,0.21358108520507812,0.49762725830078125
1701885836638173700,14.748173583984375,-0.07142327725887299,0.21788311004638672,0.44791412353515625
1701885836655161900,14.765161865234376,-0.10766730457544327,0.27648258209228516,0.3413267135620117
1701885836672160000,14.782159912109375,-0.11859617382287979,0.2912921905517578,0.21173095703125
1701885836689148200,14.799148193359375,-0.13739238679409027,0.25530099868774414,0.0904703140258789
1701885836706141000,14.816140869140625,-0.141834557056427,0.1494894027709961,0.017220497131347656
1701885836723131400,14.83313134765625,-0.029339343309402466,0.06970357894897461,-0.012406349182128906
1701885836740124000,14.8501240234375,0.08259275555610657,-0.00040912628173828125,-0.08025074005126953
1701885836757116400,14.867116455078126,0.14417600631713867,-0.01575946807861328,-0.1601428985595703
1701885836774108400,14.8841083984375,0.20965711772441864,0.014889717102050781,-0.14308643341064453
1701885836791099100,14.90109912109375,0.20187395811080933,-0.038167476654052734,-0.08109855651855469
1701885836808091400,14.91809130859375,0.1591704934835434,-0.10055065155029297,-0.009073257446289062
1701885836825083400,14.93508349609375,0.061634697020053864,-0.14914178848266602,-0.008477210998535156
1701885836842076000,14.952075927734375,-0.0542522557079792,-0.1876673698425293,-0.050955772399902344
1701885836859066400,14.96906640625,-0.09386716037988663,-0.16344594955444336,-0.1081075668334961
1701885836876059100,14.98605908203125,-0.09305239468812943,-0.12528467178344727,-0.15598487854003906
1701885836893050400,15.00305029296875,-0.1204075887799263,-0.16519927978515625,-0.09888267517089844
1701885836910040300,15.020040283203125,-0.17739959061145782,-0.2652153968811035,-0.02914905548095703
1701885836927033300,15.037033447265625,-0.2806186378002167,-0.34195613861083984,-0.112548828125
1701885836944027100,15.054027099609375,-0.258081316947937,-0.30208444595336914,-0.30592918395996094
1701885836961017300,15.071017333984376,-0.11169670522212982,-0.22923707962036133,-0.40732860565185547
1701885836978010400,15.08801025390625,0.08383411914110184,-0.20964336395263672,-0.3872528076171875
1701885836994990600,15.104990478515624,0.24306648969650269,-0.23735904693603516,-0.28018665313720703
1701885837011994000,15.121994140625,0.25791415572166443,-0.2995281219482422,-0.1488018035888672
1701885837028985000,15.138985107421876,0.19260644912719727,-0.3202090263366699,-0.10827159881591797
1701885837045977900,15.155977783203125,0.06879476457834244,-0.2995171546936035,-0.22081565856933594
1701885837062965200,15.17296533203125,0.007269173860549927,-0.24152088165283203,-0.31818103790283203
1701885837079961300,15.18996142578125,0.044982798397541046,-0.22258710861206055,-0.2850475311279297
1701885837096952300,15.206952392578126,0.11937185376882553,-0.19704914093017578,-0.20305728912353516
1701885837113945000,15.223945068359376,0.1274477243423462,-0.20532655715942383,-0.14933300018310547
1701885837130933000,15.24093310546875,0.08089616894721985,-0.20674657821655273,-0.10571956634521484
1701885837147926300,15.25792626953125,-0.06441505253314972,-0.2292919158935547,-0.1014719009399414
1701885837164922000,15.274922119140625,-0.10053295642137527,-0.19996166229248047,-0.0835866928100586
1701885837181912800,15.291912841796876,-0.13157284259796143,-0.17169809341430664,-0.08122730255126953
1701885837198903600,15.308903564453125,-0.16449791193008423,-0.13367700576782227,-0.08293628692626953
1701885837215893800,15.325893798828124,-0.19090387225151062,-0.06168222427368164,-0.04630756378173828
1701885837232889600,15.3428896484375,-0.19695185124874115,-0.0892181396484375,0.076751708984375
1701885837249880000,15.359880126953126,-0.0847807228565216,-0.09725189208984375,0.2160167694091797
1701885837266871000,15.37687109375,0.10525210201740265,-0.06517553329467773,0.09554100036621094
1701885837283863800,15.39386376953125,0.2111228108406067,0.047768592834472656,-0.12662410736083984
1701885837300854500,15.4108544921875,0.08637267351150513,0.04668760299682617,-0.2177419662475586
1701885837317846800,15.4278466796875,-0.025891557335853577,-0.006820201873779297,-0.1860342025756836
1701885837334839000,15.444839111328125,0.009574100375175476,0.03246784210205078,-0.17618179321289062
1701885837351831000,15.4618310546875,0.16990192234516144,0.1275653839111328,-0.08214187622070312
1701885837368821800,15.47882177734375,0.285506010055542,0.1449441909790039,0.11088275909423828
1701885837385814800,15.495814697265626,0.2860996723175049,0.2318868637084961,0.2943592071533203
1701885837402805500,15.512805419921875,0.1015324741601944,0.20110034942626953,0.3690156936645508
1701885837419798500,15.529798583984375,-0.09112417697906494,0.21604681015014648,0.29221057891845703
1701885837436789000,15.5467890625,-0.2176208794116974,0.23752117156982422,0.2418994903564453
1701885837453779200,15.563779296875,-0.20721788704395294,0.23942852020263672,0.1653423309326172
1701885837470773000,15.58077294921875,-0.12757083773612976,0.23326587677001953,0.10425567626953125
1701885837487763200,15.59776318359375,0.0006621405482292175,0.21014070510864258,0.0958242416381836
1701885837504746800,15.614746826171874,0.06799885630607605,0.16378307342529297,0.09318256378173828
1701885837521751000,15.6317509765625,0.11445104330778122,0.1697087287902832,0.04761028289794922
1701885837538740500,15.648740478515625,0.12377755343914032,0.22511529922485352,-0.020753860473632812
1701885837555733200,15.665733154296875,0.09911667555570602,0.2233109474182129,-0.0022497177124023438
1701885837572724000,15.682723876953125,0.019839487969875336,0.1986064910888672,0.070037841796875
1701885837589717000,15.699717041015624,-0.09365937858819962,0.17325925827026367,0.142578125
1701885837606707700,15.716707763671875,-0.14223212003707886,0.18030834197998047,0.11731243133544922
1701885837623695600,15.733695556640624,-0.17426547408103943,0.1969738006591797,0.0735464096069336
1701885837640693800,15.75069384765625,-0.22724759578704834,0.1624770164489746,0.06827831268310547
1701885837657685200,15.767685302734375,-0.22284412384033203,0.15712356567382812,0.04887866973876953
1701885837674675200,15.78467529296875,-0.12291333079338074,0.20993995666503906,0.05284690856933594
1701885837691658000,15.801657958984375,-0.03735022246837616,0.15629816055297852,0.13782787322998047
1701885837708658700,15.81865869140625,0.06843069195747375,0.14839744567871094,0.1492786407470703
1701885837725652000,15.83565185546875,0.028133191168308258,0.1545562744140625,0.10974502563476562
1701885837742642400,15.852642333984376,-0.05790255218744278,0.13349628448486328,0.11411762237548828
1701885837759635500,15.869635498046875,-0.13976076245307922,0.08788442611694336,0.12326622009277344
1701885837776626700,15.886626708984375,-0.15668180584907532,0.12322759628295898,0.030786514282226562
1701885837793619200,15.903619140625,-0.12798024713993073,0.15941572189331055,0.0006361007690429688
1701885837810607400,15.920607421875,-0.1631212830543518,0.14180421829223633,0.0709981918334961
1701885837827606000,15.93760595703125,-0.2075342983007431,0.06560420989990234,0.08358955383300781
1701885837844593000,15.954593017578125,-0.22368547320365906,0.021388530731201172,0.01821136474609375
1701885837861586400,15.97158642578125,-0.14227989315986633,-0.021196842193603516,-0.08129596710205078
1701885837878577200,15.9885771484375,0.014482147991657257,-0.012153148651123047,-0.1357278823852539
1701885837895570200,16.005570068359376,0.12509047985076904,0.03919363021850586,-0.14438247680664062
1701885837912550100,16.022550048828126,0.1444614827632904,0.044219970703125,-0.06997394561767578
1701885837929544700,16.039544677734376,0.13531386852264404,0.08893203735351562,-0.018157005310058594
1701885837946544600,16.056544677734376,0.0655217319726944,0.09084606170654297,0.08677196502685547
1701885837963534600,16.07353466796875,-0.018472999334335327,0.07260894775390625,0.16245746612548828
1701885837980528400,16.0905283203125,-0.06421125680208206,0.05101966857910156,0.17833805084228516
1701885837997521400,16.107521484375,-0.06817682087421417,0.0408024787902832,0.14925479888916016
1701885838014511900,16.124511962890626,-0.05222947895526886,-0.028864383697509766,0.09427070617675781
1701885838031505200,16.141505126953124,0.007465958595275879,-0.018385887145996094,-0.027746200561523438
1701885838048495900,16.158495849609373,0.10191521048545837,-0.0024924278259277344,-0.07823944091796875
1701885838065488600,16.175488525390627,0.1616368591785431,-0.0010399818420410156,-0.04232501983642578
1701885838082479600,16.192479736328124,0.1735125631093979,-0.08220481872558594,-0.02143096923828125
1701885838099469800,16.2094697265625,0.14918026328086853,-0.1020655632019043,-0.06681060791015625
1701885838116465700,16.226465576171876,0.10369744896888733,-0.11228322982788086,-0.12230968475341797
1701885838133456100,16.2434560546875,0.052589353173971176,-0.15494394302368164,-0.16288471221923828
1701885838150443000,16.260443115234374,0.024270378053188324,-0.1293954849243164,-0.23093700408935547
1701885838167440400,16.2774404296875,0.0024474002420902252,-0.12024164199829102,-0.24550342559814453
1701885838184430600,16.2944306640625,-0.0019218549132347107,-0.12330341339111328,-0.19673728942871094
1701885838201423600,16.311423583984375,-0.06354054808616638,-0.15495777130126953,-0.15178298950195312
1701885838218413300,16.328413330078124,-0.05934137850999832,-0.15669965744018555,-0.15496158599853516
1701885838235408100,16.345408203125,-0.06949212402105331,-0.10919380187988281,-0.1430492401123047
1701885838252397800,16.362397705078124,-0.04019112139940262,-0.11761760711669922,-0.07291603088378906
1701885838269391000,16.37939111328125,0.022294197231531143,-0.07838582992553711,-0.02740955352783203
1701885838286388500,16.396388427734376,0.021295491605997086,-0.10265398025512695,0.0036630630493164062
1701885838303364600,16.413364501953126,-0.028313957154750824,-0.11982917785644531,-0.014109611511230469
1701885838320354800,16.430354736328123,-0.0764131024479866,-0.11809444427490234,-0.06044960021972656
1701885838337358800,16.44735888671875,-0.07049255073070526,-0.06273555755615234,-0.07815933227539062
1701885838354348500,16.4643486328125,-0.09684820473194122,-0.0497899055480957,-0.037494659423828125
1701885838371341800,16.481341796875,-0.05183374509215355,-0.047121524810791016,0.006390571594238281
1701885838388330000,16.498330078125,-0.09574538469314575,0.01677417755126953,0.022243499755859375
1701885838405328100,16.515328125,-0.10588966310024261,-0.08263826370239258,0.013256072998046875
1701885838422316300,16.53231640625,-0.003940824419260025,0.019131183624267578,-0.06354522705078125
1701885838439309300,16.549309326171876,-0.0009578801691532135,-0.036683082580566406,-0.0872030258178711
1701885838456300300,16.56630029296875,0.1126701757311821,-0.04437398910522461,-0.15411949157714844
1701885838473290000,16.5832900390625,0.16245144605636597,-0.002850055694580078,-0.21972942352294922
1701885838490284000,16.600283935546877,0.13468053936958313,0.021889686584472656,-0.15901756286621094
1701885838507276500,16.617276611328126,0.11494661867618561,0.040430545806884766,-0.02980518341064453
1701885838524267500,16.634267578125,0.13350394368171692,0.052912235260009766,0.06557464599609375
1701885838541257500,16.651257568359377,0.10541141033172607,0.035079002380371094,0.13587379455566406
1701885838558251300,16.668251220703127,0.09344598650932312,-0.02417612075805664,0.1183633804321289
1701885838575244300,16.685244384765625,0.06009544059634209,-0.023625850677490234,0.008641242980957031
1701885838592245500,16.70224560546875,0.04949258267879486,0.07314777374267578,-0.1052999496459961
1701885838609228000,16.71922802734375,-0.10087472200393677,0.08357858657836914,-0.07454395294189453
1701885838626218000,16.736218017578125,-0.11979883909225464,0.03011178970336914,-0.0028285980224609375
1701885838643212300,16.75321240234375,-0.22846496105194092,0.02436971664428711,0.07641124725341797
1701885838660201500,16.770201416015624,-0.21169716119766235,-0.1439647674560547,0.1229562759399414
1701885838677192700,16.787192626953125,0.005649656057357788,-0.09026956558227539,-0.08270263671875
1701885838694186000,16.80418603515625,0.1320493519306183,0.03308582305908203,-0.24264144897460938
1701885838711179000,16.821178955078125,0.141154944896698,-0.025794029235839844,-0.1836566925048828
1701885838728169000,16.8381689453125,0.0819871798157692,-0.0761723518371582,-0.1032705307006836
1701885838745163800,16.855163818359376,0.022590771317481995,-0.08635854721069336,-0.05031299591064453
1701885838762151200,16.872151123046876,-0.04324088990688324,-0.08292913436889648,-0.0500640869140625
1701885838779146200,16.889146240234375,-0.10547968745231628,-0.06907844543457031,-0.025722503662109375
1701885838796137000,16.906136962890624,-0.13936829566955566,-0.09920835494995117,0.002651214599609375
1701885838813130200,16.923130126953126,-0.13916048407554626,-0.09195089340209961,-0.03201007843017578
1701885838830121000,16.940120849609375,-0.10639983415603638,-0.05062532424926758,-0.07146358489990234
1701885838847114000,16.957114013671877,0.017401590943336487,-0.09848594665527344,-0.06331253051757812
1701885838864101400,16.974101318359374,0.15046899020671844,-0.09766006469726562,-0.07386493682861328
1701885838881097700,16.99109765625,0.1905367076396942,-0.057991981506347656,-0.03477954864501953
1701885838898088200,17.008088134765625,0.16468654572963715,-0.07121038436889648,-0.010201454162597656
1701885838915081000,17.0250810546875,0.10896171629428864,-0.019460201263427734,-0.06714916229248047
1701885838932072000,17.042072021484376,0.028895899653434753,-0.013924121856689453,-0.10438060760498047
1701885838949064700,17.059064697265626,-0.012680619955062866,0.02181720733642578,-0.09294414520263672
1701885838966050600,17.076050537109374,-0.1108902096748352,0.023502826690673828,-0.019273757934570312
1701885838983045600,17.093045654296876,-0.11364538967609406,-0.03244304656982422,0.004913330078125
1701885839000039400,17.110039306640626,-0.044045835733413696,-0.012557029724121094,-0.032944679260253906
1701885839017032200,17.1270322265625,0.0323098748922348,-0.02098369598388672,-0.014102935791015625
1701885839034012700,17.1440126953125,0.019429460167884827,-0.016815185546875,0.06723594665527344
1701885839051012600,17.1610126953125,0.032276079058647156,-0.032933712005615234,0.09027385711669922
1701885839068007000,17.1780068359375,0.12478962540626526,0.06281185150146484,0.11092376708984375
1701885839085000000,17.195,0.12228474020957947,0.006743431091308594,0.15952396392822266
1701885839101990400,17.211990478515624,0.08349229395389557,-0.020233154296875,0.1487569808959961
1701885839118983400,17.2289833984375,0.07912170886993408,0.019414901733398438,0.0702810287475586
1701885839135972900,17.245972900390626,0.05437120795249939,0.035419464111328125,-0.01721954345703125
1701885839152966100,17.262966064453124,0.004646867513656616,0.0385589599609375,-0.017203330993652344
1701885839169960400,17.27996044921875,0.028508156538009644,0.027054309844970703,0.034134864807128906
1701885839186957300,17.296957275390625,-0.03212204575538635,-0.06987857818603516,0.0890493392944336
1701885839203942000,17.31394189453125,-0.03156810998916626,-0.039510250091552734,0.013150215148925781
1701885839220932000,17.33093212890625,-0.035773515701293945,0.037682533264160156,-0.03359508514404297
1701885839237927000,17.347927001953124,-0.05805900692939758,0.03197622299194336,-0.06485366821289062
1701885839254909700,17.36490966796875,-0.07952353358268738,0.015556812286376953,-0.07988452911376953
1701885839271898400,17.3818984375,-0.08963978290557861,-0.01690530776977539,-0.08380985260009766
1701885839288902400,17.39890234375,-0.08981582522392273,-0.06143999099731445,-0.068023681640625
1701885839305892400,17.415892333984374,-0.17511776089668274,-0.028923511505126953,-0.045116424560546875
1701885839322885600,17.4328857421875,-0.20026513934135437,-0.02293109893798828,-0.03687858581542969
1701885839339876600,17.449876708984377,-0.031513988971710205,0.06604290008544922,-0.058487892150878906
1701885839356867800,17.466867919921874,-0.022111982107162476,0.056176185607910156,-0.07276535034179688
1701885839373856000,17.48385595703125,-0.06437385082244873,0.025423049926757812,-0.07567501068115234
1701885839390856000,17.50085595703125,-0.18489354848861694,0.009037971496582031,-0.1134634017944336
1701885839407833000,17.5178330078125,-0.06728118658065796,-0.01645183563232422,-0.17998218536376953
1701885839424836600,17.534836669921877,0.054252415895462036,-0.005293846130371094,-0.12535953521728516
1701885839441824800,17.55182470703125,0.14979255199432373,0.0017175674438476562,-0.079376220703125
1701885839458823200,17.5688232421875,0.10100060701370239,0.005270957946777344,-0.04123115539550781
1701885839475811300,17.585811279296873,0.053702592849731445,-0.008239269256591797,-0.05498218536376953
1701885839492804400,17.602804443359375,0.08797499537467957,0.016343116760253906,-0.14833354949951172
1701885839509795000,17.619795166015624,0.2592913806438446,-0.005064964294433594,-0.22055816650390625
1701885839526787800,17.636787841796874,0.3016400933265686,-0.010928630828857422,-0.17350006103515625
1701885839543778600,17.653778564453123,0.08870476484298706,-0.01778268814086914,0.09199714660644531
1701885839560768500,17.6707685546875,-0.11486554145812988,0.0656733512878418,0.2158184051513672
1701885839577762600,17.687762451171874,-0.19624769687652588,0.09988832473754883,0.3207721710205078
1701885839594755300,17.70475537109375,-0.09373420476913452,0.09380102157592773,0.3107280731201172
1701885839611746000,17.72174609375,0.12277713418006897,0.04933786392211914,0.18590831756591797
1701885839628738800,17.73873876953125,0.2826043963432312,0.019034385681152344,-0.0035991668701171875
1701885839645726200,17.755726318359375,0.3557133376598358,-0.06295919418334961,-0.19115447998046875
1701885839662726700,17.7727265625,0.1981937289237976,-0.07961320877075195,-0.2214193344116211
1701885839679713800,17.7897138671875,0.04107886552810669,-0.0030488967895507812,-0.10197639465332031
1701885839696706300,17.806706298828125,-0.018761038780212402,0.052533626556396484,0.04503631591796875
1701885839713697300,17.823697265625,-0.01284685730934143,0.08618402481079102,0.09831619262695312
1701885839730690000,17.84068994140625,0.0792626440525055,0.08451175689697266,0.015592575073242188
1701885839747680300,17.85768017578125,0.08192664384841919,-0.07146310806274414,0.0043315887451171875
1701885839764674800,17.8746748046875,0.10106158256530762,-0.07318925857543945,-0.0729818344116211
1701885839781664800,17.891664794921876,0.02939504384994507,-0.047921180725097656,-0.011122703552246094
1701885839798657800,17.90865771484375,-0.0224626362323761,-0.009182453155517578,-0.01759052276611328
1701885839815648300,17.925648193359375,-0.046904563903808594,0.019785404205322266,-0.047473907470703125
1701885839832641300,17.942641357421873,-0.027696818113327026,0.025551795959472656,-0.029676437377929688
1701885839849626600,17.959626708984374,0.009492635726928711,0.0013899803161621094,0.020229339599609375
1701885839866622500,17.97662255859375,0.06239956617355347,-0.0038590431213378906,-0.011783599853515625
1701885839883616500,17.993616455078126,0.035359203815460205,-0.03330039978027344,0.014756202697753906
1701885839900619000,18.010618896484374,-0.05605742335319519,-0.02493143081665039,0.09018135070800781
1701885839917599500,18.027599609375,-0.09057644009590149,-0.008450031280517578,0.0532989501953125
1701885839934592500,18.044592529296875,-0.15234923362731934,0.002445697784423828,0.03088855743408203
1701885839951583200,18.061583251953124,-0.14554661512374878,0.03192281723022461,0.03621482849121094
1701885839968576000,18.078575927734374,-0.10411539673805237,0.027039527893066406,0.01645660400390625
1701885839985567000,18.09556689453125,-0.0937570333480835,0.002323150634765625,0.020445823669433594
1701885840002560000,18.11256005859375,-0.08937957882881165,-0.009857177734375,-0.04807281494140625
1701885840019558400,18.129558349609376,-0.12264233827590942,-0.026462554931640625,-0.09245872497558594
1701885840036543500,18.14654345703125,-0.08845695853233337,-0.016368389129638672,-0.12092018127441406
1701885840053534500,18.163534423828125,0.00947907567024231,-0.007786750793457031,-0.07190132141113281
1701885840070523400,18.1805234375,0.09436213970184326,-0.013507843017578125,0.010967254638671875
1701885840087517700,18.197517578125,0.04046794772148132,-0.006992816925048828,0.0792074203491211
1701885840104501800,18.214501708984375,-0.09189873933792114,0.015968799591064453,0.08013534545898438
1701885840121501700,18.231501708984375,-0.17706739902496338,0.034488677978515625,0.04681873321533203
1701885840138494000,18.248493896484376,-0.08885002136230469,0.02102375030517578,0.05144023895263672
1701885840155486200,18.265486328125,0.00005441904067993164,0.004066944122314453,0.08995628356933594
1701885840172478700,18.282478759765624,0.02082425355911255,0.01894092559814453,0.0710287094116211
1701885840189466600,18.299466552734376,-0.04857182502746582,0.022362709045410156,0.04204845428466797
1701885840206465000,18.316465087890624,-0.1612509787082672,0.027842044830322266,0.02143096923828125
1701885840223453000,18.333452880859376,-0.1836683750152588,0.0046844482421875,-0.03838348388671875
1701885840240443000,18.35044287109375,-0.07900604605674744,-0.017774581909179688,-0.09401988983154297
1701885840257436000,18.367435791015627,0.1159566342830658,-0.018027782440185547,-0.15843772888183594
1701885840274430500,18.384430419921873,0.19669318199157715,-0.050131797790527344,-0.09134101867675781
1701885840291419400,18.40141943359375,0.1689697802066803,-0.004677772521972656,-0.1091766357421875
1701885840308414200,18.418414306640624,0.032761216163635254,0.04585981369018555,-0.07746505737304688
1701885840325404000,18.43540380859375,-0.06756559014320374,0.0813894271850586,0.01639842987060547
1701885840342397000,18.45239697265625,-0.08106729388237,0.09691381454467773,0.0934915542602539
1701885840359387600,18.4693876953125,-0.050035834312438965,0.05112123489379883,0.12463188171386719
1701885840376381000,18.486380859375,0.032151252031326294,0.00750732421875,0.029514312744140625
1701885840393368300,18.503368408203126,0.08261141180992126,-0.05559873580932617,-0.056128501892089844
1701885840410364700,18.52036474609375,0.1085781455039978,-0.05579996109008789,-0.11155891418457031
1701885840427352600,18.5373525390625,0.15160015225410461,-0.0495762825012207,-0.10912322998046875
1701885840444351000,18.55435107421875,0.17186981439590454,-0.022408008575439453,-0.08055591583251953
1701885840461335800,18.571335693359377,0.1431029736995697,0.0005059242248535156,-0.09535408020019531
1701885840478321000,18.58832080078125,0.13027185201644897,-0.0004324913024902344,-0.08621025085449219
1701885840495321300,18.6053212890625,0.06265720725059509,-0.02601146697998047,-0.057776451110839844
1701885840512318200,18.622318115234375,-0.028640151023864746,-0.04370689392089844,-0.010843276977539062
1701885840529306400,18.639306396484375,-0.04077428579330444,-0.055647850036621094,-0.03602790832519531
1701885840546299400,18.65629931640625,-0.010676085948944092,-0.019066810607910156,-0.027309417724609375
1701885840563290000,18.6732900390625,0.051682502031326294,0.018948078155517578,-0.0617828369140625
1701885840580282400,18.690282470703124,0.0020011961460113525,-0.034226417541503906,0.0053539276123046875
1701885840597274600,18.707274658203126,-0.0906982421875,-0.06440258026123047,0.034277915954589844
1701885840614267000,18.724266845703124,-0.15080639719963074,-0.038143157958984375,0.014418601989746094
1701885840631257600,18.741257568359377,-0.16067063808441162,-0.0365142822265625,-0.0017108917236328125
1701885840648249600,18.75824951171875,-0.10649776458740234,-0.03998756408691406,-0.00372314453125
1701885840665242000,18.7752421875,-0.028415381908416748,-0.06702709197998047,-0.03520011901855469
1701885840682234000,18.792234130859374,-0.003160446882247925,-0.09925603866577148,-0.06655597686767578
1701885840699225000,18.80922509765625,-0.045399755239486694,-0.1171255111694336,-0.05358600616455078
1701885840716217300,18.82621728515625,-0.08503270149230957,-0.11584663391113281,-0.06986808776855469
1701885840733209300,18.843209228515626,-0.035791993141174316,-0.11396980285644531,-0.12945270538330078
1701885840750201300,18.860201416015624,0.014562606811523438,-0.10602140426635742,-0.17851829528808594
1701885840767192300,18.8771923828125,0.07321065664291382,-0.0967254638671875,-0.21317005157470703
1701885840784182000,18.89418212890625,0.07331386208534241,-0.11029386520385742,-0.17903614044189453
1701885840801176000,18.911176025390624,0.09267199039459229,-0.11132669448852539,-0.12441539764404297
1701885840818166000,18.928166015625,0.08488184213638306,-0.11597776412963867,-0.02116870880126953
1701885840835163000,18.945162841796876,0.06792232394218445,-0.07934141159057617,-0.009409904479980469
1701885840852152600,18.962152587890625,0.02551892399787903,-0.05210685729980469,-0.05947303771972656
1701885840869141500,18.9791416015625,0.04636913537979126,-0.022544384002685547,-0.0948324203491211
1701885840886138600,18.996138671875,0.10129013657569885,-0.015387535095214844,-0.1008920669555664
1701885840903124200,19.013124267578124,0.15339726209640503,-0.012024879455566406,-0.053768157958984375
1701885840920120300,19.030120361328127,0.14314714074134827,-0.0033059120178222656,-0.014678955078125
1701885840937110800,19.04711083984375,0.06586182117462158,0.019308090209960938,0.08675479888916016
1701885840954099700,19.064099609375,-0.013926267623901367,0.05533885955810547,0.07726192474365234
1701885840971091700,19.081091796875,-0.03991621732711792,0.08472299575805664,0.07122230529785156
1701885840988090000,19.098090087890625,-0.048348814249038696,0.11855649948120117,0.02127361297607422
1701885841005075700,19.11507568359375,-0.052573442459106445,0.1126852035522461,-0.0195465087890625
1701885841022071300,19.1320712890625,-0.08788445591926575,0.08252620697021484,-0.045703887939453125
1701885841039062300,19.149062255859373,-0.13437551259994507,0.08431053161621094,0.027443885803222656
1701885841056055000,19.166054931640623,-0.12298691272735596,0.10939979553222656,0.04720592498779297
1701885841073044200,19.183044189453124,-0.11650848388671875,0.0946497917175293,0.08041858673095703
1701885841090042000,19.2000419921875,-0.056496262550354004,0.09200096130371094,0.06863689422607422
1701885841107014700,19.2170146484375,0.03322675824165344,0.0748438835144043,0.06117534637451172
1701885841124023800,19.23402392578125,0.09878593683242798,0.0377650260925293,0.09191131591796875
1701885841141012200,19.25101220703125,0.08137357234954834,0.028066158294677734,0.09384536743164062
1701885841158006500,19.268006591796876,0.054120540618896484,0.017220020294189453,0.019272804260253906
1701885841174998000,19.284998046875,0.048634618520736694,0.011495590209960938,-0.05596637725830078
1701885841191989800,19.30198974609375,0.07298758625984192,0.010290145874023438,-0.10769462585449219
1701885841208980700,19.318980712890625,0.08746382594108582,-0.014336585998535156,-0.11081600189208984
1701885841225973500,19.335973388671874,0.0863584578037262,-0.023703575134277344,-0.08481216430664062
1701885841242964200,19.352964111328124,0.021472632884979248,-0.05145883560180664,-0.05259895324707031
1701885841259957500,19.36995751953125,-0.0426141619682312,-0.054412841796875,-0.015900611877441406
1701885841276937500,19.3869375,-0.03280404210090637,-0.05791187286376953,-0.022500991821289062
1701885841293937700,19.403937744140624,0.03468701243400574,-0.07042837142944336,-0.034539222717285156
1701885841310931700,19.420931640625,0.042198896408081055,-0.07852840423583984,-0.05069160461425781
1701885841327924700,19.4379248046875,0.011437296867370605,-0.06251907348632812,-0.09966564178466797
1701885841344915700,19.454915771484377,-0.029228270053863525,-0.05936861038208008,-0.12923526763916016
1701885841361908500,19.471908447265626,-0.040381789207458496,-0.054918766021728516,-0.11464786529541016
1701885841378899200,19.488899169921876,-0.0614282488822937,-0.039719581604003906,-0.09436225891113281
1701885841395892200,19.505892333984374,-0.06574955582618713,-0.014761924743652344,-0.05549049377441406
1701885841412883200,19.52288330078125,-0.04919227957725525,-0.02336740493774414,0.002422332763671875
1701885841429876000,19.5398759765625,-0.0048409104347229,-0.042035579681396484,0.040350914001464844
1701885841446867000,19.556866943359374,-0.020193636417388916,-0.07030344009399414,0.021497726440429688
1701885841463857400,19.573857421875,0.0012044310569763184,-0.05884122848510742,-0.044384002685546875
1701885841480850000,19.590849853515625,0.043926119804382324,-0.029932022094726562,-0.08079814910888672
1701885841497843500,19.607843505859375,0.06580117344856262,0.0004024505615234375,0.018822669982910156
1701885841514834400,19.62483447265625,0.035432368516922,0.025110244750976562,0.14695262908935547
1701885841531827000,19.641826904296874,-0.039614707231521606,0.05536842346191406,0.1966104507446289
1701885841548818200,19.658818115234375,-0.08305209875106812,0.059328556060791016,0.1865854263305664
1701885841565811000,19.67581103515625,-0.04746261239051819,0.056255340576171875,0.09394645690917969
1701885841582801700,19.6928017578125,0.0024545788764953613,0.04339885711669922,-0.009316444396972656
1701885841599794700,19.709794677734376,0.0691535472869873,0.049591064453125,-0.07919979095458984
1701885841616785400,19.726785400390625,0.05346319079399109,0.02719593048095703,-0.0853567123413086
1701885841633778200,19.743778076171875,0.014458537101745605,-0.003619670867919922,-0.0962667465209961
1701885841650769000,19.760768798828124,0.046977221965789795,-0.003627300262451172,-0.07245922088623047
1701885841667761200,19.77776123046875,0.13982528448104858,0.01689434051513672,-0.06756305694580078
1701885841684753700,19.794753662109375,0.18063059449195862,0.024325847625732422,-0.04795074462890625
1701885841701746000,19.811745849609373,0.09803363680839539,0.020955562591552734,0.02070140838623047
1701885841718736600,19.828736572265626,-0.013954252004623413,0.019970417022705078,0.10812091827392578
1701885841735729700,19.845729736328124,-0.06250190734863281,0.05524587631225586,0.08309173583984375
1701885841752720400,19.862720458984374,-0.025734156370162964,0.04690837860107422,0.008373260498046875
1701885841769713200,19.879713134765623,0.04883986711502075,0.05817270278930664,-0.06606388092041016
1701885841786704100,19.8967041015625,0.08126166462898254,0.08398580551147461,-0.1203470230102539
1701885841803693600,19.913693603515625,0.018086791038513184,0.06655025482177734,-0.0781707763671875
1701885841820690200,19.930690185546876,-0.0908547043800354,0.004580020904541016,0.0014190673828125
1701885841837681000,19.947680908203125,-0.06216740608215332,-0.05323648452758789,0.03126811981201172
1701885841854671400,19.96467138671875,0.10456043481826782,-0.06291055679321289,0.0938720703125
1701885841871664400,19.981664306640624,0.2391301393508911,-0.045556068420410156,0.21387481689453125
1701885841888655000,19.998655029296874,0.21748614311218262,0.04970264434814453,0.2182016372680664
1701885841905647900,20.01564794921875,0.007624685764312744,0.07801532745361328,0.2073211669921875
1701885841922638600,20.032638671875,-0.16738590598106384,0.07159280776977539,0.20441436767578125
1701885841939631900,20.0496318359375,-0.24992302060127258,0.07928466796875,0.15270042419433594
1701885841956622600,20.06662255859375,-0.2625044584274292,0.06864309310913086,0.13504600524902344
1701885841973615600,20.08361572265625,-0.20518867671489716,0.07685995101928711,0.1161355972290039
1701885841990604300,20.100604248046874,-0.10088130831718445,0.07419204711914062,0.05314350128173828
1701885842007595300,20.11759521484375,0.005753770470619202,0.07538509368896484,-0.029519081115722656
1701885842024593400,20.134593505859375,0.009419068694114685,-0.0003762245178222656,-0.10664939880371094
1701885842041572400,20.151572265625,-0.07556279003620148,-0.08380460739135742,-0.2257242202758789
1701885842058573800,20.16857373046875,-0.1570693552494049,-0.11091470718383789,-0.27036190032958984
1701885842075566600,20.185566650390626,-0.1235116571187973,-0.05840349197387695,-0.27086639404296875
1701885842092554800,20.2025546875,-0.06581410765647888,-0.05038928985595703,-0.2890462875366211
1701885842109553200,20.21955322265625,-0.03918524086475372,-0.07883691787719727,-0.22008132934570312
1701885842126541600,20.23654150390625,0.004744872450828552,-0.09992790222167969,-0.15899658203125
1701885842143534000,20.2535341796875,0.01632523536682129,-0.119415283203125,-0.1936492919921875
1701885842160526800,20.27052685546875,0.06198813021183014,-0.0984659194946289,-0.19752979278564453
1701885842177517300,20.287517333984376,0.07481399178504944,-0.05212593078613281,-0.11927509307861328
1701885842194509600,20.304509521484373,0.06670749187469482,-0.02613067626953125,-0.0652322769165039
1701885842211503400,20.32150341796875,0.07472282648086548,-0.014849185943603516,-0.05950641632080078
1701885842228490800,20.33849072265625,0.11494018137454987,-0.01698589324951172,-0.08706855773925781
1701885842245483300,20.355483154296873,0.11086699366569519,-0.027305126190185547,-0.09441757202148438
1701885842262477800,20.372477783203124,0.08333456516265869,0.0028963088989257812,-0.0475921630859375
1701885842279469000,20.389468994140625,0.004286840558052063,0.057648658752441406,0.024092674255371094
1701885842296459500,20.40645947265625,-0.08815062791109085,0.08178949356079102,0.13304424285888672
1701885842313450200,20.4234501953125,-0.08539160341024399,0.09343481063842773,0.15335845947265625
1701885842330444000,20.440444091796873,-0.07988068461418152,0.10363006591796875,0.09122371673583984
1701885842347436500,20.4574365234375,-0.02215568721294403,0.09816884994506836,0.04308032989501953
1701885842364427300,20.47442724609375,0.01643085479736328,0.0986948013305664,-0.005321502685546875
1701885842381417200,20.491417236328125,0.023416534066200256,0.08508729934692383,0.03822803497314453
1701885842398411000,20.508410888671875,-0.05986081063747406,0.07065391540527344,0.06787967681884766
1701885842415403800,20.52540380859375,-0.1428656429052353,0.10260486602783203,0.09673881530761719
1701885842432394800,20.542394775390626,-0.1498720496892929,0.10926389694213867,0.07608795166015625
1701885842449378300,20.55937841796875,-0.09964431822299957,0.10595083236694336,0.049510955810546875
1701885842466378500,20.57637841796875,-0.01945960521697998,0.10193967819213867,-0.010980606079101562
1701885842483371500,20.59337158203125,0.08242645859718323,0.0741281509399414,-0.032845497131347656
1701885842500361500,20.610361572265624,0.11826720833778381,0.04712629318237305,-0.0010318756103515625
1701885842517353500,20.627353515625,0.1138540655374527,-0.016902446746826172,-0.0025930404663085938
1701885842534348500,20.6443486328125,0.045867472887039185,-0.008653640747070312,0.04041099548339844
1701885842551329000,20.6613291015625,0.02424803376197815,0.018632888793945312,0.04509544372558594
1701885842568328700,20.67832861328125,0.006956949830055237,0.04004669189453125,0.058506011962890625
1701885842585323500,20.695323486328125,-0.011269107460975647,0.04240131378173828,0.018690109252929688
