time,seconds_elapsed,z,y,x
1700931643651115000,0.153114990234375,0.22806358337402344,-0.04228830337524414,0.13581764698028564
1700931643668101400,0.170101318359375,-0.057572364807128906,-0.04248952865600586,0.1891874074935913
1700931643685099800,0.187099853515625,-0.062419891357421875,0.029473304748535156,0.33715569972991943
1700931643702102300,0.204102294921875,0.13006973266601562,0.17757058143615723,0.3853476047515869
1700931643719078400,0.221078369140625,0.27536487579345703,0.26445984840393066,0.3609427213668823
1700931643736079600,0.23807958984375,0.2996492385864258,0.3383491039276123,0.3980345129966736
1700931643753059300,0.255059326171875,0.12709522247314453,0.45480990409851074,0.5227648019790649
1700931643770059800,0.272059814453125,-0.23183727264404297,0.5300402641296387,0.5563942193984985
1700931643787055900,0.289055908203125,-0.5813407897949219,0.5381674766540527,0.5937620997428894
1700931643804047600,0.306047607421875,-0.6773843765258789,0.5657877922058105,0.6619002819061279
1700931643821042200,0.323042236328125,-0.5460386276245117,0.48837804794311523,0.6998422741889954
1700931643838030800,0.34003076171875,-0.1633129119873047,0.5201504230499268,0.7793685793876648
1700931643855026700,0.357026611328125,0.36742496490478516,0.7127571105957031,0.8330703973770142
1700931643872011000,0.374010986328125,0.5072755813598633,0.8565104007720947,0.9397740364074707
1700931643889009700,0.391009765625,0.2025012969970703,0.8591537475585938,1.0169541835784912
1700931643906005500,0.408005615234375,-0.1032876968383789,0.8455865383148193,0.8572226166725159
1700931643922993700,0.42499365234375,-0.25072765350341797,0.7585058212280273,0.6653410196304321
1700931643939986200,0.441986083984375,-0.2719993591308594,0.6612396240234375,0.7197239398956299
1700931643956986600,0.458986572265625,-0.17239856719970703,0.5746631622314453,0.8653610944747925
1700931643973965800,0.4759658203125,0.004566192626953125,0.527991771697998,0.9855758547782898
1700931643990964500,0.492964599609375,0.26732826232910156,0.457965612411499,1.02452552318573
1700931644007952600,0.50995263671875,0.4678630828857422,0.34917664527893066,1.0415550470352173
1700931644024954600,0.52695458984375,0.29689693450927734,0.219529390335083,1.0479156970977783
1700931644041949200,0.54394921875,-0.054419517517089844,0.19217944145202637,1.1301778554916382
1700931644058938000,0.560938232421875,-0.1275043487548828,0.2697484493255615,1.1910756826400757
1700931644075941000,0.577941162109375,0.22343730926513672,0.3055264949798584,1.0624710321426392
1700931644092918300,0.594918212890625,0.3036975860595703,0.34851884841918945,0.9340801239013672
1700931644109912800,0.611912841796875,0.32299041748046875,0.35888218879699707,0.8786025047302246
1700931644126905600,0.628905517578125,0.0560150146484375,0.4922187328338623,0.9984915256500244
1700931644143900400,0.645900390625,-0.38802433013916016,0.7381863594055176,1.1360732316970825
1700931644160896800,0.662896728515625,-0.6833095550537109,0.8102297782897949,1.0857785940170288
1700931644177889300,0.67988916015625,-0.7531833648681641,0.6659297943115234,0.8805660009384155
1700931644194873900,0.696873779296875,-0.6866168975830078,0.6198816299438477,0.6741794943809509
1700931644211877400,0.71387744140625,-0.5852909088134766,0.6127071380615234,0.7586305737495422
1700931644228867600,0.73086767578125,-0.37514495849609375,0.6542439460754395,0.8677916526794434
1700931644245861400,0.747861328125,-0.11915206909179688,0.6790378093719482,0.8544634580612183
1700931644262856200,0.764856201171875,0.0992288589477539,0.6567423343658447,0.8302941918373108
1700931644279844900,0.781844970703125,0.23350143432617188,0.6748507022857666,0.7674593925476074
1700931644296841000,0.798841064453125,0.2210702896118164,0.6835150718688965,0.7090951204299927
1700931644313831700,0.815831787109375,-0.07226181030273438,0.7197151184082031,0.7961656451225281
1700931644330829300,0.832829345703125,-0.27219581604003906,0.6900854110717773,0.9985067248344421
1700931644347809000,0.84980908203125,-0.3450145721435547,0.6921737194061279,1.112031102180481
1700931644364811800,0.866811767578125,-0.3260164260864258,0.6343884468078613,1.122247576713562
1700931644381806300,0.883806396484375,-0.3607912063598633,0.6686315536499023,0.914819598197937
1700931644398795000,0.900794921875,-0.5485801696777344,0.6673171520233154,0.742724597454071
1700931644415790300,0.917790283203125,-0.565770149230957,0.6962447166442871,0.7133052945137024
1700931644432785000,0.934784912109375,-0.45415306091308594,0.6979024410247803,0.5672995448112488
1700931644449766400,0.951766357421875,-0.3795661926269531,1.1711981296539307,0.8515302538871765
1700931644466765300,0.968765380859375,0.02685832977294922,0.9012453556060791,0.9154451489448547
1700931644483761700,0.98576171875,0.1579580307006836,0.850236177444458,0.6457891464233398
1700931644500757800,1.0027578125,-0.015573501586914062,0.8019566535949707,0.6109248399734497
1700931644517745000,1.019744873046875,-0.11167240142822266,0.6362192630767822,0.5455368757247925
1700931644534740200,1.036740234375,-0.12260913848876953,0.5292060375213623,0.5201255083084106
1700931644551731700,1.053731689453125,-0.057801246643066406,0.4151883125305176,0.5658926963806152
1700931644568722000,1.070721923828125,0.12191295623779297,0.38706231117248535,0.6151511669158936
1700931644585720300,1.08772021484375,0.06724834442138672,0.4740946292877197,0.7126801013946533
1700931644602700800,1.10470068359375,-0.11677360534667969,0.5451967716217041,0.8484106659889221
1700931644619704300,1.121704345703125,-0.30088138580322266,0.6175408363342285,0.869062602519989
1700931644636698000,1.138697998046875,-0.33729076385498047,0.67120361328125,0.8489137887954712
1700931644653690000,1.155690185546875,-0.17536544799804688,0.6907894611358643,0.8408920168876648
1700931644670684700,1.1726845703125,0.1877603530883789,0.6987669467926025,0.783370852470398
1700931644687673600,1.189673583984375,0.4641990661621094,0.6038832664489746,0.8086329698562622
1700931644704667100,1.206667236328125,0.5388975143432617,0.6226060390472412,0.9960972666740417
1700931644721664500,1.22366455078125,0.4176645278930664,0.6710386276245117,1.1661992073059082
1700931644738652000,1.24065185546875,0.23549652099609375,0.6346755027770996,1.176832675933838
1700931644755647200,1.257647216796875,-0.09409141540527344,0.611417293548584,1.113812804222107
1700931644772644400,1.274644287109375,-0.5189714431762695,0.6536312103271484,1.077162504196167
1700931644789630500,1.29163037109375,-0.6798534393310547,0.7066540718078613,1.0820457935333252
1700931644806616300,1.3086162109375,-0.5143709182739258,0.7717902660369873,1.1739304065704346
1700931644823616000,1.325615966796875,-0.13076496124267578,0.8412885665893555,1.2878180742263794
1700931644840615700,1.34261572265625,0.1872234344482422,0.8779282569885254,1.3764853477478027
1700931644857601800,1.359601806640625,0.38950061798095703,0.7846918106079102,1.3382046222686768
1700931644874597000,1.37659716796875,0.33366966247558594,0.6748206615447998,1.1339960098266602
1700931644891589000,1.393589111328125,0.21350955963134766,0.6671640872955322,0.8838541507720947
1700931644908583200,1.410583251953125,0.08004379272460938,0.724435567855835,0.7797406911849976
1700931644925575700,1.42757568359375,-0.059699058532714844,0.8173842430114746,0.8117820024490356
1700931644942568000,1.44456787109375,-0.2663421630859375,0.8079164028167725,0.9152211546897888
1700931644959561500,1.4615615234375,-0.36630916595458984,0.6577978134155273,1.0072901248931885
1700931644976556800,1.478556884765625,-0.4824256896972656,0.5715987682342529,0.9606348276138306
1700931644993545500,1.49554541015625,-0.5160551071166992,0.4193859100341797,0.7332867383956909
1700931645010539300,1.512539306640625,-0.3133573532104492,0.348055362701416,0.7438172698020935
1700931645027530800,1.52953076171875,-0.3062477111816406,0.4624459743499756,0.9032421112060547
1700931645044525600,1.546525634765625,-0.07040691375732422,0.48737382888793945,1.1268179416656494
1700931645061520100,1.56352001953125,0.12735652923583984,0.46092796325683594,1.1675530672073364
1700931645078497800,1.580497802734375,0.21772480010986328,0.4298722743988037,1.0381959676742554
1700931645095504400,1.59750439453125,0.2068948745727539,0.4686007499694824,0.8763318061828613
1700931645112498700,1.614498779296875,0.0651102066040039,0.5633726119995117,0.8558726906776428
1700931645129487600,1.631487548828125,-0.14548206329345703,0.6284940242767334,0.9572746157646179
1700931645146483700,1.648483642578125,-0.2694101333618164,0.6715762615203857,1.0844370126724243
1700931645163484200,1.665484130859375,-0.30286312103271484,0.6750338077545166,1.1620762348175049
1700931645180470300,1.68247021484375,-0.3961162567138672,0.664006233215332,1.1773451566696167
1700931645197458400,1.69945849609375,-0.3995800018310547,0.6766378879547119,1.0476902723312378
1700931645214466600,1.716466552734375,-0.36063289642333984,0.6981418132781982,0.9236481189727783
1700931645231448600,1.733448486328125,-0.3571357727050781,0.7133572101593018,0.8385629057884216
1700931645248436000,1.75043603515625,-0.2906370162963867,0.7267332077026367,0.7361988425254822
1700931645265438200,1.767438232421875,-0.29744529724121094,0.743851900100708,0.6698105335235596
1700931645282417700,1.784417724609375,-0.1716470718383789,0.7399182319641113,0.7226991653442383
1700931645299416800,1.801416748046875,-0.08158683776855469,0.6707663536071777,0.7987406849861145
1700931645316409600,1.81840966796875,-0.008608818054199219,0.5935108661651611,0.7866939306259155
1700931645333406700,1.83540673828125,-0.07289600372314453,0.5326569080352783,0.7255667448043823
1700931645350399000,1.85239892578125,-0.20958995819091797,0.49569249153137207,0.6914066076278687
1700931645367388000,1.869387939453125,-0.3978137969970703,0.4732322692871094,0.7281241416931152
1700931645384383000,1.886383056640625,-0.46497058868408203,0.5454237461090088,0.7401415109634399
1700931645401377300,1.903377197265625,-0.4419116973876953,0.6095259189605713,0.8154146671295166
1700931645418365700,1.92036572265625,-0.29647254943847656,0.6492674350738525,0.8876731395721436
1700931645435362000,1.937362060546875,-0.2303333282470703,0.7561221122741699,0.9322217106819153
1700931645452355000,1.95435498046875,-0.19392013549804688,0.8416578769683838,0.973473846912384
1700931645469342200,1.97134228515625,-0.20550155639648438,0.8961119651794434,1.0178519487380981
1700931645486343400,1.988343505859375,-0.17238330841064453,0.849618673324585,1.058203935623169
1700931645503334000,2.005333984375,-0.10950279235839844,0.808781623840332,1.0806503295898438
1700931645520327200,2.0223271484375,-0.06414985656738281,0.7937297821044922,1.1099618673324585
1700931645537318100,2.039318115234375,0.031345367431640625,0.7971723079681396,1.2025021314620972
1700931645554301000,2.056301025390625,0.03186988830566406,0.8289394378662109,1.3002164363861084
1700931645571306000,2.073305908203125,0.0851888656616211,0.8207142353057861,1.3142434358596802
1700931645588295000,2.090294921875,0.054831504821777344,0.8060524463653564,1.2593151330947876
1700931645605290000,2.1072900390625,-0.12957763671875,0.7422606945037842,1.24143385887146
1700931645622284300,2.1242841796875,-0.25888633728027344,0.6749444007873535,1.153180480003357
1700931645639273200,2.141273193359375,-0.3311729431152344,0.6643335819244385,1.0047519207000732
1700931645656269300,2.158269287109375,-0.3405780792236328,0.6049129962921143,0.9456328749656677
1700931645673259800,2.175259765625,-0.24933338165283203,0.5613481998443604,0.907019317150116
1700931645690257700,2.192257568359375,-0.1611785888671875,0.5267951488494873,0.7958794832229614
1700931645707245000,2.2092451171875,-0.027788162231445312,0.4983351230621338,0.705940306186676
1700931645724240000,2.226239990234375,0.056258201599121094,0.44324421882629395,0.6837671995162964
1700931645741233200,2.243233154296875,0.11293411254882812,0.4209134578704834,0.6584974527359009
1700931645758224400,2.260224365234375,-0.013789176940917969,0.384052038192749,0.6519203186035156
1700931645775218700,2.27721875,-0.22664833068847656,0.3418095111846924,0.7063770890235901
1700931645792212700,2.294212646484375,-0.4979286193847656,0.40308499336242676,0.7564329504966736
1700931645809206300,2.311206298828125,-0.6214876174926758,0.4448964595794678,0.8937528133392334
1700931645826192000,2.32819189453125,-0.5303859710693359,0.5230402946472168,0.9627951979637146
1700931645843191600,2.345191650390625,-0.40351009368896484,0.5877447128295898,0.9454209208488464
1700931645860220700,2.362220703125,-0.16648578643798828,0.6456811428070068,0.841661274433136
1700931645877180400,2.379180419921875,-0.10067939758300781,0.638704776763916,0.824914276599884
1700931645894168000,2.39616796875,-0.1142587661743164,0.6373214721679688,0.8624688386917114
1700931645911166200,2.413166259765625,-0.20381736755371094,0.6410677433013916,0.9447773098945618
1700931645928145700,2.430145751953125,-0.26285457611083984,0.6304805278778076,1.0387794971466064
1700931645945153000,2.447153076171875,-0.3223533630371094,0.636228084564209,1.059110403060913
1700931645962138600,2.464138671875,-0.33789634704589844,0.6538755893707275,0.9308800101280212
1700931645979130600,2.481130615234375,-0.33295249938964844,0.6814422607421875,0.7652513384819031
1700931645996116700,2.49811669921875,-0.3259878158569336,0.6382839679718018,0.7212775945663452
1700931646013121000,2.51512109375,-0.2888822555541992,0.6136002540588379,0.7322186231613159
1700931646030110200,2.532110107421875,-0.3426790237426758,0.6059741973876953,0.7585226893424988
1700931646047106000,2.54910595703125,-0.3649311065673828,0.5925955772399902,0.7535471320152283
1700931646064097300,2.56609716796875,-0.39520931243896484,0.6061904430389404,0.6966935396194458
1700931646081091300,2.58309130859375,-0.3551902770996094,0.6040995121002197,0.6139051914215088
1700931646098080500,2.60008056640625,-0.3320808410644531,0.5981462001800537,0.6029244065284729
1700931646115073800,2.61707373046875,-0.26449108123779297,0.5789806842803955,0.623070240020752
1700931646132072000,2.634072021484375,-0.22258472442626953,0.5806858539581299,0.5813305974006653
1700931646149059000,2.65105908203125,-0.1392507553100586,0.5644385814666748,0.5142048597335815
1700931646166054700,2.6680546875,-0.1183004379272461,0.542090654373169,0.5523400902748108
1700931646183045000,2.685045166015625,-0.10109806060791016,0.5227298736572266,0.6249885559082031
1700931646200040200,2.702040283203125,-0.16229248046875,0.5508623123168945,0.6416383385658264
1700931646217033500,2.719033447265625,-0.2807426452636719,0.5703022480010986,0.6486627459526062
1700931646234025500,2.736025390625,-0.4060354232788086,0.6337251663208008,0.6736788749694824
1700931646251020300,2.753020263671875,-0.2815732955932617,0.7189834117889404,0.6058217883110046
1700931646268002800,2.7700029296875,0.020914077758789062,0.6836023330688477,0.5195754170417786
1700931646285003300,2.787003173828125,0.22539520263671875,0.6664948463439941,0.522354006767273
1700931646301998600,2.80399853515625,0.14934539794921875,0.6254355907440186,0.671667218208313
1700931646318987500,2.820987548828125,-0.04240226745605469,0.6247851848602295,0.8483405709266663
1700931646335980800,2.837980712890625,-0.24834823608398438,0.6633281707763672,0.9437515139579773
1700931646352978200,2.854978271484375,-0.423309326171875,0.751885175704956,0.9846428632736206
1700931646369966600,2.871966552734375,-0.526641845703125,0.7877871990203857,1.0522892475128174
1700931646386955000,2.888955078125,-0.5160818099975586,0.8147976398468018,1.0353538990020752
1700931646403954200,2.9059541015625,-0.49407386779785156,0.7698543071746826,1.022886037826538
1700931646420948700,2.92294873046875,-0.4649496078491211,0.7253501415252686,1.0129262208938599
1700931646437937400,2.9399375,-0.34870052337646484,0.6729049682617188,0.9777958393096924
1700931646454933000,2.95693310546875,-0.2797679901123047,0.67494797706604,0.9004807472229004
1700931646471927300,2.97392724609375,-0.2959146499633789,0.6997058391571045,0.8473373651504517
1700931646488916000,2.990916015625,-0.3106412887573242,0.7156026363372803,0.8358504772186279
1700931646505911600,3.00791162109375,-0.23847198486328125,0.7010862827301025,0.8838876485824585
1700931646522903300,3.0249033203125,-0.04865741729736328,0.6519525051116943,0.9002318382263184
1700931646539896300,3.041896240234375,0.11257362365722656,0.6037700176239014,0.8172406554222107
1700931646556891000,3.058890869140625,0.11486148834228516,0.5530474185943604,0.7276374697685242
1700931646573883400,3.07588330078125,0.06653785705566406,0.5513482093811035,0.6945701837539673
1700931646590877200,3.092877197265625,0.03876304626464844,0.5490808486938477,0.7363196611404419
1700931646607866000,3.1098662109375,-0.061501502990722656,0.5059702396392822,0.8426533341407776
1700931646624861700,3.12686181640625,-0.21426010131835938,0.44006991386413574,0.9157145023345947
1700931646641855000,3.14385498046875,-0.42864322662353516,0.4667072296142578,0.9097077250480652
1700931646658830300,3.160830322265625,-0.6190242767333984,0.5189192295074463,0.8639436364173889
1700931646675838200,3.177838134765625,-0.8042020797729492,0.5825371742248535,0.8253540992736816
1700931646692833800,3.194833740234375,-0.861872673034668,0.6213216781616211,0.7699095606803894
1700931646709816000,3.211816162109375,-0.8034934997558594,0.6733982563018799,0.7084974050521851
1700931646726813400,3.2288134765625,-0.6143131256103516,0.6853501796722412,0.67278653383255
1700931646743809500,3.2458095703125,-0.3160238265991211,0.669224739074707,0.6490739583969116
1700931646760807700,3.2628076171875,-0.03537464141845703,0.6223430633544922,0.6339250206947327
1700931646777792000,3.2797919921875,0.1957855224609375,0.5644381046295166,0.5998564958572388
1700931646794793700,3.296793701171875,0.3135251998901367,0.5122816562652588,0.6307522058486938
1700931646811784000,3.313783935546875,0.32476043701171875,0.46680164337158203,0.7472696304321289
1700931646828776700,3.330776611328125,0.24207115173339844,0.465329647064209,0.8635345101356506
1700931646845769500,3.34776953125,0.14619064331054688,0.5122835636138916,0.9013128280639648
1700931646862764000,3.364763916015625,-0.13145828247070312,0.5523626804351807,0.9202340245246887
1700931646879753500,3.38175341796875,-0.3977832794189453,0.6422290802001953,0.9461727142333984
1700931646896748000,3.398748046875,-0.6071262359619141,0.7188742160797119,1.0226670503616333
1700931646913738200,3.41573828125,-0.673832893371582,0.7299675941467285,1.0726006031036377
1700931646930749700,3.432749755859375,-0.5803842544555664,0.732546329498291,1.008002519607544
1700931646947726800,3.449726806640625,-0.45332908630371094,0.6797850131988525,0.9612568020820618
1700931646964719600,3.4667197265625,-0.3536815643310547,0.6551709175109863,0.9329586029052734
1700931646981712400,3.48371240234375,-0.27322959899902344,0.6876797676086426,0.9023792147636414
1700931646998705400,3.500705322265625,-0.1678018569946289,0.7286205291748047,0.8295881152153015
1700931647015695600,3.517695556640625,-0.0879812240600586,0.7534596920013428,0.756371021270752
1700931647032693500,3.534693603515625,-0.031581878662109375,0.6765673160552979,0.7166066765785217
1700931647049684000,3.55168408203125,0.027193069458007812,0.5769305229187012,0.586512565612793
1700931647066676700,3.5686767578125,0.006195068359375,0.4887654781341553,0.44884395599365234
1700931647083656700,3.58565673828125,-0.03849506378173828,0.42595577239990234,0.3604161739349365
1700931647100653600,3.602653564453125,-0.08735466003417969,0.4026627540588379,0.3294306695461273
1700931647117648600,3.619648681640625,-0.09932422637939453,0.37120938301086426,0.4365268051624298
1700931647134638800,3.636638916015625,-0.0928049087524414,0.40311431884765625,0.5130395889282227
1700931647151630600,3.653630615234375,-0.040287017822265625,0.4413950443267822,0.5579537749290466
1700931647168623400,3.670623291015625,-0.00283050537109375,0.5182011127471924,0.5940267443656921
1700931647185620200,3.6876201171875,-0.034610748291015625,0.534857988357544,0.7645677328109741
1700931647202610700,3.704610595703125,-0.12538814544677734,0.5597357749938965,0.8938030004501343
1700931647219603000,3.72160302734375,-0.2100372314453125,0.6378235816955566,0.9145958423614502
1700931647236597000,3.738596923828125,-0.3276185989379883,0.6709539890289307,0.9766261577606201
1700931647253587000,3.7555869140625,-0.3851194381713867,0.7136890888214111,0.9953665733337402
1700931647270581500,3.77258154296875,-0.37024879455566406,0.7162141799926758,1.0096334218978882
1700931647287576000,3.789576171875,-0.34648609161376953,0.7058556079864502,0.9957095980644226
1700931647304568000,3.806568115234375,-0.2697887420654297,0.6521189212799072,0.9821041822433472
1700931647321561600,3.8235615234375,-0.1940155029296875,0.5758395195007324,0.9221483469009399
1700931647338552600,3.840552490234375,-0.13640213012695312,0.519111156463623,0.7760259509086609
1700931647355556900,3.857556884765625,-0.050323486328125,0.46370816230773926,0.6217506527900696
1700931647372548000,3.874548095703125,0.007886886596679688,0.4315052032470703,0.5115146636962891
1700931647389541000,3.891541015625,0.049582481384277344,0.398820161819458,0.5146739482879639
1700931647406534000,3.908533935546875,0.02978801727294922,0.3906278610229492,0.6001105904579163
1700931647423525400,3.925525390625,-0.06810855865478516,0.45511531829833984,0.6864346861839294
1700931647440521000,3.94252099609375,-0.14193439483642578,0.5283091068267822,0.7581442594528198
1700931647457512400,3.959512451171875,-0.24978256225585938,0.6108372211456299,0.8319911956787109
1700931647474495000,3.976494873046875,-0.3256807327270508,0.6309387683868408,0.908208966255188
1700931647491498000,3.993498046875,-0.381500244140625,0.6688666343688965,0.9236528873443604
1700931647508491000,4.010490966796875,-0.46978282928466797,0.6912999153137207,0.9106107354164124
1700931647525481200,4.027481201171875,-0.5256338119506836,0.7035977840423584,0.9008193016052246
1700931647542479000,4.04447900390625,-0.49611568450927734,0.6867449283599854,0.8033269643783569
1700931647559469600,4.061469482421875,-0.3304615020751953,0.6039958000183105,0.6259149312973022
1700931647576450600,4.078450439453125,-0.14784908294677734,0.5248429775238037,0.4681320786476135
1700931647593455400,4.095455322265625,0.0028772354125976562,0.4540443420410156,0.39882826805114746
1700931647610448100,4.1124482421875,0.09087848663330078,0.3998889923095703,0.38672706484794617
1700931647627441200,4.129441162109375,0.1048574447631836,0.37871742248535156,0.36976245045661926
1700931647644423400,4.14642333984375,0.034877777099609375,0.38028860092163086,0.38441002368927
1700931647661426700,4.1634267578125,-0.008902549743652344,0.4166703224182129,0.44474565982818604
1700931647678419700,4.180419677734375,-0.1315746307373047,0.45676326751708984,0.5319971442222595
1700931647695412500,4.19741259765625,-0.3177299499511719,0.49181532859802246,0.6480091214179993
1700931647712405200,4.2144052734375,-0.4971141815185547,0.5065460205078125,0.7175114750862122
1700931647729398300,4.231398193359375,-0.5949611663818359,0.546175479888916,0.7037994861602783
1700931647746391000,4.24839111328125,-0.6100187301635742,0.568488359451294,0.7284908294677734
1700931647763383800,4.2653837890625,-0.5370311737060547,0.5988435745239258,0.7692297697067261
1700931647780376600,4.28237646484375,-0.4022073745727539,0.6101930141448975,0.8319228291511536
1700931647797369300,4.299369384765625,-0.26912403106689453,0.6045181751251221,0.9068238139152527
1700931647814367700,4.31636767578125,-0.18543434143066406,0.5765156745910645,0.9231656193733215
1700931647831358200,4.333358154296875,-0.08348464965820312,0.5577092170715332,0.871315598487854
1700931647848348400,4.350348388671875,-0.03742694854736328,0.5463931560516357,0.8072253465652466
1700931647865340400,4.36734033203125,-0.009466171264648438,0.5212357044219971,0.750687837600708
1700931647882330400,4.384330322265625,0.0422821044921875,0.5026895999908447,0.7356723546981812
1700931647899331000,4.4013310546875,0.05203723907470703,0.49717211723327637,0.7428350448608398
1700931647916319700,4.41831982421875,-0.05635547637939453,0.5074074268341064,0.7538254261016846
1700931647933312800,4.435312744140625,-0.21909523010253906,0.545673131942749,0.760402262210846
1700931647950295000,4.452294921875,-0.38068675994873047,0.5799367427825928,0.8004487752914429
1700931647967298600,4.469298583984375,-0.4740734100341797,0.6068367958068848,0.8345643281936646
1700931647984290600,4.48629052734375,-0.4790353775024414,0.6274735927581787,0.8237650394439697
1700931648001285600,4.50328564453125,-0.42432308197021484,0.6412715911865234,0.7995731830596924
1700931648018275600,4.520275634765625,-0.29620838165283203,0.6258294582366943,0.7598135471343994
1700931648035269600,4.53726953125,-0.18285751342773438,0.6079082489013672,0.7303553223609924
1700931648052262700,4.5542626953125,-0.1572284698486328,0.5512468814849854,0.699583888053894
1700931648069255400,4.57125537109375,-0.1575307846069336,0.5335631370544434,0.6533256769180298
1700931648086248400,4.58824853515625,-0.1655101776123047,0.5246486663818359,0.6397769451141357
1700931648103241200,4.6052412109375,-0.09757232666015625,0.5225794315338135,0.6507489681243896
1700931648120234000,4.62223388671875,-0.07731151580810547,0.5128700733184814,0.6594133377075195
1700931648137226800,4.639226806640625,-0.05423450469970703,0.510460615158081,0.6159273386001587
1700931648154210000,4.6562099609375,-0.0966796875,0.5277092456817627,0.608900785446167
1700931648171212800,4.673212890625,-0.1825094223022461,0.5543880462646484,0.6331908106803894
1700931648188205600,4.69020556640625,-0.25560474395751953,0.5637426376342773,0.6337473392486572
1700931648205198300,4.7071982421875,-0.2763662338256836,0.5702545642852783,0.6772294640541077
1700931648222191400,4.72419140625,-0.2381448745727539,0.5771338939666748,0.7767935395240784
1700931648239184000,4.741183837890625,-0.12522315979003906,0.6185410022735596,0.8145507574081421
1700931648256177000,4.758177001953125,-0.06388187408447266,0.6079699993133545,0.7960519194602966
1700931648273169700,4.775169677734375,-0.034974098205566406,0.5765328407287598,0.7210431098937988
1700931648290163000,4.792162841796875,-0.05507373809814453,0.544137716293335,0.6730535626411438
1700931648307155700,4.80915576171875,-0.08929729461669922,0.5122289657592773,0.7487027645111084
1700931648324148500,4.8261484375,-0.12255382537841797,0.5304317474365234,0.8202818036079407
1700931648341130800,4.843130859375,-0.17549610137939453,0.5575332641601562,0.8277521133422852
1700931648358134000,4.860134033203125,-0.18549346923828125,0.578383207321167,0.7550560235977173
1700931648375127000,4.877126953125,-0.18005943298339844,0.6295051574707031,0.6903964281082153
1700931648392119800,4.894119873046875,-0.17972373962402344,0.6260454654693604,0.7100400328636169
1700931648409112800,4.91111279296875,-0.10154914855957031,0.6533398628234863,0.7635218501091003
1700931648426105300,4.928105224609375,0.009480476379394531,0.6670024394989014,0.8531292080879211
1700931648443088000,4.945087890625,0.03713703155517578,0.6624059677124023,0.915076494216919
1700931648460091100,4.962091064453125,-0.035216331481933594,0.6203329563140869,0.9541722536087036
1700931648477084000,4.979083984375,-0.19246482849121094,0.5709710121154785,0.9471288323402405
1700931648494077200,4.9960771484375,-0.4004850387573242,0.5755202770233154,0.9339040517807007
1700931648511070000,5.013070068359375,-0.5510702133178711,0.5237250328063965,0.8862900137901306
1700931648528052500,5.030052490234375,-0.7282171249389648,0.44892239570617676,0.8362191915512085
1700931648545034800,5.04703466796875,-0.8374919891357422,0.4140615463256836,0.708342432975769
1700931648562051000,5.064051025390625,-0.7988452911376953,0.4247884750366211,0.5037581920623779
1700931648579041300,5.081041259765625,-0.6776809692382812,0.4596102237701416,0.37467584013938904
1700931648596034300,5.098034423828125,-0.5170650482177734,0.46216249465942383,0.4587804675102234
1700931648613027000,5.115027099609375,-0.35826969146728516,0.4685962200164795,0.5798893570899963
1700931648630020000,5.13202001953125,-0.2014789581298828,0.42613673210144043,0.6228129863739014
1700931648647018000,5.14901806640625,-0.12635517120361328,0.3820514678955078,0.5530513525009155
1700931648664005600,5.166005615234375,-0.09586429595947266,0.39545559883117676,0.3679226040840149
1700931648680996900,5.182996826171875,-0.16114139556884766,0.39478015899658203,0.2767190933227539
1700931648697991400,5.199991455078125,-0.24531173706054688,0.4529144763946533,0.29669082164764404
1700931648714981400,5.2169814453125,-0.3062400817871094,0.5051677227020264,0.42618945240974426
1700931648731979800,5.233979736328125,-0.3494377136230469,0.5534768104553223,0.5541428923606873
1700931648748970000,5.250969970703125,-0.2692451477050781,0.5645105838775635,0.5862939953804016
1700931648765963000,5.267962890625,-0.1297922134399414,0.5728178024291992,0.525391697883606
1700931648782955800,5.284955810546875,0.012502670288085938,0.5575516223907471,0.4525168836116791
1700931648799948500,5.301948486328125,0.03917503356933594,0.5140852928161621,0.4703534245491028
1700931648816941300,5.31894140625,-0.02623748779296875,0.4762082099914551,0.48167258501052856
1700931648833934300,5.335934326171875,-0.10956287384033203,0.5049045085906982,0.4719126224517822
1700931648850927400,5.35292724609375,-0.20502281188964844,0.5368397235870361,0.5178285241127014
1700931648867902000,5.36990185546875,-0.1834096908569336,0.5466973781585693,0.5642021298408508
1700931648884917800,5.386917724609375,-0.046952247619628906,0.5348832607269287,0.5699140429496765
1700931648901903600,5.403903564453125,0.1273202896118164,0.5109779834747314,0.5262636542320251
1700931648918898700,5.420898681640625,0.3113899230957031,0.43463659286499023,0.4698478877544403
1700931648935891500,5.437891357421875,0.3705463409423828,0.43219590187072754,0.40067508816719055
1700931648952884200,5.45488427734375,0.3007059097290039,0.43202757835388184,0.4228455722332001
1700931648969877200,5.471877197265625,0.22168922424316406,0.4382758140563965,0.5104892253875732
1700931648986859500,5.488859619140625,0.09320926666259766,0.4223477840423584,0.6305565237998962
1700931649003863000,5.505863037109375,-0.004057884216308594,0.4041712284088135,0.7379102110862732
1700931649020855800,5.522855712890625,-0.07122421264648438,0.4009380340576172,0.7658860683441162
1700931649037848800,5.539848876953125,-0.08455181121826172,0.3907444477081299,0.6661567687988281
1700931649054841600,5.556841552734375,-0.08324813842773438,0.4081885814666748,0.534195601940155
1700931649071834600,5.573834716796875,-0.15421390533447266,0.37443995475769043,0.5097817182540894
1700931649088827400,5.590827392578125,-0.274627685546875,0.3899552822113037,0.5229687690734863
1700931649105820200,5.607820068359375,-0.33350086212158203,0.4188194274902344,0.5584297180175781
1700931649122813000,5.62481298828125,-0.32776451110839844,0.4232757091522217,0.5718740820884705
1700931649139806000,5.641805908203125,-0.23301124572753906,0.3984804153442383,0.5636088848114014
1700931649156798700,5.658798828125,-0.1715679168701172,0.36104774475097656,0.531489372253418
1700931649173791500,5.67579150390625,-0.1510305404663086,0.3338496685028076,0.5242371559143066
1700931649190784300,5.6927841796875,-0.09134769439697266,0.2859036922454834,0.5666630864143372
1700931649207771000,5.70977099609375,0.01636219024658203,0.26892828941345215,0.6093403697013855
1700931649224770000,5.72677001953125,0.07993507385253906,0.25910496711730957,0.6942136883735657
1700931649241744600,5.74374462890625,0.12842655181884766,0.2534198760986328,0.7301003932952881
1700931649258756400,5.76075634765625,0.12437820434570312,0.25754714012145996,0.8121694326400757
1700931649275738000,5.777738037109375,0.035849571228027344,0.25073909759521484,0.8857109546661377
1700931649292741600,5.79474169921875,-0.040381431579589844,0.2667686939239502,0.8962343335151672
1700931649309735000,5.81173486328125,-0.17619991302490234,0.2699413299560547,0.8446919322013855
1700931649326727400,5.8287275390625,-0.26001453399658203,0.3023052215576172,0.7799034118652344
1700931649343717400,5.84571728515625,-0.24587345123291016,0.36748194694519043,0.8062844276428223
1700931649360715500,5.862715576171875,-0.2838459014892578,0.41225528717041016,0.9682408571243286
1700931649377706000,5.8797060546875,-0.3188819885253906,0.45445775985717773,1.0945374965667725
1700931649394696200,5.8966962890625,-0.36544132232666016,0.5120115280151367,1.1188788414001465
1700931649411694300,5.9136943359375,-0.3785400390625,0.5332455635070801,1.1034703254699707
1700931649428684500,5.9306845703125,-0.35433101654052734,0.5334007740020752,1.0594619512557983
1700931649445677300,5.94767724609375,-0.21776580810546875,0.4889850616455078,1.0124468803405762
1700931649462667800,5.964667724609375,-0.09000110626220703,0.4469785690307617,0.9511823654174805
1700931649479665700,5.981665771484375,-0.044124603271484375,0.43103981018066406,0.8999289870262146
1700931649496656000,5.99865576171875,-0.026258468627929688,0.40627360343933105,0.8404456973075867
1700931649513649000,6.01564892578125,-0.010746955871582031,0.44638943672180176,0.7743133306503296
1700931649530642000,6.032641845703125,0.02902507781982422,0.4499068260192871,0.8510140180587769
1700931649547634700,6.049634765625,0.06559181213378906,0.4790968894958496,0.8778733015060425
1700931649564625000,6.066625,-0.03652763366699219,0.4927084445953369,0.817130982875824
1700931649581623000,6.083623046875,-0.2010498046875,0.49985694885253906,0.7127455472946167
1700931649598613000,6.100613037109375,-0.3508167266845703,0.4813385009765625,0.6519189476966858
1700931649615606000,6.11760595703125,-0.4160013198852539,0.4800686836242676,0.6028273105621338
1700931649632598800,6.134598876953125,-0.33393001556396484,0.46073341369628906,0.5967859029769897
1700931649649591800,6.151591796875,-0.10623359680175781,0.43141722679138184,0.5143411755561829
1700931649666567000,6.16856689453125,0.10586071014404297,0.42679262161254883,0.42318329215049744
1700931649683574800,6.18557470703125,0.22374725341796875,0.42569756507873535,0.4415944814682007
1700931649700573000,6.202572998046875,0.17763996124267578,0.3887748718261719,0.515997052192688
1700931649717563100,6.219563232421875,0.0735006332397461,0.39090824127197266,0.605506420135498
1700931649734556000,6.236555908203125,-0.09802913665771484,0.42772960662841797,0.6784303188323975
1700931649751549200,6.253549072265625,-0.23576736450195312,0.4611239433288574,0.7496002316474915
1700931649768542000,6.2705419921875,-0.29109954833984375,0.46952295303344727,0.793590784072876
1700931649785534700,6.28753466796875,-0.21246814727783203,0.49399900436401367,0.7846629023551941
1700931649802534100,6.3045341796875,-0.110748291015625,0.49858975410461426,0.7319942712783813
1700931649819522800,6.321522705078125,-0.15399169921875,0.49620699882507324,0.6897410750389099
1700931649836513300,6.33851318359375,-0.3245115280151367,0.4873921871185303,0.6505204439163208
1700931649853506000,6.355506103515625,-0.4118919372558594,0.49751949310302734,0.5422905087471008
1700931649870496800,6.372496826171875,-0.3990201950073242,0.503664493560791,0.4625065326690674
1700931649887494700,6.38949462890625,-0.3314237594604492,0.4752969741821289,0.4203713536262512
1700931649904484600,6.406484619140625,-0.15192794799804688,0.45212316513061523,0.32264435291290283
1700931649921477600,6.4234775390625,-0.05119037628173828,0.4055049419403076,0.2504122853279114
1700931649938470700,6.440470703125,0.055388450622558594,0.36400485038757324,0.25793740153312683
1700931649955454500,6.457454345703125,0.10583686828613281,0.3582921028137207,0.32208582758903503
1700931649972444400,6.4744443359375,0.08917808532714844,0.36141180992126465,0.3840082287788391
1700931649989449200,6.49144921875,0.021019935607910156,0.3839123249053955,0.4446398615837097
1700931650006442000,6.50844189453125,-0.06471920013427734,0.40323758125305176,0.5434574484825134
1700931650023434800,6.525434814453125,-0.18856334686279297,0.4013075828552246,0.6092560291290283
1700931650040427800,6.542427734375,-0.3057889938354492,0.40221571922302246,0.5873355865478516
1700931650057420500,6.559420654296875,-0.41821956634521484,0.38137269020080566,0.5652561187744141
1700931650074413300,6.576413330078125,-0.45125484466552734,0.3984858989715576,0.5658258199691772
1700931650091406600,6.593406494140625,-0.36593151092529297,0.4038848876953125,0.5756040215492249
1700931650108388600,6.610388671875,-0.22066974639892578,0.3746826648712158,0.5980712175369263
1700931650125392100,6.62739208984375,-0.11201858520507812,0.3503906726837158,0.5755749344825745
1700931650142382300,6.64438232421875,-0.10197257995605469,0.32506442070007324,0.49975326657295227
1700931650159380500,6.66138037109375,-0.1232461929321289,0.2946481704711914,0.49871379137039185
1700931650176370700,6.67837060546875,-0.1617450714111328,0.31195664405822754,0.5294358730316162
1700931650193363500,6.695363525390625,-0.21208858489990234,0.3074159622192383,0.6381220817565918
1700931650210356500,6.7123564453125,-0.29541683197021484,0.3114306926727295,0.7121502161026001
1700931650227349200,6.729349365234375,-0.3755464553833008,0.3177919387817383,0.7102279663085938
1700931650244342000,6.746342041015625,-0.4835929870605469,0.3049039840698242,0.6005020141601562
1700931650261335000,6.7633349609375,-0.5125532150268555,0.29181718826293945,0.44792309403419495
1700931650278327800,6.780327880859375,-0.4509439468383789,0.2764244079589844,0.3295542299747467
1700931650295320600,6.797320556640625,-0.2878236770629883,0.2785015106201172,0.2904204726219177
1700931650312313600,6.814313720703125,-0.03360176086425781,0.3204801082611084,0.3044436275959015
1700931650329297200,6.831297119140625,0.158111572265625,0.3694636821746826,0.41237056255340576
1700931650346300200,6.848300048828125,0.24431514739990234,0.4174234867095947,0.5680824518203735
1700931650363292200,6.865292236328125,0.2171010971069336,0.46649837493896484,0.6584084033966064
1700931650380284000,6.882283935546875,0.10826873779296875,0.4849228858947754,0.7229771614074707
1700931650397279200,6.899279296875,0.01558685302734375,0.49869322776794434,0.819963276386261
1700931650414268200,6.91626806640625,-0.06980037689208984,0.5165979862213135,0.9271019697189331
1700931650431266300,6.933266357421875,-0.1092538833618164,0.5218486785888672,0.9494451880455017
1700931650448256500,6.950256591796875,-0.1678752899169922,0.5021862983703613,0.9230835437774658
1700931650465249500,6.96724951171875,-0.25445556640625,0.48624491691589355,0.8909115195274353
1700931650482242000,6.984241943359375,-0.34496116638183594,0.4612693786621094,0.8889083862304688
1700931650499219200,7.00121923828125,-0.3542299270629883,0.44463276863098145,0.8953367471694946
1700931650516227800,7.018227783203125,-0.27009010314941406,0.416339635848999,0.8382256627082825
1700931650533220900,7.035220947265625,-0.1298351287841797,0.3833627700805664,0.7162033915519714
1700931650550213600,7.052213623046875,-0.07083702087402344,0.33978796005249023,0.5752789974212646
1700931650567195000,7.06919482421875,-0.016954421997070312,0.3280956745147705,0.4673904776573181
1700931650584199400,7.086199462890625,-0.02852916717529297,0.33316636085510254,0.4041982889175415
1700931650601182000,7.103181884765625,-0.054073333740234375,0.3454396724700928,0.432391881942749
1700931650618187500,7.1201875,-0.06345462799072266,0.3851797580718994,0.4639407992362976
1700931650635169000,7.1371689453125,-0.06417083740234375,0.39902758598327637,0.5042105913162231
1700931650652161300,7.154161376953125,-0.04783153533935547,0.3939826488494873,0.4895833730697632
1700931650669155300,7.1711552734375,-0.008402824401855469,0.37872767448425293,0.44422635436058044
1700931650686146300,7.188146240234375,-0.024164199829101562,0.37342071533203125,0.4372534155845642
1700931650703141600,7.2051416015625,-0.07570743560791016,0.3761627674102783,0.487748920917511
1700931650720136000,7.222135986328125,-0.09589195251464844,0.3867948055267334,0.5498108863830566
1700931650737126000,7.2391259765625,-0.0877523422241211,0.3869130611419678,0.5773471593856812
1700931650754118000,7.256117919921875,-0.0839080810546875,0.40712857246398926,0.5252049565315247
1700931650771113700,7.27311376953125,-0.11225223541259766,0.3780810832977295,0.4758753180503845
1700931650788103400,7.290103515625,-0.0861806869506836,0.3937044143676758,0.44369983673095703
1700931650805099300,7.307099365234375,-0.2738676071166992,0.3528435230255127,0.487263560295105
1700931650822088200,7.324088134765625,-0.34578418731689453,0.37215733528137207,0.4405055046081543
1700931650839073800,7.34107373046875,-0.15531063079833984,0.38326311111450195,0.3431515693664551
1700931650856079000,7.3580791015625,0.09375476837158203,0.35753893852233887,0.33163216710090637
1700931650873068300,7.375068359375,0.22191238403320312,0.3279237747192383,0.38050368428230286
1700931650890061800,7.392061767578125,0.14522838592529297,0.31379246711730957,0.4698403477668762
1700931650907054600,7.4090546875,-0.03924369812011719,0.31040191650390625,0.5759670734405518
1700931650924047000,7.426047119140625,-0.16593170166015625,0.3255808353424072,0.6644214987754822
1700931650941042200,7.443042236328125,-0.18776416778564453,0.3486495018005371,0.7251430153846741
1700931650958045000,7.460044921875,-0.16650962829589844,0.37331199645996094,0.760850191116333
1700931650975035400,7.477035400390625,-0.15846824645996094,0.37713193893432617,0.7791232466697693
1700931650992017700,7.494017578125,-0.21616077423095703,0.37607598304748535,0.757020890712738
1700931651009021200,7.511021240234375,-0.28691577911376953,0.3770179748535156,0.6804195642471313
1700931651026013000,7.528012939453125,-0.3405170440673828,0.37277674674987793,0.6031596064567566
1700931651043007700,7.5450078125,-0.3066377639770508,0.35850048065185547,0.5915811061859131
1700931651059999700,7.561999755859375,-0.17531394958496094,0.3640758991241455,0.5909653902053833
1700931651076992800,7.57899267578125,-0.022521018981933594,0.34885120391845703,0.5336164832115173
1700931651093985500,7.595985595703125,0.011987686157226562,0.328763484954834,0.46083077788352966
1700931651110978600,7.612978515625,-0.07379531860351562,0.330869197845459,0.42292284965515137
1700931651127960800,7.6299609375,-0.1157846450805664,0.3571481704711914,0.39919957518577576
1700931651144964000,7.646964111328125,-0.12195205688476562,0.36725330352783203,0.39435863494873047
1700931651161956900,7.663956787109375,-0.055228233337402344,0.32585763931274414,0.4401395916938782
1700931651178949600,7.68094970703125,0.04667186737060547,0.31516313552856445,0.47673940658569336
1700931651195942700,7.697942626953125,0.08773994445800781,0.3185861110687256,0.541238009929657
1700931651212935700,7.714935791015625,0.02898120880126953,0.3358488082885742,0.5584601759910583
1700931651229928700,7.7319287109375,-0.1438121795654297,0.3610382080078125,0.5563039779663086
1700931651246911000,7.748910888671875,-0.30779361724853516,0.38007640838623047,0.5589162111282349
1700931651263911400,7.765911376953125,-0.34108638763427734,0.38083863258361816,0.5392221808433533
1700931651280909800,7.782909912109375,-0.2840700149536133,0.35852646827697754,0.5014216899871826
1700931651297899800,7.799899658203125,-0.18079471588134766,0.3425617218017578,0.4739462733268738
1700931651314892800,7.816892822265625,-0.12510395050048828,0.3267397880554199,0.5030511617660522
1700931651331886000,7.833885986328125,-0.11677742004394531,0.3331124782562256,0.5337262153625488
1700931651348878600,7.850878662109375,-0.18816375732421875,0.3873722553253174,0.5625131726264954
1700931651365871400,7.867871337890625,-0.21892833709716797,0.4278562068939209,0.5322300791740417
1700931651382864100,7.884864013671875,-0.21667957305908203,0.44623541831970215,0.4300847053527832
1700931651399857000,7.90185693359375,-0.2118396759033203,0.4145925045013428,0.3463464379310608
1700931651416850000,7.918849853515625,-0.18133163452148438,0.3700406551361084,0.322251558303833
1700931651433839000,7.935839111328125,-0.09579658508300781,0.29757213592529297,0.33428728580474854
1700931651450839300,7.95283935546875,0.008672714233398438,0.2323918342590332,0.3244858682155609
1700931651467815700,7.969815673828125,0.1854076385498047,0.19400858879089355,0.3353416919708252
1700931651484824000,7.986823974609375,0.2667570114135742,0.16948366165161133,0.40853458642959595
1700931651501814500,8.003814453125,0.22236251831054688,0.2023296356201172,0.5345867276191711
1700931651518807000,8.02080712890625,0.050434112548828125,0.21775007247924805,0.6948087215423584
1700931651535800000,8.037800048828124,-0.1438007354736328,0.26459193229675293,0.8271452784538269
1700931651552792800,8.054792724609374,-0.25415992736816406,0.29500794410705566,0.8462439775466919
1700931651569785900,8.071785888671876,-0.29311370849609375,0.3361213207244873,0.7867550253868103
1700931651586768100,8.08876806640625,-0.23783016204833984,0.3284144401550293,0.6787201166152954
1700931651603769000,8.10576904296875,-0.27367305755615234,0.33508968353271484,0.588176965713501
1700931651620765000,8.122764892578125,-0.3805837631225586,0.3354198932647705,0.5490258932113647
1700931651637759500,8.139759521484375,-0.5021066665649414,0.34330058097839355,0.49491268396377563
1700931651654741200,8.1567412109375,-0.4385089874267578,0.33318042755126953,0.43975794315338135
1700931651671726800,8.173726806640625,-0.2914409637451172,0.3091318607330322,0.4241483211517334
1700931651688736000,8.190736083984374,-0.08787822723388672,0.2921743392944336,0.3913566470146179
1700931651705728800,8.207728759765626,0.11867237091064453,0.290341854095459,0.3777969777584076
1700931651722710300,8.224710205078125,0.1538076400756836,0.2684628963470459,0.39131325483322144
1700931651739717000,8.241717041015624,0.1018514633178711,0.2812678813934326,0.34383633732795715
1700931651756707600,8.25870751953125,-0.01836872100830078,0.28223180770874023,0.3073835074901581
1700931651773700000,8.2757001953125,-0.06823348999023438,0.30498623847961426,0.3121322691440582
1700931651790693000,8.292693115234375,-0.12435340881347656,0.3216371536254883,0.360649049282074
1700931651807686100,8.30968603515625,-0.10407161712646484,0.3545417785644531,0.4250537157058716
1700931651824679000,8.326678955078124,-0.10150814056396484,0.35480284690856934,0.4927133023738861
1700931651841671400,8.34367138671875,-0.08931159973144531,0.3757162094116211,0.5011387467384338
1700931651858664400,8.36066455078125,-0.10402297973632812,0.3776371479034424,0.485116183757782
1700931651875657500,8.377657470703125,-0.0910348892211914,0.3650236129760742,0.45713555812835693
1700931651892650200,8.394650146484375,-0.055665016174316406,0.327761173248291,0.42320531606674194
1700931651909643000,8.41164306640625,-0.03165149688720703,0.3140122890472412,0.40148603916168213
1700931651926625300,8.428625244140624,-0.09684562683105469,0.30817317962646484,0.4165135622024536
1700931651943624400,8.44562451171875,-0.2010507583618164,0.31514811515808105,0.46434682607650757
1700931651960626000,8.4626259765625,-0.3085212707519531,0.3251535892486572,0.5133941173553467
1700931651977604000,8.47960400390625,-0.3315544128417969,0.3277738094329834,0.47790396213531494
1700931651994607600,8.496607666015626,-0.2129354476928711,0.33069610595703125,0.4002566337585449
1700931652011600400,8.513600341796876,-0.006848335266113281,0.3169560432434082,0.33711186051368713
1700931652028593400,8.530593505859375,0.18976211547851562,0.3278927803039551,0.3211105763912201
1700931652045586200,8.547586181640625,0.24615001678466797,0.33266592025756836,0.41021841764450073
1700931652062581800,8.564581787109375,0.23518848419189453,0.3559749126434326,0.4978564381599426
1700931652079569200,8.581569091796876,0.25815486907958984,0.34108710289001465,0.5697191953659058
1700931652096564700,8.598564697265624,0.3071002960205078,0.2774522304534912,0.6155283451080322
1700931652113557500,8.6155576171875,0.2574577331542969,0.22120308876037598,0.5790560245513916
1700931652130547700,8.632547607421875,0.09357833862304688,0.19359779357910156,0.5313295125961304
1700931652147546000,8.649546142578124,-0.1303730010986328,0.24674296379089355,0.4982619881629944
1700931652164536000,8.6665361328125,-0.37363338470458984,0.30691981315612793,0.547508955001831
1700931652181529000,8.683529052734375,-0.5637359619140625,0.33825230598449707,0.5660291910171509
1700931652198521900,8.70052197265625,-0.5661649703979492,0.3612632751464844,0.4876702129840851
1700931652215515000,8.717514892578125,-0.4658470153808594,0.3670222759246826,0.40727630257606506
1700931652232508000,8.7345078125,-0.27381420135498047,0.3638021945953369,0.3652273118495941
1700931652249500700,8.751500732421874,-0.032990455627441406,0.3863673210144043,0.367581844329834
1700931652266489000,8.768489013671875,0.17584800720214844,0.3849983215332031,0.4442998766899109
1700931652283490600,8.785490478515625,0.3565950393676758,0.34092187881469727,0.5876785516738892
1700931652300479000,8.80247900390625,0.5289201736450195,0.32139110565185547,0.5775829553604126
1700931652317465300,8.81946533203125,0.5637016296386719,0.299314022064209,0.49696680903434753
1700931652334467600,8.836467529296876,0.406951904296875,0.28196072578430176,0.48191604018211365
1700931652351457800,8.853457763671875,0.19585227966308594,0.2672302722930908,0.4963226616382599
1700931652368450800,8.870450927734375,0.06015300750732422,0.25501418113708496,0.5392980575561523
1700931652385443600,8.887443603515624,0.034763336181640625,0.154876708984375,0.5987273454666138
1700931652402436400,8.904436279296876,-0.027716636657714844,0.07034635543823242,0.5697915554046631
1700931652419429400,8.921429443359376,-0.17347240447998047,0.0599818229675293,0.4299719035625458
1700931652436422400,8.93842236328125,-0.33852100372314453,0.08670663833618164,0.33335578441619873
1700931652453415000,8.955414794921875,-0.5284595489501953,0.10750865936279297,0.3551650941371918
1700931652470408000,8.972407958984375,-0.6002788543701172,0.14002728462219238,0.373227596282959
1700931652487401000,8.98940087890625,-0.6749181747436523,0.15781140327453613,0.3615480661392212
1700931652504393700,9.006393798828125,-0.7510967254638672,0.1899571418762207,0.3405431807041168
1700931652521376300,9.023376220703126,-0.8078079223632812,0.2827332019805908,0.251102089881897
1700931652538379500,9.040379638671874,-0.7724103927612305,0.3638753890991211,0.15477904677391052
1700931652555372300,9.057372314453126,-0.6624336242675781,0.43198418617248535,0.10029599070549011
1700931652572365000,9.074364990234375,-0.44608306884765625,0.4474012851715088,0.1748664230108261
1700931652589358000,9.091358154296875,-0.2180023193359375,0.4068031311035156,0.2916504740715027
1700931652606350800,9.108350830078125,-0.06778240203857422,0.41881680488586426,0.3072608709335327
1700931652623343600,9.125343505859375,0.02448558807373047,0.4265885353088379,0.30656614899635315
1700931652640336600,9.142336669921875,0.037933349609375,0.4370243549346924,0.3836006224155426
1700931652657329400,9.159329345703124,0.03711414337158203,0.44158005714416504,0.5269028544425964
1700931652674322400,9.176322509765624,0.07923412322998047,0.43876004219055176,0.5782952308654785
1700931652691315200,9.193315185546876,0.15476226806640625,0.40601038932800293,0.5513127446174622
1700931652708297700,9.210297607421875,0.11465644836425781,0.36896252632141113,0.47224724292755127
1700931652725301000,9.227301025390625,0.025133132934570312,0.3171529769897461,0.4307934045791626
1700931652742275000,9.244275146484375,-0.0978240966796875,0.271838903427124,0.43980857729911804
1700931652759276000,9.261276123046875,-0.12444114685058594,0.24626970291137695,0.44199496507644653
1700931652776279800,9.27827978515625,-0.09942054748535156,0.2558262348175049,0.46456754207611084
1700931652793272300,9.295272216796874,-0.009266853332519531,0.2545304298400879,0.5351189374923706
1700931652810265300,9.312265380859374,0.017648696899414062,0.2584502696990967,0.6027995347976685
1700931652827258400,9.32925830078125,-0.062048912048339844,0.26148557662963867,0.5977126359939575
1700931652844248600,9.34624853515625,-0.21486759185791016,0.2375478744506836,0.5288381576538086
1700931652861246500,9.36324658203125,-0.39273929595947266,0.22195887565612793,0.42813926935195923
1700931652878236700,9.380236572265625,-0.4887218475341797,0.22260069847106934,0.3439579904079437
1700931652895229700,9.397229736328125,-0.5256490707397461,0.23927712440490723,0.3262021839618683
1700931652912222500,9.414222412109375,-0.46080684661865234,0.29328465461730957,0.33298975229263306
1700931652929215500,9.431215576171875,-0.38118553161621094,0.34496617317199707,0.3365969657897949
1700931652946208300,9.448208251953124,-0.2654838562011719,0.39824414253234863,0.37730997800827026
1700931652963201000,9.465200927734376,-0.20458602905273438,0.419175386428833,0.3991449773311615
1700931652980194300,9.4821943359375,-0.1627645492553711,0.4065709114074707,0.3481588363647461
1700931652997186000,9.49918603515625,-0.15172386169433594,0.3785693645477295,0.27291685342788696
1700931653014170000,9.516170166015625,-0.16536426544189453,0.35266709327697754,0.2512904703617096
1700931653031173600,9.533173583984375,-0.1318502426147461,0.31682920455932617,0.2653643786907196
1700931653048164600,9.55016455078125,-0.07926654815673828,0.2897982597351074,0.24828441441059113
1700931653065158400,9.567158447265625,0.03588390350341797,0.2967991828918457,0.26081356406211853
1700931653082151200,9.584151123046874,0.1031789779663086,0.3179917335510254,0.33971163630485535
1700931653099131000,9.601130859375,0.09078502655029297,0.332625150680542,0.44154658913612366
1700931653116137000,9.618136962890626,0.00927734375,0.3372020721435547,0.5318009853363037
1700931653133130000,9.6351298828125,-0.11178779602050781,0.3445882797241211,0.5632022619247437
1700931653150109700,9.652109619140624,-0.1694498062133789,0.35895609855651855,0.49680617451667786
1700931653167118300,9.669118408203126,-0.18585777282714844,0.3534424304962158,0.4310424327850342
1700931653184108500,9.686108642578125,-0.09203529357910156,0.35039329528808594,0.4028396010398865
1700931653201098800,9.7030986328125,0.0073833465576171875,0.32924532890319824,0.4422954022884369
1700931653218096600,9.7200966796875,0.11949539184570312,0.306901216506958,0.5388469696044922
1700931653235087000,9.737087158203124,0.16026878356933594,0.2859957218170166,0.600360631942749
1700931653252080000,9.754080078125,0.134124755859375,0.26906394958496094,0.5804088115692139
1700931653269073000,9.771072998046876,0.07375717163085938,0.26262354850769043,0.5377393364906311
1700931653286066000,9.78806591796875,-0.03920745849609375,0.2554199695587158,0.5005537867546082
1700931653303058400,9.805058349609375,-0.13657283782958984,0.2590370178222656,0.450216680765152
1700931653320051500,9.822051513671875,-0.2332744598388672,0.26641273498535156,0.40067070722579956
1700931653337044200,9.839044189453125,-0.2835378646850586,0.24284672737121582,0.4171518087387085
1700931653354037200,9.856037353515624,-0.22825336456298828,0.21120667457580566,0.44976234436035156
1700931653371030300,9.8730302734375,-0.13878822326660156,0.1713855266571045,0.4632091522216797
1700931653388012300,9.89001220703125,-0.03127574920654297,0.12038516998291016,0.40223994851112366
1700931653405015800,9.907015869140626,0.06063556671142578,0.09321331977844238,0.2732175588607788
1700931653422006000,9.924006103515625,0.0810537338256836,0.053867340087890625,0.21939536929130554
1700931653439006500,9.94100634765625,0.03036022186279297,0.04668450355529785,0.24315880239009857
1700931653455992300,9.957992431640625,-0.03708934783935547,0.0613255500793457,0.2798459827899933
1700931653472996400,9.974996337890625,-0.12778759002685547,0.06699395179748535,0.3214937150478363
1700931653489980200,9.991980224609375,-0.17020416259765625,0.0962984561920166,0.32057562470436096
1700931653506962400,10.00896240234375,-0.2107534408569336,0.12397623062133789,0.2963513135910034
1700931653523966000,10.025966064453126,-0.21697521209716797,0.12147855758666992,0.27269431948661804
1700931653540958700,10.042958740234376,-0.22066783905029297,0.12685322761535645,0.31913694739341736
1700931653557951500,10.059951416015625,-0.19539451599121094,0.15502166748046875,0.41010791063308716
1700931653574944300,10.0769443359375,-0.15566062927246094,0.21016144752502441,0.491049587726593
1700931653591937500,10.0939375,-0.16097164154052734,0.2733345031738281,0.5275341868400574
1700931653608930300,10.110930419921875,-0.10959911346435547,0.2936117649078369,0.49209970235824585
1700931653625923000,10.127923095703125,-0.0912923812866211,0.29775285720825195,0.43060484528541565
1700931653642916000,10.144916015625,-0.0625314712524414,0.270658016204834,0.39615797996520996
1700931653659908900,10.161908935546874,-0.03360748291015625,0.24814820289611816,0.3749542832374573
1700931653676901600,10.178901611328126,-0.06801509857177734,0.21505069732666016,0.3904314339160919
1700931653693894400,10.195894287109375,-0.08968162536621094,0.2275700569152832,0.3586021661758423
1700931653710887700,10.2128876953125,-0.05129051208496094,0.23557448387145996,0.2566189765930176
1700931653727861500,10.229861572265625,-0.01856231689453125,0.24082398414611816,0.1739482283592224
1700931653744874000,10.2468740234375,-0.02202320098876953,0.2001497745513916,0.24494096636772156
1700931653761862700,10.263862548828126,-0.06233024597167969,0.17802929878234863,0.37118253111839294
1700931653778861600,10.280861572265625,-0.1112661361694336,0.16447758674621582,0.4894157946109772
1700931653795852000,10.29785205078125,-0.042565345764160156,0.1903212070465088,0.5148055553436279
1700931653812835800,10.3148359375,0.010022163391113281,0.18984603881835938,0.51292884349823
1700931653829836000,10.3318359375,0.03347969055175781,0.2050321102142334,0.4341390132904053
1700931653846838500,10.348838623046875,-0.06785392761230469,0.22032761573791504,0.34110984206199646
1700931653863820800,10.36582080078125,-0.24225616455078125,0.2750976085662842,0.30190882086753845
1700931653880818700,10.382818603515625,-0.3270683288574219,0.32147908210754395,0.33081158995628357
1700931653897809200,10.39980908203125,-0.26396846771240234,0.32785868644714355,0.3443739116191864
1700931653914802000,10.416802001953124,0.008502960205078125,0.299166202545166,0.2594013214111328
1700931653931795000,10.433794921875,0.25311946868896484,0.2676229476928711,0.1677411049604416
1700931653948785700,10.45078564453125,0.38544178009033203,0.2505321502685547,0.15588924288749695
1700931653965778400,10.4677783203125,0.2293548583984375,0.23734712600708008,0.2733791470527649
1700931653982772500,10.4847724609375,0.03466987609863281,0.2168886661529541,0.39569079875946045
1700931653999767300,10.501767333984375,-0.17888450622558594,0.19819855690002441,0.41597798466682434
1700931654016756500,10.518756591796874,-0.2730979919433594,0.18091869354248047,0.3391622006893158
1700931654033754400,10.53575439453125,-0.27037906646728516,0.19179081916809082,0.22936922311782837
1700931654050734600,10.552734619140624,-0.2296915054321289,0.20200037956237793,0.16768822073936462
1700931654067737900,10.56973779296875,-0.2173442840576172,0.23276090621948242,0.16468395292758942
1700931654084727800,10.586727783203125,-0.23352527618408203,0.23800086975097656,0.2325124591588974
1700931654101713700,10.603713623046875,-0.11700820922851562,0.2535691261291504,0.27473074197769165
1700931654118708700,10.620708740234376,0.005902290344238281,0.25043582916259766,0.3166978359222412
1700931654135709200,10.637709228515625,0.11455631256103516,0.2357780933380127,0.3605939447879791
1700931654152694500,10.654694580078125,0.12767696380615234,0.25516557693481445,0.4365043640136719
1700931654169685000,10.67168505859375,0.04591941833496094,0.26515722274780273,0.504119873046875
1700931654186677200,10.68867724609375,-0.027497291564941406,0.2848951816558838,0.4699126183986664
1700931654203670300,10.705670166015626,-0.08161067962646484,0.2797818183898926,0.4309389591217041
1700931654220663800,10.722663818359376,-0.12477588653564453,0.26394081115722656,0.41667309403419495
1700931654237661200,10.7396611328125,-0.17354965209960938,0.2569859027862549,0.3856307566165924
1700931654254649000,10.756649169921875,-0.2097921371459961,0.23068737983703613,0.3482811748981476
1700931654271642000,10.77364208984375,-0.23450183868408203,0.22089099884033203,0.32110732793807983
1700931654288635000,10.790634765625,-0.2337474822998047,0.20095181465148926,0.3276999890804291
1700931654305633000,10.807633056640626,-0.16925430297851562,0.19535112380981445,0.3434472680091858
1700931654322623700,10.824623779296875,-0.07851219177246094,0.16539835929870605,0.3653746247291565
1700931654339619000,10.841619140625,-0.025671958923339844,0.13431262969970703,0.3946445882320404
1700931654356609300,10.858609375,0.005017280578613281,0.1402115821838379,0.4047081172466278
1700931654373599000,10.875598876953125,-0.04320716857910156,0.1445610523223877,0.4248393774032593
1700931654390592500,10.892592529296875,-0.13050460815429688,0.16496753692626953,0.44561928510665894
1700931654407585500,10.90958544921875,-0.19054889678955078,0.1926579475402832,0.4422096908092499
1700931654424579000,10.9265791015625,-0.1840829849243164,0.23522186279296875,0.43329548835754395
1700931654441575200,10.9435751953125,-0.1424274444580078,0.28419065475463867,0.450889527797699
1700931654458576600,10.96057666015625,-0.12590980529785156,0.2813541889190674,0.4957984387874603
1700931654475566800,10.97756689453125,-0.13749980926513672,0.28760290145874023,0.492130309343338
1700931654492559600,10.9945595703125,-0.14507770538330078,0.2939565181732178,0.49972087144851685
1700931654509552600,11.011552734375,-0.09889984130859375,0.29503393173217773,0.4682143032550812
1700931654526545200,11.028545166015626,-0.06683540344238281,0.291501522064209,0.39834821224212646
1700931654543540500,11.04554052734375,-0.11064720153808594,0.26775217056274414,0.35657158493995667
1700931654560529000,11.06252880859375,-0.1763458251953125,0.2537248134613037,0.3547123968601227
1700931654577524000,11.07952392578125,-0.20959186553955078,0.23398947715759277,0.35628417134284973
1700931654594516700,11.096516845703125,-0.18506908416748047,0.2148885726928711,0.2974071800708771
1700931654611509800,11.113509765625,-0.08870601654052734,0.19065308570861816,0.19067709147930145
1700931654628502800,11.130502685546874,0.02707386016845703,0.15696120262145996,0.096200130879879
1700931654645495300,11.147495361328126,0.08131980895996094,0.13527917861938477,0.043854307383298874
1700931654662477300,11.164477294921875,0.0755758285522461,0.1212928295135498,0.08029911667108536
1700931654679471000,11.18147119140625,-0.0034589767456054688,0.13727545738220215,0.17945797741413116
1700931654696473900,11.198473876953125,-0.1334857940673828,0.1779952049255371,0.2597613036632538
1700931654713467100,11.215467041015625,-0.15782928466796875,0.24332404136657715,0.2666633427143097
1700931654730460000,11.2324599609375,-0.0731658935546875,0.2683556079864502,0.25674718618392944
1700931654747453000,11.249452880859375,0.09071159362792969,0.2800002098083496,0.2789860963821411
1700931654764445400,11.266445556640624,0.14409160614013672,0.2800450325012207,0.3829488754272461
1700931654781438500,11.2834384765625,0.07444572448730469,0.3034331798553467,0.4365195035934448
1700931654798431200,11.30043115234375,-0.1338033676147461,0.320864200592041,0.4844611883163452
1700931654815424300,11.31742431640625,-0.2901601791381836,0.3116586208343506,0.48758557438850403
1700931654832417000,11.3344169921875,-0.3241710662841797,0.28887462615966797,0.4601898193359375
1700931654849410000,11.35141015625,-0.24320030212402344,0.23309588432312012,0.3822629153728485
1700931654866398000,11.36839794921875,-0.09296512603759766,0.19193506240844727,0.29991447925567627
1700931654883396000,11.38539599609375,0.05956554412841797,0.17335915565490723,0.31029605865478516
1700931654900388400,11.402388427734374,0.08141136169433594,0.15859699249267578,0.4112534821033478
1700931654917381400,11.41938134765625,0.01691722869873047,0.15758395195007324,0.4833769202232361
1700931654934366700,11.43636669921875,-0.08282661437988281,0.16825151443481445,0.5291166305541992
1700931654951370000,11.453369873046874,-0.16373634338378906,0.2009878158569336,0.46354955434799194
1700931654968360200,11.470360107421875,-0.1679677963256836,0.20234012603759766,0.35381898283958435
1700931654985353000,11.48735302734375,-0.16932964324951172,0.20807409286499023,0.25460073351860046
1700931655002347000,11.504346923828125,-0.16695404052734375,0.20356512069702148,0.1944529414176941
1700931655019337700,11.521337646484374,-0.18181228637695312,0.20821881294250488,0.16722992062568665
1700931655036343300,11.53834326171875,-0.1937084197998047,0.20158886909484863,0.211592897772789
1700931655053313000,11.55531298828125,-0.17840957641601562,0.18747949600219727,0.3019961416721344
1700931655070317300,11.5723173828125,-0.07220077514648438,0.1914210319519043,0.33925846219062805
1700931655087307500,11.5893076171875,0.07055950164794922,0.19887447357177734,0.3179225027561188
1700931655104305700,11.6063056640625,0.11558914184570312,0.2047123908996582,0.25548115372657776
1700931655121295400,11.62329541015625,0.02882862091064453,0.20366573333740234,0.2296699583530426
1700931655138289400,11.640289306640625,-0.1599740982055664,0.20400071144104004,0.22104744613170624
1700931655155271200,11.657271240234374,-0.3408069610595703,0.2146592140197754,0.2304544448852539
1700931655172274700,11.674274658203124,-0.3432931900024414,0.2356879711151123,0.2593834698200226
1700931655189267500,11.691267333984374,-0.17136192321777344,0.23136043548583984,0.3257204294204712
1700931655206260200,11.70826025390625,0.09283447265625,0.20997381210327148,0.3607388436794281
1700931655223242800,11.72524267578125,0.2135448455810547,0.18008995056152344,0.34422528743743896
1700931655240246000,11.74224609375,0.14793014526367188,0.15833401679992676,0.29378169775009155
1700931655257238800,11.75923876953125,-0.036177635192871094,0.13948488235473633,0.22593727707862854
1700931655274231800,11.776231689453125,-0.15589046478271484,0.11909770965576172,0.17538663744926453
1700931655291226400,11.793226318359375,-0.16872692108154297,0.11801767349243164,0.17107680439949036
1700931655308205600,11.81020556640625,-0.07495594024658203,0.1133723258972168,0.20066124200820923
1700931655325210400,11.82721044921875,0.031749725341796875,0.12472128868103027,0.2589426338672638
1700931655342203100,11.844203125,0.04170703887939453,0.14052414894104004,0.3179469704627991
1700931655359196200,11.861196044921876,-0.11220550537109375,0.18001699447631836,0.33474817872047424
1700931655376189000,11.87818896484375,-0.3179025650024414,0.19858098030090332,0.3173202574253082
1700931655393181700,11.895181640625,-0.4197397232055664,0.20309758186340332,0.2503860592842102
1700931655410175000,11.912175048828125,-0.3604154586791992,0.19122862815856934,0.2376960813999176
1700931655427167700,11.929167724609375,-0.12784290313720703,0.19114303588867188,0.23515385389328003
1700931655444160500,11.946160400390625,0.07174110412597656,0.2178971767425537,0.20862814784049988
1700931655461153300,11.9631533203125,0.20668315887451172,0.1820540428161621,0.23637303709983826
1700931655478146000,11.98014599609375,0.25763893127441406,0.16649937629699707,0.2768389880657196
1700931655495139300,11.997139404296876,0.2382526397705078,0.1670362949371338,0.254699170589447
1700931655512137500,12.014137451171875,0.19242477416992188,0.17998790740966797,0.20588260889053345
1700931655529124900,12.031124755859375,0.1120138168334961,0.19812893867492676,0.22640028595924377
1700931655546119200,12.048119140625,0.057216644287109375,0.22731542587280273,0.2932811677455902
1700931655563109400,12.065109375,0.0015354156494140625,0.2420508861541748,0.3819650411605835
1700931655580103400,12.082103515625,-0.05131053924560547,0.2252507209777832,0.43310922384262085
1700931655597096200,12.09909619140625,-0.13311386108398438,0.20186829566955566,0.41347169876098633
1700931655614089200,12.116089111328124,-0.18464088439941406,0.16692709922790527,0.34020790457725525
1700931655631082200,12.133082275390626,-0.1896839141845703,0.14494061470031738,0.2708534598350525
1700931655648065300,12.150065185546875,-0.16201210021972656,0.12491774559020996,0.22704455256462097
1700931655665067800,12.16706787109375,-0.10452556610107422,0.13366031646728516,0.1637355387210846
1700931655682066400,12.18406640625,-0.12235546112060547,0.16021037101745605,0.14025838673114777
1700931655699053600,12.201053466796875,-0.1388683319091797,0.1432356834411621,0.19203433394432068
1700931655716048000,12.2180478515625,-0.12306594848632812,0.1374063491821289,0.2532200813293457
1700931655733038000,12.2350380859375,-0.042713165283203125,0.1260218620300293,0.24424268305301666
1700931655750026500,12.252026611328125,0.07503509521484375,0.12668704986572266,0.18343080580234528
1700931655767026400,12.2690263671875,0.15729141235351562,0.12621569633483887,0.18525780737400055
1700931655784016100,12.28601611328125,0.16330814361572266,0.11223220825195312,0.23171229660511017
1700931655801012700,12.3030126953125,0.06269264221191406,0.13905692100524902,0.2351303994655609
1700931655818003700,12.320003662109375,-0.10975933074951172,0.18288850784301758,0.1987674981355667
1700931655834996700,12.336996826171875,-0.29918575286865234,0.2310466766357422,0.26222047209739685
1700931655851989500,12.353989501953125,-0.3551664352416992,0.24646687507629395,0.3716201186180115
1700931655868982500,12.370982421875,-0.2839784622192383,0.24587297439575195,0.396335244178772
1700931655885975300,12.387975341796874,-0.15565872192382812,0.24381709098815918,0.34204399585723877
1700931655902968000,12.404968017578126,-0.04086589813232422,0.23239755630493164,0.31014764308929443
1700931655919972600,12.42197265625,-0.02653217315673828,0.22632217407226562,0.3099825978279114
1700931655936951300,12.438951416015625,-0.14234352111816406,0.23386263847351074,0.2834709584712982
1700931655953944800,12.45594482421875,-0.3008270263671875,0.21125173568725586,0.22617924213409424
1700931655970944000,12.472944091796874,-0.35468196868896484,0.21483707427978516,0.16976934671401978
1700931655987922200,12.489922119140624,-0.2717914581298828,0.20018315315246582,0.14902102947235107
1700931656004925400,12.506925537109375,-0.014824867248535156,0.20554685592651367,0.09276796132326126
1700931656021915400,12.523915283203126,0.19552326202392578,0.19355416297912598,0.13374927639961243
1700931656038913800,12.540913818359375,0.26790904998779297,0.18113279342651367,0.2632746398448944
1700931656055904000,12.557904052734376,0.21584224700927734,0.15227913856506348,0.3725969195365906
1700931656072896800,12.574896728515625,0.08029937744140625,0.16107702255249023,0.4171757996082306
1700931656089890000,12.59189013671875,0.011616706848144531,0.1654496192932129,0.45548200607299805
1700931656106872000,12.6088720703125,0.0018510818481445312,0.18971681594848633,0.44775885343551636
1700931656123875600,12.62587548828125,-0.013078689575195312,0.17924022674560547,0.4218562841415405
1700931656140868400,12.642868408203125,-0.12431812286376953,0.1769726276397705,0.3812020719051361
1700931656157851600,12.6598515625,-0.29053592681884766,0.16044402122497559,0.3285985589027405
1700931656174854100,12.676854248046874,-0.4685697555541992,0.12840557098388672,0.19859375059604645
1700931656191847200,12.69384716796875,-0.3613605499267578,0.09909629821777344,0.037991732358932495
1700931656208840000,12.71083984375,-0.19776344299316406,0.08404135704040527,-0.0572819858789444
1700931656225832700,12.727832763671875,-0.0978536605834961,0.03029179573059082,-0.011846840381622314
1700931656242825700,12.74482568359375,0.03838157653808594,0.0709991455078125,-0.053845420479774475
1700931656259818500,12.761818603515625,0.10066509246826172,0.04986906051635742,-0.033717311918735504
1700931656276811500,12.7788115234375,0.07956409454345703,0.08296060562133789,0.014714367687702179
1700931656293804300,12.79580419921875,0.02723979949951172,0.09672331809997559,0.0864056944847107
1700931656310788900,12.812788818359374,-0.05447673797607422,0.14342737197875977,0.17944954335689545
1700931656327787800,12.829787841796875,-0.1166372299194336,0.19954657554626465,0.24795225262641907
1700931656344771300,12.846771240234375,-0.15944957733154297,0.23690557479858398,0.2882823348045349
1700931656361777000,12.86377685546875,-0.1527080535888672,0.26149988174438477,0.279645174741745
1700931656378771200,12.880771240234376,-0.1493377685546875,0.2574441432952881,0.248089998960495
1700931656395761700,12.89776171875,-0.19011592864990234,0.20283913612365723,0.2485649585723877
1700931656412754700,12.914754638671875,-0.14028453826904297,0.11765813827514648,0.5473869442939758
1700931656429747700,12.931747802734375,0.7663612365722656,0.44737720489501953,1.8191324472427368
1700931656446736400,12.948736328125,1.2026844024658203,0.9515538215637207,1.2994167804718018
1700931656463730400,12.96573046875,0.5828304290771484,0.6359634399414062,0.7544491291046143
1700931656480728300,12.982728271484374,0.08609962463378906,0.24409794807434082,-0.004576578736305237
1700931656497719000,12.999718994140625,-0.9352483749389648,-0.1683950424194336,-0.3108309507369995
1700931656514711800,13.0167119140625,-1.6118559837341309,-0.45076966285705566,-0.36658257246017456
1700931656531704600,13.03370458984375,-1.5117197036743164,-0.49651098251342773,-0.39678823947906494
1700931656548697600,13.050697509765625,-1.0910487174987793,-0.5212669372558594,-0.42476338148117065
1700931656565690400,13.0676904296875,-0.3978748321533203,-0.38093018531799316,-0.2425382286310196
1700931656582680600,13.0846806640625,0.25920581817626953,-0.014634132385253906,0.07561635971069336
1700931656599678500,13.101678466796875,0.5597209930419922,0.3355674743652344,0.1746407151222229
1700931656616669000,13.1186689453125,0.30875301361083984,0.48254847526550293,0.33850860595703125
1700931656633661700,13.13566162109375,-0.19402790069580078,0.569011926651001,0.33608755469322205
1700931656650655000,13.152655029296875,-0.4710664749145508,0.3849513530731201,0.264708548784256
1700931656667647500,13.1696474609375,-0.5014963150024414,0.22881770133972168,0.24303823709487915
1700931656684640300,13.18664013671875,-0.2564983367919922,0.1526169776916504,0.45898446440696716
1700931656701633300,13.20363330078125,0.36183643341064453,0.23643898963928223,0.5377248525619507
1700931656718626000,13.2206259765625,0.6760854721069336,0.22044658660888672,0.34468716382980347
1700931656735616500,13.237616455078125,0.6534233093261719,0.1272895336151123,0.16285383701324463
1700931656752605700,13.254605712890625,0.21603775024414062,0.15171337127685547,0.051954686641693115
1700931656769586700,13.271586669921875,-0.2171926498413086,0.1369469165802002,0.0997767448425293
1700931656786600700,13.2886005859375,-0.3724508285522461,0.21555709838867188,0.17527955770492554
1700931656803587800,13.305587890625,-0.34304332733154297,0.2850840091705322,0.1921372264623642
1700931656820586000,13.3225859375,-0.29051971435546875,0.31118321418762207,0.15710526704788208
1700931656837576200,13.339576171875,-0.14461708068847656,0.25530529022216797,0.15566322207450867
1700931656854569000,13.35656884765625,-0.14059829711914062,0.18903827667236328,0.2081390619277954
1700931656871561500,13.3735615234375,-0.18504047393798828,0.13769960403442383,0.2608892619609833
1700931656888555300,13.39055517578125,-0.1609039306640625,0.09678959846496582,0.3285377323627472
1700931656905547800,13.4075478515625,-0.1737804412841797,0.11388254165649414,0.3516424596309662
1700931656922542000,13.4245419921875,-0.11742591857910156,0.13978123664855957,0.3091579079627991
1700931656939532300,13.4415322265625,-0.02091503143310547,0.16239142417907715,0.2752848267555237
1700931656956523800,13.458523681640624,0.10026741027832031,0.18257498741149902,0.26362845301628113
1700931656973519600,13.47551953125,0.20438575744628906,0.22624969482421875,0.27484437823295593
1700931656990509600,13.492509521484376,0.12957382202148438,0.25527191162109375,0.2527262568473816
1700931657007507700,13.5095078125,0.05940437316894531,0.18854618072509766,0.24019786715507507
1700931657024510500,13.526510498046875,-0.12519073486328125,0.09608650207519531,0.2056950330734253
1700931657041490700,13.54349072265625,-0.27660179138183594,0.042760372161865234,0.18088051676750183
1700931657058484000,13.56048388671875,-0.2768735885620117,0.06641936302185059,0.23111341893672943
1700931657075476500,13.5774765625,-0.22165870666503906,0.16626763343811035,0.2738742232322693
1700931657092469500,13.594469482421875,-0.03145027160644531,0.222365140914917,0.25465407967567444
1700931657109462500,13.611462646484375,-0.15010929107666016,0.20283985137939453,0.22402343153953552
1700931657126455600,13.62845556640625,-0.3099498748779297,0.1673264503479004,0.1775950789451599
1700931657143448300,13.6454482421875,-0.36950016021728516,0.11232876777648926,0.18205931782722473
1700931657160440800,13.66244091796875,-0.26801013946533203,0.12259531021118164,0.2788659632205963
1700931657177433900,13.679433837890626,0.049920082092285156,0.21406126022338867,0.2375963032245636
1700931657194427000,13.696427001953126,0.2543363571166992,0.2775576114654541,0.19293147325515747
1700931657211419600,13.713419677734375,0.23339271545410156,0.2635533809661865,0.22033676505088806
1700931657228412400,13.730412353515625,0.0903167724609375,0.21613717079162598,0.1780194789171219
1700931657245405200,13.7474052734375,-0.01616382598876953,0.16505169868469238,0.19652605056762695
1700931657262391000,13.76439111328125,-0.0873422622680664,0.15418028831481934,0.2710709571838379
1700931657279387600,13.7813876953125,-0.022008895874023438,0.1692180633544922,0.2741619050502777
1700931657296384000,13.798384033203124,0.1619253158569336,0.16627192497253418,0.23729181289672852
1700931657313376800,13.815376708984376,0.24994468688964844,0.13928771018981934,0.20218130946159363
1700931657330369800,13.832369873046876,0.1479206085205078,0.16942429542541504,0.1863166242837906
1700931657347352300,13.849352294921875,-0.049633026123046875,0.1616225242614746,0.2556678354740143
1700931657364355300,13.866355224609375,-0.16330623626708984,0.2050788402557373,0.3003329932689667
1700931657381348000,13.88334814453125,-0.1391754150390625,0.24383211135864258,0.3136832118034363
1700931657398339800,13.90033984375,-0.0798492431640625,0.20357155799865723,0.25573980808258057
1700931657415334100,13.917334228515625,0.019908905029296875,0.11362028121948242,0.11270633339881897
1700931657432327000,13.934326904296874,0.09768295288085938,0.0288388729095459,0.0330963134765625
1700931657449320000,13.95131982421875,0.03148841857910156,0.054471492767333984,0.10425135493278503
1700931657466312700,13.968312744140626,-0.01691913604736328,0.06984114646911621,0.20492705702781677
1700931657483301600,13.985301513671875,-0.08962345123291016,0.13454818725585938,0.1993236243724823
1700931657500298200,14.00229833984375,-0.1663055419921875,0.15010714530944824,0.24666109681129456
1700931657517291300,14.019291259765625,-0.2795906066894531,0.1425786018371582,0.2190961092710495
1700931657534272300,14.036272216796876,-0.2487478256225586,0.1396329402923584,0.16159364581108093
1700931657551279400,14.053279296875,-0.11376380920410156,0.11226105690002441,0.1922418177127838
1700931657568270000,14.07027001953125,0.03536033630371094,0.1395130157470703,0.19940176606178284
1700931657585264600,14.0872646484375,0.036991119384765625,0.11313509941101074,0.191788911819458
1700931657602241000,14.104240966796874,0.005085945129394531,0.13322854042053223,0.17475998401641846
1700931657619251500,14.12125146484375,-0.017000198364257812,0.14562749862670898,0.19180753827095032
1700931657636241400,14.138241455078125,-0.06640911102294922,0.1504518985748291,0.20924687385559082
1700931657653231000,14.155231201171874,-0.026685714721679688,0.17232894897460938,0.20991377532482147
1700931657670219300,14.17221923828125,0.020958900451660156,0.19222497940063477,0.18110975623130798
1700931657687211500,14.18921142578125,0.11255073547363281,0.13436198234558105,0.24429890513420105
1700931657704204300,14.206204345703124,0.013050079345703125,0.14557433128356934,0.2540462613105774
1700931657721196500,14.223196533203126,-0.0604705810546875,0.10471940040588379,0.2171427309513092
1700931657738192000,14.24019189453125,-0.1984882354736328,0.07164788246154785,0.20158542692661285
1700931657755183600,14.25718359375,-0.2345905303955078,0.0642096996307373,0.19903212785720825
1700931657772174800,14.2741748046875,-0.19692230224609375,0.11947917938232422,0.1825096309185028
1700931657789168400,14.29116845703125,-0.09670066833496094,0.14418458938598633,0.14987489581108093
1700931657806164000,14.3081640625,0.007805824279785156,0.13424015045166016,0.1446952223777771
1700931657823157500,14.325157470703125,0.03782844543457031,0.1043398380279541,0.1888514906167984
1700931657840148000,14.34214794921875,-0.021424293518066406,0.0977487564086914,0.2173020988702774
1700931657857142500,14.359142578125,-0.13547706604003906,0.12057328224182129,0.21860603988170624
1700931657874132700,14.3761328125,-0.28414249420166016,0.10126256942749023,0.22038055956363678
1700931657891124700,14.393124755859375,-0.2592449188232422,0.08693909645080566,0.23254582285881042
1700931657908116500,14.410116455078125,-0.06464672088623047,0.10406327247619629,0.24250531196594238
1700931657925112000,14.427112060546875,0.12883758544921875,0.1182851791381836,0.2220136523246765
1700931657942107400,14.444107421875,0.20406532287597656,0.1351785659790039,0.2418610155582428
1700931657959098600,14.4610986328125,0.12701702117919922,0.12499356269836426,0.23658165335655212
1700931657976098800,14.478098876953124,-0.07347869873046875,0.12280440330505371,0.1895948052406311
1700931657993094700,14.4950947265625,-0.2113027572631836,0.11601424217224121,0.186589315533638
1700931658010084900,14.5120849609375,-0.22838592529296875,0.13094234466552734,0.18335269391536713
1700931658027078000,14.529077880859376,-0.08174419403076172,0.12501788139343262,0.17715604603290558
1700931658044070400,14.5460703125,0.12479972839355469,0.12463998794555664,0.18561901152133942
1700931658061053200,14.56305322265625,0.20890331268310547,0.14477944374084473,0.18200929462909698
1700931658078057500,14.580057373046875,0.06750011444091797,0.13250327110290527,0.16349691152572632
1700931658095050500,14.597050537109375,-0.12491798400878906,0.10406255722045898,0.18670162558555603
1700931658112042800,14.614042724609375,-0.18353652954101562,0.0804746150970459,0.20443840324878693
1700931658129035000,14.631034912109374,-0.10141944885253906,0.12320876121520996,0.18939842283725739
1700931658146016000,14.64801611328125,-0.06838607788085938,0.13497376441955566,0.14902731776237488
1700931658163020800,14.665020751953126,-0.025704383850097656,0.11687946319580078,0.14759881794452667
1700931658180013600,14.682013671875,0.02430248260498047,0.0990447998046875,0.15478108823299408
1700931658197006300,14.69900634765625,0.01717090606689453,0.10964393615722656,0.1329716145992279
1700931658213999400,14.715999267578125,-0.02018451690673828,0.1200096607208252,0.15908896923065186
1700931658230992400,14.732992431640625,-0.0625762939453125,0.10410523414611816,0.16638515889644623
1700931658247974700,14.749974609375,-0.07360267639160156,0.09506964683532715,0.16981948912143707
1700931658264960000,14.7669599609375,-0.12462806701660156,0.09833478927612305,0.18952976167201996
1700931658281970700,14.783970703125,-0.08920097351074219,0.09513235092163086,0.16652129590511322
1700931658298963700,14.800963623046876,-0.03847026824951172,0.11584186553955078,0.18915751576423645
1700931658315956500,14.81795654296875,0.0016431808471679688,0.14639568328857422,0.20726905763149261
1700931658332950000,14.834949951171875,0.009878158569335938,0.1677384376525879,0.19961309432983398
1700931658349942500,14.851942626953125,-0.0017576217651367188,0.13811302185058594,0.11993812769651413
1700931658366920400,14.86892041015625,-0.08737564086914062,0.09563302993774414,0.104808509349823
1700931658383930000,14.88593017578125,-0.09378337860107422,0.08735203742980957,0.08406713604927063
1700931658400923400,14.90292333984375,-0.07954120635986328,0.09113383293151855,0.12453716993331909
1700931658417913900,14.919913818359374,-0.056830406188964844,0.11467647552490234,0.15019360184669495
1700931658434907000,14.936906982421876,-0.00376129150390625,0.14033865928649902,0.18033811450004578
1700931658451895600,14.9538955078125,0.04140663146972656,0.11913108825683594,0.24583473801612854
1700931658468896500,14.970896484375,0.10438728332519531,0.12354493141174316,0.23823168873786926
1700931658485882600,14.987882568359375,0.14367961883544922,0.11165142059326172,0.2480754852294922
1700931658502880800,15.004880859375,0.06471633911132812,0.08334493637084961,0.2129363715648651
1700931658519871200,15.021871337890625,-0.004528045654296875,0.05383014678955078,0.1907934844493866
1700931658536864000,15.038864013671875,-0.06398487091064453,0.055227041244506836,0.20890145003795624
1700931658553856800,15.055856689453124,-0.09437084197998047,0.05750131607055664,0.2133145034313202
1700931658570837000,15.0728369140625,-0.11725521087646484,0.09190225601196289,0.21583665907382965
1700931658587854600,15.0898544921875,-0.18027877807617188,0.12293100357055664,0.1721567064523697
1700931658604835600,15.106835693359375,-0.14920330047607422,0.134857177734375,0.13443216681480408
1700931658621828400,15.123828369140625,-0.08576107025146484,0.08981442451477051,0.14273715019226074
1700931658638821600,15.140821533203125,0.019256591796875,0.03840756416320801,0.1779364049434662
1700931658655814100,15.157814208984375,0.06540203094482422,0.03703570365905762,0.2015458047389984
1700931658672807200,15.17480712890625,0.09316730499267578,0.05605316162109375,0.19841134548187256
1700931658689800000,15.191800048828124,0.048485755920410156,0.09965205192565918,0.1915024220943451
1700931658706794500,15.20879443359375,-0.05970954895019531,0.13187837600708008,0.19813409447669983
1700931658723784200,15.2257841796875,-0.11787128448486328,0.13130879402160645,0.18244189023971558
1700931658740777200,15.242777099609375,-0.03861522674560547,0.1178438663482666,0.2065240740776062
1700931658757775400,15.259775390625,0.039073944091796875,0.11970639228820801,0.21560442447662354
1700931658774761700,15.27676171875,-0.03647899627685547,0.11874580383300781,0.1755160540342331
1700931658791760000,15.293759765625,-0.12656688690185547,0.11078476905822754,0.15954498946666718
1700931658808739600,15.310739501953124,-0.16094017028808594,0.12125611305236816,0.17926758527755737
1700931658825734700,15.327734619140625,-0.12709808349609375,0.1270458698272705,0.16990962624549866
1700931658842733300,15.3447333984375,-0.06610298156738281,0.11446428298950195,0.1590622067451477
1700931658859731200,15.361731201171875,-0.04586982727050781,0.12099075317382812,0.1676461398601532
1700931658876721400,15.378721435546876,-0.06608390808105469,0.10960507392883301,0.18468371033668518
1700931658893714400,15.39571435546875,-0.08120918273925781,0.12431097030639648,0.15736113488674164
1700931658910707700,15.412707763671875,-0.050263404846191406,0.1300678253173828,0.1615690439939499
1700931658927700500,15.429700439453125,-0.015156745910644531,0.12756061553955078,0.13737373054027557
1700931658944693200,15.446693359375,0.018117904663085938,0.11807775497436523,0.12518446147441864
1700931658961686000,15.46368603515625,-0.06343650817871094,0.11686229705810547,0.12478379905223846
1700931658978678800,15.4806787109375,-0.08099174499511719,0.0923147201538086,0.10019572079181671
1700931658995671800,15.497671875,-0.08266067504882812,0.10371780395507812,0.10619471967220306
1700931659012664600,15.51466455078125,-0.0760660171508789,0.1332545280456543,0.10537295043468475
1700931659029657300,15.5316572265625,-0.05380725860595703,0.18499374389648438,0.10909435153007507
1700931659046662000,15.548661865234376,0.0058841705322265625,0.20486116409301758,0.1093302071094513
1700931659063646500,15.565646484375,0.031432151794433594,0.18680691719055176,0.13870905339717865
1700931659080633000,15.582633056640624,0.03559684753417969,0.16951680183410645,0.20033061504364014
1700931659097629000,15.59962890625,0.0001544952392578125,0.13851642608642578,0.19667644798755646
1700931659114622000,15.6166220703125,-0.07684612274169922,0.11284255981445312,0.1822323501110077
1700931659131615000,15.633614990234374,-0.11722946166992188,0.09543180465698242,0.15587997436523438
1700931659148605200,15.650605224609375,-0.13065719604492188,0.1041724681854248,0.1314166784286499
1700931659165603000,15.66760302734375,-0.11928749084472656,0.13801288604736328,0.10838071256875992
1700931659182592800,15.6845927734375,0.06676006317138672,0.11098003387451172,0.11569562554359436
1700931659199587000,15.701587158203125,0.1156463623046875,0.09509658813476562,0.1636640429496765
1700931659216568800,15.71856884765625,0.04078865051269531,0.11680293083190918,0.13894023001194
1700931659233572000,15.735572021484375,0.003238677978515625,0.0768580436706543,0.11927708983421326
1700931659250557200,15.75255712890625,-0.04546546936035156,0.0745851993560791,0.16455624997615814
1700931659267558000,15.769557861328124,-0.05233001708984375,0.12099957466125488,0.15822239220142365
1700931659284550700,15.786550537109376,-0.0897054672241211,0.14391875267028809,0.14460694789886475
1700931659301543700,15.803543701171876,-0.12609291076660156,0.1518707275390625,0.1776394248008728
1700931659318536400,15.820536376953125,-0.016786575317382812,0.15444207191467285,0.1826246976852417
1700931659335529500,15.837529541015625,0.09670829772949219,0.15073561668395996,0.18700259923934937
1700931659352522200,15.854522216796875,0.18868732452392578,0.11284041404724121,0.11453481018543243
1700931659369515300,15.871515380859375,0.06904411315917969,0.07695770263671875,0.0013632774353027344
1700931659386505500,15.88850537109375,-0.20738601684570312,0.05227971076965332,0.02288275957107544
1700931659403503400,15.90550341796875,-0.5140228271484375,0.07498693466186523,0.07211856544017792
1700931659420483000,15.922483154296875,-0.5799798965454102,0.08648681640625,0.13263684511184692
1700931659437486800,15.93948681640625,-0.38527584075927734,0.09617352485656738,0.21098552644252777
1700931659454479400,15.956479248046875,0.020714759826660156,0.15742278099060059,0.30916255712509155
1700931659471472400,15.973472412109375,0.3234100341796875,0.21570444107055664,0.2629754841327667
1700931659488465400,15.99046533203125,0.26893043518066406,0.14653229713439941,0.14718151092529297
1700931659505458200,16.007458251953125,-0.1330709457397461,0.07130551338195801,0.05963733792304993
1700931659522448600,16.02444873046875,-0.32349300384521484,0.04629778861999512,0.054533153772354126
1700931659539453200,16.041453125,-0.2802133560180664,0.1056511402130127,0.1682015061378479
1700931659556431000,16.05843115234375,-0.22759437561035156,0.16956043243408203,0.1909196972846985
1700931659573427000,16.075427001953123,-0.18813800811767578,0.13550782203674316,0.24499231576919556
1700931659590425000,16.092425048828126,-0.06535816192626953,0.1232600212097168,0.23987239599227905
1700931659607407000,16.109406982421874,-0.02947235107421875,0.08079385757446289,0.0499611496925354
1700931659624408600,16.12640869140625,0.040836334228515625,0.00403904914855957,0.16141998767852783
1700931659641401000,16.143401123046875,-0.021691322326660156,0.039862871170043945,0.2487938404083252
1700931659658394000,16.16039404296875,0.01946544647216797,0.08914017677307129,0.25876903533935547
1700931659675387000,16.177386962890626,0.10283279418945312,0.18086457252502441,0.3801375925540924
1700931659692380000,16.1943798828125,0.13504600524902344,0.24983620643615723,0.4319140613079071
1700931659709373000,16.211373046875,0.10445308685302734,0.24276113510131836,0.40451255440711975
1700931659726365000,16.228364990234375,0.1912078857421875,0.16200518608093262,0.32725197076797485
1700931659743358500,16.2453583984375,0.22434616088867188,0.04345560073852539,0.06890147924423218
1700931659760351200,16.262351318359375,0.10230159759521484,-0.04151344299316406,-0.057798177003860474
1700931659777344300,16.27934423828125,-0.09918880462646484,-0.10205769538879395,-0.025852009654045105
1700931659794337000,16.2963369140625,-0.2996549606323242,-0.038651466369628906,-0.007588207721710205
1700931659811330300,16.313330322265625,-0.5253286361694336,-0.013061761856079102,0.019602075219154358
1700931659828322800,16.33032275390625,-0.4758291244506836,-0.006865262985229492,0.009714581072330475
1700931659845315800,16.34731591796875,-0.2541017532348633,0.023821592330932617,0.04915493726730347
1700931659862308600,16.36430859375,-0.05546855926513672,0.0652003288269043,0.13088418543338776
1700931659879301400,16.38130126953125,0.20032501220703125,0.14462900161743164,0.1669015884399414
1700931659896294400,16.39829443359375,0.18610286712646484,0.1773242950439453,0.18293991684913635
1700931659913287700,16.41528759765625,0.035221099853515625,0.1143503189086914,0.13794684410095215
1700931659930280400,16.432280517578125,0.0039033889770507812,0.0813758373260498,0.1378786861896515
1700931659947260400,16.449260498046876,0.08791255950927734,0.07102608680725098,0.2059670388698578
1700931659964265700,16.466265625,0.1771707534790039,0.0771644115447998,0.19798509776592255
1700931659981258800,16.4832587890625,0.09991931915283203,0.045258283615112305,0.16041231155395508
1700931659998254000,16.500254150390624,-0.012574195861816406,0.04489254951477051,0.1795503795146942
1700931660015242000,16.517241943359377,-0.06835269927978516,0.031453847885131836,0.17271241545677185
1700931660032237600,16.534237548828123,-0.11981678009033203,0.0320591926574707,0.0895388275384903
1700931660049230300,16.551230224609377,-0.1087331771850586,0.019774675369262695,0.07071302086114883
1700931660066223400,16.568223388671875,-0.14067649841308594,0.024343013763427734,0.1515270620584488
1700931660083216100,16.585216064453125,-0.10797500610351562,0.05137777328491211,0.1914921998977661
1700931660100209000,16.602208984375,0.018068313598632812,0.06965231895446777,0.16721993684768677
1700931660117201700,16.61920166015625,0.10950469970703125,0.09964370727539062,0.13326455652713776
1700931660134194700,16.636194580078126,0.03178596496582031,0.08539175987243652,0.11876247078180313
1700931660151187700,16.653187744140624,-0.17150306701660156,0.02992391586303711,0.11300214380025864
1700931660168183300,16.670183349609374,-0.33688831329345703,0.004694938659667969,0.10757698863744736
1700931660185170700,16.687170654296875,-0.40308666229248047,0.019205808639526367,0.1408734768629074
1700931660202166300,16.704166259765625,-0.3567962646484375,0.02072882652282715,0.16156414151191711
1700931660219159000,16.721158935546875,-0.12355518341064453,0.03535723686218262,0.18343207240104675
1700931660236141300,16.738141357421874,0.07943534851074219,0.03905940055847168,0.10907511413097382
1700931660253144800,16.755144775390626,0.0835256576538086,0.06789565086364746,0.0807420089840889
1700931660270137900,16.772137939453124,-0.06047534942626953,0.11589288711547852,0.08642379194498062
1700931660287130600,16.789130615234374,-0.17774200439453125,0.15150070190429688,0.10533259809017181
1700931660304123400,16.806123291015624,-0.22069549560546875,0.16737627983093262,0.1449064314365387
1700931660321116400,16.823116455078125,-0.2154684066772461,0.14263510704040527,0.21813234686851501
1700931660338109200,16.840109130859375,-0.09299755096435547,0.14826536178588867,0.1743706911802292
1700931660355102000,16.85710205078125,-0.0015649795532226562,0.15151715278625488,0.10547007620334625
1700931660372085500,16.87408544921875,0.019247055053710938,0.16193437576293945,0.08071830868721008
1700931660389085400,16.89108544921875,-0.02653789520263672,0.14687728881835938,0.09640353918075562
1700931660406083300,16.908083251953126,-0.08573341369628906,0.14962244033813477,0.0963648334145546
1700931660423073500,16.925073486328124,-0.04881000518798828,0.16566824913024902,0.08933249115943909
1700931660440066600,16.942066650390625,-0.05110931396484375,0.18639206886291504,0.11121717095375061
1700931660457059300,16.959059326171875,0.028474807739257812,0.1612873077392578,0.0747288316488266
1700931660474052600,16.976052490234373,0.23464107513427734,0.1701045036315918,0.043769750744104385
1700931660491045000,16.993045166015627,0.1338653564453125,0.16679835319519043,0.11602742969989777
1700931660508028000,17.01002783203125,-0.2315082550048828,0.18609881401062012,0.13877752423286438
1700931660525031400,17.027031494140626,-0.4544839859008789,0.21956443786621094,0.102071613073349
1700931660542023700,17.044023681640624,-0.4613456726074219,0.2562580108642578,0.12671548128128052
1700931660559016700,17.0610166015625,-0.3497161865234375,0.28320860862731934,0.13739654421806335
1700931660576007000,17.0780068359375,-0.15013504028320312,0.23960328102111816,0.17303256690502167
1700931660593005000,17.095005126953126,0.08112907409667969,0.1473217010498047,0.15714246034622192
1700931660609995500,17.11199560546875,0.2368021011352539,0.06815266609191895,0.12087462097406387
1700931660626978000,17.12897802734375,0.4206676483154297,0.0030057430267333984,0.09536619484424591
1700931660643981000,17.14598095703125,0.4569864273071289,-0.0102996826171875,0.10043542832136154
1700931660660974000,17.16297412109375,0.36267757415771484,-0.025681018829345703,0.03982851654291153
1700931660677966800,17.179966796875,0.22644329071044922,-0.007685661315917969,0.04959515854716301
1700931660694959600,17.196959716796876,-0.0103912353515625,0.00654292106628418,0.005411053076386452
1700931660711952600,17.21395263671875,-0.1119070053100586,0.003763437271118164,0.05287609621882439
1700931660728945700,17.230945556640624,-0.11102104187011719,0.053994178771972656,0.11996211111545563
1700931660745938400,17.2479384765625,-0.011871337890625,0.05768918991088867,0.2521006762981415
1700931660762931200,17.26493115234375,0.009449958801269531,0.07960700988769531,0.278011679649353
1700931660779924200,17.28192431640625,-0.03510093688964844,0.07854676246643066,0.25248780846595764
1700931660796914000,17.298913818359374,-0.1361856460571289,0.08355164527893066,0.21693071722984314
1700931660813901800,17.31590185546875,-0.215301513671875,0.10101056098937988,0.2335907220840454
1700931660830903000,17.332903076171874,-0.12298297882080078,0.05986142158508301,0.23545046150684357
1700931660847906000,17.349906005859374,-0.07738304138183594,0.07360959053039551,0.1652316004037857
1700931660864888800,17.366888916015625,0.0020341873168945312,0.1035301685333252,0.10874864459037781
1700931660881881300,17.38388134765625,-0.02353382110595703,0.15460968017578125,0.12625806033611298
1700931660898874400,17.400874267578125,0.03187847137451172,0.18361449241638184,0.14480209350585938
1700931660915867100,17.4178671875,0.04403495788574219,0.1736757755279541,0.11051636934280396
1700931660932860200,17.434860107421876,0.09254837036132812,0.10995292663574219,0.09709276258945465
1700931660949837300,17.45183740234375,0.12148380279541016,0.031209468841552734,0.13617506623268127
1700931660966837200,17.468837158203126,0.11899185180664062,-0.002084493637084961,0.16627344489097595
1700931660983838700,17.485838623046874,0.14043807983398438,0.019297122955322266,0.22800758481025696
1700931661000834300,17.502834228515624,0.17818450927734375,0.05009937286376953,0.21265524625778198
1700931661017812700,17.519812744140626,0.13106060028076172,0.0873866081237793,0.14704175293445587
1700931661034817300,17.5368173828125,0.0322265625,0.08327054977416992,0.11075484752655029
1700931661051821000,17.553821044921875,-0.03889751434326172,0.049311161041259766,0.09262760728597641
1700931661068803300,17.57080322265625,-0.12170791625976562,0.05007791519165039,0.093412846326828
1700931661085793800,17.587793701171876,-0.1264505386352539,0.03711247444152832,0.09902182221412659
1700931661102778400,17.6047783203125,-0.10558700561523438,0.04687762260437012,0.12398506700992584
1700931661119774200,17.621774169921874,-0.05743122100830078,0.058829545974731445,0.12819857895374298
1700931661136774700,17.638774658203126,0.034844398498535156,0.03539466857910156,0.14660683274269104
1700931661153756400,17.65575634765625,0.04872894287109375,0.0596158504486084,0.09728264808654785
1700931661170750500,17.67275048828125,0.03336143493652344,0.01737046241760254,0.08819150179624557
1700931661187744000,17.689743896484377,-0.012793540954589844,0.024628877639770508,0.07168801873922348
1700931661204739600,17.706739501953123,-0.06338882446289062,0.021140575408935547,0.08212439715862274
1700931661221729300,17.723729248046876,-0.09150028228759766,0.02212381362915039,0.12741121649742126
1700931661238724400,17.740724365234374,-0.07541751861572266,0.0019683837890625,0.1518731713294983
1700931661255716900,17.757716796875,-0.016292572021484375,-0.009729623794555664,0.0887066051363945
1700931661272710100,17.774710205078126,0.053450584411621094,-0.016267061233520508,0.020924337208271027
1700931661289698800,17.79169873046875,0.00016498565673828125,-0.009042739868164062,0.01195777952671051
1700931661306693000,17.808693115234377,-0.09028339385986328,0.0017879009246826172,0.06307913362979889
1700931661323686000,17.825685791015626,-0.22188186645507812,0.0351717472076416,0.08572307974100113
1700931661340683500,17.84268359375,-0.27530384063720703,0.04796600341796875,0.10689501464366913
1700931661357673200,17.859673095703126,-0.2480030059814453,0.08062553405761719,0.10145951807498932
1700931661374670000,17.876670166015625,-0.19301319122314453,0.06895589828491211,0.0760960802435875
1700931661391661300,17.893661376953126,-0.14888954162597656,0.052330732345581055,0.050715021789073944
1700931661408650200,17.910650146484375,0.013354301452636719,0.01536870002746582,0.10930821299552917
1700931661425644000,17.92764404296875,0.1572113037109375,0.028269529342651367,0.18705269694328308
1700931661442637000,17.944636962890623,0.12457847595214844,0.04496312141418457,0.1713397204875946
1700931661459630600,17.961630615234377,0.08286190032958984,0.08535170555114746,0.05436176061630249
1700931661476628500,17.97862841796875,-0.039768218994140625,0.07345294952392578,-0.009317122399806976
1700931661493625000,17.995625,-0.14603042602539062,0.05346274375915527,-0.027105659246444702
1700931661510618000,18.0126181640625,-0.18542194366455078,0.061514854431152344,-0.04396859556436539
1700931661527608300,18.0296083984375,-0.07210254669189453,0.0805361270904541,-0.009391941130161285
1700931661544606700,18.046606689453125,0.09147930145263672,0.08112812042236328,0.03823801875114441
1700931661561596700,18.0635966796875,0.11714744567871094,0.10652875900268555,0.06974285840988159
1700931661578587400,18.08058740234375,-0.004239082336425781,0.0964517593383789,0.15689854323863983
1700931661595584800,18.097584716796874,-0.11956787109375,0.11086225509643555,0.1874692589044571
1700931661612575200,18.1145751953125,-0.10383796691894531,0.05965018272399902,0.09135310351848602
1700931661629568500,18.131568603515625,-0.030992507934570312,0.015542984008789062,0.0731087177991867
1700931661646561300,18.148561279296874,0.07412242889404297,0.014259099960327148,0.13359643518924713
1700931661663554300,18.16555419921875,0.2654075622558594,0.05812406539916992,0.1740298718214035
1700931661680546600,18.182546630859374,0.2682056427001953,0.01250147819519043,0.06398700177669525
1700931661697539300,18.199539306640624,0.14983654022216797,0.019767284393310547,-0.013763129711151123
1700931661714533400,18.216533447265626,-0.04073905944824219,0.05456066131591797,-0.051447123289108276
1700931661731515100,18.23351513671875,-0.1342630386352539,0.04918861389160156,0.05586037039756775
1700931661748514800,18.250514892578124,-0.19838237762451172,0.07460331916809082,0.11686637997627258
1700931661765515000,18.267514892578124,-0.27089691162109375,0.08217835426330566,0.11069163680076599
1700931661782499800,18.284499755859375,-0.3546409606933594,0.0813608169555664,0.1566772311925888
1700931661799501800,18.301501708984375,-0.09072017669677734,0.04533720016479492,0.2448151707649231
1700931661816479000,18.31847900390625,0.22926616668701172,0.04118514060974121,0.25787287950515747
1700931661833483000,18.33548291015625,0.2769298553466797,0.11189889907836914,0.1314171403646469
1700931661850476000,18.35247607421875,0.16359615325927734,0.0538783073425293,0.0628930926322937
1700931661867468800,18.36946875,0.028324127197265625,0.058226585388183594,0.06412434577941895
1700931661884461600,18.386461669921875,-0.16432476043701172,0.030604124069213867,0.0941895842552185
1700931661901454600,18.40345458984375,-0.25116443634033203,0.022786378860473633,0.11810600757598877
1700931661918447000,18.420447021484375,-0.05336761474609375,0.06128740310668945,0.20439714193344116
1700931661935435800,18.437435791015623,0.15415287017822266,0.09430766105651855,0.22553277015686035
1700931661952437500,18.4544375,0.22468852996826172,0.11814332008361816,0.12098157405853271
1700931661969426200,18.47142626953125,0.11787128448486328,0.0849311351776123,0.10807141661643982
1700931661986419000,18.4884189453125,-0.11249065399169922,0.08295655250549316,0.11565831303596497
1700931662003412000,18.505411865234375,-0.27199268341064453,0.05238223075866699,0.06688898801803589
1700931662020404500,18.522404541015625,-0.31498241424560547,0.0510411262512207,0.060766905546188354
1700931662037397500,18.5393974609375,-0.3125600814819336,0.04775500297546387,0.13468539714813232
1700931662054387000,18.556386962890624,-0.26613426208496094,0.04015302658081055,0.20205345749855042
1700931662071383600,18.573383544921874,-0.1952829360961914,0.06615114212036133,0.15196558833122253
1700931662088376300,18.590376220703124,-0.07471847534179688,0.05817580223083496,0.1087348461151123
1700931662105369300,18.607369384765626,0.10516834259033203,0.08287692070007324,0.11255571246147156
1700931662122359300,18.624359375,0.19684791564941406,0.09704327583312988,0.06553137302398682
1700931662139366400,18.641366455078124,0.1944284439086914,0.09888195991516113,0.0689958930015564
1700931662156345600,18.658345703125,0.17330360412597656,0.09962081909179688,0.07966959476470947
1700931662173352200,18.675352294921876,0.14291763305664062,0.11159229278564453,0.06623876094818115
1700931662190333700,18.692333740234375,-0.031043052673339844,0.13530826568603516,0.06708487868309021
1700931662207318500,18.709318603515626,-0.2714366912841797,0.11979317665100098,0.021515071392059326
1700931662224319200,18.7263193359375,-0.29361915588378906,0.05395221710205078,-0.018607258796691895
1700931662241308400,18.743308349609375,-0.1603841781616211,0.08799362182617188,0.07244822382926941
1700931662258305000,18.760304931640626,-0.0033159255981445312,0.06648612022399902,0.1449480950832367
1700931662275297800,18.7772978515625,0.009214401245117188,0.049772024154663086,0.10598024725914001
1700931662292291300,18.794291259765625,-0.14415931701660156,0.04535102844238281,0.11634364724159241
1700931662309283800,18.811283935546875,-0.2758045196533203,0.045737504959106445,0.15141966938972473
1700931662326276600,18.828276611328125,-0.22675132751464844,0.024073123931884766,0.1662915050983429
1700931662343278300,18.8452783203125,-0.026871681213378906,0.027245044708251953,0.20786672830581665
1700931662360262100,18.86226220703125,0.15299510955810547,0.0666508674621582,0.2432330846786499
1700931662377249300,18.879249267578125,0.14466381072998047,0.0937049388885498,0.23612359166145325
1700931662394244600,18.89624462890625,-0.004456520080566406,0.06867289543151855,0.14642953872680664
1700931662411241200,18.9132412109375,-0.15672588348388672,0.014862537384033203,0.05111607909202576
1700931662428231400,18.9302314453125,-0.2609901428222656,-0.014846563339233398,0.035945385694503784
1700931662445229300,18.947229248046874,-0.17523860931396484,0.017155170440673828,0.09668055176734924
1700931662462219500,18.964219482421875,-0.049706459045410156,0.07629942893981934,0.12100949883460999
1700931662479212500,18.981212646484376,0.024583816528320312,0.08445525169372559,0.11071965098381042
1700931662496205600,18.99820556640625,-0.018802642822265625,0.06755256652832031,0.04635310173034668
1700931662513198300,19.0151982421875,-0.06887435913085938,0.04767608642578125,0.04548841714859009
1700931662530188500,19.0321884765625,-0.06685733795166016,0.032282114028930664,0.07953420281410217
1700931662547184400,19.049184326171876,-0.013914108276367188,0.04207491874694824,0.10050877928733826
1700931662564179500,19.066179443359374,0.033211708068847656,0.06421923637390137,0.1403079330921173
1700931662581167000,19.0831669921875,0.04968070983886719,0.10425424575805664,0.1335228681564331
1700931662598165200,19.100165283203125,-0.007518768310546875,0.1148979663848877,0.1352749466896057
1700931662615155700,19.11715576171875,-0.013607978820800781,0.10192012786865234,0.1561409831047058
1700931662632148500,19.1341484375,0.0032415390014648438,0.10419487953186035,0.15773817896842957
1700931662649141500,19.1511416015625,0.006354331970214844,0.07175946235656738,0.1680353581905365
1700931662666134300,19.16813427734375,-0.0024671554565429688,0.08310317993164062,0.18003898859024048
1700931662683125800,19.185125732421874,-0.1260824203491211,0.10767030715942383,0.1686285138130188
1700931662700107300,19.202107177734376,-0.1496572494506836,0.10786986351013184,0.20198354125022888
1700931662717103000,19.21910302734375,-0.0837860107421875,0.1373608112335205,0.1539633721113205
1700931662734104800,19.236104736328127,0.057831764221191406,0.09640288352966309,0.14695677161216736
1700931662751101400,19.253101318359374,0.15350341796875,0.08188748359680176,0.13229858875274658
1700931662768093200,19.27009326171875,0.1630868911743164,0.10473036766052246,0.13065700232982635
1700931662785084700,19.287084716796876,0.1250629425048828,0.0878758430480957,0.13023127615451813
1700931662802077200,19.3040771484375,0.07675838470458984,0.08959650993347168,0.13739503920078278
1700931662819071000,19.321071044921876,-0.07706356048583984,0.11652040481567383,0.12004777789115906
1700931662836061200,19.338061279296873,0.025440216064453125,0.12161898612976074,0.09372414648532867
1700931662853058000,19.35505810546875,0.14435195922851562,0.15355730056762695,0.09815345704555511
1700931662870049500,19.372049560546873,0.11248207092285156,0.09281659126281738,0.10277068614959717
1700931662887041800,19.389041748046875,0.15232372283935547,0.04336071014404297,0.11233534663915634
1700931662904032300,19.4060322265625,0.3219633102416992,0.025969505310058594,0.06852129846811295
1700931662921025800,19.42302587890625,0.5196647644042969,0.05443930625915527,0.05097615718841553
1700931662938024700,19.440024658203125,0.5264387130737305,0.06618452072143555,0.1431344449520111
1700931662955013000,19.45701318359375,0.3039121627807617,-0.0011899471282958984,0.22972595691680908
1700931662972006400,19.47400634765625,-0.02403545379638672,-0.11566424369812012,0.2448979616165161
1700931662988999200,19.490999267578125,-0.3699913024902344,-0.1857006549835205,0.1263599991798401
1700931663005992200,19.5079921875,-0.4651813507080078,-0.1806962490081787,-0.01788954809308052
1700931663022984700,19.524984619140625,-0.3948659896850586,-0.06194353103637695,-0.038386281579732895
1700931663039977700,19.541977783203127,-0.0279388427734375,0.02931499481201172,0.039073362946510315
1700931663056969000,19.558968994140624,-0.10526847839355469,0.04447293281555176,0.06697254627943039
1700931663073965300,19.57596533203125,-0.255706787109375,0.05611443519592285,0.009223580360412598
1700931663090953500,19.592953369140623,-0.2950439453125,-0.012744665145874023,-0.0194777250289917
1700931663107938800,19.609938720703123,-0.4705524444580078,-0.11278676986694336,-0.06977479159832001
1700931663124942000,19.626942138671875,-0.7165870666503906,-0.13690423965454102,-0.11461929976940155
1700931663141934800,19.643934814453125,-0.6902503967285156,-0.0053255558013916016,-0.1169777438044548
1700931663158928100,19.66092822265625,-0.4125967025756836,0.15174627304077148,-0.046856626868247986
1700931663175921000,19.6779208984375,-0.10195064544677734,0.22316861152648926,0.042500682175159454
1700931663192913700,19.69491357421875,0.17727375030517578,0.25167012214660645,0.10524280369281769
1700931663209906700,19.71190673828125,0.30678462982177734,0.20339179039001465,0.13757827877998352
1700931663226889200,19.72888916015625,0.18179893493652344,0.09190082550048828,0.13655656576156616
1700931663243892700,19.745892822265624,0.03924083709716797,0.08452749252319336,0.11308364570140839
1700931663260874800,19.762874755859375,-0.02832508087158203,0.0986475944519043,0.10244150459766388
1700931663277878300,19.779878173828124,0.040210723876953125,0.09433126449584961,0.10468744486570358
1700931663294873900,19.796873779296874,-0.00860595703125,0.10680866241455078,0.00693436898291111
1700931663311861200,19.813861328125,-0.095062255859375,0.05927586555480957,0.032567307353019714
1700931663328857000,19.830857177734377,-0.03182220458984375,0.037877798080444336,0.1325191855430603
1700931663345847600,19.84784765625,0.13820457458496094,0.05376839637756348,0.1845090091228485
1700931663362842400,19.86484228515625,0.2029399871826172,0.06730866432189941,0.12491606920957565
1700931663379827500,19.881827392578124,0.16072750091552734,0.04977154731750488,0.10993221402168274
1700931663396828400,19.898828369140624,-0.045874595642089844,0.013234615325927734,0.10634560883045197
1700931663413821200,19.9158212890625,-0.1547107696533203,-0.0010199546813964844,0.13061530888080597
1700931663430814200,19.932814208984375,-0.1322612762451172,-0.022706031799316406,0.15290313959121704
1700931663447805200,19.94980517578125,-0.06980133056640625,-0.014475822448730469,0.10366383194923401
1700931663464800000,19.966800048828127,0.11077594757080078,-0.01310110092163086,0.12810897827148438
1700931663481792800,19.983792724609376,0.30145931243896484,0.017695903778076172,0.14283575117588043
1700931663498785800,20.000785888671874,0.2382650375366211,0.04178929328918457,0.09803669154644012
1700931663515778800,20.01777880859375,0.023603439331054688,0.03073596954345703,0.08668525516986847
1700931663532771800,20.034771728515626,-0.21799850463867188,0.02952432632446289,0.0974113717675209
1700931663549753000,20.051753173828125,-0.3003988265991211,0.09209656715393066,0.08824018388986588
1700931663566753000,20.0687529296875,-0.29257678985595703,0.09811973571777344,0.0867142379283905
1700931663583747600,20.08574755859375,-0.17285728454589844,0.09975647926330566,0.0680697038769722
1700931663600745500,20.102745361328125,0.06523799896240234,0.08347558975219727,0.06197038292884827
1700931663617736000,20.11973583984375,0.25147247314453125,0.07931160926818848,0.08641021698713303
1700931663634728700,20.136728759765624,0.372589111328125,0.08658719062805176,0.10323666781187057
1700931663651722000,20.153721923828126,0.21587753295898438,0.06876564025878906,0.1187995970249176
1700931663668714500,20.170714599609376,-0.05255413055419922,0.06375384330749512,0.08478153496980667
1700931663685707800,20.187707763671874,-0.21378803253173828,0.053821563720703125,0.1375066637992859
1700931663702697700,20.20469775390625,-0.2504568099975586,0.04478263854980469,0.1631144881248474
1700931663719688700,20.221688720703124,-0.16361427307128906,0.06562566757202148,0.12399844825267792
1700931663736689000,20.23868896484375,-0.018904685974121094,0.04275178909301758,0.12915106117725372
1700931663753676300,20.25567626953125,0.01717853546142578,0.029798030853271484,0.1150592565536499
1700931663770662400,20.272662353515624,-0.05904197692871094,0.0305936336517334,0.09119957685470581
1700931663787665000,20.289664794921876,-0.1028289794921875,0.03594470024108887,0.09143070876598358
1700931663804657700,20.30665771484375,-0.17284297943115234,0.0424957275390625,0.07213525474071503
1700931663821650400,20.323650390625,-0.2103586196899414,0.035781145095825195,0.03741465508937836
1700931663838643500,20.3406435546875,-0.12873554229736328,0.0061147212982177734,-0.015819191932678223
1700931663855636700,20.35763671875,0.12888813018798828,0.010977029800415039,-0.06162700057029724
1700931663872629200,20.374629150390625,0.1741647720336914,0.05775928497314453,-0.0056753009557724
1700931663889622300,20.391622314453127,0.08500194549560547,0.07630276679992676,0.049867093563079834
1700931663906604500,20.4086044921875,-0.03422069549560547,0.07622957229614258,0.10027948021888733
1700931663923607600,20.425607666015626,-0.047928810119628906,0.061316728591918945,0.1239786446094513
1700931663940600300,20.442600341796876,0.0033044815063476562,0.028009891510009766,0.12413924187421799
1700931663957593600,20.459593505859374,0.08732318878173828,0.004523038864135742,0.1137082427740097
1700931663974587400,20.47658740234375,0.18533897399902344,0.0032529830932617188,0.07788781821727753
1700931663991579600,20.49357958984375,0.1709575653076172,-0.014652013778686523,0.06649000942707062
1700931664008572400,20.510572509765623,0.0887765884399414,0.017554759979248047,0.07201920449733734
1700931664025565200,20.527565185546877,0.038272857666015625,0.022958755493164062,0.04573877155780792
1700931664042558000,20.544557861328126,-0.03913593292236328,0.006539821624755859,0.0326467826962471
1700931664059551200,20.56155126953125,-0.10369205474853516,0.0018579959869384766,-0.00279858335852623
1700931664076543700,20.578543701171874,-0.09244060516357422,-0.008546113967895508,0.05253986269235611
1700931664093536800,20.595536865234376,-0.06750297546386719,0.026151180267333984,0.05473649874329567
1700931664110529800,20.61252978515625,-0.048836708068847656,0.06050395965576172,0.05500464513897896
1700931664127522800,20.629522705078124,-0.07471942901611328,0.054927825927734375,0.09250783175230026
1700931664144515300,20.646515380859373,-0.061821937561035156,0.031211376190185547,0.09701503813266754
1700931664161500700,20.663500732421873,-0.0032749176025390625,0.0032258033752441406,0.07952095568180084
1700931664178501000,20.680501220703125,0.06605815887451172,0.015325546264648438,0.08156953752040863
1700931664195494100,20.697494140625,0.11763858795166016,0.020006179809570312,0.10349544137716293
1700931664212487000,20.71448681640625,0.08363914489746094,0.018280029296875,0.09528523683547974
1700931664229480000,20.73147998046875,-0.027029991149902344,0.01792168617248535,0.07659053802490234
1700931664246473200,20.74847314453125,-0.12953948974609375,0.025936603546142578,0.06318333745002747
1700931664263466000,20.765466064453125,-0.16292858123779297,-0.0004725456237792969,0.09523673355579376
1700931664280458500,20.78245849609375,-0.07820415496826172,0.0007052421569824219,0.1297796219587326
1700931664297451500,20.799451416015625,0.06305885314941406,0.02001476287841797,0.10223057866096497
1700931664314444300,20.8164443359375,0.16063594818115234,0.035859107971191406,0.053580403327941895
1700931664331437300,20.833437255859376,0.09251213073730469,0.02726912498474121,-0.009486693888902664
1700931664348430300,20.850430419921874,-0.03801918029785156,0.02174997329711914,-0.0006643272936344147
1700931664365423000,20.867423095703124,-0.13199996948242188,0.03642916679382324,0.05858081579208374
1700931664382415000,20.8844150390625,-0.14160823822021484,0.05313730239868164,0.09733562171459198
1700931664399399000,20.90139892578125,-0.0698099136352539,0.0398406982421875,0.0991627648472786
1700931664416401700,20.918401611328125,-0.009258270263671875,0.005800485610961914,0.07311364263296127
1700931664433394700,20.935394775390623,0.0675516128540039,-0.03703594207763672,0.049076326191425323
1700931664450387500,20.952387451171877,0.07827091217041016,-0.02201700210571289,0.019688550382852554
1700931664467380500,20.96938037109375,-0.027924537658691406,0.003306150436401367,0.02622251585125923
1700931664484373200,20.986373291015624,-0.1365823745727539,0.07788634300231934,0.04641592502593994
1700931664501356500,21.0033564453125,-0.1386127471923828,0.0895071029663086,0.09895886480808258
1700931664518361600,21.020361572265625,-0.048328399658203125,0.08428478240966797,0.11098991334438324
1700931664535351800,21.037351806640626,0.08546638488769531,0.07901430130004883,0.1175108402967453
1700931664552345000,21.054344970703124,0.19562435150146484,0.060863494873046875,0.07780946791172028
1700931664569337900,21.071337890625,0.22889232635498047,0.041541337966918945,0.06934709846973419
1700931664586320100,21.088320068359376,0.16310501098632812,0.037264347076416016,0.07672172784805298
1700931664603310800,21.105310791015626,0.02263641357421875,0.04999971389770508,0.07323294878005981
1700931664620312300,21.122312255859374,-0.05312538146972656,0.03196120262145996,0.09258097410202026
