time,seconds_elapsed,z,y,x
1701886191085329400,0.116329345703125,-0.3424091339111328,-0.1699991226196289,-0.10715484619140625
1701886191102318300,0.133318359375,-0.5606517791748047,-0.07966470718383789,-0.19742882251739502
1701886191119316000,0.15031591796875,-1.0065693855285645,-0.09990644454956055,-0.36817556619644165
1701886191136307200,0.16730712890625,-1.2559261322021484,-0.12734699249267578,-0.43591469526290894
1701886191153284600,0.18428466796875,-1.2961516380310059,-0.22247791290283203,-0.7506821155548096
1701886191170289200,0.2012890625,-1.1589436531066895,-0.4693608283996582,-0.6233968734741211
1701886191187296300,0.218296142578125,-1.1179304122924805,-0.5822052955627441,-0.4119908809661865
1701886191204280800,0.23528076171875,-1.5383243560791016,-0.617978572845459,-0.49936091899871826
1701886191221269500,0.25226953125,-2.4377918243408203,-0.9640994071960449,-0.6220961809158325
1701886191238255400,0.26925537109375,-3.019538402557373,-1.2543091773986816,-0.9444252252578735
1701886191255258400,0.28625830078125,-3.0315937995910645,-1.6452898979187012,-1.0411012172698975
1701886191272250000,0.30325,-2.4358530044555664,-2.029806137084961,-1.2610628604888916
1701886191289235200,0.320235107421875,-2.009936809539795,-2.0110838413238525,-1.503450632095337
1701886191306234600,0.337234619140625,-2.301295280456543,-2.201875686645508,-1.6060471534729004
1701886191323228700,0.354228759765625,-2.9311039447784424,-2.607611894607544,-1.4668238162994385
1701886191340225300,0.371225341796875,-3.3688929080963135,-2.8758602142333984,-1.61008620262146
1701886191357215700,0.3882158203125,-3.43031907081604,-3.2668261528015137,-1.3733243942260742
1701886191374208000,0.4052080078125,-2.53346586227417,-3.1288859844207764,-1.3454537391662598
1701886191391199700,0.42219970703125,-1.516200065612793,-2.7170140743255615,-1.158487319946289
1701886191408185000,0.43918505859375,-0.8329484462738037,-2.6727912425994873,-0.41591787338256836
1701886191425180000,0.456179931640625,-0.4428367614746094,-2.60498046875,0.7165837287902832
1701886191442179000,0.473178955078125,-0.3618032932281494,-2.5240516662597656,1.2063274383544922
1701886191459174700,0.490174560546875,0.027134418487548828,-2.3847079277038574,1.0058622360229492
1701886191476169500,0.50716943359375,0.3383338451385498,-2.128091812133789,0.5107135772705078
1701886191493158400,0.524158447265625,0.10907697677612305,-1.543468952178955,0.7969951629638672
1701886191510154800,0.54115478515625,-1.0105897188186646,-1.2453218698501587,1.516561508178711
1701886191527146800,0.558146728515625,-1.3489930629730225,-1.1069905757904053,2.158238410949707
1701886191544141300,0.575141357421875,-0.7326037883758545,-1.0917754173278809,2.3469505310058594
1701886191561130000,0.5921298828125,0.3853769302368164,-1.0997589826583862,2.173288345336914
1701886191578116400,0.609116455078125,1.1964638233184814,-0.9788771867752075,1.635965347290039
1701886191595113700,0.62611376953125,1.430428147315979,-0.8949998021125793,1.4438915252685547
1701886191612107000,0.64310693359375,1.47490656375885,-0.8772587776184082,1.7322311401367188
1701886191629107500,0.660107421875,1.2924777269363403,-0.8114465475082397,1.9593582153320312
1701886191646107100,0.677107177734375,0.907731294631958,-0.620801568031311,1.9925098419189453
1701886191663086300,0.69408642578125,0.21773028373718262,-0.3730011582374573,1.9478120803833008
1701886191680087600,0.711087646484375,-0.2907547652721405,-0.36664092540740967,1.897043228149414
1701886191697077200,0.7280771484375,-0.3158838748931885,-0.3125598430633545,1.630422592163086
1701886191714071800,0.74507177734375,-0.06472155451774597,-0.4877173900604248,1.6229639053344727
1701886191731060700,0.762060791015625,0.2967003285884857,-0.5319209098815918,1.9370861053466797
1701886191748056300,0.779056396484375,0.6387487649917603,-0.29111218452453613,2.2323970794677734
1701886191765051000,0.79605078125,0.6472126841545105,-0.08249092102050781,2.4252471923828125
1701886191782039800,0.813039794921875,0.42565208673477173,0.1250286102294922,2.4503297805786133
1701886191799035400,0.830035400390625,0.19769741594791412,0.27152252197265625,2.384868621826172
1701886191816033300,0.847033203125,-0.005111128091812134,0.30206847190856934,2.5232295989990234
1701886191833019100,0.86401904296875,-0.04637041687965393,0.3918490409851074,2.5225534439086914
1701886191850015200,0.88101513671875,-0.37089475989341736,0.35027194023132324,2.723033905029297
1701886191866993000,0.897992919921875,-0.5069444179534912,0.6109254360198975,2.703716278076172
1701886191883996400,0.914996337890625,-0.5345422029495239,0.9466691017150879,2.40911865234375
1701886191900993800,0.931993896484375,-0.6749807596206665,0.9405651092529297,2.1344308853149414
1701886191917986800,0.94898681640625,-0.7562386989593506,0.7732739448547363,1.9140825271606445
1701886191934981000,0.965981201171875,-0.7428645491600037,0.6672773361206055,1.6287155151367188
1701886191951970600,0.982970458984375,-0.6020106673240662,0.636073112487793,1.3833332061767578
1701886191968966100,0.999966064453125,-0.5218148827552795,0.6582803726196289,1.3651952743530273
1701886191985960400,1.01696044921875,-0.26763731241226196,0.7924399375915527,1.4018669128417969
1701886192002949600,1.03394970703125,-0.13466200232505798,0.8582053184509277,1.4247846603393555
1701886192019945500,1.050945556640625,-0.17397654056549072,0.8678803443908691,1.2604179382324219
1701886192036938000,1.06793798828125,-0.20042559504508972,0.8843235969543457,0.9621715545654297
1701886192053932800,1.084932861328125,-0.24888813495635986,0.9078302383422852,0.7509336471557617
1701886192070920700,1.101920654296875,-0.28970709443092346,0.8597049713134766,0.593745231628418
1701886192087917800,1.118917724609375,-0.5010013580322266,0.6829304695129395,0.7012453079223633
1701886192104911600,1.13591162109375,-0.5236497521400452,0.7012119293212891,0.6038942337036133
1701886192121893400,1.152893310546875,-0.6338019967079163,0.6855506896972656,0.38570213317871094
1701886192138894300,1.169894287109375,-0.7342220544815063,0.5737400054931641,0.23130035400390625
1701886192155892700,1.186892822265625,-0.7402795553207397,0.4904189109802246,0.12781333923339844
1701886192172872700,1.203872802734375,-0.6556095480918884,0.3615536689758301,0.21670150756835938
1701886192189878000,1.2208779296875,-0.5234891176223755,0.2777566909790039,0.4302959442138672
1701886192206867000,1.237866943359375,-0.41226038336753845,0.24088096618652344,0.5905990600585938
1701886192223863000,1.254863037109375,-0.3135416507720947,0.2200908660888672,0.6605291366577148
1701886192240852000,1.27185205078125,-0.22376281023025513,0.18347692489624023,0.589299201965332
1701886192257857300,1.288857177734375,-0.19467946887016296,0.058567047119140625,0.4826469421386719
1701886192274840600,1.305840576171875,-0.16860485076904297,-0.09756994247436523,0.2853679656982422
1701886192291832600,1.32283251953125,-0.19956305623054504,-0.23371601104736328,0.08673095703125
1701886192308826400,1.339826416015625,-0.16241708397865295,-0.3138303756713867,-0.10338020324707031
1701886192325817000,1.356817138671875,-0.10823026299476624,-0.3627181053161621,-0.23417282104492188
1701886192342812200,1.373812255859375,-0.0007986724376678467,-0.352510929107666,-0.21054840087890625
1701886192359816000,1.39081591796875,-0.121407151222229,-0.39173316955566406,-0.17836856842041016
1701886192376789800,1.407789794921875,-0.3443623185157776,-0.487851619720459,-0.32276439666748047
1701886192393789400,1.42478955078125,-0.5904818177223206,-0.5640702247619629,-0.5408115386962891
1701886192410784000,1.441783935546875,-0.668824315071106,-0.5800914764404297,-0.8276515007019043
1701886192427777500,1.458777587890625,-0.5762360095977783,-0.662726879119873,-0.939483642578125
1701886192444775700,1.475775634765625,-0.33053839206695557,-0.6722507476806641,-0.9048447608947754
1701886192461761300,1.49276123046875,-0.11879630386829376,-0.6630425453186035,-0.7110104560852051
1701886192478758700,1.509758544921875,-0.012629404664039612,-0.644991397857666,-0.6051759719848633
1701886192495751200,1.526751220703125,-0.03882491588592529,-0.5537705421447754,-0.6526980400085449
1701886192512742000,1.543741943359375,-0.15513896942138672,-0.49625205993652344,-0.6416282653808594
1701886192529734400,1.560734375,-0.34915268421173096,-0.4840226173400879,-0.5787992477416992
1701886192546731500,1.5777314453125,-0.5306082963943481,-0.4924478530883789,-0.5420379638671875
1701886192563723800,1.594723876953125,-0.6696542501449585,-0.4867253303527832,-0.4995861053466797
1701886192580713000,1.611712890625,-0.5214435458183289,-0.3903646469116211,-0.3940000534057617
1701886192597709300,1.628709228515625,-0.2660125494003296,-0.3324117660522461,-0.1526927947998047
1701886192614703000,1.645703125,-0.07799317687749863,-0.2620358467102051,0.03540229797363281
1701886192631692000,1.662692138671875,-0.08105036616325378,-0.21047067642211914,0.04049205780029297
1701886192648687400,1.679687255859375,-0.2495179921388626,-0.2000584602355957,0.012102127075195312
1701886192665682200,1.69668212890625,-0.3488807678222656,-0.13829469680786133,-0.045998573303222656
1701886192682670800,1.7136708984375,-0.4136278033256531,-0.09663677215576172,-0.06658554077148438
1701886192699658200,1.730658203125,-0.40303993225097656,-0.07259941101074219,-0.06806182861328125
1701886192716658200,1.747658203125,-0.3530697822570801,-0.050960540771484375,-0.07863807678222656
1701886192733656300,1.76465625,-0.22711336612701416,0.03323698043823242,-0.026418685913085938
1701886192750643200,1.781643310546875,-0.1501421183347702,0.08228302001953125,0.05839061737060547
1701886192767638500,1.798638427734375,-0.1628551185131073,0.11406517028808594,0.07575702667236328
1701886192784630000,1.815630126953125,-0.3059336543083191,0.10957717895507812,-0.01791095733642578
1701886192801622300,1.832622314453125,-0.39674195647239685,0.09155559539794922,-0.0883474349975586
1701886192818617900,1.849617919921875,-0.3480524718761444,0.12805891036987305,0.0053844451904296875
1701886192835612400,1.8666123046875,-0.2568529546260834,0.1729574203491211,0.13101863861083984
1701886192852601600,1.8836015625,-0.2105650156736374,0.19487571716308594,0.1350555419921875
1701886192869587500,1.90058740234375,-0.18190054595470428,0.18487262725830078,0.1369791030883789
1701886192886590000,1.91758984375,-0.10418093204498291,0.1742687225341797,0.13856029510498047
1701886192903581400,1.93458154296875,-0.016688309609889984,0.15893983840942383,0.1781177520751953
1701886192920572200,1.951572265625,-0.0199878066778183,0.13495111465454102,0.21671485900878906
1701886192937569800,1.96856982421875,-0.10435070097446442,0.11777830123901367,0.2061014175415039
1701886192954566400,1.98556640625,-0.15828795731067657,0.08760547637939453,0.1791372299194336
1701886192971552500,2.002552490234375,-0.21582478284835815,0.05342388153076172,0.11609840393066406
1701886192988544000,2.0195439453125,-0.23541447520256042,0.017423152923583984,0.02740478515625
1701886193005543000,2.03654296875,-0.24271099269390106,-0.0342402458190918,-0.056884765625
1701886193022532000,2.053531982421875,-0.22786405682563782,-0.07113456726074219,-0.0739145278930664
1701886193039528200,2.070528076171875,-0.1845412701368332,-0.13143587112426758,-0.12027168273925781
1701886193056520700,2.087520751953125,-0.12226413935422897,-0.17095088958740234,-0.14139747619628906
1701886193073505500,2.104505615234375,-0.06365087628364563,-0.1876072883605957,-0.10808467864990234
1701886193090502100,2.121502197265625,-0.09759567677974701,-0.16617870330810547,-0.10649681091308594
1701886193107499300,2.138499267578125,-0.2547907829284668,-0.14462900161743164,-0.14285945892333984
1701886193124489000,2.155489013671875,-0.3713016211986542,-0.11047554016113281,-0.16072750091552734
1701886193141478700,2.172478759765625,-0.45401903986930847,-0.14913320541381836,-0.11815643310546875
1701886193158469600,2.1894697265625,-0.44159719347953796,-0.17436933517456055,-0.062076568603515625
1701886193175476000,2.20647607421875,-0.38722142577171326,-0.20769977569580078,-0.1179046630859375
1701886193192460500,2.22346044921875,-0.36080679297447205,-0.277925968170166,-0.26477813720703125
1701886193209461500,2.24046142578125,-0.2422986626625061,-0.3042445182800293,-0.34720706939697266
1701886193226451200,2.257451171875,-0.11757807433605194,-0.28856754302978516,-0.3449411392211914
1701886193243442400,2.2744423828125,-0.07360947132110596,-0.23024702072143555,-0.3543376922607422
1701886193260437800,2.291437744140625,-0.1290479153394699,-0.2084803581237793,-0.2903327941894531
1701886193277429800,2.3084296875,-0.2359924018383026,-0.17551755905151367,-0.22901344299316406
1701886193294421500,2.32542138671875,-0.28909894824028015,-0.1761474609375,-0.1204824447631836
1701886193311413800,2.342413818359375,-0.329770028591156,-0.1582350730895996,-0.08500003814697266
1701886193328409000,2.3594091796875,-0.31467169523239136,-0.14167451858520508,-0.11248302459716797
1701886193345403600,2.376403564453125,-0.3130982220172882,-0.12383842468261719,-0.16318321228027344
1701886193362392600,2.393392578125,-0.22970451414585114,-0.11251115798950195,-0.1508808135986328
1701886193379379200,2.410379150390625,-0.1561375856399536,-0.11435937881469727,-0.11843204498291016
1701886193396381200,2.427381103515625,-0.0871446281671524,-0.09187507629394531,-0.08574390411376953
1701886193413370400,2.444370361328125,-0.09783703833818436,-0.12292718887329102,0.004471778869628906
1701886193430370600,2.46137060546875,-0.09065641462802887,-0.051980018615722656,-0.002269744873046875
1701886193447360500,2.478360595703125,-0.1962127834558487,-0.05043363571166992,-0.03874683380126953
1701886193464351700,2.495351806640625,-0.1687890887260437,-0.03819704055786133,-0.022882461547851562
1701886193481346300,2.51234619140625,-0.10928675532341003,-0.02034139633178711,-0.026620864868164062
1701886193498340400,2.52934033203125,-0.05704227462410927,-0.0360112190246582,-0.015680313110351562
1701886193515334100,2.546334228515625,0.004170659463852644,-0.03673887252807617,-0.0038080215454101562
1701886193532323000,2.563322998046875,0.0025586171541363,-0.03231191635131836,0.04177284240722656
1701886193549319700,2.580319580078125,-0.043164487928152084,0.004046440124511719,0.04818439483642578
1701886193566313000,2.59731298828125,-0.15464116632938385,0.004647254943847656,0.04049205780029297
1701886193583302000,2.614302001953125,-0.22225241363048553,0.014087200164794922,0.03622722625732422
1701886193600298500,2.631298583984375,-0.24483634531497955,0.0025644302368164062,0.06895828247070312
1701886193617291300,2.648291259765625,-0.22034090757369995,-0.018944263458251953,0.05231952667236328
1701886193634285300,2.665285400390625,-0.17894594371318817,-0.02729177474975586,0.00722503662109375
1701886193651274500,2.6822744140625,-0.16302639245986938,-0.044381141662597656,-0.032608985900878906
1701886193668269800,2.699269775390625,-0.10975605994462967,-0.008059978485107422,-0.058587074279785156
1701886193685264400,2.716264404296875,-0.14937086403369904,-0.021039962768554688,-0.046158790588378906
1701886193702253600,2.733253662109375,-0.17024384438991547,-0.04154396057128906,0.013512611389160156
1701886193719250200,2.750250244140625,-0.21323485672473907,-0.030527114868164062,0.01849365234375
1701886193736242400,2.767242431640625,-0.21312052011489868,-0.0634164810180664,-0.02005481719970703
1701886193753233000,2.78423291015625,-0.20664158463478088,-0.0850973129272461,-0.09116840362548828
1701886193770220000,2.801219970703125,-0.17819730937480927,-0.10801982879638672,-0.15105152130126953
1701886193787220700,2.818220703125,-0.15652382373809814,-0.10462045669555664,-0.16140174865722656
1701886193804212700,2.835212646484375,-0.13969962298870087,-0.07046270370483398,-0.11377525329589844
1701886193821205200,2.852205322265625,-0.1598355621099472,-0.031517982482910156,-0.045472145080566406
1701886193838201300,2.869201416015625,-0.22627027332782745,-0.04733419418334961,0.04557037353515625
1701886193855195100,2.886195068359375,-0.2960692048072815,-0.08967161178588867,0.04808235168457031
1701886193872184000,2.90318408203125,-0.33853840827941895,-0.10951995849609375,-0.04053211212158203
1701886193889179400,2.920179443359375,-0.3233506381511688,-0.14185190200805664,-0.08622455596923828
1701886193906174200,2.93717431640625,-0.22983749210834503,-0.10329771041870117,-0.13007736206054688
1701886193923163100,2.9541630859375,-0.1844748854637146,-0.0863943099975586,-0.12899017333984375
1701886193940159700,2.97115966796875,-0.1862173229455948,-0.05505800247192383,-0.09847259521484375
1701886193957152000,2.988152099609375,-0.21089868247509003,-0.03726053237915039,-0.07261848449707031
1701886193974146300,3.005146240234375,-0.2952965795993805,-0.049399375915527344,-0.027372360229492188
1701886193991134500,3.022134521484375,-0.33553850650787354,-0.0441136360168457,-0.01213836669921875
1701886194008124200,3.039124267578125,-0.38357651233673096,-0.05473470687866211,-0.05519676208496094
1701886194025125600,3.056125732421875,-0.31352880597114563,-0.050189971923828125,-0.08942699432373047
1701886194042114300,3.0731142578125,-0.21996736526489258,-0.04883241653442383,-0.08002376556396484
1701886194059110000,3.09010986328125,-0.1419299691915512,-0.03328561782836914,-0.08507442474365234
1701886194076104700,3.107104736328125,-0.0963834598660469,-0.03759288787841797,-0.06625843048095703
1701886194093097200,3.12409716796875,-0.09229914098978043,-0.03844451904296875,-0.014084815979003906
1701886194110090000,3.141090087890625,-0.12613749504089355,-0.022864341735839844,-0.015138626098632812
1701886194127083300,3.158083251953125,-0.1928105354309082,-0.055429935455322266,-0.035820960998535156
1701886194144076300,3.175076171875,-0.15093693137168884,-0.05842733383178711,-0.05722618103027344
1701886194161056800,3.192056884765625,-0.06819050014019012,-0.05984640121459961,-0.05416107177734375
1701886194178061600,3.2090615234375,0.0031193457543849945,-0.0614628791809082,-0.046088218688964844
1701886194195056000,3.22605615234375,0.002881985157728195,-0.05370044708251953,-0.02796173095703125
1701886194212048400,3.24304833984375,-0.05166396498680115,-0.022441864013671875,-0.033405303955078125
1701886194229028900,3.26002880859375,-0.1488041877746582,-0.025717735290527344,-0.039089202880859375
1701886194246037500,3.27703759765625,-0.19222989678382874,-0.02022552490234375,-0.040767669677734375
1701886194263026700,3.294026611328125,-0.23613512516021729,-0.03915214538574219,-0.06245613098144531
1701886194280020500,3.3110205078125,-0.2429509311914444,-0.09121417999267578,-0.08872604370117188
1701886194297011200,3.32801123046875,-0.198053777217865,-0.09402656555175781,-0.10943984985351562
1701886194314006000,3.345006103515625,-0.1278308480978012,-0.08506441116333008,-0.06252479553222656
1701886194330998500,3.36199853515625,-0.08411798626184464,-0.04711294174194336,-0.005881309509277344
1701886194347992800,3.378992919921875,-0.10066842287778854,-0.07713699340820312,0.046639442443847656
1701886194364986000,3.395986083984375,-0.17593948543071747,-0.07010221481323242,0.05035114288330078
1701886194381975600,3.4129755859375,-0.2572270631790161,-0.08769798278808594,0.015655517578125
1701886194398971600,3.4299716796875,-0.29096344113349915,-0.10093021392822266,-0.014486312866210938
1701886194415965000,3.44696484375,-0.2807244062423706,-0.10474300384521484,-0.03094768524169922
1701886194432958000,3.4639580078125,-0.24619287252426147,-0.09958362579345703,-0.053122520446777344
1701886194449943600,3.480943603515625,-0.2054133117198944,-0.12357330322265625,-0.07525825500488281
1701886194466941400,3.49794140625,-0.15607817471027374,-0.12458419799804688,-0.1412506103515625
1701886194483939800,3.51493994140625,-0.14026527106761932,-0.13787174224853516,-0.16276168823242188
1701886194500929500,3.531929443359375,-0.18629798293113708,-0.1400160789489746,-0.18786048889160156
1701886194517924000,3.548924072265625,-0.15489442646503448,-0.09690237045288086,-0.1782522201538086
1701886194534916000,3.565916015625,-0.14931786060333252,-0.06247901916503906,-0.12415218353271484
1701886194551909600,3.58290966796875,-0.12398711591959,-0.04182863235473633,-0.037754058837890625
1701886194568901600,3.599901611328125,-0.1414991170167923,-0.06176948547363281,0.044121742248535156
1701886194585896400,3.616896484375,-0.12403030693531036,-0.05812215805053711,0.023450851440429688
1701886194602888400,3.633888427734375,-0.09307697415351868,-0.07011127471923828,0.026922225952148438
1701886194619881700,3.6508818359375,-0.06832429021596909,-0.05956220626831055,0.0009107589721679688
1701886194636875000,3.667875,-0.10597388446331024,-0.0643763542175293,-0.04000568389892578
1701886194653867500,3.684867431640625,-0.07703788578510284,-0.02548694610595703,-0.09014034271240234
1701886194670852600,3.7018525390625,-0.08645834028720856,-0.014327526092529297,-0.08710384368896484
1701886194687851500,3.7188515625,-0.12148572504520416,0.0008630752563476562,-0.08867549896240234
1701886194704846000,3.73584619140625,-0.22243154048919678,-0.0056667327880859375,-0.08653736114501953
1701886194721840000,3.752840087890625,-0.22635354101657867,-0.017602920532226562,-0.05214500427246094
1701886194738833000,3.7698330078125,-0.1593012809753418,-0.018964290618896484,-0.03666973114013672
1701886194755826000,3.786825927734375,-0.14082059264183044,-0.029106616973876953,-0.049752235412597656
1701886194772819200,3.803819091796875,-0.12429238855838776,-0.013210296630859375,-0.09459304809570312
1701886194789812200,3.820812255859375,-0.14981743693351746,-0.0047397613525390625,-0.06648826599121094
1701886194806805000,3.837804931640625,-0.16770198941230774,-0.009808063507080078,-0.05171394348144531
1701886194823795000,3.854794921875,-0.21045909821987152,-0.02965545654296875,-0.04222679138183594
1701886194840791300,3.871791259765625,-0.26595985889434814,-0.04845142364501953,-0.0175323486328125
1701886194857784600,3.88878466796875,-0.31992751359939575,-0.02942037582397461,-0.026248931884765625
1701886194874777000,3.905777099609375,-0.3379988968372345,-0.010027885437011719,-0.035678863525390625
1701886194891757800,3.9227578125,-0.3501940965652466,-0.005097866058349609,-0.030801773071289062
1701886194908759800,3.939759765625,-0.32319140434265137,-0.03387022018432617,0.011651992797851562
1701886194925759000,3.956759033203125,-0.31099995970726013,-0.035080909729003906,0.025369644165039062
1701886194942749400,3.97374951171875,-0.2928014099597931,-0.028284549713134766,0.009532928466796875
1701886194959742500,3.990742431640625,-0.27776241302490234,-0.03234720230102539,-0.00698089599609375
1701886194976725000,4.00772509765625,-0.24071623384952545,-0.03658294677734375,0.014394760131835938
1701886194993728800,4.024728759765625,-0.2094520926475525,-0.07175588607788086,0.01515960693359375
1701886195010721800,4.0417216796875,-0.18557271361351013,-0.10789012908935547,-0.03664112091064453
1701886195027714800,4.05871484375,-0.1216747835278511,-0.09954071044921875,-0.09340286254882812
1701886195044707600,4.07570751953125,-0.09586615115404129,-0.09074974060058594,-0.12986278533935547
1701886195061700900,4.092700927734375,-0.054894208908081055,-0.07531213760375977,-0.15665912628173828
1701886195078693000,4.109693115234375,-0.06478911638259888,-0.07450199127197266,-0.14347171783447266
1701886195095687700,4.126687744140625,-0.10545436292886734,-0.10131549835205078,-0.1593456268310547
1701886195112680000,4.143679931640625,-0.16709297895431519,-0.10760259628295898,-0.16432666778564453
1701886195129670700,4.160670654296875,-0.1663614809513092,-0.09420537948608398,-0.13611888885498047
1701886195146668500,4.17766845703125,-0.11612461507320404,-0.07611751556396484,-0.1127328872680664
1701886195163648300,4.194648193359375,-0.0700804591178894,-0.08179759979248047,-0.07549381256103516
1701886195180649500,4.2116494140625,-0.07820923626422882,-0.0833735466003418,-0.06196308135986328
1701886195197648000,4.22864794921875,-0.11237947642803192,-0.11923360824584961,-0.09672069549560547
1701886195214629000,4.245629150390625,-0.10938601195812225,-0.1164693832397461,-0.14567184448242188
1701886195231631400,4.26263134765625,-0.08815101534128189,-0.1117706298828125,-0.1553192138671875
1701886195248624400,4.279624267578125,-0.07169638574123383,-0.09081411361694336,-0.11131954193115234
1701886195265617400,4.296617431640625,-0.09723084419965744,-0.0692753791809082,-0.0813446044921875
1701886195282610400,4.3136103515625,-0.15016356110572815,-0.01009368896484375,-0.08428001403808594
1701886195299603500,4.330603515625,-0.19861111044883728,-0.035608768463134766,-0.06284523010253906
1701886195316596500,4.347596435546875,-0.22954747080802917,-0.036036014556884766,-0.04140186309814453
1701886195333589500,4.364589599609375,-0.2095818966627121,-0.04058027267456055,-0.019608497619628906
1701886195350582500,4.38158251953125,-0.20857416093349457,-0.011647701263427734,-0.002605438232421875
1701886195367573200,4.3985732421875,-0.22421744465827942,0.0015430450439453125,0.02357006072998047
1701886195384571100,4.415571044921875,-0.2484847903251648,-0.0000286102294921875,0.030076980590820312
1701886195401558000,4.43255810546875,-0.2515302896499634,-0.016942501068115234,0.04086017608642578
1701886195418556000,4.449555908203125,-0.2362699806690216,-0.005544185638427734,0.02271270751953125
1701886195435548000,4.4665478515625,-0.2249024361371994,0.015495777130126953,0.013858795166015625
1701886195452541000,4.483541015625,-0.22443117201328278,-0.007292747497558594,0.0001277923583984375
1701886195469527000,4.500527099609375,-0.15772396326065063,0.022139549255371094,-0.028794288635253906
1701886195486527200,4.51752734375,-0.10423692315816879,-0.03399515151977539,-0.019437789916992188
1701886195503520000,4.53452001953125,-0.027418091893196106,-0.03247880935668945,-0.0240020751953125
1701886195520510700,4.5515107421875,-0.0036693811416625977,-0.030399799346923828,-0.04202747344970703
1701886195537509000,4.568509033203125,-0.051132284104824066,-0.03288602828979492,-0.011475563049316406
1701886195554499000,4.5854990234375,-0.08580415695905685,0.011034011840820312,0.022794723510742188
1701886195571490000,4.602489990234375,-0.16310188174247742,0.009883403778076172,0.01797771453857422
1701886195588484600,4.619484619140625,-0.17446772754192352,-0.011595726013183594,-0.026366233825683594
1701886195605469000,4.636468994140625,-0.14167919754981995,-0.042943477630615234,-0.027797698974609375
1701886195622469000,4.65346923828125,-0.10967659205198288,-0.0736551284790039,-0.053732872009277344
1701886195639467300,4.67046728515625,-0.06362990289926529,-0.07533597946166992,-0.08396148681640625
1701886195656457500,4.68745751953125,-0.041434772312641144,-0.07569026947021484,-0.07459735870361328
1701886195673450800,4.70445068359375,-0.05739791691303253,-0.0610194206237793,-0.04094886779785156
1701886195690443800,4.72144384765625,-0.09285858273506165,-0.06585311889648438,-0.030820846557617188
1701886195707436800,4.738436767578125,-0.18554528057575226,-0.06668853759765625,-0.05429553985595703
1701886195724426800,4.7554267578125,-0.2537441551685333,-0.07207584381103516,-0.05881690979003906
1701886195741423900,4.772423828125,-0.2494736611843109,-0.06806468963623047,-0.0735940933227539
1701886195758416000,4.789415771484375,-0.19697657227516174,-0.08317995071411133,-0.06503009796142578
1701886195775406300,4.80640625,-0.17731067538261414,-0.08435678482055664,-0.07523155212402344
1701886195792398600,4.823398681640625,-0.1623930037021637,-0.09458303451538086,-0.090850830078125
1701886195809398500,4.8403984375,-0.12239401787519455,-0.10416126251220703,-0.09084033966064453
1701886195826388200,4.85738818359375,-0.08710052818059921,-0.10807657241821289,-0.05745887756347656
1701886195843381000,4.874381103515625,-0.08162902295589447,-0.10717344284057617,-0.05218219757080078
1701886195860374000,4.8913740234375,-0.11802665889263153,-0.09198188781738281,-0.036765098571777344
1701886195877367300,4.9083671875,-0.18912550806999207,-0.07231378555297852,-0.04512214660644531
1701886195894360300,4.9253603515625,-0.18766427040100098,-0.06174135208129883,-0.035003662109375
1701886195911350500,4.9423505859375,-0.18322423100471497,-0.041960716247558594,-0.06815910339355469
1701886195928349200,4.95934912109375,-0.17803572118282318,-0.05120372772216797,-0.0871133804321289
1701886195945339400,4.97633935546875,-0.1665956676006317,-0.07417058944702148,-0.08690166473388672
1701886195962332700,4.993332763671875,-0.11978085339069366,-0.10262250900268555,-0.0729684829711914
1701886195979324700,5.01032470703125,-0.02692287415266037,-0.10619354248046875,-0.07288837432861328
1701886195996315000,5.02731494140625,-0.006918378174304962,-0.08542585372924805,-0.033725738525390625
1701886196013307600,5.0443076171875,-0.08381617814302444,-0.054790496826171875,-0.06558609008789062
1701886196030308900,5.061308837890625,-0.14969664812088013,-0.03268861770629883,-0.0729522705078125
1701886196047298000,5.078298095703125,-0.15639342367649078,-0.02474689483642578,-0.0373992919921875
1701886196064291000,5.095291015625,-0.147836834192276,-0.025823593139648438,0.026846885681152344
1701886196081283800,5.112283935546875,-0.1687847077846527,-0.023681163787841797,0.07588768005371094
1701886196098276000,5.129276123046875,-0.205687016248703,-0.005380153656005859,0.03809356689453125
1701886196115271000,5.14627099609375,-0.1935827136039734,-0.016593456268310547,0.008196830749511719
1701886196132263200,5.16326318359375,-0.09663143008947372,-0.029018402099609375,-0.028334617614746094
1701886196149256000,5.180255859375,-0.007914707064628601,-0.06137847900390625,-0.04522705078125
1701886196166249500,5.19724951171875,0.003452807664871216,-0.06893444061279297,-0.08019256591796875
1701886196183242200,5.2142421875,-0.03805620223283768,-0.06571722030639648,-0.08580207824707031
1701886196200235000,5.231235107421875,-0.0985686406493187,-0.05197000503540039,-0.09508323669433594
1701886196217227300,5.248227294921875,-0.13981333374977112,-0.04790496826171875,-0.06103515625
1701886196234220000,5.265219970703125,-0.1440896987915039,-0.03889942169189453,-0.051761627197265625
1701886196251213300,5.28221337890625,-0.14312607049942017,-0.04981231689453125,-0.062042236328125
1701886196268207600,5.29920751953125,-0.12261760979890823,-0.050609588623046875,-0.0819101333618164
1701886196285200600,5.31620068359375,-0.0824660137295723,-0.0750436782836914,-0.08275413513183594
1701886196302190300,5.3331904296875,-0.0438709482550621,-0.06971263885498047,-0.06809806823730469
1701886196319187000,5.35018701171875,-0.08254490047693253,-0.058908939361572266,-0.06266498565673828
1701886196336180000,5.367179931640625,-0.11678528040647507,-0.04341840744018555,-0.037215232849121094
1701886196353172700,5.3841728515625,-0.18260957300662994,-0.03720378875732422,-0.007124900817871094
1701886196370166000,5.401166015625,-0.2139444202184677,-0.03237581253051758,0.01717090606689453
1701886196387156500,5.418156494140625,-0.19881506264209747,-0.052475929260253906,0.03102397918701172
1701886196404155000,5.43515478515625,-0.17635801434516907,-0.07277631759643555,-0.03274726867675781
1701886196421144000,5.45214404296875,-0.11605320870876312,-0.08776283264160156,-0.057631492614746094
1701886196438136300,5.46913623046875,-0.09728366136550903,-0.07677602767944336,-0.04283905029296875
1701886196455128600,5.486128662109375,-0.13466599583625793,-0.05696916580200195,-0.022414207458496094
1701886196472126700,5.503126708984375,-0.2388070523738861,-0.022387027740478516,-0.03557300567626953
1701886196489116700,5.52011669921875,-0.29438650608062744,-0.017438411712646484,-0.04411125183105469
1701886196506111200,5.537111328125,-0.29758816957473755,-0.021966934204101562,-0.05350971221923828
1701886196523103500,5.554103515625,-0.25172531604766846,-0.03168678283691406,-0.0493621826171875
1701886196540085800,5.571085693359375,-0.20381179451942444,-0.04134941101074219,-0.044884681701660156
1701886196557089800,5.58808984375,-0.1838918775320053,-0.04687309265136719,-0.06911563873291016
1701886196574082600,5.60508251953125,-0.14809291064739227,-0.05205106735229492,-0.04588031768798828
1701886196591075300,5.622075439453125,-0.10335767269134521,-0.04188060760498047,-0.0215301513671875
1701886196608068600,5.639068603515625,-0.07636550068855286,-0.031235218048095703,-0.0017547607421875
1701886196625056000,5.656055908203125,-0.09306041896343231,-0.011509418487548828,-0.020539283752441406
1701886196642042400,5.67304248046875,-0.10466864705085754,-0.010843753814697266,-0.03447532653808594
1701886196659048000,5.6900478515625,-0.10443148016929626,-0.005600929260253906,-0.000644683837890625
1701886196676040700,5.707040771484375,-0.09922979772090912,0.02684164047241211,-0.010686874389648438
1701886196693023500,5.7240234375,-0.11381451785564423,0.02503824234008789,-0.015743255615234375
1701886196710027000,5.741027099609375,-0.08147536218166351,0.023202896118164062,-0.022043228149414062
1701886196727020300,5.758020263671875,-0.09960870444774628,-0.01263570785522461,-0.042426109313964844
1701886196744009700,5.775009765625,-0.07911483943462372,-0.044457435607910156,-0.05364227294921875
1701886196760995300,5.791995361328125,-0.03890596330165863,-0.04230165481567383,-0.10318279266357422
1701886196777999400,5.808999267578125,0.006628841161727905,-0.04322624206542969,-0.0994405746459961
1701886196794992400,5.825992431640625,0.01712574064731598,-0.03197336196899414,-0.07937145233154297
1701886196811982000,5.842982177734375,0.00858829915523529,0.003894805908203125,-0.030231475830078125
1701886196828978400,5.859978515625,-0.08071283996105194,0.018749713897705078,0.018836021423339844
1701886196845971500,5.876971435546875,-0.17333073914051056,0.03675651550292969,0.06764030456542969
1701886196862964500,5.893964599609375,-0.23813526332378387,0.018838882446289062,0.09479522705078125
1701886196879957200,5.910957275390625,-0.2191406637430191,-0.010462760925292969,0.029381752014160156
1701886196896949200,5.92794921875,-0.1493961662054062,-0.04120063781738281,-0.09004878997802734
1701886196913945000,5.944945068359375,-0.04453189671039581,-0.08016109466552734,-0.13216114044189453
1701886196930936800,5.961936767578125,0.061613038182258606,-0.08806276321411133,-0.13472270965576172
1701886196947930000,5.97893017578125,0.06200070679187775,-0.06591653823852539,-0.12099170684814453
1701886196964923100,5.995923095703125,-0.03309641778469086,-0.02860403060913086,-0.04882049560546875
1701886196981915600,6.01291552734375,-0.1860329806804657,-0.021381855010986328,-0.05335521697998047
1701886196998908200,6.029908203125,-0.23510919511318207,-0.038060665130615234,-0.06896400451660156
1701886197015902700,6.04690283203125,-0.22553203999996185,-0.04532575607299805,-0.06551456451416016
1701886197032895000,6.06389501953125,-0.16368058323860168,-0.07129287719726562,-0.06752586364746094
1701886197049887700,6.0808876953125,-0.11146417260169983,-0.08273839950561523,-0.08287715911865234
1701886197066881000,6.097881103515625,-0.058274805545806885,-0.07848405838012695,-0.08374595642089844
1701886197083872000,6.1148720703125,-0.033605098724365234,-0.06816482543945312,-0.045058250427246094
1701886197100870000,6.131869873046875,-0.08712194859981537,-0.034136295318603516,-0.005913734436035156
1701886197117849900,6.148849853515625,-0.17965835332870483,-0.0017881393432617188,-0.03914451599121094
1701886197134850000,6.16585009765625,-0.2439165562391281,-0.012553691864013672,-0.08707046508789062
1701886197151836200,6.182836181640625,-0.22080287337303162,-0.03314065933227539,-0.11236953735351562
1701886197168831500,6.19983154296875,-0.14258891344070435,-0.04758310317993164,-0.09893989562988281
1701886197185832400,6.21683251953125,-0.0540054589509964,-0.056397438049316406,-0.06080818176269531
1701886197202825700,6.23382568359375,-0.029765576124191284,-0.03094196319580078,-0.040846824645996094
1701886197219819000,6.250819091796875,-0.07280008494853973,-0.024758338928222656,-0.030544281005859375
1701886197236811800,6.267811767578125,-0.11628952622413635,-0.014994621276855469,0.008738517761230469
1701886197253804500,6.284804443359375,-0.14539633691310883,-0.015697002410888672,0.008356094360351562
1701886197270797800,6.3017978515625,-0.14629098773002625,-0.021987438201904297,-0.021164894104003906
1701886197287790800,6.318790771484375,-0.10307635366916656,-0.023452281951904297,-0.036617279052734375
1701886197304784000,6.335783935546875,-0.02690190076828003,-0.030582427978515625,-0.06238746643066406
1701886197321774000,6.352774169921875,0.0051024556159973145,-0.060115814208984375,-0.08768558502197266
1701886197338770000,6.36977001953125,-0.0023273080587387085,-0.059818267822265625,-0.10194110870361328
1701886197355763200,6.38676318359375,-0.03330868482589722,-0.03986024856567383,-0.07704448699951172
1701886197372756000,6.403755859375,-0.11054675281047821,-0.04921102523803711,-0.04732322692871094
1701886197389749200,6.420749267578125,-0.11609017848968506,-0.02940845489501953,-0.013487815856933594
1701886197406730500,6.43773046875,-0.11255288124084473,-0.03917217254638672,-0.008844375610351562
1701886197423729700,6.454729736328125,-0.05912764370441437,-0.03511810302734375,-0.04817485809326172
1701886197440728300,6.471728271484375,-0.028514280915260315,-0.04930877685546875,-0.06281757354736328
1701886197457721900,6.488721923828125,-0.04071095585823059,-0.05399179458618164,-0.038582801818847656
1701886197474711800,6.5057119140625,-0.11542393267154694,-0.06764078140258789,-0.028092384338378906
1701886197491710200,6.522710205078125,-0.1697704792022705,-0.08641338348388672,-0.051856040954589844
1701886197508700000,6.539699951171875,-0.14246580004692078,-0.09056520462036133,-0.061118125915527344
1701886197525694500,6.556694580078125,-0.08783885836601257,-0.079437255859375,-0.03701210021972656
1701886197542686700,6.573686767578125,-0.12492042779922485,-0.06302690505981445,-0.059902191162109375
1701886197559680000,6.590679931640625,-0.17454098165035248,-0.021913528442382812,-0.07697105407714844
1701886197576669400,6.60766943359375,-0.20321622490882874,-0.02386760711669922,-0.050627708435058594
1701886197593669600,6.624669677734375,-0.19731898605823517,-0.020323753356933594,0.0224609375
1701886197610659300,6.641659423828125,-0.23322951793670654,-0.03749704360961914,0.06720352172851562
1701886197627652000,6.658652099609375,-0.2708873152732849,-0.0370488166809082,0.03396320343017578
1701886197644642300,6.675642333984375,-0.2371106892824173,-0.046938419342041016,-0.004475593566894531
1701886197661638100,6.69263818359375,-0.10745741426944733,-0.046971797943115234,-0.025132179260253906
1701886197678631200,6.709631103515625,-0.02436193823814392,-0.037464141845703125,-0.06432437896728516
1701886197695624400,6.72662451171875,-0.03657238185405731,-0.013402938842773438,-0.08753204345703125
1701886197712617500,6.743617431640625,-0.11542515456676483,-0.012201786041259766,-0.10985183715820312
1701886197729612500,6.760612548828125,-0.11437441408634186,-0.008845329284667969,-0.08410835266113281
1701886197746600700,6.7776005859375,-0.093094602227211,-0.005828380584716797,-0.02086162567138672
1701886197763597600,6.79459765625,-0.11034446954727173,-0.0035881996154785156,-0.014239311218261719
1701886197780589600,6.811589599609375,-0.10781554877758026,0.008498668670654297,0.011086463928222656
1701886197797582600,6.82858251953125,-0.057578057050704956,0.02473306655883789,0.04981708526611328
1701886197814571800,6.84557177734375,-0.008718803524971008,0.0389704704284668,0.04498767852783203
1701886197831569200,6.862569091796875,-0.012956023216247559,0.03711843490600586,0.010519981384277344
1701886197848563000,6.87956298828125,-0.06105871498584747,0.03052997589111328,-0.057425498962402344
1701886197865556000,6.896555908203125,-0.06972308456897736,0.005753040313720703,-0.0722188949584961
1701886197882547000,6.913546875,-0.030531585216522217,0.020127296447753906,-0.04827404022216797
1701886197899540200,6.930540283203125,-0.0157986581325531,0.019772052764892578,-0.019743919372558594
1701886197916534800,6.94753466796875,-0.01542210578918457,0.03824186325073242,-0.010522842407226562
1701886197933527000,6.964527099609375,-0.0198802649974823,0.01878499984741211,0.02280139923095703
1701886197950520300,6.981520263671875,-0.011256769299507141,0.032457828521728516,0.051115989685058594
1701886197967513600,6.998513671875,-0.05642673373222351,0.030440807342529297,0.04520893096923828
1701886197984506000,7.015506103515625,-0.09616026282310486,0.022322654724121094,0.029638290405273438
1701886198001497300,7.032497314453125,-0.14073091745376587,0.008542060852050781,-0.010913848876953125
1701886198018492000,7.049491943359375,-0.0993218719959259,-0.019733428955078125,-0.022838592529296875
1701886198035486200,7.066486328125,-0.05303305387496948,-0.03396415710449219,-0.025951385498046875
1701886198052478500,7.083478515625,-0.0541791170835495,-0.06255197525024414,-0.03802776336669922
1701886198069476000,7.10047607421875,-0.10861517488956451,-0.06119489669799805,-0.07277202606201172
1701886198086464500,7.117464599609375,-0.13771435618400574,-0.06296730041503906,-0.045022010803222656
1701886198103457800,7.134457763671875,-0.12938791513442993,-0.04017972946166992,-0.031294822692871094
1701886198120450600,7.151450439453125,-0.14561420679092407,-0.04211139678955078,-0.027568817138671875
1701886198137433300,7.168433349609375,-0.19006088376045227,-0.054935455322265625,-0.03797626495361328
1701886198154429200,7.18542919921875,-0.20500485599040985,-0.06288909912109375,-0.06359481811523438
1701886198171431200,7.20243115234375,-0.2003917396068573,-0.07455730438232422,-0.07937240600585938
1701886198188423000,7.2194228515625,-0.1800171136856079,-0.07611751556396484,-0.06642818450927734
1701886198205416000,7.236416015625,-0.1925327628850937,-0.08267974853515625,-0.06163215637207031
1701886198222411500,7.25341162109375,-0.20876578986644745,-0.10302591323852539,-0.062211036682128906
1701886198239402200,7.27040234375,-0.1300659328699112,-0.08870315551757812,-0.072662353515625
1701886198256395300,7.287395263671875,-0.0850222259759903,-0.09235620498657227,-0.05827617645263672
1701886198273388300,7.30438818359375,-0.09813493490219116,-0.05675315856933594,-0.07088565826416016
1701886198290381300,7.32138134765625,-0.13744013011455536,-0.02069377899169922,-0.05509471893310547
1701886198307374300,7.338374267578125,-0.16451700031757355,-0.004298210144042969,-0.00034809112548828125
1701886198324373000,7.355373046875,-0.1735786497592926,0.012033462524414062,0.034300804138183594
1701886198341362000,7.37236181640625,-0.15101195871829987,0.007824897766113281,0.053824424743652344
1701886198358354400,7.3893544921875,-0.11959785223007202,-0.0030145645141601562,0.02869892120361328
1701886198375347000,7.406346923828125,-0.049165964126586914,-0.01413869857788086,-0.020804405212402344
1701886198392339700,7.423339599609375,0.012603923678398132,-0.03534841537475586,-0.02658367156982422
1701886198409332200,7.440332275390625,0.06382600963115692,-0.0364227294921875,-0.047115325927734375
1701886198426326500,7.457326416015625,0.08018848299980164,-0.013058185577392578,-0.06170654296875
1701886198443308300,7.474308349609375,0.06648001074790955,-0.0029053688049316406,-0.06616973876953125
1701886198460312000,7.49131201171875,0.04797658324241638,0.0025382041931152344,-0.050866127014160156
1701886198477305300,7.508305419921875,-0.008639529347419739,0.0019850730895996094,-0.022123336791992188
1701886198494298000,7.525298095703125,-0.08027106523513794,-0.013058185577392578,-0.05536937713623047
1701886198511291400,7.54229150390625,-0.10298539698123932,-0.013226985931396484,-0.05542755126953125
1701886198528284400,7.559284423828125,-0.0532250851392746,-0.01324319839477539,-0.02669048309326172
1701886198545274000,7.576274169921875,0.028532639145851135,-0.02295398712158203,0.006131172180175781
1701886198562268700,7.5932685546875,0.04565964639186859,-0.014392852783203125,0.0007753372192382812
1701886198579265300,7.610265380859375,-0.00839453935623169,-0.006433963775634766,-0.00011157989501953125
1701886198596256500,7.627256591796875,-0.0670999139547348,-0.018024921417236328,-0.019753456115722656
1701886198613249500,7.64424951171875,-0.13479767739772797,-0.04030132293701172,-0.05401134490966797
1701886198630240000,7.661239990234375,-0.13579466938972473,-0.051238059997558594,-0.08855915069580078
1701886198647238000,7.67823779296875,-0.12645143270492554,-0.06653976440429688,-0.08487606048583984
1701886198664223700,7.6952236328125,-0.07893645763397217,-0.056652069091796875,-0.07993030548095703
1701886198681224400,7.712224365234375,-0.03653278946876526,-0.05551004409790039,-0.03688526153564453
1701886198698215200,7.729215087890625,-0.03787881135940552,-0.035410404205322266,-0.01727008819580078
1701886198715197400,7.746197509765625,-0.11479176580905914,-0.030939579010009766,-0.0312042236328125
1701886198732198000,7.763197998046875,-0.15218815207481384,-0.041773319244384766,-0.05964851379394531
1701886198749200600,7.78020068359375,-0.156431183218956,-0.07096338272094727,-0.05988788604736328
1701886198766177800,7.797177734375,-0.10388736426830292,-0.05123424530029297,-0.0939779281616211
1701886198783193900,7.81419384765625,-0.06943413615226746,-0.0550084114074707,-0.09342098236083984
1701886198800173300,7.83117333984375,-0.06818751990795135,-0.03834819793701172,-0.06824779510498047
1701886198817166000,7.848166015625,-0.0712096244096756,-0.02655315399169922,-0.04790019989013672
1701886198834159400,7.865159423828125,-0.09880490601062775,-0.014673233032226562,-0.022724151611328125
1701886198851152400,7.88215234375,-0.09293223917484283,-0.0034880638122558594,-0.0023975372314453125
1701886198868146000,7.89914599609375,-0.09720450639724731,-0.0019016265869140625,0.012811660766601562
1701886198885138700,7.916138671875,-0.09197509288787842,-0.00019931793212890625,-0.010506629943847656
1701886198902131700,7.933131591796875,-0.06708267331123352,0.025376319885253906,-0.023965835571289062
1701886198919114000,7.950114013671875,-0.04780149459838867,0.012867927551269531,-0.008625030517578125
1701886198936115700,7.96711572265625,-0.053166016936302185,0.03401613235473633,-0.017147064208984375
1701886198953113300,7.98411328125,-0.0862790048122406,0.02064990997314453,0.013003349304199219
1701886198970103800,8.001103759765625,-0.09072086215019226,0.017038345336914062,-0.010596275329589844
1701886198987097300,8.018097412109375,-0.075930655002594,0.00890350341796875,-0.010419845581054688
1701886199004090000,8.035090087890625,-0.05194447934627533,0.006977081298828125,0.0150146484375
1701886199021080600,8.05208056640625,-0.06602251529693604,0.043001651763916016,0.031040191650390625
1701886199038078500,8.069078369140625,-0.1358717679977417,0.0599980354309082,0.042662620544433594
1701886199055065900,8.08606591796875,-0.19472409784793854,0.07576990127563477,0.08745861053466797
1701886199072062200,8.103062255859374,-0.22583265602588654,0.08520746231079102,0.14545917510986328
1701886199089055200,8.12005517578125,-0.22377794981002808,0.057108402252197266,0.13312053680419922
1701886199106049300,8.13704931640625,-0.19740618765354156,0.025542259216308594,0.06214141845703125
1701886199123041300,8.154041259765625,-0.12341900169849396,-0.021367549896240234,-0.02459716796875
1701886199140034600,8.17103466796875,-0.014611303806304932,-0.062168121337890625,-0.07771968841552734
1701886199157027600,8.188027587890625,0.06952323019504547,-0.07702302932739258,-0.09090137481689453
1701886199174020600,8.2050205078125,0.07544614374637604,-0.0565953254699707,-0.1214151382446289
1701886199191013600,8.222013671875,0.010746881365776062,-0.04981279373168945,-0.08843994140625
1701886199208006700,8.239006591796874,-0.040719375014305115,-0.033936500549316406,-0.09908294677734375
1701886199224999700,8.255999755859374,-0.06782293319702148,-0.06569528579711914,-0.12935638427734375
1701886199241990000,8.272989990234375,-0.03445617854595184,-0.09537076950073242,-0.16844749450683594
1701886199258985700,8.28998583984375,0.003327891230583191,-0.09482145309448242,-0.1783428192138672
1701886199275962000,8.306962158203126,0.02304932475090027,-0.07873916625976562,-0.1582775115966797
1701886199292974300,8.323974365234376,0.006261453032493591,-0.0622868537902832,-0.10416793823242188
1701886199309965000,8.340965087890625,-0.0008983612060546875,-0.049719810485839844,-0.016411781311035156
1701886199326955500,8.35795556640625,-0.04912257194519043,-0.033655643463134766,-0.00537109375
1701886199343953700,8.37495361328125,-0.1143338531255722,-0.0332489013671875,-0.037811279296875
1701886199360944000,8.391944091796875,-0.10824815928936005,-0.021502017974853516,-0.08013057708740234
1701886199377918500,8.40891845703125,-0.08071243762969971,-0.02971029281616211,-0.031289100646972656
1701886199394930400,8.425930419921874,-0.038200631737709045,0.005265712738037109,-0.03143882751464844
1701886199411923700,8.442923828125,-0.08580681681632996,0.0011506080627441406,-0.04483509063720703
1701886199428915700,8.459915771484376,-0.11040689051151276,-0.0026345252990722656,-0.034440040588378906
1701886199445910300,8.47691015625,-0.07366478443145752,0.008506298065185547,-0.00017070770263671875
1701886199462902500,8.493902587890625,-0.07529148459434509,0.019004344940185547,0.009846687316894531
1701886199479895800,8.510895751953125,-0.09010040760040283,0.014419078826904297,0.00036907196044921875
1701886199496888800,8.527888916015625,-0.11376668512821198,0.014742851257324219,0.0005464553833007812
1701886199513881900,8.5448818359375,-0.07690764963626862,0.024895191192626953,0.019956588745117188
1701886199530875000,8.561875,-0.05617612600326538,0.03493928909301758,0.0048675537109375
1701886199547855000,8.578855224609375,-0.06305858492851257,0.03914785385131836,-0.02899456024169922
1701886199564860400,8.5958603515625,-0.08743646740913391,0.023933887481689453,-0.019570350646972656
1701886199581854000,8.61285400390625,-0.08828255534172058,0.02372598648071289,-0.019704818725585938
1701886199598847000,8.629846923828126,-0.07553593814373016,0.014425277709960938,-0.015133857727050781
1701886199615840000,8.646840087890626,-0.043751999735832214,0.02447366714477539,-0.0292816162109375
1701886199632833300,8.663833251953125,-0.031301841139793396,0.02102375030517578,-0.009482383728027344
1701886199649826600,8.68082666015625,-0.05225585401058197,0.027192115783691406,0.02468585968017578
1701886199666819600,8.697819580078125,-0.1062474399805069,0.04596233367919922,0.03971290588378906
1701886199683812400,8.714812255859375,-0.15478339791297913,0.04930925369262695,0.015620231628417969
1701886199700805600,8.7318056640625,-0.13993880152702332,0.033143043518066406,-0.00506591796875
1701886199717798700,8.748798583984374,-0.09871925413608551,0.022098541259765625,-0.015446662902832031
1701886199734791400,8.76579150390625,-0.05330577492713928,0.006435394287109375,-0.03146934509277344
1701886199751781400,8.782781494140625,-0.03620859980583191,0.003993034362792969,-0.09977912902832031
1701886199768767500,8.799767578125,0.0071580857038497925,-0.010243415832519531,-0.09583663940429688
1701886199785771000,8.81677099609375,0.01630021631717682,-0.008575916290283203,-0.032451629638671875
1701886199802764000,8.833763916015625,-0.01349535584449768,0.004558563232421875,-0.01087188720703125
1701886199819757600,8.850757568359375,-0.08116269111633301,0.04562664031982422,0.034554481506347656
1701886199836749800,8.867749755859375,-0.15277191996574402,0.0665278434753418,0.0647878646850586
1701886199853743000,8.8847431640625,-0.17189517617225647,0.07572317123413086,0.07924842834472656
1701886199870732500,8.901732666015626,-0.13004466891288757,0.06057024002075195,0.08745479583740234
1701886199887729700,8.918729736328125,-0.08978061378002167,0.01428842544555664,0.03247547149658203
1701886199904722200,8.93572216796875,-0.06631256639957428,-0.022474288940429688,-0.0078582763671875
1701886199921720800,8.952720947265625,-0.051142290234565735,-0.04494285583496094,-0.014962196350097656
1701886199938707700,8.969707763671876,-0.10124610364437103,-0.06099891662597656,-0.024786949157714844
1701886199955702500,8.98670263671875,-0.13776008784770966,-0.0526432991027832,0.013798713684082031
1701886199972694500,9.003694580078125,-0.14557485282421112,-0.030306339263916016,0.05127429962158203
1701886199989687600,9.0206875,-0.11098368465900421,-0.034903526306152344,0.015395164489746094
1701886200006680600,9.0376806640625,-0.039070457220077515,-0.0547184944152832,-0.05535316467285156
1701886200023673900,9.054673828125,0.02267158031463623,-0.09320688247680664,-0.11629390716552734
1701886200040667000,9.0716669921875,0.10696542263031006,-0.11112785339355469,-0.17711639404296875
1701886200057659600,9.08865966796875,0.11049391329288483,-0.11793184280395508,-0.20691776275634766
1701886200074650400,9.105650390625,0.07945865392684937,-0.0939035415649414,-0.2158803939819336
1701886200091645700,9.122645751953126,0.0072635263204574585,-0.10206079483032227,-0.18554019927978516
1701886200108639000,9.139638916015626,-0.03597152233123779,-0.08994150161743164,-0.11692428588867188
1701886200125632300,9.15663232421875,-0.036681294441223145,-0.08226251602172852,-0.06281089782714844
1701886200142622000,9.1736220703125,-0.024629920721054077,-0.08449888229370117,-0.042382240295410156
1701886200159618000,9.1906181640625,0.010394841432571411,-0.08635663986206055,-0.051093101501464844
1701886200176611000,9.207611083984375,0.05797557532787323,-0.07702159881591797,-0.06826114654541016
1701886200193604600,9.2246044921875,0.052394405007362366,-0.0573725700378418,-0.056026458740234375
1701886200210597600,9.24159765625,-0.0213610976934433,-0.0232696533203125,-0.042847633361816406
1701886200227590400,9.25859033203125,-0.12209849059581757,0.0016775131225585938,-0.020158767700195312
1701886200244583700,9.275583740234374,-0.21546806395053864,-0.007784366607666016,0.016768455505371094
1701886200261572600,9.292572509765625,-0.24183692038059235,0.006306171417236328,0.05353069305419922
1701886200278570500,9.309570556640624,-0.19105064868927002,-0.01174306869506836,0.09874534606933594
1701886200295562800,9.326562744140626,-0.12497872114181519,0.003615856170654297,0.09633731842041016
1701886200312555800,9.3435556640625,-0.13650858402252197,0.028974056243896484,0.08038806915283203
1701886200329548300,9.36054833984375,-0.20648208260536194,0.05819416046142578,0.0980987548828125
1701886200346542000,9.3775419921875,-0.3439554274082184,0.08461427688598633,0.07703971862792969
1701886200363525000,9.394525146484375,-0.4198465943336487,0.061145782470703125,0.07351875305175781
1701886200380528000,9.411528076171875,-0.3472641110420227,0.06140756607055664,0.02501678466796875
1701886200397521400,9.428521484375,-0.1934150755405426,0.03259754180908203,0.004416465759277344
1701886200414504000,9.44550390625,-0.0031285881996154785,0.032512664794921875,-0.00662994384765625
1701886200431505200,9.462505126953126,0.07327420264482498,0.017708778381347656,0.030594825744628906
1701886200448500700,9.479500732421876,0.008370563387870789,0.014635086059570312,0.03479480743408203
1701886200465489400,9.496489501953125,-0.061792388558387756,0.006839275360107422,0.019573211669921875
1701886200482476800,9.513476806640625,-0.056964948773384094,0.013280391693115234,-0.020255088806152344
1701886200499479600,9.5304794921875,0.014211297035217285,0.01487112045288086,-0.04668903350830078
1701886200516472600,9.54747265625,0.10381439328193665,-0.022716522216796875,-0.10677528381347656
1701886200533465900,9.5644658203125,0.1643235683441162,-0.03930330276489258,-0.1374969482421875
1701886200550459000,9.581458984375,0.1905965805053711,-0.0346379280090332,-0.12316226959228516
1701886200567452000,9.598451904296875,0.15845715999603271,-0.008471488952636719,-0.07409954071044922
1701886200584441900,9.61544189453125,0.08360828459262848,0.017789840698242188,-0.028841018676757812
1701886200601447700,9.63244775390625,0.00866059958934784,0.04846000671386719,-0.0029306411743164062
1701886200618431200,9.64943115234375,-0.05161319673061371,0.04460716247558594,0.06550025939941406
1701886200635424000,9.666424072265626,-0.0420781672000885,0.05872678756713867,0.08930110931396484
1701886200652414200,9.683414306640625,-0.047882989048957825,0.017936229705810547,0.07358551025390625
1701886200669393200,9.70039306640625,-0.036297693848609924,-0.004478931427001953,-0.009867668151855469
1701886200686403300,9.7174033203125,0.009043842554092407,-0.050932884216308594,-0.06527137756347656
1701886200703396600,9.734396728515625,0.05460464954376221,-0.06808805465698242,-0.0817556381225586
1701886200720392400,9.751392333984375,0.04365164041519165,-0.04953145980834961,-0.08209896087646484
1701886200737380000,9.768380126953126,-0.004681870341300964,-0.034285545349121094,-0.004181861877441406
1701886200754375700,9.785375732421874,-0.07300464808940887,-0.014780521392822266,0.04950714111328125
1701886200771368700,9.80236865234375,-0.16080453991889954,-0.0013332366943359375,0.054368019104003906
1701886200788361700,9.81936181640625,-0.2275509387254715,-0.014002799987792969,0.07277584075927734
1701886200805355000,9.83635498046875,-0.26583319902420044,-0.03716230392456055,0.018019676208496094
1701886200822348000,9.85334814453125,-0.21712833642959595,-0.04515838623046875,-0.03181934356689453
1701886200839340300,9.87034033203125,-0.1298699527978897,-0.04764080047607422,-0.038471221923828125
1701886200856334300,9.887334228515625,-0.08993412554264069,-0.0539708137512207,-0.05452156066894531
1701886200873327600,9.90432763671875,-0.10794588923454285,-0.045766353607177734,-0.07434272766113281
1701886200890320100,9.921320068359375,-0.13814228773117065,-0.037381649017333984,-0.06441688537597656
1701886200907302700,9.938302734375,-0.15340113639831543,-0.042920589447021484,-0.04557228088378906
1701886200924306200,9.95530615234375,-0.15807537734508514,-0.04397106170654297,-0.050787925720214844
1701886200941299500,9.972299560546874,-0.1389418989419937,-0.05944538116455078,-0.08473587036132812
1701886200958292500,9.98929248046875,-0.05760374665260315,-0.06363391876220703,-0.08042049407958984
1701886200975282400,10.006282470703125,0.032460182905197144,-0.0473484992980957,-0.07063961029052734
1701886200992278500,10.023278564453125,0.055671244859695435,-0.04033994674682617,-0.054993629455566406
1701886201009263900,10.040263916015626,0.012299031019210815,-0.033089637756347656,-0.043679237365722656
1701886201026264600,10.0572646484375,-0.02563437819480896,-0.020318984985351562,-0.022113800048828125
1701886201043257600,10.074257568359375,-0.04483160376548767,-0.00826406478881836,-0.006320953369140625
1701886201060251000,10.0912509765625,-0.05989983677864075,0.006717205047607422,-0.00016880035400390625
1701886201077243400,10.108243408203125,-0.05986970663070679,-0.002941131591796875,-0.0048542022705078125
1701886201094237700,10.12523779296875,0.0063758790493011475,-0.012477397918701172,-0.015178680419921875
1701886201111230200,10.142230224609374,0.07203388214111328,-0.022385597229003906,-0.03020477294921875
1701886201128223500,10.159223388671874,0.11209774017333984,-0.031233787536621094,-0.04023265838623047
1701886201145216300,10.17621630859375,0.10431802272796631,-0.011722087860107422,-0.029809951782226562
1701886201162206000,10.1932060546875,0.034064143896102905,-0.007439136505126953,-0.03868293762207031
1701886201179202300,10.210202392578125,-0.035590946674346924,-0.0037403106689453125,-0.01915264129638672
1701886201196198700,10.22719873046875,-0.07200852036476135,-0.009990692138671875,-0.03422355651855469
1701886201213185300,10.244185302734374,-0.03606310486793518,-0.006484031677246094,-0.044707298278808594
1701886201230181600,10.261181640625,0.041860222816467285,-0.017877578735351562,-0.055777549743652344
1701886201247175000,10.2781748046875,0.08491814136505127,-0.013913154602050781,-0.0762481689453125
1701886201264167700,10.295167724609374,0.046611398458480835,-0.034989356994628906,-0.06740283966064453
1701886201281160700,10.31216064453125,0.007841497659683228,-0.05564546585083008,-0.09154987335205078
1701886201298153200,10.3291533203125,0.00837475061416626,-0.06612920761108398,-0.09201335906982422
1701886201315149000,10.346149169921874,0.031482040882110596,-0.05601692199707031,-0.07261276245117188
1701886201332137700,10.3631376953125,-0.008913397789001465,-0.04457521438598633,-0.07169342041015625
1701886201349130500,10.380130615234375,-0.029382675886154175,-0.013070106506347656,-0.045754432678222656
1701886201366129000,10.39712890625,-0.04904678463935852,-0.006519317626953125,-0.0014696121215820312
1701886201383119000,10.414119140625,-0.08789271116256714,0.014176368713378906,0.013689994812011719
1701886201400112400,10.4311123046875,-0.11162969470024109,-0.013577938079833984,0.03811168670654297
1701886201417105200,10.448105224609375,-0.12173834443092346,-0.008353233337402344,0.038926124572753906
1701886201434098400,10.465098388671874,-0.11245065927505493,-0.028147220611572266,0.037975311279296875
1701886201451091500,10.482091552734374,-0.09777560830116272,-0.029265403747558594,0.032607078552246094
1701886201468086300,10.499086181640624,-0.07005056738853455,-0.015128612518310547,0.008549690246582031
1701886201485074400,10.516074462890625,-0.07088670134544373,0.019156932830810547,0.008938789367675781
1701886201502070800,10.53307080078125,-0.11888465285301208,0.033881187438964844,0.004940032958984375
1701886201519063600,10.5500634765625,-0.16516995429992676,0.028378963470458984,-0.014529228210449219
1701886201536056800,10.567056884765625,-0.19104498624801636,0.007606029510498047,-0.004815101623535156
1701886201553049900,10.5840498046875,-0.15390324592590332,-0.00234222412109375,-0.010594367980957031
1701886201570043000,10.60104296875,-0.12142729759216309,-0.021863937377929688,-0.0010986328125
1701886201587036200,10.6180361328125,-0.07928237318992615,0.003246307373046875,0.0038433074951171875
1701886201604029000,10.63502880859375,-0.060809552669525146,0.014917373657226562,0.05771827697753906
1701886201621022000,10.65202197265625,-0.07576605677604675,0.05897855758666992,0.07810592651367188
1701886201638015200,10.66901513671875,-0.14831414818763733,0.0767507553100586,0.06410026550292969
1701886201655006200,10.686006103515625,-0.1896286904811859,0.06474018096923828,0.03911399841308594
1701886201671986700,10.702986572265624,-0.1866147518157959,0.03684711456298828,0.022942543029785156
1701886201688994600,10.71999462890625,-0.09815329313278198,0.027977466583251953,0.005801200866699219
1701886201705976800,10.736976806640625,0.0034190714359283447,0.0045566558837890625,-0.020732879638671875
1701886201722980600,10.753980712890625,0.052666306495666504,-0.0027294158935546875,-0.003604888916015625
1701886201739972900,10.770972900390625,0.03395438194274902,0.01355123519897461,0.005576133728027344
1701886201756967700,10.7879677734375,-0.007754892110824585,0.029108047485351562,0.02307891845703125
1701886201773958700,10.804958740234374,-0.024120301008224487,0.018088340759277344,0.0063533782958984375
1701886201790951400,10.821951416015626,-0.007779151201248169,-0.032826900482177734,-0.06505203247070312
1701886201807946000,10.838946044921874,0.06823065876960754,-0.08710670471191406,-0.13609695434570312
1701886201824941600,10.855941650390625,0.18897271156311035,-0.09997797012329102,-0.21996212005615234
1701886201841932000,10.87293212890625,0.2620876729488373,-0.09895133972167969,-0.2059497833251953
1701886201858924300,10.88992431640625,0.21477270126342773,-0.057683467864990234,-0.15083885192871094
1701886201875920400,10.90692041015625,0.06287232041358948,-0.015042304992675781,-0.08483505249023438
1701886201892899600,10.923899658203124,-0.10274237394332886,-0.006928920745849609,-0.03338146209716797
1701886201909904400,10.940904296875,-0.1495562195777893,0.015583992004394531,-0.00228118896484375
1701886201926897700,10.957897705078125,-0.11618423461914062,0.050685882568359375,-0.006804466247558594
1701886201943890400,10.974890380859375,-0.04882797598838806,0.03680562973022461,-0.040923118591308594
1701886201960883700,10.9918837890625,0.018800169229507446,0.01708078384399414,-0.07527446746826172
1701886201977876700,11.008876708984374,0.028781354427337646,-0.015872478485107422,-0.08963871002197266
1701886201994866700,11.02586669921875,0.03267177939414978,-0.038866519927978516,-0.11309051513671875
1701886202011862500,11.042862548828126,0.051626056432724,-0.01673269271850586,-0.09238529205322266
1701886202028855800,11.059855712890625,0.04143968224525452,0.026230335235595703,-0.04180431365966797
1701886202045849000,11.07684912109375,-0.053622931241989136,0.06920766830444336,0.004311561584472656
1701886202062838800,11.0938388671875,-0.11491656303405762,0.10950374603271484,0.015895843505859375
1701886202079835000,11.1108349609375,-0.12751346826553345,0.08608865737915039,0.011458396911621094
1701886202096822800,11.12782275390625,-0.04469335079193115,0.05723381042480469,0.015320777893066406
1701886202113821200,11.1448212890625,0.02278396487236023,0.03209829330444336,0.02367877960205078
1701886202130814000,11.16181396484375,0.04103311896324158,0.011055469512939453,0.022637367248535156
1701886202147807200,11.17880712890625,0.019717663526535034,0.014104366302490234,-0.011846542358398438
1701886202164800500,11.195800537109376,0.0146045982837677,-0.015892982482910156,-0.017348289489746094
1701886202181782000,11.212781982421875,0.013571351766586304,0.012088775634765625,-0.02732563018798828
1701886202198787000,11.229787109375,-0.011437445878982544,0.03122997283935547,-0.0219879150390625
1701886202215770600,11.2467705078125,-0.0559174120426178,0.03536558151245117,-0.027176856994628906
1701886202232772600,11.263772705078125,-0.07246705889701843,0.03939104080200195,-0.03664588928222656
1701886202249765000,11.28076513671875,-0.06942975521087646,0.028728961944580078,-0.033107757568359375
1701886202266757600,11.297757568359375,-0.08877578377723694,0.022190093994140625,-0.052581787109375
1701886202283751700,11.314751708984375,-0.08740872144699097,0.006186008453369141,-0.058173179626464844
1701886202300745000,11.331744873046874,-0.03848281502723694,-0.014415740966796875,-0.045136451721191406
1701886202317738500,11.348738525390624,0.00401267409324646,-0.01979970932006836,-0.0221710205078125
1701886202334731000,11.36573095703125,0.03349512815475464,-0.014513969421386719,-0.03162574768066406
1701886202351724000,11.38272412109375,0.030770927667617798,0.0059261322021484375,-0.011940956115722656
1701886202368712700,11.399712646484375,-0.04848560690879822,0.026160240173339844,-0.001312255859375
1701886202385704700,11.41670458984375,-0.12275421619415283,0.03583812713623047,-0.03870677947998047
1701886202402706000,11.433705810546876,-0.16752657294273376,0.017434120178222656,-0.057532310485839844
1701886202419686100,11.45068603515625,-0.1160147488117218,0.014242172241210938,-0.037596702575683594
1701886202436692200,11.467692138671875,-0.06341996788978577,0.016541004180908203,0.010529518127441406
1701886202453683000,11.484682861328125,-0.03938937187194824,0.02295207977294922,0.03529167175292969
1701886202470675700,11.50167578125,-0.07692432403564453,0.038111209869384766,0.07432174682617188
1701886202487668700,11.518668701171874,-0.09089237451553345,0.043239593505859375,0.10859203338623047
1701886202504658700,11.53565869140625,-0.11609417200088501,0.051375389099121094,0.06952190399169922
1701886202521652500,11.552652587890625,-0.10303181409835815,0.025055885314941406,0.015591621398925781
1701886202538650600,11.569650634765624,-0.06587406992912292,0.02294635772705078,-0.043854713439941406
1701886202555641000,11.58664111328125,-0.040610939264297485,0.0021848678588867188,-0.04465198516845703
1701886202572631000,11.603631103515625,-0.01003175973892212,-0.017502784729003906,-0.021553993225097656
1701886202589627100,11.620627197265625,-0.03397056460380554,0.011167526245117188,-0.020956039428710938
1701886202606620400,11.637620361328125,-0.052375197410583496,0.015966415405273438,-0.0161590576171875
1701886202623611000,11.65461083984375,-0.04758250713348389,0.021438121795654297,-0.01579761505126953
1701886202640609000,11.671609130859375,-0.004191279411315918,0.03182554244995117,-0.006381988525390625
1701886202657599700,11.688599853515624,-0.008469372987747192,0.01768779754638672,-0.005646705627441406
1701886202674592800,11.7055927734375,-0.06585273146629333,0.013066768646240234,-0.03903388977050781
1701886202691585800,11.722585693359376,-0.12589558959007263,-0.020913124084472656,-0.038306236267089844
1701886202708578600,11.73957861328125,-0.09081032872200012,-0.02440500259399414,-0.06237602233886719
1701886202725571600,11.756571533203125,0.01975184679031372,-0.017614364624023438,-0.04275703430175781
1701886202742564600,11.773564697265625,0.08062735199928284,0.010128498077392578,-0.013003349304199219
1701886202759557400,11.790557373046875,0.028303980827331543,0.03177213668823242,-0.0012121200561523438
1701886202776551700,11.8075517578125,-0.0459403395652771,0.0579071044921875,0.005433082580566406
1701886202793544000,11.8245439453125,-0.08119076490402222,0.06348323822021484,0.02124786376953125
1701886202810534700,11.84153466796875,-0.055111318826675415,0.03536367416381836,0.04017353057861328
1701886202827533300,11.858533203125,-0.022008240222930908,0.030429363250732422,0.03497600555419922
1701886202844523300,11.875523193359374,0.010391950607299805,0.013768196105957031,0.009212493896484375
1701886202861511200,11.89251123046875,0.04814499616622925,-0.008080482482910156,-0.030495643615722656
1701886202878511900,11.909511962890624,0.09578043222427368,-0.02811288833618164,-0.041459083557128906
1701886202895499300,11.926499267578125,0.1315348744392395,-0.004101753234863281,-0.051067352294921875
1701886202912495600,11.94349560546875,0.07574871182441711,-0.0035552978515625,-0.06526947021484375
1701886202929490200,11.960490234375,0.0016304254531860352,0.015510082244873047,-0.06928062438964844
1701886202946481400,11.9774814453125,-0.052026718854904175,0.01609516143798828,-0.03972816467285156
1701886202963474700,11.994474609375,-0.07745179533958435,0.007373332977294922,-0.010652542114257812
1701886202980472800,12.011472900390626,-0.0834612250328064,0.01668405532836914,0.018164634704589844
1701886202997460700,12.028460693359374,-0.07558682560920715,0.007277488708496094,0.0035343170166015625
1701886203014454000,12.0454541015625,-0.0337088406085968,0.0019273757934570312,-0.0063838958740234375
1701886203031445000,12.062445068359375,0.0020713508129119873,0.00653076171875,-0.011965751647949219
1701886203048429600,12.0794296875,-0.0006066858768463135,0.0017914772033691406,-0.007262229919433594
1701886203065435400,12.096435302734376,-0.06379130482673645,0.006436347961425781,-0.01634979248046875
1701886203082421200,12.113421142578124,-0.10183903574943542,-0.008135795593261719,-0.006566047668457031
1701886203099419100,12.130419189453125,-0.12103360891342163,-0.007781505584716797,0.01811981201171875
1701886203116412700,12.14741259765625,-0.10340315103530884,-0.007625102996826172,0.007971763610839844
1701886203133405400,12.164405517578125,-0.07653117179870605,0.0023603439331054688,0.007826805114746094
1701886203150398700,12.181398681640625,-0.04838097095489502,0.0017538070678710938,0.0026979446411132812
1701886203167391700,12.198391845703124,-0.04333159327507019,-0.004121303558349609,0.0021333694458007812
1701886203184384000,12.215384033203126,-0.06626465916633606,-0.019912242889404297,-0.012938499450683594
1701886203201374500,12.23237451171875,-0.07450628280639648,-0.016386032104492188,-0.023118019104003906
1701886203218372400,12.249372314453124,-0.06973940134048462,-0.021928787231445312,-0.04263782501220703
1701886203235366000,12.266365966796876,-0.03134080767631531,-0.02185201644897461,-0.05754661560058594
1701886203252356900,12.28335693359375,-0.017232954502105713,-0.016206741333007812,-0.033176422119140625
1701886203269349400,12.300349365234375,-0.021487653255462646,0.0037412643432617188,-0.023160934448242188
1701886203286344000,12.317343994140625,-0.057414621114730835,0.004322528839111328,0.0065288543701171875
1701886203303336200,12.334336181640625,-0.07385516166687012,-0.0008473396301269531,0.025869369506835938
1701886203320329500,12.35132958984375,-0.05308762192726135,-0.0057830810546875,0.039897918701171875
1701886203337321700,12.36832177734375,-0.013595610857009888,-0.007585048675537109,0.01925945281982422
1701886203354316300,12.38531640625,0.014521181583404541,-0.029033660888671875,-0.025000572204589844
1701886203371308000,12.40230810546875,0.044067710638046265,-0.03031778335571289,-0.04988670349121094
1701886203388302000,12.419302001953126,0.0595853328704834,-0.036107540130615234,-0.055748939514160156
1701886203405291800,12.436291748046875,0.04570138454437256,-0.021934986114501953,-0.06537437438964844
1701886203422288000,12.453287841796875,0.008396834135055542,-0.027434825897216797,-0.05046367645263672
1701886203439280600,12.47028076171875,-0.02523365616798401,-0.004209995269775391,-0.06041145324707031
1701886203456264200,12.48726416015625,-0.0393543541431427,-0.029585838317871094,-0.06115913391113281
1701886203473267000,12.504266845703125,0.000006705522537231445,-0.07399129867553711,-0.06181621551513672
1701886203490260000,12.521260009765625,0.0909619927406311,-0.06844234466552734,-0.043186187744140625
1701886203507252700,12.538252685546874,0.11791586875915527,-0.05271482467651367,-0.023395538330078125
1701886203524246500,12.55524658203125,0.06349796056747437,-0.017611026763916016,-0.051339149475097656
1701886203541239000,12.572239013671876,0.00024899840354919434,-0.016596317291259766,-0.06426811218261719
1701886203558232300,12.589232421875,-0.032396793365478516,-0.0006308555603027344,-0.038886070251464844
1701886203575225300,12.606225341796875,-0.06513029336929321,-0.013557910919189453,-0.028554916381835938
1701886203592215600,12.623215576171875,-0.0464881956577301,-0.01671314239501953,0.000995635986328125
1701886203609211400,12.64021142578125,-0.019028574228286743,-0.015407562255859375,0.0058193206787109375
1701886203626212600,12.657212646484375,-0.01085883378982544,-0.014754772186279297,-0.013036727905273438
1701886203643197700,12.67419775390625,-0.008064806461334229,-0.004633903503417969,-0.03194618225097656
1701886203660181500,12.691181396484374,-0.019066959619522095,0.020448684692382812,-0.05948829650878906
1701886203677185000,12.70818505859375,-0.04803454875946045,0.0219573974609375,-0.030012130737304688
1701886203694176800,12.7251767578125,-0.1056891679763794,0.017806529998779297,-0.02908802032470703
1701886203711170000,12.742170166015624,-0.09983929991722107,0.004322052001953125,-0.01963520050048828
1701886203728163300,12.759163330078126,-0.05194014310836792,0.0011029243469238281,0.00511932373046875
1701886203745156400,12.77615625,0.0007954835891723633,0.026557445526123047,0.01490020751953125
1701886203762149000,12.793149169921875,-0.02262696623802185,0.0468297004699707,0.030473709106445312
1701886203779130600,12.810130615234375,-0.04069948196411133,0.05661725997924805,0.01627349853515625
1701886203796128500,12.82712841796875,-0.06799888610839844,0.0513300895690918,0.030714035034179688
1701886203813128400,12.84412841796875,-0.08157286047935486,0.026598453521728516,0.03989219665527344
1701886203830121500,12.86112158203125,-0.09561467170715332,0.01577138900756836,0.0057697296142578125
1701886203847114500,12.878114501953124,-0.07096260786056519,0.019881725311279297,-0.023563385009765625
1701886203864107800,12.895107666015624,0.006385982036590576,0.014599800109863281,-0.029175758361816406
1701886203881100800,12.912100830078124,0.06362661719322205,0.025042057037353516,-0.005112648010253906
1701886203898094000,12.929093994140626,0.058741599321365356,0.03907489776611328,0.01893138885498047
1701886203915083800,12.946083740234375,0.03610852360725403,0.04794645309448242,0.02818775177001953
1701886203932079900,12.963079833984375,-0.08425378799438477,0.01687335968017578,0.047740936279296875
1701886203949073200,12.9800732421875,-0.14782696962356567,0.024292945861816406,0.02760601043701172
1701886203966066200,12.997066162109375,-0.18355920910835266,-0.002288818359375,0.0125579833984375
1701886203983053600,13.014053466796875,-0.10142210125923157,-0.0002455711364746094,-0.022925376892089844
1701886204000045000,13.031045166015625,-0.015597432851791382,-0.011348247528076172,-0.03898906707763672
1701886204017030700,13.04803076171875,0.032474786043167114,-0.0078582763671875,-0.045042991638183594
1701886204034038300,13.065038330078124,0.019015371799468994,-0.004208564758300781,-0.03603172302246094
1701886204051020800,13.082020751953126,-0.031303584575653076,-0.01038360595703125,-0.02173137664794922
1701886204068014300,13.099014404296875,-0.06773284077644348,-0.01189279556274414,-0.0224456787109375
1701886204085022500,13.1160224609375,-0.06576290726661682,-0.027774333953857422,-0.01837444305419922
1701886204102007800,13.1330078125,-0.026982545852661133,-0.014803409576416016,-0.04777050018310547
1701886204119003600,13.150003662109375,0.03613835573196411,-0.02106189727783203,-0.034743309020996094
1701886204135997000,13.166996826171875,0.056590735912323,-0.012728691101074219,-0.04522132873535156
1701886204152990000,13.183989990234375,0.019813567399978638,-0.014984130859375,-0.04602527618408203
1701886204169982500,13.200982421875,-0.017447173595428467,-0.030092716217041016,-0.050560951232910156
1701886204186976800,13.217976806640625,-0.012790769338607788,-0.029966354370117188,-0.045714378356933594
1701886204203969300,13.23496923828125,-0.008212685585021973,-0.015180587768554688,-0.05028343200683594
1701886204220962300,13.25196240234375,0.0054916441440582275,0.008765220642089844,-0.06463241577148438
1701886204237955600,13.26895556640625,-0.02805575728416443,0.013462543487548828,-0.0599212646484375
1701886204254948400,13.2859482421875,-0.05261725187301636,-0.006360530853271484,-0.06030559539794922
1701886204271940400,13.3029404296875,-0.04257175326347351,-0.05479145050048828,-0.07015705108642578
1701886204288935400,13.319935302734375,0.0630791187286377,-0.039342403411865234,-0.022337913513183594
1701886204305924600,13.336924560546874,0.07524681091308594,0.020298004150390625,0.02658367156982422
1701886204322920700,13.353920654296875,0.011300355195999146,0.10280323028564453,0.03249549865722656
1701886204339914000,13.3709140625,-0.08899062871932983,0.11574602127075195,0.023100852966308594
1701886204356907000,13.387906982421875,-0.12644845247268677,0.10369157791137695,0.012862205505371094
1701886204373900000,13.404900146484374,-0.09645864367485046,0.05210065841674805,0.019910812377929688
1701886204390882300,13.42188232421875,-0.048696368932724,0.020096302032470703,-0.006628990173339844
1701886204407885800,13.4388857421875,-0.010256826877593994,-0.0022220611572265625,-0.008280754089355469
1701886204424876000,13.4558759765625,0.042969971895217896,0.009297370910644531,-0.010334968566894531
1701886204441854500,13.4728544921875,0.11923858523368835,0.017294883728027344,0.01663494110107422
1701886204458865700,13.48986572265625,0.11701604723930359,0.03382062911987305,0.029844284057617188
1701886204475858200,13.506858154296875,0.08015906810760498,0.0545811653137207,-0.00006580352783203125
1701886204492848000,13.52384814453125,-0.014354318380355835,0.03115081787109375,-0.05446910858154297
1701886204509844700,13.5408447265625,-0.05987456440925598,0.007652759552001953,-0.08492851257324219
1701886204526827000,13.557826904296874,-0.028128623962402344,-0.010077476501464844,-0.09213638305664062
1701886204543841800,13.574841796875,0.013664603233337402,-0.0076274871826171875,-0.06531238555908203
1701886204560823600,13.591823486328124,0.021519124507904053,-0.004572391510009766,-0.04713630676269531
1701886204577816800,13.60881689453125,0.0005914270877838135,-0.01078939437866211,0.000476837158203125
1701886204594810000,13.62581005859375,-0.01185724139213562,-0.007650852203369141,0.013837814331054688
1701886204611803100,13.64280322265625,-0.0067192912101745605,-0.014293670654296875,0.003124237060546875
1701886204628799700,13.6597998046875,-0.0022071003913879395,-0.011653423309326172,-0.041210174560546875
1701886204645785600,13.67678564453125,-0.024167418479919434,-0.03780555725097656,-0.06640148162841797
1701886204662769000,13.693768798828126,-0.04608100652694702,-0.053637027740478516,-0.07684516906738281
1701886204679777300,13.71077734375,-0.073790043592453,-0.06286954879760742,-0.0816030502319336
1701886204696769000,13.72776904296875,-0.0784473717212677,-0.02735137939453125,-0.07595157623291016
1701886204713761300,13.74476123046875,-0.06786713004112244,-0.015106678009033203,-0.05078411102294922
1701886204730754600,13.761754638671874,-0.09321913123130798,-0.0030035972595214844,-0.011266708374023438
1701886204747747800,13.778747802734374,-0.1224399209022522,-0.011073589324951172,0.028662681579589844
1701886204764740900,13.795740966796876,-0.11831730604171753,-0.004957675933837891,0.029306411743164062
1701886204781734100,13.812734130859376,-0.12519103288650513,-0.018471717834472656,0.02011585235595703
1701886204798727000,13.829726806640625,-0.09823662042617798,0.010894775390625,-0.0041141510009765625
1701886204815704600,13.84670458984375,-0.10370522737503052,0.0027403831481933594,-0.02764606475830078
1701886204832713000,13.863712890625,-0.06054145097732544,-0.0008635520935058594,-0.02702808380126953
1701886204849706200,13.880706298828125,-0.06429329514503479,-0.008609294891357422,-0.006900787353515625
1701886204866699300,13.89769921875,-0.03949850797653198,0.008196830749511719,-0.005596160888671875
1701886204883692500,13.914692626953125,-0.04313164949417114,0.02069997787475586,0.01987457275390625
1701886204900682800,13.931682861328126,-0.027988851070404053,0.04702138900756836,0.030722618103027344
1701886204917681200,13.94868115234375,-0.0414564311504364,0.05820894241333008,0.045952796936035156
1701886204934671600,13.965671630859376,-0.05978915095329285,0.04397726058959961,0.04157447814941406
1701886204951664400,13.982664306640626,-0.05439072847366333,0.04001617431640625,0.01778697967529297
1701886204968650800,13.999650634765626,-0.01523318886756897,0.039844512939453125,0.012967109680175781
1701886204985657300,14.0166572265625,0.020450830459594727,0.03501272201538086,-0.006714820861816406
1701886205002637800,14.033637939453126,0.049812525510787964,0.0450901985168457,-0.006404876708984375
1701886205019639800,14.050639892578126,0.05484732985496521,0.04120492935180664,0.017981529235839844
1701886205036630000,14.067630126953125,0.02511546015739441,0.046106815338134766,0.008431434631347656
1701886205053620200,14.0846201171875,0.0017748773097991943,0.011319160461425781,-0.016144752502441406
1701886205070618000,14.1016181640625,0.04017460346221924,-0.012270927429199219,-0.049755096435546875
1701886205087609600,14.118609619140624,0.08716979622840881,-0.0103912353515625,0.0032129287719726562
1701886205104602400,14.135602294921876,0.08009552955627441,0.020658016204833984,0.018700599670410156
1701886205121595400,14.152595458984376,-0.0023550093173980713,0.05480670928955078,0.005551338195800781
1701886205138588700,14.169588623046875,-0.08319002389907837,0.05974388122558594,-0.017083168029785156
1701886205155581700,14.186581787109375,-0.11505341529846191,0.03957366943359375,0.011445999145507812
1701886205172574700,14.20357470703125,-0.09505072236061096,0.004622936248779297,0.029267311096191406
1701886205189566700,14.220566650390625,-0.0192166268825531,0.002444744110107422,0.0032901763916015625
1701886205206561300,14.237561279296875,0.027706027030944824,-0.00999307632446289,-0.06073951721191406
1701886205223554000,14.254553955078125,0.07966744899749756,-0.045586585998535156,-0.09593009948730469
1701886205240549600,14.271549560546875,0.10808664560317993,-0.050856590270996094,-0.08183765411376953
1701886205257526000,14.288526123046875,0.0974423885345459,-0.030878543853759766,-0.07187175750732422
1701886205274533600,14.30553369140625,0.019455283880233765,-0.01068735122680664,-0.051659584045410156
1701886205291524000,14.322524169921875,-0.05854874849319458,-0.0013570785522460938,-0.07007312774658203
1701886205308519400,14.33951953125,-0.05595409870147705,-0.005407810211181641,-0.07453536987304688
1701886205325509000,14.356509033203125,-0.009188711643218994,-0.018604278564453125,-0.03630638122558594
1701886205342505200,14.373505126953125,0.032805055379867554,-0.012249946594238281,-0.03584098815917969
1701886205359498500,14.39049853515625,0.023798644542694092,-0.016864776611328125,-0.011514663696289062
1701886205376491500,14.407491455078125,0.008861064910888672,0.0032410621643066406,-0.020605087280273438
1701886205393486000,14.424486083984375,-0.003222167491912842,0.0043315887451171875,0.0037984848022460938
1701886205410477300,14.441477294921874,-0.020902693271636963,0.0238800048828125,-0.020017623901367188
1701886205427453000,14.458452880859374,-0.03216499090194702,0.014440536499023438,-0.04872322082519531
1701886205444463900,14.4754638671875,-0.033092379570007324,-0.004328250885009766,-0.06291961669921875
1701886205461453800,14.492453857421875,-0.0061244964599609375,0.0013704299926757812,-0.048150062561035156
1701886205478450000,14.509449951171876,0.025250732898712158,0.008089065551757812,-0.02360057830810547
1701886205495432400,14.526432373046875,0.04249298572540283,0.014747142791748047,-0.008952140808105469
1701886205512433200,14.54343310546875,0.030295729637145996,0.026018619537353516,0.020870208740234375
1701886205529429200,14.56042919921875,0.018472671508789062,0.05612802505493164,0.036472320556640625
1701886205546422300,14.57742236328125,-0.011494219303131104,0.05130720138549805,0.041176795959472656
1701886205563415300,14.594415283203125,-0.0667056143283844,0.05002260208129883,0.01710796356201172
1701886205580407600,14.611407470703124,-0.05910599231719971,0.019405841827392578,-0.003093719482421875
1701886205597402000,14.628402099609374,-0.009007483720779419,0.013072490692138672,-0.018922805786132812
1701886205614392600,14.645392578125,0.07058265805244446,-0.0014643669128417969,-0.00086212158203125
1701886205631389700,14.6623896484375,0.07776594161987305,0.0076084136962890625,-0.005986213684082031
1701886205648370200,14.6793701171875,0.06123676896095276,0.007600307464599609,-0.0012788772583007812
1701886205665371400,14.696371337890625,0.00675693154335022,0.011663436889648438,0.03745841979980469
1701886205682369000,14.713369140625,-0.09024468064308167,0.0008120536804199219,0.04690074920654297
1701886205699359700,14.73035986328125,-0.14938044548034668,-0.020882606506347656,0.026704788208007812
1701886205716343300,14.74734326171875,-0.12710285186767578,-0.03189563751220703,0.025899887084960938
1701886205733346000,14.764345947265625,-0.054180026054382324,-0.03728675842285156,0.0054187774658203125
1701886205750339300,14.78133935546875,-0.029940515756607056,-0.02382516860961914,-0.052890777587890625
1701886205767331600,14.79833154296875,-0.041433244943618774,-0.020194053649902344,-0.10138797760009766
1701886205784326100,14.815326171875,-0.07493913173675537,-0.025401592254638672,-0.06781578063964844
1701886205801315800,14.83231591796875,-0.07973411679267883,-0.010327816009521484,-0.029175758361816406
1701886205818314200,14.849314208984374,-0.10437804460525513,-0.03942537307739258,-0.019827842712402344
1701886205835301600,14.866301513671875,-0.09444016218185425,-0.07399702072143555,-0.08256721496582031
1701886205852293600,14.883293701171874,-0.018078625202178955,-0.07198762893676758,-0.1015634536743164
1701886205869291000,14.900291015625,0.038421183824539185,-0.044035911560058594,-0.07556915283203125
1701886205886284000,14.917283935546875,0.01848161220550537,0.014122486114501953,-0.0679330825805664
1701886205903273700,14.934273681640626,-0.04668077826499939,0.05733346939086914,-0.01655864715576172
1701886205920270300,14.951270263671875,-0.12825098633766174,0.08492422103881836,0.029443740844726562
1701886205937262800,14.968262939453124,-0.13339823484420776,0.08280420303344727,0.07402896881103516
1701886205954256600,14.985256591796874,-0.025635957717895508,0.07470369338989258,0.1074666976928711
1701886205971249400,15.00224951171875,0.08407074213027954,0.06535053253173828,0.08753395080566406
1701886205988242200,15.0192421875,0.14006000757217407,0.054459571838378906,0.0527191162109375
1701886206005235500,15.0362353515625,0.1439633071422577,0.06234264373779297,0.003970146179199219
1701886206022225400,15.053225341796875,0.10128015279769897,0.04218435287475586,-0.010904312133789062
1701886206039221500,15.070221435546875,0.034609705209732056,0.056227684020996094,0.0038967132568359375
1701886206056214800,15.08721484375,-0.022381216287612915,0.06426763534545898,-0.0007829666137695312
1701886206073208000,15.1042080078125,-0.013813287019729614,0.05783987045288086,0.007898330688476562
1701886206090200300,15.121200439453125,0.027798056602478027,0.05597972869873047,0.005969047546386719
1701886206107195000,15.13819482421875,0.06944683194160461,0.029129981994628906,0.023542404174804688
1701886206124186600,15.1551865234375,0.048505038022994995,0.02178335189819336,0.0077915191650390625
1701886206141180200,15.17218017578125,0.02742937207221985,0.005215644836425781,0.006581306457519531
1701886206158173400,15.18917333984375,-0.0036116838455200195,0.011842727661132812,0.010671615600585938
1701886206175166200,15.206166259765626,-0.05772900581359863,-0.014602184295654297,0.014082908630371094
1701886206192156200,15.22315625,-0.08787193894386292,-0.01261758804321289,0.0030126571655273438
1701886206209155800,15.24015576171875,-0.09846764802932739,-0.025194168090820312,0.01158905029296875
1701886206226145800,15.257145751953125,-0.08077698945999146,-0.02813863754272461,-0.033634185791015625
1701886206243138300,15.27413818359375,-0.08545446395874023,-0.04958009719848633,-0.044394493103027344
1701886206260131600,15.291131591796875,-0.09396740794181824,-0.050581932067871094,-0.044882774353027344
1701886206277123000,15.308123046875,-0.11173412203788757,-0.0459132194519043,-0.02575969696044922
1701886206294118000,15.325117919921874,-0.14728862047195435,-0.04174232482910156,-0.0011749267578125
1701886206311111200,15.342111083984374,-0.14953595399856567,-0.02304363250732422,-0.0061130523681640625
1701886206328104000,15.35910400390625,-0.1554480791091919,-0.019554615020751953,-0.011454582214355469
1701886206345094100,15.37609423828125,-0.10393363237380981,-0.02539968490600586,-0.03610801696777344
1701886206362090000,15.393090087890625,-0.024026930332183838,-0.03605985641479492,-0.03714179992675781
1701886206379083300,15.410083251953125,0.027483463287353516,-0.04585695266723633,-0.06197547912597656
1701886206396076500,15.42707666015625,0.04991447925567627,-0.036499977111816406,-0.0667428970336914
1701886206413066000,15.44406591796875,0.0404762327671051,-0.026622772216796875,-0.0568695068359375
1701886206430062300,15.461062255859375,0.0390545129776001,-0.021043777465820312,-0.04677295684814453
1701886206447055600,15.4780556640625,0.05531644821166992,-0.015436172485351562,-0.051067352294921875
1701886206464057000,15.49505712890625,0.08447879552841187,-0.009745121002197266,-0.06970405578613281
1701886206481041700,15.512041748046874,0.10457035899162292,-0.0036516189575195312,-0.08813858032226562
1701886206498035000,15.529034912109376,0.10129976272583008,-0.0065822601318359375,-0.05840778350830078
1701886206515028000,15.546028076171876,0.08869874477386475,-0.004348278045654297,-0.018924713134765625
1701886206532023000,15.56302294921875,0.041383206844329834,0.021581649780273438,-0.012503623962402344
1701886206549008100,15.580008056640626,0.026018798351287842,0.01400136947631836,-0.016290664672851562
1701886206566007000,15.597007080078125,0.02476400136947632,0.03408384323120117,-0.01074981689453125
1701886206583000300,15.614000244140625,0.051976293325424194,0.026267528533935547,0.022701263427734375
1701886206599991000,15.630990966796874,-0.002430528402328491,0.04475212097167969,0.013635635375976562
1701886206616988700,15.64798876953125,-0.060431867837905884,0.01484060287475586,-0.010335922241210938
1701886206633979400,15.6649794921875,-0.004582315683364868,-0.00911712646484375,-0.054366111755371094
1701886206650973200,15.68197314453125,0.07448214292526245,-0.003432750701904297,-0.035431861877441406
1701886206667966000,15.698966064453124,0.053114116191864014,0.027532100677490234,-0.03433704376220703
1701886206684958700,15.715958740234376,-0.05166253447532654,0.04883289337158203,-0.0029964447021484375
1701886206701952000,15.732951904296876,-0.14544522762298584,0.06956148147583008,0.04664134979248047
1701886206718944800,15.74994482421875,-0.1908048391342163,0.06583309173583984,0.09569072723388672
1701886206735935000,15.76693505859375,-0.16544106602668762,0.04558897018432617,0.11847496032714844
1701886206752930800,15.783930908203125,-0.09881168603897095,0.032772064208984375,0.07314586639404297
1701886206769924400,15.80092431640625,-0.026621222496032715,0.019496440887451172,0.027273178100585938
1701886206786917400,15.81791748046875,0.035867512226104736,0.006646156311035156,-0.017782211303710938
1701886206803910400,15.834910400390624,0.07358488440513611,0.0034885406494140625,-0.05349540710449219
1701886206820903200,15.851903076171874,0.032148927450180054,0.006169795989990234,-0.09700298309326172
1701886206837881600,15.868881591796875,-0.028057098388671875,0.01497507095336914,-0.08775806427001953
1701886206854887200,15.88588720703125,-0.054670631885528564,0.008947372436523438,-0.0539398193359375
1701886206871885000,15.902885009765624,-0.0015157461166381836,0.01280832290649414,-0.031072616577148438
1701886206888875500,15.91987548828125,0.041959136724472046,0.007912158966064453,-0.012903213500976562
1701886206905870000,15.9368701171875,0.06595286726951599,0.011998653411865234,-0.013261795043945312
1701886206922857500,15.953857421875,0.06659546494483948,0.01125192642211914,-0.0136260986328125
1701886206939854800,15.970854736328125,0.04285025596618652,0.010234832763671875,-0.013546943664550781
1701886206956847900,15.987847900390625,0.007532238960266113,0.008296489715576172,-0.03342723846435547
1701886206973837000,16.004837158203124,0.00035449862480163574,-0.0023436546325683594,-0.03406238555908203
1701886206990836700,16.021836669921875,0.017127186059951782,0.006955146789550781,-0.044167518615722656
1701886207007827200,16.0388271484375,0.020192593336105347,0.011228084564208984,-0.030132293701171875
1701886207024820200,16.0558203125,0.0053164660930633545,0.01001739501953125,-0.016132354736328125
1701886207041803300,16.07280322265625,0.00877651572227478,0.000087738037109375,0.0075664520263671875
1701886207058804000,16.089803955078125,0.016396045684814453,0.004467964172363281,0.012076377868652344
1701886207075800000,16.106800048828124,0.004308074712753296,0.008855342864990234,0.011786460876464844
1701886207092795100,16.123795166015626,-0.05438202619552612,0.017361164093017578,0.02134418487548828
1701886207109783300,16.140783203125,-0.08989652991294861,0.02487659454345703,0.0010919570922851562
1701886207126781400,16.157781494140625,-0.08078303933143616,-0.0011954307556152344,-0.00004863739013671875
1701886207143772000,16.17477197265625,-0.04417899250984192,-0.008023738861083984,-0.006522178649902344
1701886207160765000,16.191764892578124,-0.030775129795074463,-0.02400970458984375,-0.02174854278564453
1701886207177757400,16.20875732421875,-0.03221243619918823,-0.010544300079345703,-0.04137897491455078
1701886207194750200,16.225750244140624,-0.051032811403274536,-0.0011744499206542969,-0.03610992431640625
1701886207211746800,16.242746826171874,-0.05111464858055115,0.0131378173828125,-0.021776199340820312
1701886207228737500,16.259737548828124,-0.07397863268852234,-0.0017466545104980469,0.011465072631835938
1701886207245727500,16.2767275390625,-0.07383134961128235,-0.0028944015502929688,-0.008244514465332031
1701886207262723300,16.293723388671875,-0.03951263427734375,-0.03217506408691406,-0.009108543395996094
1701886207279707100,16.31070703125,0.013763904571533203,-0.03713798522949219,-0.0002040863037109375
1701886207296710000,16.3277099609375,0.05237358808517456,-0.031560420989990234,-0.00009441375732421875
1701886207313703000,16.344702880859376,0.01865595579147339,-0.03180885314941406,-0.009491920471191406
1701886207330696000,16.361696044921874,-0.03467610478401184,-0.017197132110595703,-0.02792835235595703
1701886207347689200,16.378689208984376,-0.07757148146629333,-0.012416839599609375,-0.04168415069580078
1701886207364682200,16.39568212890625,-0.07680144906044006,-0.00791168212890625,-0.05613994598388672
1701886207381675300,16.41267529296875,-0.051028430461883545,-0.01279449462890625,-0.05194282531738281
1701886207398668300,16.429668212890626,-0.04424360394477844,-0.022557735443115234,-0.06154346466064453
1701886207415661300,16.446661376953124,0.01517447829246521,-0.04586076736450195,-0.08058643341064453
1701886207432650800,16.463650634765624,0.1319619119167328,-0.04881572723388672,-0.052082061767578125
1701886207449647600,16.480647705078123,0.15967535972595215,-0.025783061981201172,-0.016610145568847656
1701886207466641000,16.497640869140625,0.06789731979370117,0.0313410758972168,-0.018515586853027344
1701886207483633400,16.51463330078125,-0.03590750694274902,0.06827640533447266,0.018296241760253906
1701886207500626200,16.531626220703124,-0.11900731921195984,0.08933544158935547,0.058544158935546875
1701886207517620700,16.548620849609375,-0.1272425353527069,0.07594633102416992,0.07822990417480469
1701886207534612700,16.56561279296875,-0.08370921015739441,0.06085920333862305,0.07248497009277344
1701886207551606000,16.58260595703125,-0.01212221384048462,0.05011320114135742,0.042270660400390625
1701886207568590600,16.599590576171874,0.06490066647529602,0.029521465301513672,0.011934280395507812
1701886207585592000,16.616592041015625,0.09489038586616516,0.022774219512939453,-0.0033903121948242188
1701886207602585300,16.63358544921875,0.09041053056716919,0.036002159118652344,-0.003941535949707031
1701886207619575800,16.650575927734376,0.047567784786224365,0.049569129943847656,-0.0037660598754882812
1701886207636573000,16.667572998046875,-0.00575023889541626,0.04806661605834961,-0.004256248474121094
1701886207653565700,16.684565673828125,-0.020012468099594116,0.04622220993041992,-0.014177322387695312
1701886207670547200,16.701547119140624,-0.0050497353076934814,0.019329071044921875,-0.02585601806640625
1701886207687549700,16.7185498046875,0.00904342532157898,-0.0022554397583007812,-0.041459083557128906
1701886207704544800,16.735544677734374,0.04620710015296936,-0.012207508087158203,-0.04738330841064453
1701886207721537000,16.752537109375,0.044727176427841187,-0.007314205169677734,-0.033023834228515625
1701886207738529800,16.76952978515625,0.03863409161567688,0.01715087890625,-0.03219413757324219
1701886207755517200,16.78651708984375,-0.004871726036071777,0.011916160583496094,-0.017793655395507812
1701886207772519000,16.803518798828126,-0.04973119497299194,0.002384662628173828,-0.041144371032714844
1701886207789509400,16.82050927734375,-0.036456555128097534,-0.030149459838867188,-0.03173255920410156
1701886207806502400,16.83750244140625,-0.048674941062927246,-0.03320932388305664,-0.04526805877685547
1701886207823492000,16.8544921875,-0.03616979718208313,-0.006529808044433594,-0.06305408477783203
1701886207840488700,16.87148876953125,-0.042090415954589844,-0.007496356964111328,-0.041977882385253906
1701886207857481500,16.8884814453125,-0.05198031663894653,0.020790576934814453,-0.015228271484375
1701886207874474800,16.905474853515624,-0.08617386221885681,0.025336265563964844,0.01100921630859375
1701886207891464700,16.922464599609373,-0.14897486567497253,0.03364849090576172,0.04241657257080078
1701886207908460800,16.939460693359376,-0.16329145431518555,0.041309356689453125,0.048694610595703125
1701886207925453800,16.956453857421874,-0.1420380175113678,0.03782510757446289,0.0637960433959961
1701886207942444000,16.973444091796875,-0.10147541761398315,0.04781532287597656,0.024916648864746094
1701886207959440100,16.990440185546873,-0.04673361778259277,0.023175716400146484,0.0054931640625
1701886207976433200,17.00743310546875,0.03099149465560913,0.02805948257446289,-0.024018287658691406
1701886207993426400,17.024426513671877,0.0470733642578125,0.02320098876953125,-0.024595260620117188
1701886208010418700,17.041418701171875,0.03952229022979736,0.032876014709472656,-0.02387523651123047
1701886208027414500,17.05841455078125,0.022389382123947144,0.0281982421875,-0.023749351501464844
1701886208044404000,17.075404052734374,0.03335931897163391,0.023612022399902344,-0.023598670959472656
1701886208061398500,17.0923984375,0.07698214054107666,0.028742313385009766,-0.033568382263183594
1701886208078391600,17.1093916015625,0.09538206458091736,0.02977609634399414,-0.047394752502441406
1701886208095384800,17.126384765625,0.11376741528511047,0.05106830596923828,-0.060662269592285156
1701886208112377900,17.1433779296875,0.10417279601097107,0.04927396774291992,-0.030414581298828125
1701886208129371000,17.160370849609375,0.05214875936508179,0.06627750396728516,0.009844779968261719
1701886208146362600,17.177362548828125,-0.029981940984725952,0.07298421859741211,0.02608203887939453
1701886208163359000,17.19435888671875,-0.08020824193954468,0.09901714324951172,0.0462188720703125
1701886208180350000,17.211349853515625,-0.10233056545257568,0.08871746063232422,0.046051979064941406
1701886208197342500,17.228342529296874,-0.05944862961769104,0.04880332946777344,0.025743484497070312
1701886208214337000,17.2453369140625,0.02602696418762207,0.032914161682128906,0.014773368835449219
1701886208231329300,17.262329345703126,0.07643601298332214,0.028895854949951172,0.033331871032714844
1701886208248306700,17.279306640625,0.03992927074432373,0.07745122909545898,0.019834518432617188
1701886208265309700,17.296309814453124,-0.051965683698654175,0.10559320449829102,0.025200843811035156
1701886208282311200,17.313311279296876,-0.15573427081108093,0.10402727127075195,0.049254417419433594
1701886208299301600,17.330301513671873,-0.20564153790473938,0.0770273208618164,0.09647274017333984
1701886208316284400,17.347284423828125,-0.15654724836349487,0.05392789840698242,0.09833717346191406
1701886208333284900,17.364284912109376,-0.06536158919334412,0.024230480194091797,0.04662895202636719
1701886208350281200,17.38128125,0.045603394508361816,-0.010607719421386719,-0.0010690689086914062
1701886208367273700,17.398273681640624,0.10832548141479492,-0.031230926513671875,-0.047939300537109375
1701886208384267800,17.415267822265626,0.11700206995010376,-0.020881175994873047,-0.09337615966796875
1701886208401260300,17.43226025390625,0.05993279814720154,-0.024471759796142578,-0.07518482208251953
1701886208418253300,17.44925341796875,-0.02027943730354309,-0.023047447204589844,-0.0664205551147461
1701886208435246600,17.46624658203125,-0.03825783729553223,-0.030913352966308594,-0.05360889434814453
1701886208452239600,17.483239501953125,0.005456745624542236,-0.042873382568359375,-0.059906959533691406
1701886208469228800,17.500228759765626,0.06782799959182739,-0.04568767547607422,-0.07628440856933594
1701886208486225700,17.5172255859375,0.09297710657119751,-0.03325462341308594,-0.09158802032470703
1701886208503218700,17.53421875,0.08583304286003113,-0.048535823822021484,-0.048926353454589844
1701886208520211000,17.5512109375,0.06819790601730347,-0.048795223236083984,-0.029886245727539062
1701886208537203500,17.568203369140626,0.03419610857963562,-0.058693885803222656,-0.02528667449951172
1701886208554200300,17.585200439453125,0.0038116872310638428,-0.07390165328979492,-0.048804283142089844
1701886208571191300,17.60219140625,0.019985586404800415,-0.05387687683105469,-0.054121971130371094
1701886208588184000,17.61918408203125,0.041852086782455444,-0.03436756134033203,-0.05878925323486328
1701886208605178600,17.6361787109375,0.01652812957763672,-0.02411651611328125,-0.06267547607421875
1701886208622170400,17.65317041015625,0.0011958777904510498,-0.023275375366210938,-0.052704811096191406
1701886208639163600,17.67016357421875,-0.042115211486816406,-0.032605648040771484,-0.01880359649658203
1701886208656160300,17.68716015625,-0.04349514842033386,-0.022265911102294922,-0.0232391357421875
1701886208673146600,17.704146728515624,-0.0441780686378479,-0.04048728942871094,-0.008454322814941406
1701886208690142700,17.721142822265627,-0.01633894443511963,-0.034455299377441406,0.001728057861328125
1701886208707135700,17.7381357421875,0.007050752639770508,-0.028202056884765625,0.016823768615722656
1701886208724129000,17.75512890625,0.011196136474609375,-0.007984161376953125,0.022139549255371094
1701886208741121800,17.772121826171876,0.005105942487716675,-0.007473945617675781,-0.006336212158203125
1701886208758115000,17.789114990234374,0.009182929992675781,-0.007026195526123047,-0.015699386596679688
1701886208775108400,17.8061083984375,-0.015035361051559448,-0.02533721923828125,-0.039208412170410156
1701886208792101400,17.823101318359374,-0.030357688665390015,-0.018455982208251953,-0.06207084655761719
1701886208809094400,17.840094482421875,-0.040580958127975464,-0.020131587982177734,-0.046133995056152344
1701886208826087400,17.85708740234375,-0.03548303246498108,0.002303600311279297,-0.02530384063720703
1701886208843077400,17.874077392578126,-0.044161438941955566,0.010058403015136719,-0.004599571228027344
1701886208860071400,17.891071533203124,-0.033025383949279785,0.017652511596679688,0.016023635864257812
1701886208877068800,17.90806884765625,-0.008601903915405273,0.020214080810546875,0.02693653106689453
1701886208894060000,17.92506005859375,0.005353301763534546,0.01760721206665039,0.032835960388183594
1701886208911052800,17.942052734375,0.02377137541770935,0.02469348907470703,-0.009359359741210938
1701886208928045800,17.9590458984375,0.014394789934158325,0.040703773498535156,-0.027620315551757812
1701886208945036300,17.976036376953125,-0.0038298070430755615,0.04259157180786133,-0.02630138397216797
1701886208962034700,17.99303466796875,-0.012850850820541382,0.026071548461914062,-0.015374183654785156
1701886208979025400,18.010025390625,0.0058560967445373535,0.00017833709716796875,-0.02378559112548828
1701886208996009000,18.027009033203125,0.07303699851036072,-0.0015988349914550781,-0.018032073974609375
1701886209013011500,18.044011474609373,0.10178011655807495,0.012438297271728516,0.012982368469238281
1701886209030003700,18.061003662109375,0.06332367658615112,0.04622936248779297,0.044312477111816406
1701886209046998300,18.077998291015625,-0.027798891067504883,0.08332443237304688,0.056662559509277344
1701886209063993000,18.0949931640625,-0.13183876872062683,0.08078336715698242,0.07371807098388672
1701886209080981200,18.111981201171876,-0.16444596648216248,0.07729244232177734,0.07442474365234375
1701886209097979000,18.128978759765626,-0.1294846534729004,0.04827308654785156,0.08807182312011719
1701886209114970600,18.145970703125,-0.08079266548156738,0.027840614318847656,0.053635597229003906
1701886209131963100,18.162963134765626,-0.011572867631912231,0.0014314651489257812,0.02310466766357422
1701886209148956200,18.1799560546875,0.047406673431396484,-0.019109725952148438,0.00717926025390625
1701886209165946000,18.196946044921877,0.058248549699783325,-0.010456085205078125,-0.041088104248046875
1701886209182942500,18.2139423828125,-0.002131134271621704,-0.010884761810302734,-0.0068607330322265625
1701886209199935500,18.230935546875,-0.0910685658454895,0.008133411407470703,-0.006258964538574219
1701886209216928500,18.247928466796875,-0.13609790802001953,-0.0025920867919921875,-0.005850791931152344
1701886209233917400,18.26491748046875,-0.11372241377830505,-0.012430667877197266,-0.025930404663085938
1701886209250918700,18.281918701171875,-0.02458176016807556,-0.03256988525390625,-0.04606056213378906
1701886209267907800,18.298907958984376,0.04651263356208801,-0.041918277740478516,-0.061064720153808594
1701886209284900900,18.31590087890625,0.07476195693016052,-0.03665637969970703,-0.05587196350097656
1701886209301894100,18.33289404296875,0.04984003305435181,-0.04470109939575195,-0.04536724090576172
1701886209318887200,18.34988720703125,-0.018502384424209595,-0.04299306869506836,-0.01474761962890625
1701886209335880200,18.366880126953124,-0.05436152219772339,-0.021515846252441406,-0.017625808715820312
1701886209352870100,18.3838701171875,-0.056179702281951904,-0.014929771423339844,-0.011790275573730469
1701886209369866200,18.4008662109375,-0.02820524573326111,0.0003657341003417969,-0.035050392150878906
1701886209386849000,18.41784912109375,0.02490141987800598,-0.016993045806884766,-0.05875205993652344
1701886209403852500,18.4348525390625,0.08161669969558716,-0.019960403442382812,-0.048668861389160156
1701886209420845000,18.451844970703124,0.15067097544670105,-0.03692770004272461,-0.06238269805908203
1701886209437841000,18.4688408203125,0.1381518840789795,-0.029002666473388672,-0.04633331298828125
1701886209454826200,18.485826171875,0.06712847948074341,-0.006083011627197266,-0.04372692108154297
1701886209471829500,18.50282958984375,-0.01735013723373413,-0.00229644775390625,-0.021048545837402344
1701886209488807400,18.519807373046874,-0.012199610471725464,0.016489028930664062,0.00043201446533203125
1701886209505811200,18.536811279296874,-0.002142995595932007,0.025023460388183594,0.025726318359375
1701886209522804200,18.55380419921875,0.012551933526992798,0.0416254997253418,0.03649139404296875
1701886209539796200,18.570796142578125,-0.02521929144859314,0.04316520690917969,0.0092315673828125
1701886209556791000,18.587791015625,-0.052540361881256104,0.02544689178466797,0.014822006225585938
1701886209573783300,18.604783203125,-0.0564974844455719,0.021902084350585938,0.0011529922485351562
1701886209590776600,18.621776611328126,-0.03667724132537842,0.03206682205200195,-0.01762676239013672
1701886209607768800,18.638768798828124,-0.02500617504119873,0.03263044357299805,-0.04595756530761719
1701886209624763600,18.655763671875,0.019723445177078247,0.0384368896484375,-0.05549430847167969
1701886209641756000,18.672755859375,0.051164478063583374,0.040567874908447266,-0.025884628295898438
1701886209658749000,18.6897490234375,0.048070430755615234,0.05130195617675781,-0.010528564453125
1701886209675739000,18.70673876953125,0.03491508960723877,0.0629887580871582,-0.018934249877929688
1701886209692735200,18.7237353515625,0.017026782035827637,0.06548118591308594,0.0063381195068359375
1701886209709725200,18.74072509765625,0.003673851490020752,0.07732486724853516,0.046436309814453125
1701886209726733300,18.7577333984375,-0.0765775740146637,0.09201574325561523,0.06193256378173828
1701886209743711200,18.774711181640626,-0.1361374855041504,0.05713224411010742,0.04695892333984375
1701886209760707600,18.79170751953125,-0.07619607448577881,0.040497779846191406,0.007603645324707031
1701886209777688300,18.808688232421876,0.08261781930923462,0.03932380676269531,0.010295867919921875
1701886209794693600,18.825693603515624,0.1340688169002533,0.057621002197265625,-0.005446434020996094
1701886209811686700,18.842686767578126,0.020429521799087524,0.07468986511230469,-0.024117469787597656
1701886209828680000,18.859679931640624,-0.09041473269462585,0.0723576545715332,-0.014689445495605469
1701886209845672700,18.876672607421874,-0.12336075305938721,0.0465550422668457,0.032362937927246094
1701886209862662700,18.89366259765625,-0.059356361627578735,0.0435795783996582,0.050019264221191406
1701886209879658800,18.91065869140625,-0.0018859505653381348,0.025137901306152344,0.008701324462890625
1701886209896649500,18.9276494140625,0.04222387075424194,0.009809017181396484,-0.04749107360839844
1701886209913647900,18.94464794921875,0.059310853481292725,-0.014340400695800781,-0.054779052734375
1701886209930637600,18.961637451171875,0.09402596950531006,-0.021918296813964844,-0.06185722351074219
1701886209947632400,18.97863232421875,0.07899132370948792,0.00490570068359375,-0.0814218521118164
1701886209964624600,18.995624755859374,0.05423280596733093,0.013051509857177734,-0.08220577239990234
1701886209981617700,19.01261767578125,0.030681729316711426,0.015653610229492188,-0.0872030258178711
1701886209998611000,19.02961083984375,-0.011038333177566528,-0.008898258209228516,-0.063568115234375
1701886210015603500,19.046603515625,-0.025538533926010132,-0.003985881805419922,-0.03479480743408203
1701886210032578000,19.063578125,-0.006037473678588867,0.010058879852294922,-0.006255149841308594
1701886210049590000,19.080590087890624,0.013333737850189209,0.032637596130371094,-0.016519546508789062
1701886210066583000,19.0975830078125,0.02195131778717041,0.03125619888305664,-0.041187286376953125
1701886210083576000,19.114576171875,0.029414057731628418,0.01627635955810547,-0.0798654556274414
1701886210100560600,19.131560546875,0.07475325465202332,0.017909526824951172,-0.09436607360839844
1701886210117561600,19.1485615234375,0.10289996862411499,0.03494834899902344,-0.05951499938964844
1701886210134556200,19.16555615234375,0.0650767982006073,0.05724143981933594,0.009410858154296875
1701886210151538000,19.182537841796876,0.016587764024734497,0.0841822624206543,0.08839035034179688
1701886210168531200,19.19953125,-0.0524677038192749,0.10086584091186523,0.1427316665649414
1701886210185531600,19.21653173828125,-0.06913602352142334,0.10564136505126953,0.15217018127441406
1701886210202528000,19.233528076171876,-0.09049764275550842,0.0887451171875,0.1220541000366211
1701886210219527700,19.250527587890623,-0.08221161365509033,0.06531286239624023,0.08628082275390625
1701886210236503300,19.26750341796875,-0.06312340497970581,0.03631258010864258,0.059699058532714844
1701886210253504000,19.28450390625,-0.040127843618392944,0.02150583267211914,0.01806640625
1701886210270500400,19.301500244140627,-0.02631998062133789,0.007422924041748047,0.015379905700683594
1701886210287493000,19.3184931640625,-0.05614134669303894,-0.0026869773864746094,-0.01612567901611328
1701886210304486400,19.335486328125,-0.07027080655097961,-0.0223236083984375,-0.042189598083496094
1701886210321476000,19.35247607421875,-0.050162315368652344,-0.04208230972290039,-0.05509376525878906
1701886210338472400,19.369472412109374,-0.04301553964614868,-0.06144237518310547,-0.09108448028564453
1701886210355465700,19.3864658203125,0.02024969458580017,-0.07968711853027344,-0.11276435852050781
1701886210372458800,19.403458740234374,0.029588818550109863,-0.08604669570922852,-0.13301467895507812
1701886210389451800,19.42045166015625,0.04517662525177002,-0.08207321166992188,-0.10469245910644531
1701886210406444800,19.43744482421875,0.03241252899169922,-0.0729217529296875,-0.07105731964111328
1701886210423437800,19.454437744140623,-0.013335973024368286,-0.07268524169921875,-0.05112934112548828
1701886210440430300,19.471430419921877,-0.03139680624008179,-0.07733869552612305,-0.05101203918457031
1701886210457425200,19.488425048828127,-0.016682595014572144,-0.06272697448730469,-0.05565071105957031
1701886210474417400,19.50541748046875,0.0208376944065094,-0.0627908706665039,-0.08500289916992188
1701886210491410700,19.52241064453125,0.04865804314613342,-0.0862894058227539,-0.1329326629638672
1701886210508403700,19.53940380859375,0.11507350206375122,-0.0794215202331543,-0.16116714477539062
1701886210525396700,19.556396728515626,0.14239752292633057,-0.0455169677734375,-0.11071205139160156
1701886210542374000,19.573373779296876,0.09323719143867493,-0.005005359649658203,-0.044376373291015625
1701886210559382800,19.5903828125,-0.021943360567092896,0.04897880554199219,0.007533073425292969
1701886210576376000,19.6073759765625,-0.12051165103912354,0.06807899475097656,0.05939769744873047
1701886210593369000,19.624369140625,-0.11468461155891418,0.07570648193359375,0.09470653533935547
1701886210610362000,19.641362060546875,-0.03922352194786072,0.07768440246582031,0.09959220886230469
1701886210627354400,19.658354248046876,0.03556859493255615,0.06397008895874023,0.07025146484375
1701886210644346400,19.675346435546874,0.07757815718650818,0.05846977233886719,0.040520668029785156
1701886210661342500,19.692342529296877,0.039048582315444946,0.039198875427246094,0.026681900024414062
1701886210678335700,19.709335693359375,0.015118002891540527,0.06366252899169922,0.022203445434570312
1701886210695327500,19.726327392578124,-0.02181696891784668,0.07334375381469727,0.06624984741210938
1701886210712320800,19.74332080078125,-0.045998960733413696,0.09657859802246094,0.0706624984741211
1701886210729313800,19.760313720703124,-0.036283254623413086,0.07009124755859375,0.08369159698486328
1701886210746308900,19.777308837890626,-0.017415523529052734,0.05643415451049805,0.052265167236328125
1701886210763294200,19.794294189453126,0.007109701633453369,0.03318214416503906,0.01634502410888672
1701886210780292900,19.81129296875,0.05503976345062256,0.018717288970947266,-0.015480995178222656
1701886210797286000,19.828285888671875,0.04560002684593201,-0.005064487457275391,-0.05135345458984375
1701886210814279200,19.845279052734377,0.04952844977378845,-0.022896766662597656,-0.06754875183105469
1701886210831272200,19.862272216796875,0.038327544927597046,-0.0301666259765625,-0.06412029266357422
1701886210848265200,19.87926513671875,0.03238534927368164,-0.03153705596923828,-0.060092926025390625
1701886210865256400,19.89625634765625,-0.0060828328132629395,-0.02771139144897461,-0.045668601989746094
1701886210882253600,19.913253662109376,-0.03606733679771423,-0.023885726928710938,-0.0509796142578125
1701886210899244800,19.930244873046874,-0.03249087929725647,-0.01509857177734375,-0.07536506652832031
1701886210916237600,19.947237548828124,-0.0009847283363342285,-0.024662494659423828,-0.08977890014648438
1701886210933230600,19.964230712890625,0.017618775367736816,-0.02350139617919922,-0.06589603424072266
1701886210950222800,19.981222900390627,-0.020506709814071655,-0.021504878997802734,-0.04514312744140625
1701886210967220700,19.998220703125,-0.06331616640090942,-0.005181312561035156,-0.014491081237792969
1701886210984211000,20.0152109375,-0.07620364427566528,0.011340141296386719,0.02495098114013672
1701886211001203200,20.032203125,-0.06522896885871887,0.017497539520263672,0.040053367614746094
1701886211018195200,20.0491953125,-0.050681471824645996,0.022686481475830078,0.03551006317138672
1701886211035190000,20.06618994140625,-0.026034623384475708,0.0038042068481445312,0.025506019592285156
1701886211052180000,20.083179931640625,-0.016216576099395752,0.00990438461303711,0.021101951599121094
1701886211069175600,20.100175537109376,0.007449090480804443,0.02956390380859375,0.007027626037597656
1701886211086168600,20.11716845703125,0.0033381879329681396,0.03954887390136719,-0.011870384216308594
1701886211103161900,20.134161865234375,-0.014800995588302612,0.030091285705566406,-0.011767387390136719
1701886211120155000,20.15115478515625,0.005163103342056274,0.03459024429321289,-0.0070953369140625
1701886211137148200,20.168148193359375,0.029543906450271606,0.0151824951171875,-0.0024280548095703125
1701886211154141000,20.185140869140625,0.05801045894622803,0.011098384857177734,-0.007458686828613281
1701886211171134200,20.20213427734375,0.04369273781776428,-0.0019011497497558594,0.021936416625976562
1701886211188127200,20.219127197265625,0.033804506063461304,0.018016815185546875,0.022922515869140625
1701886211205120000,20.2361201171875,0.02369821071624756,0.02755117416381836,0.042021751403808594
1701886211222113500,20.253113525390624,-0.012357145547866821,0.026392459869384766,-0.006519317626953125
1701886211239106600,20.2701064453125,-0.028984040021896362,-0.023976802825927734,-0.0653228759765625
1701886211256099300,20.287099365234376,0.0222739577293396,-0.06844425201416016,-0.14353275299072266
1701886211273089500,20.304089599609377,0.13992935419082642,-0.08076095581054688,-0.1530160903930664
1701886211290086000,20.3210859375,0.1667768657207489,-0.07109975814819336,-0.10335922241210938
1701886211307079000,20.338078857421873,0.07815307378768921,-0.01708698272705078,-0.0748291015625
1701886211324072000,20.355072021484375,-0.09342074394226074,0.002795696258544922,-0.0031824111938476562
1701886211341063200,20.372063232421876,-0.20273038744926453,0.016370773315429688,0.03810691833496094
1701886211358059000,20.38905908203125,-0.16812637448310852,0.0035696029663085938,0.048537254333496094
1701886211375051500,20.406051513671876,-0.09559556841850281,-0.015053749084472656,0.03357219696044922
1701886211392044300,20.423044189453126,-0.011532127857208252,-0.04385519027709961,-0.034420013427734375
1701886211409037600,20.44003759765625,0.033923953771591187,-0.06117725372314453,-0.08707427978515625
