time,seconds_elapsed,z,y,x
1701889386522365700,0.10236572265625,0.1471700668334961,0.16920042037963867,0.0027582645416259766
1701889386539347500,0.119347412109375,0.6152791976928711,0.4595756530761719,0.11947596073150635
1701889386556338700,0.136338623046875,1.1509876251220703,0.5418014526367188,0.07313048839569092
1701889386573322000,0.153322021484375,1.670198917388916,0.570551872253418,-0.18325793743133545
1701889386590314500,0.170314453125,2.011282444000244,0.48865509033203125,-0.1052125096321106
1701889386607297800,0.1872978515625,2.1906137466430664,0.6017003059387207,-0.09355288743972778
1701889386624288000,0.2042880859375,2.396181106567383,0.5069217681884766,-0.287924200296402
1701889386641275600,0.221275634765625,2.4242706298828125,0.3628396987915039,-0.7541534900665283
1701889386658262500,0.238262451171875,2.508803367614746,0.36042213439941406,-1.1576569080352783
1701889386675250700,0.255250732421875,2.593745231628418,0.30003881454467773,-1.3019492626190186
1701889386692236800,0.27223681640625,2.9938454627990723,0.04129505157470703,-1.1872481107711792
1701889386709216500,0.289216552734375,3.5367703437805176,0.010522842407226562,-0.9447619915008545
1701889386726214700,0.306214599609375,3.6718740463256836,-0.37886476516723633,-0.8456737399101257
1701889386743201300,0.323201171875,2.8677124977111816,-0.7195267677307129,-0.9473336338996887
1701889386760178700,0.3401787109375,1.7454791069030762,-0.9624395370483398,-0.9598018527030945
1701889386777174300,0.35717431640625,0.4668149948120117,-1.2947001457214355,-0.7554638385772705
1701889386794164000,0.3741640625,1.21677827835083,-0.8377861976623535,-1.3923718929290771
1701889386811153400,0.3911533203125,1.594266414642334,-1.4971399307250977,-1.2683210372924805
1701889386828134400,0.408134521484375,1.7034788131713867,-1.490201473236084,-1.2674274444580078
1701889386845119000,0.425118896484375,1.3814868927001953,-1.8485746383666992,-1.0088238716125488
1701889386862116400,0.442116455078125,0.9643082618713379,-2.232590675354004,-0.8469921946525574
1701889386879100000,0.459099853515625,-0.10592126846313477,-2.602797508239746,-0.892603874206543
1701889386896080100,0.476080078125,-1.3729429244995117,-3.053898334503174,-1.2483398914337158
1701889386913077500,0.493077392578125,-2.0335779190063477,-3.4140896797180176,-1.9221258163452148
1701889386930066700,0.510066650390625,-2.052567481994629,-3.9333720207214355,-2.4310474395751953
1701889386947049500,0.527049560546875,-1.5268340110778809,-4.329994201660156,-2.4730043411254883
1701889386964050400,0.544050537109375,-1.7963314056396484,-4.622282028198242,-2.640597343444824
1701889386981020200,0.561020263671875,-2.8599743843078613,-5.002738952636719,-2.9142401218414307
1701889386998016800,0.578016845703125,-3.7578928470611572,-5.972273826599121,-2.751619338989258
1701889387015006000,0.595005859375,-3.08621883392334,-5.38283634185791,-3.5956149101257324
1701889387031992600,0.61199267578125,-1.6493693590164185,-6.666679859161377,-3.7445743083953857
1701889387048976400,0.628976318359375,0.12446165084838867,-6.105127811431885,-4.19782018661499
1701889387065966800,0.645966796875,-0.545150637626648,-6.602468490600586,-3.5660505294799805
1701889387082948600,0.662948486328125,-1.254577875137329,-7.025513648986816,-2.1107871532440186
1701889387099944200,0.679944091796875,-0.7983700037002563,-7.247805595397949,-1.7322721481323242
1701889387116926700,0.6969267578125,0.951073408126831,-7.725283622741699,-1.9249234199523926
1701889387133916700,0.713916748046875,2.119176149368286,-7.771299362182617,-1.8248510360717773
1701889387150905600,0.730905517578125,1.2100214958190918,-8.245405197143555,0.03260183334350586
1701889387167882000,0.747882080078125,-0.23150789737701416,-8.27439022064209,2.2487082481384277
1701889387184879400,0.76487939453125,-1.5117816925048828,-8.361862182617188,2.8590879440307617
1701889387201868800,0.781868896484375,-0.4637047052383423,-8.900799751281738,2.503537178039551
1701889387218855000,0.79885498046875,2.524510622024536,-8.806032180786133,3.185061454772949
1701889387235856400,0.8158564453125,3.1770801544189453,-8.801198959350586,5.144844055175781
1701889387252829700,0.83282958984375,2.448225736618042,-8.68381118774414,8.542557716369629
1701889387269815800,0.84981591796875,1.2539199590682983,-7.970003128051758,9.65384578704834
1701889387286802700,0.866802734375,0.30132222175598145,-7.707152366638184,8.636509895324707
1701889387303794200,0.883794189453125,0.6791436672210693,-8.01681137084961,7.477426528930664
1701889387320778500,0.900778564453125,1.752849817276001,-8.45786190032959,7.489389419555664
1701889387337768200,0.917768310546875,2.5077381134033203,-8.294278144836426,9.16976261138916
1701889387354755800,0.934755859375,2.199202060699463,-7.084173679351807,10.701074600219727
1701889387371743200,0.9517431640625,1.5293982028961182,-4.8385820388793945,10.897247314453125
1701889387388732000,0.96873193359375,1.3481231927871704,-2.0948057174682617,10.048888206481934
1701889387405716000,0.985716064453125,1.7226252555847168,0.03724384307861328,9.293831825256348
1701889387422703900,1.002703857421875,2.9808993339538574,1.7281794548034668,7.961390495300293
1701889387439692500,1.019692626953125,3.9616074562072754,2.6600866317749023,6.822504043579102
1701889387456670500,1.03667041015625,4.3758087158203125,2.9957046508789062,6.61745023727417
1701889387473675000,1.053675048828125,4.749274253845215,3.414706230163574,6.5889892578125
1701889387490658000,1.070657958984375,4.469602584838867,3.8169543743133545,6.017672538757324
1701889387507641300,1.087641357421875,3.613009214401245,4.091322898864746,5.18541955947876
1701889387524631300,1.10463134765625,2.1168837547302246,4.643060684204102,4.177552700042725
1701889387541615400,1.121615478515625,0.8420710563659668,5.2169270515441895,3.890225887298584
1701889387558601700,1.138601806640625,-0.4445216655731201,5.46375846862793,4.761421203613281
1701889387575588600,1.155588623046875,-1.1729023456573486,5.5934858322143555,5.586376667022705
1701889387592578600,1.17257861328125,-1.5440161228179932,5.614768028259277,6.294922828674316
1701889387609567700,1.189567626953125,-1.424666404724121,5.919205665588379,7.060339450836182
1701889387626558000,1.206557861328125,-1.625902533531189,6.7482781410217285,7.49888277053833
1701889387643544800,1.223544921875,-2.3204994201660156,7.352566242218018,7.942108154296875
1701889387660534000,1.240533935546875,-2.738069534301758,6.997941970825195,9.018939971923828
1701889387677516300,1.257516357421875,-2.06229829788208,6.041563034057617,10.263788223266602
1701889387694507800,1.2745078125,-1.2936922311782837,3.8015170097351074,10.306741714477539
1701889387711494100,1.291494140625,-0.539118766784668,2.9126338958740234,10.370994567871094
1701889387728482600,1.308482666015625,-0.00667262077331543,2.344778060913086,9.753076553344727
1701889387745470200,1.32547021484375,0.1922510862350464,2.1827826499938965,8.992799758911133
1701889387762459600,1.342459716796875,0.5343223810195923,1.6613812446594238,8.448347091674805
1701889387779443000,1.35944287109375,0.8821223974227905,0.35199499130249023,8.131401062011719
1701889387796434700,1.3764345703125,1.3012261390686035,-1.4209036827087402,7.717934608459473
1701889387813410300,1.393410400390625,2.103067636489868,-2.8906002044677734,6.661258697509766
1701889387830410200,1.41041015625,3.086599349975586,-3.981627941131592,5.863250732421875
1701889387847392800,1.427392822265625,3.650425672531128,-4.187315940856934,4.986218452453613
1701889387864384300,1.44438427734375,3.9759929180145264,-3.955655336380005,3.816908836364746
1701889387881373700,1.461373779296875,4.098970413208008,-3.6770613193511963,2.763363838195801
1701889387898348300,1.478348388671875,4.558427333831787,-3.3805084228515625,1.5026731491088867
1701889387915346700,1.4953466796875,4.76780891418457,-3.3704569339752197,0.5708904266357422
1701889387932333300,1.512333251953125,4.645447731018066,-3.7241225242614746,-0.23986244201660156
1701889387949316000,1.529316162109375,4.823256969451904,-3.94232439994812,-1.0257372856140137
1701889387966309000,1.54630908203125,5.031031608581543,-4.1171746253967285,-1.6272187232971191
1701889387983297500,1.563297607421875,4.914019584655762,-4.278493404388428,-2.2628555297851562
1701889388000275500,1.580275390625,4.672355651855469,-4.381113052368164,-2.975494384765625
1701889388017262600,1.5972626953125,4.665675163269043,-4.595767498016357,-3.4082112312316895
1701889388034262000,1.614261962890625,5.012341499328613,-4.785857200622559,-3.586996555328369
1701889388051246300,1.631246337890625,5.335479259490967,-5.094910621643066,-3.610991954803467
1701889388068235000,1.648235107421875,5.881196022033691,-5.325053691864014,-3.853936195373535
1701889388085222400,1.665222412109375,6.318436622619629,-5.652533054351807,-3.871166229248047
1701889388102208500,1.68220849609375,6.512879371643066,-6.0421624183654785,-3.5456905364990234
1701889388119195400,1.6991953125,6.9004716873168945,-6.546859264373779,-2.923992156982422
1701889388136193800,1.71619384765625,7.18067741394043,-6.884864807128906,-2.5286598205566406
1701889388153171200,1.733171142578125,7.01646089553833,-7.328434467315674,-2.357851505279541
1701889388170160600,1.75016064453125,6.271975517272949,-7.836749076843262,-1.9977059364318848
1701889388187145700,1.767145751953125,5.70778751373291,-7.989838123321533,-1.7153701782226562
1701889388204135200,1.78413525390625,4.884262561798096,-8.134669303894043,-1.7168011665344238
1701889388221125600,1.801125732421875,3.7693228721618652,-8.088554382324219,-2.045146942138672
1701889388238108400,1.8181083984375,2.8774490356445312,-7.880402088165283,-2.157229423522949
1701889388255098600,1.8350986328125,1.8975727558135986,-7.658529758453369,-1.723494529724121
1701889388272083000,1.8520830078125,1.379805326461792,-7.378806114196777,-1.098073959350586
1701889388289070600,1.869070556640625,1.0530712604522705,-7.1503376960754395,-0.1283283233642578
1701889388306063000,1.88606298828125,0.8253047466278076,-7.032838344573975,0.9586973190307617
1701889388323049000,1.903049072265625,0.7683029174804688,-7.008346080780029,2.0713272094726562
1701889388340048600,1.920048583984375,1.0509681701660156,-6.7505598068237305,2.8099708557128906
1701889388357019400,1.937019287109375,1.574981451034546,-6.2600836753845215,2.779163360595703
1701889388374017300,1.954017333984375,2.3963849544525146,-5.149782180786133,2.3604249954223633
1701889388391004200,1.971004150390625,2.571949005126953,-3.7998123168945312,2.5926265716552734
1701889388407984600,1.987984619140625,2.166012763977051,-2.216493844985962,3.0718469619750977
1701889388424974800,2.004974853515625,1.790588140487671,-0.5821919441223145,3.3761777877807617
1701889388441963800,2.0219638671875,1.4653003215789795,0.9296958446502686,3.3082637786865234
1701889388458947600,2.038947509765625,0.8342705965042114,1.9943346977233887,3.0920791625976562
1701889388475936300,2.055936279296875,-0.1629946231842041,2.6920013427734375,2.6822690963745117
1701889388492924000,2.072923828125,-0.8452439308166504,2.9821486473083496,2.580082893371582
1701889388509908200,2.089908203125,-0.938499927520752,3.2248330116271973,2.8301572799682617
1701889388526899700,2.106899658203125,-0.46072936058044434,3.2034568786621094,3.37595272064209
1701889388543887600,2.1238876953125,0.5975940227508545,3.5867185592651367,3.7440109252929688
1701889388560877000,2.140876953125,1.1183857917785645,4.066954135894775,3.485605239868164
1701889388577860600,2.157860595703125,0.7787635922431946,4.371636390686035,3.3472137451171875
1701889388594850600,2.1748505859375,0.34841907024383545,4.685072898864746,3.4675440788269043
1701889388611834000,2.191834228515625,-0.14557671546936035,4.779770374298096,4.15390157699585
1701889388628825900,2.208825927734375,-0.3887096643447876,4.768077373504639,5.219870567321777
1701889388645814300,2.225814208984375,-0.6743289232254028,4.819845199584961,6.115985870361328
1701889388662801000,2.24280078125,-1.2802225351333618,5.042536735534668,7.051172733306885
1701889388679788300,2.259788330078125,-2.282071828842163,5.381842613220215,7.40912389755249
1701889388696763600,2.276763671875,-3.3661255836486816,4.713014602661133,7.935104846954346
1701889388713765400,2.293765380859375,-3.2373270988464355,3.1196892261505127,9.211545944213867
1701889388730754800,2.3107548828125,-2.4909987449645996,1.185840129852295,10.582783699035645
1701889388747736000,2.327736083984375,-1.5474368333816528,0.7459802627563477,10.833602905273438
1701889388764725000,2.34472509765625,-1.1511011123657227,1.6854581832885742,9.657644271850586
1701889388781713000,2.361712890625,-0.7685332298278809,1.8672895431518555,8.636743545532227
1701889388798701000,2.378701171875,0.2189497947692871,0.6551327705383301,8.34243392944336
1701889388815675100,2.395675048828125,1.4022420644760132,-1.5039410591125488,8.32944107055664
1701889388832665900,2.412665771484375,2.6718668937683105,-3.253424644470215,7.499814987182617
1701889388849655300,2.4296552734375,3.6742615699768066,-4.032783508300781,6.164922714233398
1701889388866652200,2.446652099609375,4.398233413696289,-3.935647487640381,4.111940383911133
1701889388883630300,2.46363037109375,4.474287986755371,-3.4850575923919678,2.094778060913086
1701889388900629200,2.480629150390625,4.471498966217041,-3.203728675842285,0.42682743072509766
1701889388917612800,2.49761279296875,4.20918607711792,-2.7974917888641357,-1.0597920417785645
1701889388934602800,2.514602783203125,3.7951040267944336,-2.633131980895996,-2.018899440765381
1701889388951589400,2.53158935546875,3.5547196865081787,-2.4847123622894287,-2.5742149353027344
1701889388968578000,2.548578125,3.0764379501342773,-2.4525372982025146,-2.9399094581604004
1701889388985566200,2.565566162109375,3.1941826343536377,-2.5541367530822754,-3.1560144424438477
1701889389002550300,2.58255029296875,3.6065640449523926,-2.535169839859009,-3.6390380859375
1701889389019531500,2.599531494140625,3.9261748790740967,-2.630331039428711,-4.009825706481934
1701889389036533500,2.616533447265625,4.106706619262695,-2.705035924911499,-4.484847545623779
1701889389053514500,2.633514404296875,4.1576104164123535,-2.815122127532959,-4.892587184906006
1701889389070486500,2.650486572265625,4.15260124206543,-3.0686745643615723,-5.05582332611084
1701889389087484700,2.667484619140625,4.33843994140625,-3.4605329036712646,-4.955036163330078
1701889389104482800,2.68448291015625,4.722301006317139,-3.62873911857605,-4.953368186950684
1701889389121467000,2.701466796875,4.879024505615234,-4.114137649536133,-4.801062107086182
1701889389138452200,2.7184521484375,4.951138496398926,-4.671463966369629,-4.4651408195495605
1701889389155431000,2.735430908203125,4.899808883666992,-5.471217155456543,-3.8663644790649414
1701889389172427800,2.752427734375,4.854367256164551,-6.392664909362793,-3.0714073181152344
1701889389189416000,2.769416015625,4.973085880279541,-6.792386054992676,-2.4584603309631348
1701889389206406000,2.786406005859375,4.674659729003906,-7.19784688949585,-1.879775047302246
1701889389223388200,2.80338818359375,4.286576747894287,-7.465529441833496,-1.630478858947754
1701889389240381200,2.820381103515625,3.5749573707580566,-7.872795104980469,-1.5139117240905762
1701889389257357300,2.837357421875,2.8672902584075928,-8.176527976989746,-1.4442634582519531
1701889389274354700,2.854354736328125,2.678032636642456,-8.230545997619629,-1.2680268287658691
1701889389291342600,2.871342529296875,2.8451247215270996,-7.905468463897705,-0.4446907043457031
1701889389308328400,2.888328369140625,2.7914013862609863,-7.316009998321533,0.9886980056762695
1701889389325317400,2.9053173828125,2.3405892848968506,-6.649750709533691,2.1404199600219727
1701889389342297000,2.922297119140625,1.517640471458435,-6.609685897827148,3.2245616912841797
1701889389359290400,2.939290283203125,1.3463200330734253,-6.141079425811768,3.667804718017578
1701889389376280000,2.956280029296875,1.417721152305603,-5.398797035217285,4.324824333190918
1701889389393268500,2.9732685546875,1.179521918296814,-4.213420867919922,4.535356521606445
1701889389410257000,2.9902568359375,0.7058455944061279,-2.6004726886749268,4.140227317810059
1701889389427240400,3.007240478515625,0.17847442626953125,-0.8495817184448242,3.717137336730957
1701889389444230700,3.024230712890625,-0.11463809013366699,0.768500804901123,3.206465721130371
1701889389461219800,3.0412197265625,-0.15136003494262695,1.940204381942749,2.7273263931274414
1701889389478203400,3.058203369140625,0.3549851179122925,2.7513608932495117,2.316105842590332
1701889389495192300,3.0751923828125,0.6077485084533691,3.1664505004882812,2.2067337036132812
1701889389512180500,3.092180419921875,0.5887452363967896,3.243586540222168,2.2340855598449707
1701889389529175600,3.109175537109375,0.8797708749771118,3.2840631008148193,1.800513744354248
1701889389546144500,3.12614453125,1.2207249402999878,3.3642261028289795,1.5014429092407227
1701889389563147300,3.143147216796875,1.527791976928711,3.635606288909912,1.5113391876220703
1701889389580132600,3.160132568359375,1.4772446155548096,4.120298862457275,2.0362329483032227
1701889389597107000,3.17710693359375,0.6212915778160095,4.611057758331299,2.5069451332092285
1701889389614110200,3.194110107421875,-0.4802662134170532,4.948882102966309,2.8911027908325195
1701889389631095300,3.21109521484375,-1.5209234952926636,5.151961803436279,2.9152402877807617
1701889389648082700,3.228082763671875,-1.8751921653747559,5.1955742835998535,3.0469484329223633
1701889389665070300,3.2450703125,-1.7538856267929077,4.791632175445557,3.8923897743225098
1701889389682060800,3.262060791015625,-1.5605220794677734,4.523354530334473,5.248651027679443
1701889389699043000,3.27904296875,-1.8434218168258667,4.630405426025391,6.13524866104126
1701889389716034600,3.29603466796875,-2.615401268005371,4.324008941650391,6.89949893951416
1701889389733018000,3.31301806640625,-2.8472518920898438,3.0766782760620117,8.096735000610352
1701889389750011000,3.330010986328125,-2.21659779548645,1.4901862144470215,9.784418106079102
1701889389766985000,3.34698486328125,-1.5352956056594849,0.7358603477478027,10.645217895507812
1701889389783981600,3.363981689453125,-1.0683599710464478,1.0881962776184082,10.348098754882812
1701889389800973600,3.3809736328125,-0.31503522396087646,1.2968902587890625,9.654233932495117
1701889389817959000,3.397958984375,0.8811370134353638,0.5656023025512695,8.978946685791016
1701889389834946600,3.414946533203125,2.121894359588623,-1.0301146507263184,8.41734504699707
1701889389851929900,3.431929931640625,3.123161792755127,-2.5612378120422363,7.501958847045898
1701889389868921600,3.448921630859375,3.9511091709136963,-3.286590576171875,6.146903991699219
1701889389885908200,3.465908203125,4.395486354827881,-3.2314929962158203,4.70442008972168
1701889389902897200,3.482897216796875,4.572909355163574,-2.7263150215148926,3.0609378814697266
1701889389919882000,3.499882080078125,4.106663703918457,-2.094484806060791,1.5699481964111328
1701889389936874500,3.51687451171875,3.6439871788024902,-1.9655792713165283,0.5957260131835938
1701889389953859300,3.533859375,3.3246800899505615,-1.7210371494293213,-0.4488668441772461
1701889389970847000,3.550846923828125,2.9203829765319824,-1.725203275680542,-1.2047858238220215
1701889389987826000,3.567825927734375,2.58827543258667,-1.7938041687011719,-1.8248567581176758
1701889390004814600,3.584814697265625,2.224846839904785,-1.9132521152496338,-2.37332820892334
1701889390021802500,3.601802490234375,1.9628283977508545,-2.2330501079559326,-2.7758889198303223
1701889390038795800,3.618795654296875,2.5721678733825684,-2.3424265384674072,-3.3966798782348633
1701889390055774000,3.63577392578125,3.172023296356201,-2.556783437728882,-4.100988864898682
1701889390072767200,3.652767333984375,3.5311179161071777,-2.799478054046631,-4.9135966300964355
1701889390089751800,3.669751708984375,3.87764048576355,-3.1390957832336426,-5.54049015045166
1701889390106743800,3.686743896484375,4.5231242179870605,-3.4279441833496094,-5.983280181884766
1701889390123729400,3.7037294921875,4.967970848083496,-3.8851211071014404,-5.973598003387451
1701889390140714800,3.72071484375,5.343573570251465,-4.337034225463867,-5.72062873840332
1701889390157704400,3.737704345703125,5.590639114379883,-5.095212459564209,-5.061051368713379
1701889390174692000,3.754692138671875,5.7115397453308105,-5.989316940307617,-4.412628650665283
1701889390191671600,3.771671630859375,5.8029961585998535,-6.798243522644043,-3.9179883003234863
1701889390208670200,3.788670166015625,5.942243576049805,-7.167729377746582,-3.416482925415039
1701889390225652200,3.80565234375,5.737720489501953,-7.586483001708984,-2.151552677154541
1701889390242643500,3.8226435546875,4.953105926513672,-8.173741340637207,-0.5047225952148438
1701889390259634700,3.839634765625,3.8259270191192627,-8.578787803649902,0.4014310836791992
1701889390276612600,3.856612548828125,3.079664468765259,-8.53590202331543,0.7298498153686523
1701889390293608400,3.8736083984375,2.510631799697876,-8.602072715759277,0.8636016845703125
1701889390310592500,3.890592529296875,2.17020845413208,-8.2393217086792,1.06988525390625
1701889390327583200,3.907583251953125,1.8316434621810913,-7.618590354919434,1.7235736846923828
1701889390344568800,3.92456884765625,1.2359148263931274,-7.205676078796387,2.914130210876465
1701889390361554700,3.9415546875,0.6318466663360596,-6.600729942321777,3.630939483642578
1701889390378534700,3.95853466796875,0.40929079055786133,-5.862044811248779,3.7182979583740234
1701889390395536000,3.975535888671875,0.46486377716064453,-5.002284049987793,3.7314586639404297
1701889390412519400,3.99251953125,0.28162622451782227,-3.7464141845703125,3.1080284118652344
1701889390429514800,4.0095146484375,0.1720033884048462,-2.1609790325164795,2.0547609329223633
1701889390446499600,4.02649951171875,0.049723148345947266,-0.5627617835998535,1.1231536865234375
1701889390463477000,4.04347705078125,-0.2859032154083252,0.6750593185424805,0.8143815994262695
1701889390480475000,4.060474853515625,-0.5570327043533325,1.6723151206970215,1.2165460586547852
1701889390497462500,4.077462646484375,-0.39487528800964355,2.464156150817871,1.0855388641357422
1701889390514450200,4.0944501953125,-0.1570148468017578,2.6380603313446045,1.0186166763305664
1701889390531434500,4.1114345703125,0.19238853454589844,2.6608777046203613,0.748957633972168
1701889390548425000,4.128425048828125,0.4774363040924072,2.6435961723327637,0.8358893394470215
1701889390565412600,4.14541259765625,0.6646284461021423,2.7936527729034424,1.1866083145141602
1701889390582400500,4.162400390625,0.6108018159866333,3.181818962097168,1.972442626953125
1701889390599382300,4.17938232421875,0.12236142158508301,3.855942487716675,2.502474784851074
1701889390616378400,4.19637841796875,-0.7970973253250122,4.39208984375,2.694098949432373
1701889390633363200,4.21336328125,-1.4383375644683838,4.862455368041992,3.1240596771240234
1701889390650350800,4.230350830078125,-1.7533206939697266,5.023204803466797,4.064296722412109
1701889390667338200,4.247338134765625,-1.76866614818573,5.0226826667785645,5.138995170593262
1701889390684326000,4.264325927734375,-1.3198978900909424,5.120777130126953,5.9424567222595215
1701889390701313500,4.2813134765625,-0.9449710845947266,5.4279584884643555,6.47556734085083
1701889390718301200,4.29830126953125,-0.8899723887443542,5.79520845413208,6.8413238525390625
1701889390735289000,4.3152890625,-1.0435622930526733,5.065981388092041,8.102195739746094
1701889390752278300,4.3322783203125,-1.3031260967254639,3.393460750579834,9.380399703979492
1701889390769259300,4.34925927734375,-1.0687934160232544,1.8028244972229004,10.307424545288086
1701889390786253300,4.36625341796875,-0.5933593511581421,1.0851898193359375,10.726191520690918
1701889390803240000,4.383239990234375,-0.4216439723968506,1.008847713470459,10.835012435913086
1701889390820224300,4.400224365234375,0.06541848182678223,1.351574420928955,10.08824348449707
1701889390837206300,4.417206298828125,0.7943277359008789,0.6705608367919922,9.724329948425293
1701889390854201600,4.43420166015625,1.4118558168411255,-0.6389784812927246,9.189072608947754
1701889390871189000,4.45118896484375,2.1349685192108154,-2.0875253677368164,8.689671516418457
1701889390888175600,4.468175537109375,2.688608169555664,-2.934460163116455,7.73378324508667
1701889390905166800,4.485166748046875,2.8721227645874023,-2.93841552734375,6.1004228591918945
1701889390922148900,4.50214892578125,3.0295567512512207,-2.6349868774414062,4.3586578369140625
1701889390939139800,4.519139892578125,3.0287981033325195,-2.1238112449645996,2.479555130004883
1701889390956127500,4.53612744140625,3.1420183181762695,-1.991929531097412,0.9385128021240234
1701889390973112000,4.553112060546875,2.9648284912109375,-2.0316991806030273,-0.3105888366699219
1701889390990105000,4.57010498046875,2.843667984008789,-2.4507367610931396,-1.2747387886047363
1701889391007090000,4.58708984375,3.5617141723632812,-2.725886344909668,-1.9938955307006836
1701889391024068400,4.604068359375,3.8625383377075195,-3.173989772796631,-2.421466827392578
1701889391041065500,4.6210654296875,3.981473445892334,-3.7590999603271484,-2.7175440788269043
1701889391058053000,4.63805322265625,3.8768844604492188,-4.1717729568481445,-3.267127513885498
1701889391075040500,4.65504052734375,3.844496011734009,-4.3290228843688965,-4.023495674133301
1701889391092028000,4.67202783203125,4.000659942626953,-4.354006767272949,-4.586929798126221
1701889391109004000,4.689004150390625,4.066897392272949,-4.797824859619141,-4.4458818435668945
1701889391126004000,4.70600390625,4.622283935546875,-5.22867488861084,-4.429040431976318
1701889391142990800,4.722990966796875,5.403533935546875,-5.772134780883789,-4.613505840301514
1701889391159976400,4.7399765625,6.211668014526367,-6.265143394470215,-4.748042583465576
1701889391176968000,4.756968017578125,6.651712894439697,-6.738373756408691,-4.616708278656006
1701889391193953500,4.77395361328125,6.517616271972656,-7.1358842849731445,-4.488633155822754
1701889391210941200,4.790941162109375,6.049955368041992,-7.5387654304504395,-4.249317646026611
1701889391227936300,4.807936279296875,5.471553325653076,-7.672274589538574,-4.240870952606201
1701889391244918500,4.82491845703125,5.176222801208496,-8.101478576660156,-3.247439384460449
1701889391261904000,4.84190380859375,4.547698020935059,-8.385260581970215,-2.226680278778076
1701889391278880800,4.858880859375,3.573377847671509,-8.336111068725586,-2.2425923347473145
1701889391295878400,4.87587841796875,2.7841436862945557,-8.434389114379883,-2.2654500007629395
1701889391312867300,4.892867431640625,1.6533232927322388,-8.909299850463867,-1.6276659965515137
1701889391329854200,4.909854248046875,0.7430133819580078,-8.840919494628906,-0.8003854751586914
1701889391346831000,4.9268310546875,0.5424845218658447,-8.744370460510254,1.1430730819702148
1701889391363829500,4.94382958984375,0.7293076515197754,-8.40884780883789,3.999697685241699
1701889391380817000,4.96081689453125,1.0099478960037231,-7.682689189910889,5.618594169616699
1701889391397804500,4.977804443359375,1.0666674375534058,-6.764804363250732,5.81221866607666
1701889391414791400,4.99479150390625,1.4284749031066895,-5.462653160095215,5.500633239746094
1701889391431777300,5.01177734375,1.3177075386047363,-3.7992820739746094,5.7856245040893555
1701889391448768000,5.02876806640625,0.6705697774887085,-1.7250895500183105,5.553389549255371
1701889391465755000,5.0457548828125,-0.5875672101974487,0.6073415279388428,5.257818222045898
1701889391482732300,5.062732177734375,-2.5230915546417236,2.536860466003418,4.435647964477539
1701889391499730200,5.079730224609375,-3.2623987197875977,3.8669018745422363,3.28885555267334
1701889391516707300,5.096707275390625,-2.6769540309906006,4.328952789306641,2.671046733856201
1701889391533704200,5.1137041015625,-1.5851256847381592,4.440573692321777,2.421205997467041
1701889391550694100,5.130694091796875,-0.8532668352127075,4.222153663635254,2.220165729522705
1701889391567680500,5.147680419921875,-0.2804035544395447,3.9766430854797363,2.6819143295288086
1701889391584668000,5.16466796875,-0.03260493278503418,4.354504585266113,2.394446849822998
1701889391601655600,5.181655517578125,-0.5406907796859741,4.471295356750488,2.338761329650879
1701889391618642400,5.198642333984375,-1.458073377609253,4.596809387207031,2.6879820823669434
1701889391635630800,5.215630859375,-2.3902878761291504,4.6866455078125,3.0421876907348633
1701889391652618200,5.2326181640625,-3.2203550338745117,4.957845687866211,3.492504596710205
1701889391669606000,5.24960595703125,-3.56156849861145,4.950704574584961,4.70440673828125
1701889391686592800,5.2665927734375,-3.4402334690093994,4.767287731170654,5.891629695892334
1701889391703582000,5.28358203125,-3.150430679321289,4.703701019287109,6.455142021179199
1701889391720568800,5.30056884765625,-2.6933114528656006,4.973176956176758,6.789910316467285
1701889391737556500,5.317556396484375,-1.9856712818145752,4.971113204956055,7.206140041351318
1701889391754541300,5.334541259765625,-1.5420173406600952,3.5934157371520996,8.308544158935547
1701889391771531500,5.351531494140625,-0.877843976020813,1.6142539978027344,9.541118621826172
1701889391788521700,5.368521728515625,-0.2631063461303711,0.21026372909545898,10.232463836669922
1701889391805503700,5.385503662109375,-0.1094239354133606,0.10521459579467773,10.339977264404297
1701889391822497000,5.4024970703125,-0.2947627902030945,0.3118429183959961,10.016654968261719
1701889391839481600,5.419481689453125,0.27904248237609863,0.5406513214111328,9.249307632446289
1701889391856458800,5.436458740234375,0.8700058460235596,-0.1883106231689453,8.800895690917969
1701889391873457000,5.453456787109375,1.5900263786315918,-1.484804630279541,8.34237003326416
1701889391890444300,5.4704443359375,2.159761905670166,-2.663928508758545,7.695034503936768
1701889391907432000,5.487431884765625,2.8792386054992676,-3.1135082244873047,6.309971809387207
1701889391924420000,5.504420166015625,3.186561107635498,-2.660888671875,4.3684492111206055
1701889391941404000,5.52140380859375,3.101459503173828,-2.4466772079467773,2.9800519943237305
1701889391958395000,5.538394775390625,3.427720069885254,-1.9109351634979248,1.2012939453125
1701889391975382300,5.55538232421875,3.1182782649993896,-1.9314582347869873,-0.09492778778076172
1701889391992370200,5.5723701171875,2.887328863143921,-2.2251172065734863,-1.1819310188293457
1701889392009353200,5.589353271484375,2.862330913543701,-2.7161190509796143,-2.1231589317321777
1701889392026346000,5.606345947265625,3.4210522174835205,-3.2611160278320312,-2.97182035446167
1701889392043332600,5.62333251953125,3.7942066192626953,-3.663663625717163,-3.6482949256896973
1701889392060320300,5.6403203125,4.07295560836792,-4.016630172729492,-4.25098991394043
1701889392077308000,5.657307861328125,4.255135536193848,-4.318070411682129,-4.773749351501465
1701889392094282000,5.674281982421875,4.384243965148926,-4.549131870269775,-5.412046909332275
1701889392111283000,5.691282958984375,4.6800761222839355,-4.729738235473633,-5.896927356719971
1701889392128281600,5.708281494140625,4.918872356414795,-4.867516040802002,-5.963332653045654
1701889392145258800,5.7252587890625,4.901294708251953,-5.017991065979004,-5.838776111602783
1701889392162246000,5.742245849609375,5.051445484161377,-5.195243835449219,-5.4000563621521
1701889392179233300,5.7592333984375,5.290584087371826,-5.679128170013428,-4.598636150360107
1701889392196212000,5.7762119140625,5.7669806480407715,-6.265415191650391,-3.72208309173584
1701889392213206500,5.79320654296875,6.015695095062256,-6.936422824859619,-2.863340377807617
1701889392230199600,5.810199462890625,5.868995666503906,-7.303457260131836,-2.0343451499938965
1701889392247184000,5.827183837890625,5.5291666984558105,-7.764373779296875,-0.5290975570678711
1701889392264175900,5.84417578125,4.195679664611816,-7.68387508392334,0.5132532119750977
1701889392281159000,5.861158935546875,2.3244071006774902,-7.882252216339111,1.0328855514526367
1701889392298136300,5.87813623046875,1.364614725112915,-7.817437648773193,0.7637519836425781
1701889392315134000,5.895134033203125,1.4227633476257324,-7.948779582977295,0.7815456390380859
1701889392332118500,5.912118408203125,1.6678231954574585,-7.502520561218262,1.2538270950317383
1701889392349109000,5.92910888671875,1.4041225910186768,-6.6452717781066895,2.1698741912841797
1701889392366096400,5.946096435546875,0.8625683784484863,-6.095248699188232,3.619142532348633
1701889392383084000,5.963083984375,0.10689997673034668,-5.442194938659668,4.4809112548828125
1701889392400071700,5.98007177734375,-0.03877520561218262,-4.657588958740234,4.660515785217285
1701889392417048800,5.997048828125,0.3847411870956421,-3.516232490539551,4.203631401062012
1701889392434047000,6.014046875,0.5014990568161011,-2.040661573410034,3.2279672622680664
1701889392451031600,6.031031494140625,0.42226099967956543,-0.2563180923461914,2.322932243347168
1701889392468022300,6.048022216796875,-0.5192654132843018,1.5040743350982666,1.8835983276367188
1701889392485009700,6.065009765625,-1.8552699089050293,2.8171873092651367,1.6436662673950195
1701889392501997000,6.0819970703125,-2.5484142303466797,3.7880711555480957,0.7756843566894531
1701889392518986000,6.098986083984375,-2.4370005130767822,4.050434589385986,0.28419971466064453
1701889392535973000,6.11597314453125,-1.670283317565918,4.0001420974731445,-0.0026407241821289062
1701889392552960000,6.1329599609375,-1.2271281480789185,3.5940282344818115,0.12364482879638672
1701889392569947600,6.14994775390625,-0.966006338596344,3.4273605346679688,0.4188375473022461
1701889392586935300,6.166935302734375,-0.8506470918655396,3.4950129985809326,0.8417048454284668
1701889392603912000,6.183911865234375,-1.0510863065719604,3.6819589138031006,1.438910961151123
1701889392620910000,6.20091015625,-1.4675137996673584,3.81954026222229,1.956721305847168
1701889392637897700,6.217897705078125,-1.855159878730774,3.9197123050689697,2.5577163696289062
1701889392654886000,6.234885986328125,-2.2007927894592285,3.9601244926452637,3.3796939849853516
1701889392671875800,6.251875732421875,-2.60880708694458,4.158690452575684,4.558326721191406
1701889392688855300,6.268855224609375,-2.8189539909362793,4.398213863372803,5.686316967010498
1701889392705850000,6.28585009765625,-2.666228771209717,4.712061405181885,6.511147975921631
1701889392722836700,6.302836669921875,-2.3516485691070557,4.948081970214844,6.957827568054199
1701889392739823400,6.3198232421875,-2.2449567317962646,4.702625274658203,7.750123977661133
1701889392756819500,6.3368193359375,-2.6836302280426025,3.6549665927886963,8.760539054870605
1701889392773793000,6.35379296875,-2.4550459384918213,2.6877613067626953,9.45837688446045
1701889392790788400,6.370788330078125,-2.1762256622314453,1.6839003562927246,10.026631355285645
1701889392807761200,6.38776123046875,-1.8339614868164062,1.3614263534545898,10.00599479675293
1701889392824761000,6.404760986328125,-1.6333775520324707,1.1056175231933594,10.140128135681152
1701889392841748200,6.421748291015625,-1.1888506412506104,1.1323142051696777,9.362386703491211
1701889392858723300,6.438723388671875,-0.5448842644691467,0.6161346435546875,8.538576126098633
1701889392875713300,6.45571337890625,0.7872922420501709,-0.03991889953613281,7.733585834503174
1701889392892714000,6.4727138671875,2.2164149284362793,-0.7232413291931152,7.5406975746154785
1701889392909699000,6.489698974609375,2.919114589691162,-1.0518932342529297,7.12532901763916
1701889392926686700,6.506686767578125,2.215528726577759,-0.9858560562133789,5.991487503051758
1701889392943674000,6.523674072265625,0.7772781848907471,-0.6337151527404785,4.306887626647949
1701889392960661800,6.540661865234375,0.4695636034011841,-0.7488770484924316,2.820004463195801
1701889392977638400,6.557638427734375,1.2555596828460693,-1.0354118347167969,1.3265810012817383
1701889392994645800,6.574645751953125,2.281358003616333,-1.725083589553833,0.1746692657470703
1701889393011616500,6.591616455078125,2.8553738594055176,-2.4362213611602783,-0.7894887924194336
1701889393028598800,6.608598876953125,3.06481671333313,-3.4032764434814453,-1.4655733108520508
1701889393045587700,6.625587646484375,3.9212088584899902,-4.163525581359863,-2.397136688232422
1701889393062577200,6.6425771484375,4.473805904388428,-4.93260383605957,-3.2811279296875
1701889393079577000,6.6595771484375,4.967796802520752,-5.459500312805176,-4.223420143127441
1701889393096550700,6.676550537109375,5.229064464569092,-5.791680335998535,-4.955693244934082
1701889393113544400,6.69354443359375,5.384362697601318,-5.973145484924316,-5.365935325622559
1701889393130528500,6.710528564453125,5.351702690124512,-5.978666305541992,-5.478614807128906
1701889393147525600,6.727525634765625,5.1223368644714355,-5.943171977996826,-5.038758277893066
1701889393164512800,6.7445126953125,4.834536552429199,-6.005385398864746,-4.324682235717773
1701889393181500200,6.761500244140625,4.906206130981445,-6.279656410217285,-3.639997959136963
1701889393198488000,6.778488037109375,5.09359073638916,-6.8105926513671875,-3.214139461517334
1701889393215464000,6.7954638671875,5.190624713897705,-7.385980606079102,-3.0697593688964844
1701889393232461300,6.81246142578125,5.222023010253906,-7.767066955566406,-2.8589954376220703
1701889393249453000,6.829453125,4.854928016662598,-8.41445541381836,-1.7125616073608398
1701889393266438400,6.8464384765625,4.004546165466309,-8.558770179748535,-0.9076037406921387
1701889393283425500,6.863425537109375,2.7204883098602295,-8.908049583435059,0.28483104705810547
1701889393300413200,6.8804130859375,1.6203862428665161,-8.489603042602539,0.4395112991333008
1701889393317400800,6.89740087890625,0.9325888156890869,-7.752150058746338,0.33409595489501953
1701889393334388500,6.914388427734375,0.33518505096435547,-7.301904201507568,0.6528615951538086
1701889393351374000,6.9313740234375,-0.03580665588378906,-7.0120158195495605,1.4376115798950195
1701889393368362000,6.948362060546875,-0.17011189460754395,-7.077601432800293,2.832491874694824
1701889393385351200,6.96535107421875,-0.4025108814239502,-6.855409622192383,3.9710140228271484
1701889393402338600,6.982338623046875,-0.47014594078063965,-6.210824012756348,4.390789031982422
1701889393419326200,6.999326171875,-0.4188802242279053,-5.035012245178223,4.132854461669922
1701889393436313600,7.016313720703125,-0.3502066135406494,-3.412400484085083,3.3909740447998047
1701889393453301200,7.03330126953125,-0.41296911239624023,-1.808412790298462,2.647049903869629
1701889393470277400,7.05027734375,-0.21544933319091797,-0.31487035751342773,2.0856189727783203
1701889393487275500,7.067275634765625,-0.0285722017288208,0.8739235401153564,1.855337142944336
1701889393504259300,7.08425927734375,0.14152836799621582,1.9897871017456055,1.563176155090332
1701889393521248300,7.101248291015625,0.02154374122619629,2.5552010536193848,1.6607084274291992
1701889393538234000,7.118234130859375,0.11671960353851318,2.8164567947387695,1.8447742462158203
1701889393555221000,7.135220947265625,0.02747642993927002,3.050062417984009,1.878028392791748
1701889393572204300,7.152204345703125,-0.3068416118621826,3.324901580810547,2.173206329345703
1701889393589198800,7.16919873046875,-0.5300043225288391,3.790342330932617,2.848517894744873
1701889393606181600,7.186181640625,-0.46830087900161743,4.613743782043457,3.4385528564453125
1701889393623173400,7.20317333984375,-0.8043400645256042,5.286406517028809,4.193539619445801
1701889393640158700,7.22015869140625,-1.3539228439331055,6.039079666137695,4.621886730194092
1701889393657144300,7.237144287109375,-2.050628423690796,6.375105381011963,4.822891712188721
1701889393674134800,7.254134765625,-2.5487194061279297,6.389942646026611,5.418513298034668
1701889393691123500,7.27112353515625,-2.562244176864624,6.252434253692627,6.371058464050293
1701889393708111400,7.288111328125,-2.4531497955322266,6.220379829406738,7.689589977264404
1701889393725094400,7.305094482421875,-2.8167481422424316,6.735564708709717,8.535964965820312
1701889393742086100,7.322086181640625,-3.3350162506103516,6.745869159698486,9.283573150634766
1701889393759070200,7.3390703125,-3.307164192199707,5.262596130371094,10.74891471862793
1701889393776056600,7.356056640625,-2.3934381008148193,3.9161009788513184,11.415109634399414
1701889393793050600,7.373050537109375,-1.464487075805664,2.7881531715393066,12.045045852661133
1701889393810035500,7.390035400390625,-0.9195699691772461,2.5087099075317383,12.374641418457031
1701889393827030300,7.4070302734375,-0.7211869955062866,2.443370819091797,12.062564849853516
1701889393844015400,7.424015380859375,-0.31010693311691284,2.1343560218811035,11.162760734558105
1701889393861001700,7.441001708984375,0.0312768816947937,0.8564620018005371,10.606071472167969
1701889393877979600,7.457979736328125,0.7658801078796387,-1.0305509567260742,10.126254081726074
1701889393894967800,7.4749677734375,1.6080635786056519,-2.692190170288086,9.729450225830078
1701889393911971300,7.491971435546875,2.1399388313293457,-3.6898937225341797,8.812055587768555
1701889393928942000,7.508942138671875,3.052793025970459,-3.9731192588806152,7.27415657043457
1701889393945941500,7.52594140625,3.4360766410827637,-3.724677562713623,5.370099067687988
1701889393962928000,7.54292822265625,3.171746253967285,-3.6746888160705566,3.566023826599121
1701889393979901400,7.5599013671875,3.0605409145355225,-3.8371193408966064,1.7133350372314453
1701889393996903200,7.576903076171875,3.2854559421539307,-4.041874408721924,0.14374828338623047
1701889394013891000,7.59389111328125,3.1763386726379395,-4.400944709777832,-0.9803056716918945
1701889394030878500,7.61087841796875,3.5856995582580566,-4.810632228851318,-1.9519009590148926
1701889394047865300,7.627865234375,4.6110992431640625,-4.889781475067139,-2.8228964805603027
1701889394064854300,7.644854248046875,4.678603172302246,-5.260396957397461,-3.535277843475342
1701889394081841200,7.661841064453125,4.824544906616211,-5.392876625061035,-4.267024517059326
1701889394098826200,7.678826171875,4.8763837814331055,-5.7847208976745605,-4.684406757354736
1701889394115807700,7.695807861328125,4.9273786544799805,-6.087409019470215,-5.114548683166504
1701889394132804600,7.7128046875,4.8363871574401855,-6.216588020324707,-5.372123718261719
1701889394149791500,7.72979150390625,4.748210430145264,-6.275284767150879,-5.444002151489258
1701889394166779000,7.74677880859375,4.830512046813965,-6.456258773803711,-5.154308795928955
1701889394183766800,7.763766845703125,5.132965564727783,-6.742104530334473,-4.66693115234375
1701889394200754200,7.780754150390625,5.336067199707031,-7.3227739334106445,-4.010372161865234
1701889394217741600,7.797741455078125,5.210361957550049,-7.9163432121276855,-3.430469512939453
1701889394234729500,7.8147294921875,5.108606815338135,-8.101065635681152,-3.3389291763305664
1701889394251713500,7.831713623046875,4.919244289398193,-8.32748031616211,-2.8329124450683594
1701889394268704300,7.848704345703125,4.690439224243164,-8.57090950012207,-1.9976634979248047
1701889394285692000,7.86569189453125,4.4007768630981445,-8.639182090759277,-0.7921981811523438
1701889394302679300,7.88267919921875,3.5182926654815674,-8.774279594421387,-0.3863973617553711
1701889394319667200,7.899667236328125,2.7577366828918457,-8.460794448852539,-0.7914028167724609
1701889394336650800,7.916650634765625,1.7714800834655762,-8.1558256149292,-1.1131868362426758
1701889394353642000,7.93364208984375,1.1092617511749268,-7.966068744659424,-0.5974016189575195
1701889394370626600,7.95062646484375,1.280282735824585,-7.710521697998047,1.3116168975830078
1701889394387617300,7.9676171875,1.2491601705551147,-7.643794059753418,3.8491477966308594
1701889394404605000,7.98460498046875,1.2674753665924072,-7.01611328125,5.4802093505859375
1701889394421592600,8.001592529296875,1.0064023733139038,-5.990954399108887,5.592004776000977
1701889394438579200,8.0185791015625,0.15108013153076172,-4.6347856521606445,5.083141326904297
1701889394455568100,8.035568115234375,-0.7396280765533447,-2.976726770401001,4.620197296142578
1701889394472552700,8.052552734375,-1.6113317012786865,-1.1767630577087402,4.325784683227539
1701889394489545000,8.069544921875,-2.1919898986816406,0.5542292594909668,4.5115814208984375
1701889394506531800,8.08653173828125,-2.765946865081787,2.3102681636810303,4.301303863525391
1701889394523513600,8.103513671875,-2.8325960636138916,3.324972629547119,3.5498480796813965
1701889394540503300,8.12050341796875,-1.8292845487594604,3.565885543823242,2.534372329711914
1701889394557495300,8.137495361328124,-0.552863597869873,3.4949049949645996,1.8653416633605957
1701889394574483200,8.154483154296875,-0.026845932006835938,3.0138511657714844,1.924314022064209
1701889394591464700,8.171464599609376,0.576589822769165,2.727755069732666,3.0933542251586914
1701889394608458200,8.188458251953126,1.1333470344543457,3.37150239944458,3.7808775901794434
1701889394625442300,8.2054423828125,0.3923678398132324,4.005158424377441,4.1175031661987305
1701889394642431500,8.222431396484374,-1.0071218013763428,4.883309364318848,4.284637451171875
1701889394659418400,8.23941845703125,-2.3094351291656494,5.320040702819824,4.72489070892334
1701889394676405800,8.25640576171875,-2.6347386837005615,5.579524993896484,5.6083269119262695
1701889394693390300,8.273390380859375,-2.0972414016723633,5.619812965393066,7.161189556121826
1701889394710380800,8.290380859375,-1.8298808336257935,6.032599925994873,8.64236068725586
1701889394727368400,8.307368408203125,-2.031485080718994,6.717959403991699,9.256278991699219
1701889394744345900,8.324345947265625,-2.292276620864868,6.787522792816162,10.294302940368652
1701889394761343500,8.341343505859374,-2.087559461593628,5.833926200866699,11.669431686401367
1701889394778321700,8.35832177734375,-1.8369425535202026,4.489680290222168,13.066454887390137
1701889394795324200,8.37532421875,-1.6551403999328613,3.6854820251464844,13.337668418884277
1701889394812293000,8.392293212890625,-1.3171061277389526,3.4455103874206543,12.506322860717773
1701889394829296400,8.40929638671875,-0.6515383720397949,3.142378330230713,11.417545318603516
1701889394846281200,8.42628125,0.17542749643325806,2.402888298034668,10.587661743164062
1701889394863268900,8.443268798828125,0.7732605934143066,1.0475459098815918,9.845864295959473
1701889394880256500,8.460256591796876,1.3523082733154297,-0.4763603210449219,9.18967056274414
1701889394897244000,8.477243896484374,1.8502719402313232,-1.5751118659973145,8.21622085571289
1701889394914231600,8.4942314453125,2.2899680137634277,-2.1457347869873047,6.837612152099609
1701889394931216400,8.51121630859375,2.7449913024902344,-2.354918956756592,5.395941257476807
1701889394948208600,8.528208740234374,2.9918370246887207,-2.402177333831787,3.870290756225586
1701889394965195000,8.545195068359375,2.44934344291687,-2.2572569847106934,2.0982580184936523
1701889394982181600,8.562181640625,2.2283692359924316,-2.0294976234436035,0.5044898986816406
1701889394999169300,8.579169189453125,1.988694429397583,-2.012035846710205,-0.507568359375
1701889395016157000,8.596156982421874,1.8678081035614014,-2.2354960441589355,-1.196092128753662
1701889395033144300,8.613144287109375,1.84437894821167,-2.4831674098968506,-1.928360939025879
1701889395050132000,8.630132080078125,2.5583930015563965,-3.045665740966797,-2.6254138946533203
1701889395067119600,8.64711962890625,3.508486747741699,-3.455817699432373,-3.457202434539795
1701889395084107300,8.664107177734374,3.9372620582580566,-4.0134124755859375,-4.127241611480713
1701889395101094700,8.6810947265625,4.31191873550415,-4.29374885559082,-5.2278642654418945
1701889395118082000,8.69808203125,4.451808929443359,-4.409838676452637,-6.120030403137207
1701889395135069000,8.71506884765625,4.627493858337402,-4.564495086669922,-6.508995056152344
1701889395152058000,8.73205810546875,4.804356098175049,-4.6131744384765625,-6.363722324371338
1701889395169042000,8.7490419921875,5.001739501953125,-4.83864688873291,-5.726213455200195
1701889395186032400,8.766032470703125,5.229947566986084,-5.243342399597168,-4.847382545471191
1701889395203020000,8.78302001953125,5.569169998168945,-5.701597213745117,-4.1323065757751465
1701889395220007400,8.80000732421875,5.960182189941406,-6.292776107788086,-3.1625123023986816
1701889395236984300,8.816984375,6.496883869171143,-6.641982078552246,-1.9488716125488281
1701889395253982700,8.833982666015626,5.8552775382995605,-7.178574562072754,-0.22615909576416016
1701889395270967000,8.850967041015625,4.674925804138184,-7.642234802246094,0.7667875289916992
1701889395287957800,8.867957763671875,3.4472672939300537,-8.011987686157227,0.7465286254882812
1701889395304945200,8.884945068359375,2.570564031600952,-8.119926452636719,0.10305023193359375
1701889395321932800,8.901932861328126,1.9687916040420532,-8.00479793548584,-0.8352270126342773
1701889395338920400,8.91892041015625,2.0772387981414795,-7.5870232582092285,-1.1194467544555664
1701889395355907000,8.935906982421875,2.497180938720703,-6.9022440910339355,0.381866455078125
1701889395372896300,8.952896240234375,1.5987489223480225,-6.236339092254639,2.3642425537109375
1701889395389883000,8.9698828125,0.5934408903121948,-5.632323741912842,2.9385595321655273
1701889395406868000,8.986867919921876,-0.004476785659790039,-5.142473220825195,2.537480354309082
1701889395423861200,9.003861328125,-0.03939235210418701,-4.765035629272461,2.651409149169922
1701889395440840700,9.0208408203125,0.031636834144592285,-3.603025197982788,2.360344886779785
1701889395457836300,9.037836181640625,-0.2801220417022705,-1.9985747337341309,2.001114845275879
1701889395474819800,9.05481982421875,-0.45346760749816895,-0.30068445205688477,1.7867965698242188
1701889395491808000,9.07180810546875,-0.3878554105758667,1.1898078918457031,1.849517822265625
1701889395508798500,9.088798583984374,-0.2950931787490845,2.4223484992980957,1.8093929290771484
1701889395525782500,9.105782470703126,-0.7395232915878296,3.070101499557495,1.8688859939575195
1701889395542771700,9.122771728515625,-1.1840862035751343,3.19209885597229,1.8207831382751465
1701889395559758600,9.139758544921875,-0.8988564014434814,3.3713462352752686,1.6753106117248535
1701889395576735700,9.15673583984375,-0.7997486591339111,3.4649159908294678,2.2782368659973145
1701889395593734000,9.17373388671875,-0.8336058855056763,3.7874345779418945,3.1037535667419434
1701889395610710500,9.19071044921875,-0.8927302956581116,4.434939384460449,3.6353912353515625
1701889395627708700,9.207708740234375,-1.0529242753982544,5.108852386474609,3.9741926193237305
1701889395644685800,9.224685791015625,-1.7492756843566895,5.699549198150635,4.331255912780762
1701889395661683500,9.241683349609374,-2.730114459991455,6.190105438232422,4.939262390136719
1701889395678667000,9.2586669921875,-3.320152759552002,6.477540016174316,5.651947975158691
1701889395695659300,9.2756591796875,-3.277963638305664,6.471197605133057,6.558353900909424
1701889395712646100,9.292646240234374,-2.988253116607666,6.496942520141602,7.244372367858887
1701889395729634000,9.309634033203125,-2.9832258224487305,6.600415229797363,7.680043697357178
1701889395746621400,9.326621337890625,-3.3414666652679443,6.523215293884277,8.41091251373291
1701889395763609000,9.343609130859376,-4.10959529876709,5.080583572387695,9.955111503601074
1701889395780593400,9.360593505859375,-3.797470808029175,3.5552244186401367,10.993125915527344
1701889395797584100,9.377584228515625,-3.1292829513549805,2.5009450912475586,11.541872024536133
1701889395814571800,9.39457177734375,-2.520097255706787,2.35107421875,11.574487686157227
1701889395831556600,9.411556640625,-1.922904372215271,2.1929893493652344,11.542372703552246
1701889395848548600,9.428548583984375,-1.0717543363571167,1.5607199668884277,11.211729049682617
1701889395865535200,9.44553515625,-0.1732790470123291,0.02846527099609375,10.869440078735352
1701889395882522000,9.462522216796875,0.972000002861023,-1.2298049926757812,9.911155700683594
1701889395899509500,9.479509521484376,2.375338077545166,-2.2650489807128906,8.994974136352539
1701889395916497000,9.496496826171875,3.5454599857330322,-2.9073305130004883,7.858001708984375
1701889395933484500,9.513484619140625,4.0510125160217285,-2.8017735481262207,5.936989784240723
1701889395950472200,9.53047216796875,3.5320615768432617,-2.663951873779297,4.0354461669921875
1701889395967458800,9.547458740234376,3.120645523071289,-2.381300449371338,2.1574087142944336
1701889395984447700,9.56444775390625,2.888760566711426,-2.0971837043762207,0.37407875061035156
1701889396001434600,9.5814345703125,2.698526382446289,-1.9690814018249512,-0.9897990226745605
1701889396018422300,9.59842236328125,2.2231462001800537,-2.018840789794922,-1.824906349182129
1701889396035401500,9.6154013671875,2.681128978729248,-2.466402292251587,-2.3559083938598633
1701889396052402700,9.632402587890626,3.1157569885253906,-2.6740143299102783,-3.1760263442993164
1701889396069385000,9.649385009765625,3.0339479446411133,-3.058730363845825,-4.0581183433532715
1701889396086372600,9.66637255859375,3.2450215816497803,-3.256056308746338,-5.113955974578857
1701889396103355000,9.68335498046875,3.508694648742676,-3.501892566680908,-5.843415260314941
1701889396120349700,9.700349609375,3.77946400642395,-3.684783935546875,-6.250338554382324
1701889396137335000,9.7173349609375,4.027006149291992,-3.9656002521514893,-6.208815574645996
1701889396154322700,9.73432275390625,4.346164703369141,-4.285497665405273,-6.086987495422363
1701889396171307000,9.75130712890625,4.661165237426758,-4.6956963539123535,-5.995694637298584
1701889396188297700,9.768297607421875,4.9830522537231445,-5.135993003845215,-5.910701751708984
1701889396205285000,9.78528515625,5.418432235717773,-5.75558614730835,-5.576591491699219
1701889396222272800,9.802272705078124,5.86965274810791,-6.512296676635742,-4.873354911804199
1701889396239260400,9.819260498046875,5.778591156005859,-7.074898719787598,-3.9567642211914062
1701889396256247800,9.836247802734375,5.610369682312012,-7.628021240234375,-2.629805088043213
1701889396273235700,9.853235595703126,4.794168472290039,-8.443428993225098,-1.1993999481201172
1701889396290219800,9.8702197265625,3.460526704788208,-8.755382537841797,-1.283376693725586
1701889396307208000,9.8872080078125,2.283104419708252,-9.000299453735352,-1.671816349029541
1701889396324200000,9.904199951171876,1.816503643989563,-9.2109375,-1.3458318710327148
1701889396341184800,9.921184814453126,2.212674856185913,-8.799641609191895,0.2193889617919922
1701889396358174200,9.93817431640625,2.5991673469543457,-7.864753723144531,2.561023712158203
1701889396375158500,9.955158447265624,1.1946470737457275,-7.486115455627441,4.838781356811523
1701889396392148200,9.972148193359375,0.055380821228027344,-6.799382209777832,6.202034950256348
1701889396409138400,9.989138427734375,-0.3890111446380615,-5.612295150756836,6.384488105773926
1701889396426123500,10.00612353515625,-2.0134425163269043,-4.557343006134033,6.663998603820801
1701889396443111000,10.02311083984375,-0.8091630935668945,-1.35341215133667,4.088568687438965
1701889396460098600,10.0400986328125,-2.1261441707611084,-0.6160721778869629,3.4231462478637695
1701889396477086000,10.0570859375,-2.489203453063965,1.167736291885376,2.496776580810547
1701889396494073900,10.074073974609375,-2.7955243587493896,2.2942748069763184,3.128544807434082
1701889396511061000,10.09106103515625,-2.7969014644622803,3.437997579574585,3.8230795860290527
1701889396528055300,10.10805517578125,-2.535346269607544,3.9000940322875977,2.855091094970703
1701889396545017600,10.125017578125,-1.7450488805770874,3.7309696674346924,1.6436638832092285
1701889396562014000,10.142013916015625,-0.7078551054000854,3.338103771209717,1.2861671447753906
1701889396578994000,10.158993896484375,0.24939602613449097,3.384714126586914,1.4726295471191406
1701889396595993300,10.175993408203125,0.24827055633068085,3.742494821548462,2.560537815093994
1701889396612972000,10.192971923828125,-0.48682349920272827,4.393629550933838,3.8021163940429688
1701889396629968400,10.209968505859376,-1.3099148273468018,5.143697261810303,4.6543288230896
1701889396646951200,10.226951171875,-2.2320117950439453,5.8419718742370605,4.882233619689941
1701889396663950800,10.243950927734375,-3.159400463104248,6.077053070068359,5.075852870941162
1701889396680933000,10.26093310546875,-3.0868406295776367,6.02000617980957,5.53408145904541
1701889396697923800,10.277923828125,-2.4472532272338867,5.8874735832214355,6.7329583168029785
1701889396714911500,10.294911376953126,-2.0536246299743652,6.307792663574219,7.739346504211426
1701889396731899100,10.311899169921874,-2.517476797103882,6.402055263519287,9.007598876953125
1701889396748886800,10.32888671875,-3.373908519744873,5.264959812164307,10.479284286499023
1701889396765874400,10.34587451171875,-3.2087764739990234,3.5245261192321777,12.264144897460938
1701889396782851300,10.362851318359375,-2.664299964904785,2.474853038787842,13.306297302246094
1701889396799849200,10.37984912109375,-2.130925178527832,2.5292954444885254,13.737503051757812
1701889396816836900,10.3968369140625,-1.4234354496002197,3.0382027626037598,13.124896049499512
1701889396833824300,10.41382421875,-0.12463045120239258,2.5054149627685547,12.016899108886719
1701889396850812000,10.43081201171875,1.30100679397583,0.7740879058837891,11.147470474243164
1701889396867796700,10.447796630859376,2.8550515174865723,-0.9987068176269531,10.499834060668945
1701889396884789000,10.4647890625,3.2708961963653564,-2.26216459274292,9.995895385742188
1701889396901768200,10.481768310546874,2.746039390563965,-2.9434900283813477,8.829833984375
1701889396918762000,10.498761962890624,2.2408056259155273,-2.743075370788574,6.596656799316406
1701889396935739400,10.515739501953124,1.8215217590332031,-2.521373748779297,4.51521110534668
1701889396952737000,10.532737060546875,1.9887189865112305,-2.257249355316162,2.613933563232422
1701889396969718000,10.549718017578124,2.1404523849487305,-2.2773079872131348,1.1100826263427734
1701889396986704600,10.56670458984375,2.45869779586792,-2.5947365760803223,-0.2860832214355469
1701889397003697700,10.58369775390625,3.2272839546203613,-2.938645839691162,-1.40336275100708
1701889397020683500,10.60068359375,3.74147891998291,-3.3095662593841553,-2.202831268310547
1701889397037664000,10.6176640625,3.7596564292907715,-3.6834311485290527,-2.9431800842285156
1701889397054653000,10.63465283203125,3.521303653717041,-3.8750314712524414,-3.8547582626342773
1701889397071638000,10.651637939453124,3.4123692512512207,-4.183685302734375,-4.594681262969971
1701889397088641300,10.668641357421874,3.710381031036377,-4.477461338043213,-5.2385101318359375
1701889397105619500,10.685619384765625,3.9874911308288574,-4.92500638961792,-5.623823165893555
1701889397122607900,10.70260791015625,4.035238265991211,-5.2668657302856445,-6.020127296447754
1701889397139590400,10.71959033203125,3.820831298828125,-5.446430683135986,-6.335414886474609
1701889397156572000,10.736572021484376,3.702363967895508,-5.562164306640625,-6.312270164489746
1701889397173565000,10.75356494140625,3.884251117706299,-5.8931965827941895,-5.930204391479492
1701889397190559200,10.770559326171876,4.313476085662842,-6.311135292053223,-5.505366325378418
1701889397207542300,10.787542236328125,4.611526966094971,-6.752827167510986,-5.172242164611816
1701889397224528000,10.80452783203125,5.0044708251953125,-7.083322525024414,-4.763223648071289
1701889397241512200,10.82151220703125,4.991388320922852,-7.702384948730469,-3.6894078254699707
1701889397258508500,10.838508544921876,4.7382354736328125,-8.085881233215332,-2.3379435539245605
1701889397275490300,10.855490234375,3.7076711654663086,-8.468335151672363,-1.8352265357971191
1701889397292477200,10.872477294921875,2.6179299354553223,-8.317618370056152,-2.2444238662719727
1701889397309477600,10.8894775390625,1.9122323989868164,-8.323147773742676,-1.9980874061584473
1701889397326463000,10.906462890625,1.5694406032562256,-8.05671215057373,-1.1547746658325195
1701889397343450400,10.923450439453125,1.8285706043243408,-7.596321105957031,0.41182708740234375
1701889397360437800,10.940437744140626,1.910379409790039,-7.4012603759765625,2.831448554992676
1701889397377414700,10.95741455078125,1.2583954334259033,-6.828619003295898,4.81348991394043
1701889397394413800,10.974413818359375,0.5488176345825195,-5.89511251449585,5.454590797424316
1701889397411395800,10.991395751953124,0.3566402196884155,-4.84462833404541,5.657168388366699
1701889397428392400,11.008392333984375,0.09056317806243896,-3.2159855365753174,5.357227325439453
1701889397445374700,11.025374755859374,-0.5799163579940796,-1.4575066566467285,5.152596473693848
1701889397462364000,11.042364013671875,-1.4838753938674927,0.4647526741027832,5.09792423248291
1701889397479348000,11.059347900390625,-2.816455364227295,2.5218827724456787,4.964509963989258
1701889397496338200,11.076338134765624,-4.4102067947387695,4.074913024902344,4.212796211242676
1701889397513325300,11.0933251953125,-5.181875228881836,4.6890869140625,3.1570892333984375
1701889397530313200,11.110313232421875,-4.397007942199707,4.485692501068115,1.8667540550231934
1701889397547300600,11.127300537109376,-2.2781524658203125,4.064567565917969,1.0443224906921387
1701889397564288500,11.14428857421875,-0.5253225564956665,3.8506100177764893,1.0185599327087402
1701889397581276000,11.16127587890625,0.4480627775192261,3.9664762020111084,1.213576316833496
1701889397598263300,11.17826318359375,0.5617733001708984,4.399742603302002,1.7759943008422852
1701889397615251200,11.195251220703126,0.10827723145484924,4.855967998504639,2.6985645294189453
1701889397632238600,11.212238525390624,-0.9694687128067017,5.417242050170898,3.1907901763916016
1701889397649226200,11.229226318359375,-2.1876463890075684,5.870906352996826,3.6497902870178223
1701889397666213400,11.24621337890625,-2.9345016479492188,6.182791709899902,4.4840803146362305
1701889397683202800,11.263202880859374,-3.5324456691741943,6.216567039489746,5.802155017852783
1701889397700187100,11.280187255859374,-3.9164986610412598,6.3544511795043945,6.858839988708496
1701889397717176000,11.297176025390625,-4.138883113861084,6.471926212310791,7.587538719177246
1701889397734163500,11.31416357421875,-4.287637233734131,6.537570476531982,8.280855178833008
1701889397751150300,11.331150390625,-4.365886688232422,5.5436882972717285,9.452296257019043
1701889397768139000,11.348138916015625,-4.227360725402832,4.206989765167236,10.300636291503906
1701889397785127200,11.365127197265625,-3.681838274002075,2.6692943572998047,11.089922904968262
1701889397802113500,11.382113525390626,-2.9288926124572754,2.222043991088867,11.171576499938965
1701889397819101400,11.399101318359374,-2.2248337268829346,2.520214557647705,10.350290298461914
1701889397836088800,11.4160888671875,-1.7215631008148193,2.3059725761413574,9.787040710449219
1701889397853077500,11.433077392578125,-0.7775197625160217,1.276458740234375,9.33624267578125
1701889397870052400,11.45005224609375,0.3932071626186371,-0.44901323318481445,9.183783531188965
1701889397887050500,11.467050537109374,1.501685619354248,-1.7251200675964355,8.472352981567383
1701889397904040000,11.4840400390625,2.452556610107422,-2.3711624145507812,7.204497814178467
1701889397921026600,11.501026611328125,3.375831127166748,-2.4945621490478516,6.050088882446289
1701889397938009900,11.518009765625,3.546692371368408,-1.9144248962402344,4.677894592285156
1701889397955005000,11.5350048828125,3.0983784198760986,-1.5833334922790527,2.7537946701049805
1701889397971990300,11.551990234375,2.3294806480407715,-1.2142810821533203,0.6759328842163086
1701889397988977700,11.568977783203126,1.8386014699935913,-1.2757716178894043,-0.7588968276977539
1701889398005964300,11.58596435546875,1.7662855386734009,-1.3570919036865234,-1.9299530982971191
1701889398022947300,11.602947265625,1.7986180782318115,-1.781080722808838,-2.57138729095459
1701889398039940400,11.6199404296875,2.6129608154296875,-2.2618072032928467,-2.958650588989258
1701889398056926700,11.6369267578125,3.2091503143310547,-2.7311785221099854,-3.3812389373779297
1701889398073914000,11.6539140625,3.5318026542663574,-3.071300506591797,-4.309934616088867
1701889398090903800,11.67090380859375,3.4527080059051514,-3.389519214630127,-5.383626461029053
1701889398107874300,11.687874267578126,3.4876627922058105,-3.6701178550720215,-6.095372200012207
1701889398124876800,11.704876708984376,3.768906593322754,-4.023800373077393,-6.434871673583984
1701889398141864400,11.721864501953124,4.444341659545898,-4.22691535949707,-6.507946491241455
1701889398158851800,11.738851806640625,4.655387878417969,-4.542664527893066,-6.195269584655762
1701889398175829000,11.7558291015625,4.620455265045166,-4.818755149841309,-5.663143634796143
1701889398192827000,11.772826904296876,4.358708381652832,-5.2382354736328125,-5.10139274597168
1701889398209811500,11.7898115234375,4.261005878448486,-5.740961074829102,-4.475771427154541
1701889398226802200,11.80680224609375,4.4294819831848145,-6.10512113571167,-3.504262924194336
1701889398243789600,11.82378955078125,4.584212303161621,-6.371720314025879,-1.9173173904418945
1701889398260777000,11.84077685546875,3.8903791904449463,-7.030237197875977,-0.5461215972900391
1701889398277763800,11.857763916015625,2.814807176589966,-7.554141044616699,0.07552814483642578
1701889398294752500,11.87475244140625,1.9586502313613892,-7.788278579711914,-0.28807830810546875
1701889398311740200,11.891740234375,1.7248444557189941,-7.617534637451172,-0.616520881652832
1701889398328727000,11.90872705078125,1.7355905771255493,-7.199056148529053,0.4936256408691406
1701889398345708300,11.925708251953125,1.2705426216125488,-6.790346145629883,2.650374412536621
1701889398362702000,11.9427021484375,0.5697839260101318,-6.286999225616455,3.9621057510375977
1701889398379690000,11.95968994140625,0.09837841987609863,-5.7895402908325195,4.235062599182129
1701889398396666600,11.97666650390625,-0.07251596450805664,-5.304754257202148,4.283055305480957
1701889398413661700,11.99366162109375,0.12991595268249512,-4.223526477813721,4.067050933837891
1701889398430652400,12.01065234375,-0.0819329023361206,-2.8467631340026855,3.7399892807006836
1701889398447639800,12.027639892578126,-0.35418522357940674,-1.08744215965271,3.094207763671875
1701889398464627500,12.04462744140625,-0.653410792350769,0.6615910530090332,2.4789934158325195
1701889398481614800,12.06161474609375,-1.1961427927017212,1.868154525756836,2.5091114044189453
1701889398498602500,12.0786025390625,-1.4085391759872437,2.869722843170166,2.137338638305664
1701889398515571700,12.09557177734375,-0.9345425367355347,3.3566622734069824,1.4421310424804688
1701889398532577300,12.112577392578125,-0.3802117109298706,3.397581100463867,1.1506404876708984
1701889398549558000,12.12955810546875,-0.1319284439086914,3.2588775157928467,1.473794937133789
1701889398566557200,12.14655712890625,0.23005282878875732,3.346938133239746,2.1404218673706055
1701889398583540000,12.1635400390625,0.6141995787620544,3.684694528579712,3.1305880546569824
1701889398600524300,12.180524169921876,0.477215975522995,4.316888809204102,3.630648136138916
1701889398617515000,12.197514892578125,-0.08487945795059204,5.0238847732543945,3.9928088188171387
1701889398634503000,12.2145029296875,-0.9949713349342346,5.739145755767822,4.229983329772949
1701889398651487700,12.23148779296875,-1.7361540794372559,6.068287372589111,4.9876861572265625
1701889398668480300,12.248480224609375,-1.8731458187103271,6.096337795257568,6.2654924392700195
1701889398685465600,12.265465576171875,-1.6045141220092773,6.228154182434082,7.404318332672119
1701889398702452700,12.28245263671875,-1.7247035503387451,6.536290645599365,8.249881744384766
1701889398719440100,12.299440185546874,-2.1295807361602783,7.121211528778076,8.563989639282227
1701889398736417500,12.31641748046875,-2.6190056800842285,6.9924397468566895,9.559361457824707
1701889398753415400,12.33341552734375,-2.9454638957977295,5.637262344360352,11.055435180664062
1701889398770402800,12.35040283203125,-2.7446277141571045,3.8547730445861816,12.146734237670898
1701889398787389700,12.3673896484375,-2.3667612075805664,2.514176845550537,12.842809677124023
1701889398804379000,12.38437890625,-2.2126028537750244,2.214275360107422,12.589132308959961
1701889398821365200,12.401365234375,-1.667437195777893,2.7146716117858887,11.485502243041992
1701889398838350300,12.418350341796875,-0.8309036493301392,2.618403434753418,10.343367576599121
1701889398855340800,12.4353408203125,-0.020450234413146973,1.3551902770996094,9.603063583374023
1701889398872332500,12.45233251953125,0.8928331732749939,-0.5294084548950195,9.307197570800781
1701889398889313800,12.469313720703125,1.434488296508789,-2.3864245414733887,9.329530715942383
1701889398906303200,12.48630322265625,1.4611258506774902,-3.3424339294433594,8.289419174194336
1701889398923287600,12.50328759765625,1.9183018207550049,-3.374171257019043,6.349711894989014
1701889398940278300,12.5202783203125,1.802616834640503,-3.2951784133911133,5.011687278747559
1701889398957265700,12.537265625,1.4097192287445068,-2.9705166816711426,3.4575414657592773
1701889398974253000,12.554253173828124,1.2105704545974731,-2.882687568664551,2.0910043716430664
1701889398991242200,12.5712421875,1.3364150524139404,-2.974771022796631,0.9009075164794922
1701889399008226300,12.588226318359375,1.453737497329712,-3.2765378952026367,-0.10420608520507812
1701889399025215700,12.6052158203125,1.9304255247116089,-3.735018491744995,-1.153768539428711
1701889399042203400,12.622203369140625,3.2521209716796875,-3.994227409362793,-2.590902328491211
1701889399059191000,12.63919091796875,3.5046372413635254,-4.519035339355469,-4.074683666229248
1701889399076178400,12.656178466796876,3.8402299880981445,-4.690223217010498,-5.733251571655273
1701889399093165800,12.673165771484374,3.9154000282287598,-4.956521034240723,-6.979070663452148
1701889399110142700,12.690142822265624,4.127760887145996,-4.976022720336914,-7.982235431671143
1701889399127130000,12.707130126953125,4.354374885559082,-4.833527088165283,-8.539643287658691
1701889399144128500,12.72412841796875,4.484174728393555,-4.972034454345703,-8.370403289794922
1701889399161116000,12.741115966796874,4.735098838806152,-5.157453536987305,-7.874971866607666
1701889399178103600,12.758103515625,4.810535430908203,-5.315852165222168,-7.405021667480469
1701889399195091000,12.775091064453125,4.693714141845703,-5.477419853210449,-7.215812683105469
1701889399212078300,12.792078369140626,4.442865371704102,-5.710870742797852,-6.837070465087891
1701889399229053400,12.809053466796875,4.290950775146484,-6.061485290527344,-5.9378981590271
1701889399246043400,12.82604345703125,4.254137992858887,-6.451719284057617,-4.469629764556885
1701889399263040800,12.843040771484375,4.381128311157227,-6.912494659423828,-2.599824905395508
1701889399280031000,12.860031005859375,4.0915398597717285,-7.473597526550293,-1.1407432556152344
1701889399297020400,12.8770205078125,3.3460044860839844,-7.8102006912231445,-0.5101070404052734
1701889399314004700,12.894004638671875,2.209693431854248,-7.9509358406066895,-0.5512895584106445
1701889399330991400,12.910991455078126,0.858841061592102,-8.000838279724121,-0.18865966796875
1701889399347978500,12.927978515625,0.05752134323120117,-7.85640287399292,1.4178352355957031
1701889399364965400,12.94496533203125,-0.011605978012084961,-7.207200527191162,4.133064270019531
1701889399381954300,12.961954345703125,-0.18485522270202637,-6.56707239151001,6.286894798278809
1701889399398941200,12.978941162109376,-0.44173383712768555,-5.704893112182617,7.148733139038086
1701889399415928600,12.995928466796874,-0.5953595638275146,-4.613705635070801,6.778529167175293
1701889399432910600,13.01291064453125,-0.5174591541290283,-3.619492530822754,6.344714164733887
1701889399449906400,13.029906494140626,-0.46450579166412354,-2.3284049034118652,5.891514778137207
1701889399466891300,13.046891357421876,-0.7182983160018921,-0.7350773811340332,5.405915260314941
1701889399483878700,13.063878662109374,-1.1760951280593872,0.9928789138793945,4.903038024902344
1701889399500866300,13.0808662109375,-1.912320852279663,2.6232240200042725,4.45589542388916
1701889399517854000,13.09785400390625,-2.4586658477783203,3.7435224056243896,4.487985610961914
1701889399534841600,13.114841552734376,-2.660953998565674,4.613168716430664,3.8590641021728516
1701889399551828700,13.131828857421874,-2.4484474658966064,4.639865398406982,3.0419702529907227
1701889399568816400,13.14881640625,-1.413820505142212,4.5012922286987305,2.3325958251953125
1701889399585804000,13.165803955078125,-0.4954568147659302,4.433130264282227,1.8554778099060059
1701889399602791400,13.18279150390625,0.16094473004341125,4.423287868499756,1.9188218116760254
1701889399619776000,13.19977587890625,0.6337709426879883,4.676399230957031,3.0946502685546875
1701889399636756200,13.216756103515625,0.2740045487880707,5.518313407897949,3.402322769165039
1701889399653754000,13.233754150390626,-0.8060320615768433,6.097807884216309,3.528494358062744
1701889399670741500,13.250741455078124,-1.950169324874878,6.362867832183838,3.8654727935791016
1701889399687728400,13.267728271484375,-2.7481865882873535,6.573725700378418,4.546548843383789
1701889399704717600,13.284717529296875,-3.45432710647583,6.636887550354004,5.5863728523254395
1701889399721704200,13.3017041015625,-3.7085249423980713,7.022079944610596,6.292384147644043
1701889399738691800,13.31869189453125,-3.9644505977630615,6.923554420471191,6.772526264190674
1701889399755673900,13.335673828125,-3.8267762660980225,6.812051773071289,7.233511924743652
1701889399772666400,13.352666259765625,-3.4846651554107666,6.523918151855469,7.973636627197266
1701889399789660200,13.36966015625,-3.1827392578125,5.0991411209106445,9.599672317504883
1701889399806641000,13.386640869140624,-2.622401475906372,3.6158065795898438,10.303628921508789
1701889399823619300,13.403619384765625,-1.681302785873413,2.1308035850524902,11.219079971313477
1701889399840616700,13.42061669921875,-0.6226364374160767,1.5181922912597656,12.106871604919434
1701889399857604400,13.437604248046876,-0.054168760776519775,1.7222089767456055,12.00192642211914
1701889399874591700,13.454591796875,0.5473718643188477,1.7478108406066895,11.425086975097656
1701889399891576300,13.471576416015624,1.0221384763717651,1.024655818939209,10.727209091186523
1701889399908550700,13.488550537109376,1.5850098133087158,-0.20292186737060547,9.732755661010742
1701889399925554200,13.50555419921875,2.083219289779663,-1.6165423393249512,8.751923561096191
1701889399942538800,13.522538818359376,2.622469902038574,-2.257107734680176,7.370343208312988
1701889399959529500,13.539529541015625,3.2184743881225586,-2.1688098907470703,5.5095953941345215
1701889399976519400,13.55651953125,3.124026298522949,-1.762558937072754,3.5597429275512695
1701889399993504500,13.57350439453125,2.8647284507751465,-1.6745576858520508,1.8728914260864258
1701889400010488800,13.59048876953125,2.7370548248291016,-1.376767635345459,0.08960151672363281
1701889400027479300,13.607479248046875,2.469931125640869,-1.6162440776824951,-0.9419608116149902
1701889400044470300,13.62447021484375,2.0754621028900146,-2.011261463165283,-1.8229455947875977
1701889400061438500,13.6414384765625,1.9020135402679443,-2.247899293899536,-2.638272762298584
1701889400078431500,13.658431396484374,2.59810471534729,-2.6263885498046875,-3.4445414543151855
1701889400095437000,13.67543701171875,2.8774828910827637,-2.8594093322753906,-4.325888633728027
1701889400112414500,13.69241455078125,2.9457848072052,-3.1651463508605957,-4.990612506866455
1701889400129403400,13.7094033203125,2.9625110626220703,-3.372767448425293,-5.473432540893555
1701889400146381000,13.726381103515624,3.2166028022766113,-3.6977288722991943,-5.804678440093994
1701889400163375400,13.743375244140625,3.5134270191192627,-3.9445178508758545,-5.793079376220703
1701889400180367000,13.7603671875,3.9937334060668945,-4.267743110656738,-5.314774036407471
1701889400197353700,13.777353759765624,4.223973274230957,-4.609908103942871,-4.711884498596191
1701889400214343000,13.794343017578125,4.2769975662231445,-4.999533176422119,-4.270665645599365
1701889400231327000,13.811326904296875,4.312995433807373,-5.546794891357422,-3.9091110229492188
1701889400248319700,13.82831982421875,4.4475250244140625,-6.055826187133789,-3.4409542083740234
1701889400265304800,13.845304931640625,4.2833452224731445,-6.311441421508789,-3.0435547828674316
1701889400282290200,13.862290283203125,3.8901638984680176,-6.905301570892334,-1.9003009796142578
1701889400299281400,13.879281494140624,3.279404640197754,-7.403980255126953,-0.9220066070556641
1701889400316267000,13.89626708984375,2.311215877532959,-7.650999069213867,-0.6754550933837891
1701889400333251600,13.91325146484375,1.4303703308105469,-7.6113057136535645,-0.9260978698730469
1701889400350245000,13.9302451171875,0.6710186004638672,-7.750929355621338,-1.0453987121582031
1701889400367227000,13.947226806640625,0.7076510190963745,-7.675226211547852,-0.5924787521362305
1701889400384217000,13.964217041015624,1.5820412635803223,-7.050933837890625,0.9080190658569336
1701889400401204500,13.98120458984375,1.6108804941177368,-6.532652854919434,2.771012306213379
1701889400418192100,13.998192138671875,0.9780121445655823,-5.776545524597168,3.9105453491210938
1701889400435179800,14.0151796875,-0.02385389804840088,-4.918768882751465,4.592639923095703
1701889400452155400,14.0321552734375,-1.1923781633377075,-3.8242416381835938,4.506295204162598
1701889400469147000,14.04914697265625,-2.105619430541992,-2.513312339782715,3.66341495513916
1701889400486131500,14.06613134765625,-2.7109968662261963,-1.0106101036071777,2.5660791397094727
1701889400503124000,14.0831240234375,-2.9812369346618652,0.5125231742858887,2.003042221069336
1701889400520106800,14.100106689453124,-3.0061371326446533,1.9797873497009277,2.159152030944824
1701889400537094700,14.1170947265625,-2.907884359359741,2.7769010066986084,2.7651567459106445
1701889400554087400,14.13408740234375,-1.7017090320587158,3.531850576400757,2.983726978302002
1701889400571076000,14.151076171875,-0.5565179586410522,4.03026008605957,2.581979274749756
1701889400588062200,14.168062255859375,0.0336003303527832,3.943432331085205,2.2931299209594727
1701889400605052000,14.185052001953125,0.8880221843719482,3.7990782260894775,2.2452335357666016
1701889400622038500,14.20203857421875,1.8989248275756836,3.75502872467041,2.4738335609436035
1701889400639027500,14.21902734375,2.643470287322998,3.9423065185546875,3.4559779167175293
1701889400656006400,14.23600634765625,2.514464855194092,4.566253185272217,4.362792015075684
1701889400672996000,14.25299609375,1.3384448289871216,5.0662946701049805,4.988064289093018
1701889400689991400,14.269991455078125,-0.07097756862640381,5.568894386291504,5.109929084777832
1701889400706969600,14.286969482421876,-0.9146519303321838,6.036362171173096,5.315544605255127
1701889400723962600,14.303962646484376,-1.2933447360992432,6.322735786437988,5.990259170532227
1701889400740946200,14.3209462890625,-1.4222326278686523,6.5674896240234375,6.663958549499512
1701889400757937000,14.33793701171875,-1.6344114542007446,6.701316833496094,7.1897807121276855
1701889400774921000,14.3549208984375,-1.7985522747039795,6.621341705322266,7.942368030548096
1701889400791906600,14.371906494140624,-1.9276652336120605,5.467490196228027,9.339740753173828
1701889400808888000,14.38888818359375,-1.678654432296753,3.6047353744506836,10.917911529541016
1701889400825892600,14.405892578125,-1.269714117050171,1.9453778266906738,12.122696876525879
1701889400842876700,14.422876708984376,-0.7085956335067749,1.5016498565673828,12.63511848449707
1701889400859867600,14.43986767578125,0.1369030475616455,2.45343017578125,12.064659118652344
1701889400876840700,14.4568408203125,0.7851195335388184,2.6041183471679688,11.397603988647461
1701889400893846300,14.47384619140625,1.2519500255584717,1.3815135955810547,10.969263076782227
1701889400910830000,14.490830078125,1.4210920333862305,-0.46593713760375977,10.74345588684082
1701889400927817500,14.5078173828125,1.4711021184921265,-1.9133353233337402,10.064567565917969
1701889400944804600,14.5248046875,1.6427674293518066,-2.5103726387023926,8.759520530700684
1701889400961793000,14.54179296875,2.076575756072998,-2.7492432594299316,7.17997932434082
1701889400978780200,14.5587802734375,2.0116374492645264,-2.443300724029541,5.047013759613037
1701889400995757000,14.575757080078125,1.4516135454177856,-2.403177261352539,3.2728633880615234
1701889401012755500,14.59275537109375,1.2103712558746338,-2.317047595977783,1.3869705200195312
1701889401029739500,14.609739501953126,1.4254781007766724,-2.327087640762329,-0.1520824432373047
1701889401046728200,14.626728271484374,1.3239340782165527,-2.6981587409973145,-1.1158146858215332
1701889401063719200,14.64371923828125,1.5526599884033203,-2.8686788082122803,-2.044426918029785
1701889401080705300,14.660705322265626,1.4880824089050293,-3.082442283630371,-3.216144561767578
1701889401097692700,14.677692626953124,1.8159185647964478,-3.651190996170044,-4.5205488204956055
1701889401114680000,14.69468017578125,2.3576741218566895,-4.065014839172363,-5.9382829666137695
1701889401131667500,14.71166748046875,2.7346463203430176,-4.691316604614258,-7.162274360656738
1701889401148655000,14.728655029296876,3.4948043823242188,-5.069477558135986,-7.99037504196167
1701889401165642500,14.745642578125,3.786454439163208,-5.270142555236816,-8.447574615478516
1701889401182630000,14.7626298828125,3.5594840049743652,-5.331364631652832,-8.581048011779785
1701889401199606800,14.779606689453125,3.355313539505005,-5.443485736846924,-8.396651268005371
1701889401216594000,14.796593994140625,3.150454044342041,-5.786752700805664,-7.777021408081055
1701889401233593300,14.81359326171875,2.9241678714752197,-6.512735843658447,-6.741605281829834
1701889401250580200,14.830580322265625,2.9444737434387207,-7.084717273712158,-6.201364517211914
1701889401267567600,14.847567626953126,3.243408203125,-7.403083801269531,-5.4340362548828125
1701889401284555000,14.864554931640624,2.872267007827759,-7.967472553253174,-3.7824997901916504
1701889401301542400,14.88154248046875,2.300302267074585,-8.109440803527832,-2.1610498428344727
1701889401318530300,14.8985302734375,1.546732783317566,-8.310461044311523,-0.755401611328125
1701889401335517700,14.915517578125,0.744483470916748,-8.312594413757324,0.028142929077148438
1701889401352500000,14.9325,0.07725358009338379,-8.414196014404297,0.4394416809082031
1701889401369494800,14.949494873046875,0.2609694004058838,-8.473692893981934,1.4115686416625977
1701889401386477600,14.9664775390625,0.9820407629013062,-7.854266166687012,3.3977909088134766
1701889401403470600,14.983470703125,1.2805838584899902,-7.24020528793335,5.916729927062988
1701889401420452900,15.000452880859376,1.0560612678527832,-6.364109516143799,7.370011329650879
1701889401437445400,15.0174453125,0.6333969831466675,-5.163124084472656,7.445314407348633
1701889401454430200,15.03443017578125,0.20402252674102783,-4.002031326293945,7.1821489334106445
1701889401471420000,15.051419921875,0.037186384201049805,-2.3355226516723633,6.257831573486328
1701889401488400400,15.068400390625,-0.13308560848236084,-0.48708391189575195,5.060011863708496
1701889401505395500,15.0853955078125,-0.5249072313308716,1.5876383781433105,4.543522834777832
1701889401522380300,15.10238037109375,-1.4899338483810425,3.449833869934082,4.1989827156066895
1701889401539365000,15.119365234375,-1.8479526042938232,4.879286766052246,3.988823890686035
1701889401556345000,15.136344970703124,-1.4704339504241943,5.71518087387085,3.2832393646240234
1701889401573342500,15.153342529296875,-1.40904700756073,5.926448345184326,2.4514307975769043
1701889401590330000,15.170330078125,-1.8160364627838135,5.517765522003174,1.9443416595458984
1701889401607317000,15.18731689453125,-1.7270011901855469,4.959811687469482,1.761031150817871
1701889401624306200,15.20430615234375,-0.9100697636604309,4.702997207641602,1.8588109016418457
1701889401641292800,15.221292724609375,0.013487458229064941,4.82450008392334,2.6645989418029785
1701889401658280200,15.2382802734375,0.05911743640899658,5.277301788330078,3.5073485374450684
1701889401675268000,15.25526806640625,-0.8061052560806274,5.852790355682373,3.6200594902038574
1701889401692256300,15.27225634765625,-1.759692907333374,6.09174919128418,3.78360652923584
1701889401709241600,15.28924169921875,-1.9264929294586182,5.910957336425781,4.9047465324401855
1701889401726229500,15.3062294921875,-1.5496201515197754,5.558597564697266,6.311528205871582
1701889401743218400,15.323218505859375,-1.1515233516693115,5.327790260314941,7.327464580535889
1701889401760204800,15.340204833984375,-0.9666091799736023,5.699010848999023,7.4505534172058105
1701889401777188400,15.357188232421874,-0.8905507922172546,5.7355146408081055,7.879915237426758
1701889401794178800,15.3741787109375,-1.0141026973724365,4.737214088439941,9.314162254333496
1701889401811164200,15.3911640625,-1.227532148361206,3.34171724319458,11.16904067993164
1701889401828156200,15.40815625,-1.7819275856018066,2.170024871826172,12.734485626220703
1701889401845145300,15.425145263671874,-2.3452205657958984,2.214798927307129,12.883785247802734
1701889401862124500,15.44212451171875,-2.267425298690796,2.6842079162597656,12.01446533203125
1701889401879120400,15.459120361328125,-1.3873651027679443,2.736787796020508,10.925209045410156
1701889401896095000,15.476094970703125,-0.029661059379577637,1.8113584518432617,9.842304229736328
1701889401913092900,15.4930927734375,1.1730042695999146,-0.15697240829467773,9.476438522338867
1701889401930077000,15.510076904296875,2.1358134746551514,-1.8670568466186523,8.86423110961914
1701889401947067600,15.527067626953125,2.82370662689209,-2.615508556365967,7.278183937072754
1701889401964055600,15.5440556640625,3.099329948425293,-2.3965630531311035,4.868168830871582
1701889401981049900,15.5610498046875,2.939340591430664,-2.024299144744873,2.7454919815063477
1701889401998037000,15.578037109375,3.106900215148926,-1.4899091720581055,0.5710954666137695
1701889402015018000,15.59501806640625,2.6595702171325684,-1.105888843536377,-1.1428370475769043
1701889402032004600,15.612004638671875,2.2517290115356445,-1.0425453186035156,-2.256504535675049
1701889402048993000,15.628992919921876,1.9698264598846436,-1.1112380027770996,-3.145089626312256
1701889402065971500,15.645971435546874,1.9942333698272705,-1.329308032989502,-3.6255712509155273
1701889402082967600,15.662967529296875,2.0418577194213867,-1.517056941986084,-3.8435568809509277
1701889402099953000,15.679952880859375,2.2292838096618652,-1.681042194366455,-4.382312774658203
1701889402116944600,15.696944580078124,2.3849918842315674,-1.839231252670288,-5.161014556884766
1701889402133931300,15.71393115234375,2.380140781402588,-1.985609531402588,-5.910619258880615
1701889402150918000,15.73091796875,2.4863059520721436,-2.03129506111145,-6.408830642700195
1701889402167905500,15.747905517578126,2.575155258178711,-2.149028778076172,-6.3360395431518555
1701889402184892000,15.764891845703126,2.7311182022094727,-2.444380283355713,-5.636743545532227
1701889402201881000,15.781881103515625,2.8834497928619385,-2.700282096862793,-4.767724514007568
1701889402218868000,15.798867919921875,3.233598470687866,-3.095388412475586,-4.121438980102539
1701889402235854600,15.8158544921875,3.6869957447052,-3.765862464904785,-3.6068263053894043
1701889402252839700,15.832839599609375,4.2074174880981445,-4.391045570373535,-3.062753677368164
1701889402269830400,15.849830322265625,4.658652305603027,-4.941381454467773,-2.19460391998291
1701889402286817800,15.86681787109375,4.652164936065674,-5.274870872497559,-1.359382152557373
1701889402303805400,15.883805419921876,4.431327819824219,-6.092480659484863,0.29701995849609375
1701889402320792800,15.900792724609374,4.0226664543151855,-6.46115779876709,1.2972984313964844
1701889402337780200,15.9177802734375,3.0655484199523926,-6.824296951293945,1.1151132583618164
1701889402354766800,15.934766845703125,2.1211915016174316,-7.007408142089844,0.08748531341552734
1701889402371753000,15.9517529296875,1.9205870628356934,-6.963846206665039,-0.6635818481445312
1701889402388742700,15.96874267578125,2.783613681793213,-6.239980220794678,-0.49225425720214844
1701889402405730300,15.985730224609375,2.9626333713531494,-5.5731425285339355,0.8401479721069336
1701889402422705200,16.002705078125,2.082132577896118,-5.175300121307373,2.593085289001465
1701889402439704800,16.019704833984374,1.057809591293335,-4.745039463043213,3.734600067138672
1701889402456682200,16.03668212890625,-0.023835420608520508,-4.047089576721191,3.69998836517334
1701889402473680100,16.05368017578125,-0.7044675350189209,-3.0158841609954834,2.9129953384399414
1701889402490662400,16.070662353515626,-1.1831008195877075,-1.6297459602355957,1.915456771850586
1701889402507655400,16.087655517578124,-1.5163562297821045,-0.22226524353027344,1.155137062072754
1701889402524642800,16.104642822265625,-1.6130667924880981,1.0084452629089355,1.1198654174804688
1701889402541630200,16.121630126953125,-1.6674401760101318,2.3782875537872314,1.6033411026000977
1701889402558607000,16.138607177734375,-1.955846905708313,3.2958645820617676,1.4998650550842285
1701889402575587000,16.155587158203126,-2.084779977798462,3.720296621322632,0.8206996917724609
1701889402592593000,16.172593017578127,-1.65863835811615,3.705442190170288,0.20050573348999023
1701889402609580000,16.189580078125,-0.9454870223999023,3.437631607055664,0.014702796936035156
1701889402626567400,16.2065673828125,-0.18545013666152954,3.2466464042663574,0.29291486740112305
1701889402643555800,16.223555908203124,0.378218412399292,3.1300206184387207,1.8729791641235352
1701889402660543000,16.24054296875,0.19380953907966614,3.7523438930511475,3.0230793952941895
1701889402677529000,16.257529052734377,-0.8887050747871399,4.165830612182617,3.578763008117676
1701889402694519000,16.27451904296875,-2.1818084716796875,4.694671630859375,3.5033106803894043
1701889402711492900,16.291492919921875,-3.3687310218811035,4.702001571655273,3.865143299102783
1701889402728495000,16.3084951171875,-3.7985312938690186,4.757502555847168,4.981227397918701
1701889402745480200,16.325480224609375,-3.5753467082977295,4.680304527282715,6.720158100128174
1701889402762464500,16.342464599609375,-3.604991912841797,4.827237606048584,8.00893783569336
1701889402779444500,16.359444580078126,-3.848050594329834,5.343787670135498,8.461103439331055
1701889402796442600,16.376442626953125,-3.73323917388916,5.574915885925293,8.809070587158203
1701889402813427700,16.393427734375,-3.394416570663452,4.882102012634277,9.628328323364258
1701889402830420200,16.410420166015626,-2.487283229827881,3.7664151191711426,10.426197052001953
1701889402847405000,16.427405029296875,-1.7574313879013062,2.5399675369262695,11.154155731201172
1701889402864390100,16.44439013671875,-1.033004641532898,1.785390853881836,11.800289154052734
1701889402881372200,16.4613720703125,-0.3601338267326355,2.061497211456299,11.545287132263184
1701889402898355500,16.47835546875,0.40494921803474426,2.6310033798217773,10.730709075927734
1701889402915355100,16.495355224609376,0.8738607168197632,2.4487528800964355,9.912397384643555
1701889402932342800,16.5123427734375,1.2409405708312988,1.466050624847412,9.203426361083984
1701889402949326000,16.529326171875,1.6190333366394043,0.17159700393676758,8.46652603149414
1701889402966318300,16.546318359375,2.0519168376922607,-0.415771484375,7.308773517608643
1701889402983305000,16.563304931640626,2.315824508666992,-0.45078277587890625,5.926840305328369
1701889403000292600,16.580292724609375,2.4741945266723633,-0.3688535690307617,4.5474324226379395
1701889403017280000,16.597280029296876,2.3138792514801025,-0.07752799987792969,2.8314709663391113
1701889403034267400,16.614267333984376,1.575675368309021,-0.17136049270629883,1.4665155410766602
1701889403051255300,16.63125537109375,1.5509603023529053,-0.06390953063964844,-0.010982513427734375
1701889403068242700,16.64824267578125,1.6432318687438965,-0.19481849670410156,-0.8934907913208008
1701889403085230600,16.665230712890626,1.6309566497802734,-0.386538028717041,-1.6333436965942383
1701889403102217500,16.682217529296874,1.63750422000885,-0.781501054763794,-2.3221287727355957
1701889403119194000,16.699194091796876,2.7072484493255615,-1.0480492115020752,-3.028193950653076
1701889403136191700,16.716191650390623,3.0428450107574463,-1.5079565048217773,-3.566788673400879
1701889403153181000,16.733180908203124,3.1766138076782227,-1.841616153717041,-4.123265743255615
1701889403170167600,16.75016748046875,3.2554502487182617,-2.3222899436950684,-4.6732001304626465
1701889403187155000,16.767155029296877,3.717024326324463,-2.6014530658721924,-5.176990509033203
1701889403204142600,16.784142578125,3.9758501052856445,-3.0033388137817383,-4.862936973571777
1701889403221130200,16.801130126953126,4.216801166534424,-3.378302812576294,-4.215803623199463
1701889403238117600,16.81811767578125,4.546701908111572,-3.8700754642486572,-3.1637210845947266
1701889403255105000,16.83510498046875,4.796266078948975,-4.823878288269043,-1.9440665245056152
1701889403272089300,16.85208935546875,5.012653827667236,-5.734482288360596,-1.4919815063476562
1701889403289086700,16.869086669921874,5.371625900268555,-6.399816513061523,-1.5780916213989258
1701889403306066200,16.886066162109376,5.688533782958984,-6.483973503112793,-1.6146364212036133
1701889403323054000,16.90305419921875,4.915596008300781,-6.523965358734131,-1.1085004806518555
1701889403340045000,16.920045166015626,3.570798873901367,-6.369697570800781,-0.7705163955688477
1701889403357030000,16.93702978515625,2.390897750854492,-6.234707832336426,-0.6065959930419922
1701889403374017300,16.954017333984375,1.4658507108688354,-6.244410037994385,-0.8952093124389648
1701889403391002000,16.971002197265626,0.8799996376037598,-6.415934085845947,-1.4289593696594238
1701889403407995100,16.9879951171875,0.7428700923919678,-6.462327003479004,-1.5957450866699219
1701889403424980000,17.00497998046875,1.0755698680877686,-6.059944152832031,-1.030181884765625
1701889403441967600,17.021967529296877,1.2104989290237427,-5.530789852142334,0.1113290786743164
1701889403458954800,17.038954833984373,0.9297502040863037,-5.084551811218262,1.013326644897461
1701889403475939800,17.05593994140625,0.6988555192947388,-4.5669403076171875,1.1929588317871094
1701889403492943000,17.072943115234374,0.57621169090271,-4.041409492492676,1.050271987915039
1701889403509917200,17.089917236328127,0.9514570236206055,-3.172183036804199,0.6791772842407227
1701889403526905600,17.106905517578124,1.1991286277770996,-1.7119905948638916,0.39858531951904297
1701889403543893200,17.123893310546876,0.7601457834243774,-0.41509008407592773,0.6813421249389648
1701889403560878000,17.140878173828124,0.23229724168777466,0.8318924903869629,1.2331886291503906
1701889403577857500,17.157857421875,-0.2773057222366333,1.8742485046386719,1.9587202072143555
1701889403594843100,17.174843017578127,-0.7943248152732849,2.792480945587158,2.5497312545776367
1701889403611844600,17.1918447265625,-1.3321770429611206,3.2700905799865723,3.0300588607788086
1701889403628824300,17.20882421875,-1.8122354745864868,3.5684618949890137,3.4023637771606445
1701889403645811200,17.225811279296874,-2.2344682216644287,3.774839401245117,4.183182716369629
1701889403662806000,17.242805908203124,-2.4435770511627197,4.200307846069336,5.006384372711182
1701889403679792400,17.25979248046875,-2.81061053276062,4.6527252197265625,5.730466365814209
1701889403696769300,17.276769287109374,-3.201356887817383,5.260946273803711,6.268427848815918
1701889403713767400,17.293767333984373,-3.730750560760498,5.82358455657959,6.688892841339111
1701889403730754600,17.310754638671874,-3.953737497329712,6.252704620361328,6.824645519256592
1701889403747747800,17.327747802734375,-3.5990102291107178,6.15919828414917,7.211840629577637
1701889403764729600,17.3447294921875,-2.817594528198242,5.770468711853027,7.771871566772461
1701889403781714200,17.361714111328126,-2.1272010803222656,5.494546413421631,8.311769485473633
1701889403798704600,17.37870458984375,-1.7798136472702026,5.823397636413574,8.58022403717041
1701889403815673900,17.395673828125,-2.0444729328155518,6.343339920043945,8.647326469421387
1701889403832677000,17.412677001953124,-2.434007406234741,5.838850975036621,9.525899887084961
1701889403849664800,17.429664794921877,-2.558546781539917,4.630727767944336,10.181838989257812
1701889403866651600,17.446651611328125,-2.3431904315948486,3.156827926635742,10.45646858215332
1701889403883644700,17.463644775390627,-1.5976470708847046,2.151052474975586,10.607824325561523
1701889403900629500,17.48062939453125,-0.8754866719245911,1.6029162406921387,11.04295539855957
1701889403917613300,17.49761328125,-0.44094884395599365,1.5974321365356445,10.970012664794922
1701889403934604800,17.514604736328124,-0.3733474910259247,1.4758481979370117,10.408798217773438
1701889403951586600,17.531586669921875,-0.4771885573863983,0.7277946472167969,9.495986938476562
1701889403968576000,17.548575927734376,0.07445091009140015,-0.5760335922241211,8.7370023727417
1701889403985563100,17.565563232421876,1.210615634918213,-1.9659037590026855,8.36121940612793
1701889404002550000,17.582550048828125,2.132565975189209,-2.6722116470336914,7.616022109985352
1701889404019539000,17.5995390625,2.898284912109375,-2.576569080352783,5.836461067199707
1701889404036523500,17.6165234375,2.235307216644287,-2.2421045303344727,3.9796972274780273
1701889404053510400,17.633510498046874,1.8325457572937012,-2.062689781188965,2.1962013244628906
1701889404070499600,17.65049951171875,1.603152871131897,-2.0447988510131836,0.5537757873535156
1701889404087491000,17.667490966796876,1.6226800680160522,-2.3199057579040527,-0.799504280090332
1701889404104475000,17.684474853515624,1.732419729232788,-2.5825271606445312,-2.075526237487793
1701889404121458400,17.70145849609375,2.0138914585113525,-2.9254794120788574,-3.191150188446045
1701889404138444000,17.718444091796876,2.707913875579834,-3.131593942642212,-4.022204399108887
1701889404155431700,17.735431640625,2.9621381759643555,-3.24654483795166,-4.8653059005737305
1701889404172417500,17.75241748046875,2.9946184158325195,-3.2535905838012695,-5.741596698760986
1701889404189416200,17.769416259765624,3.3668274879455566,-3.2071545124053955,-6.473310470581055
1701889404206397400,17.7863974609375,3.636983871459961,-3.229987621307373,-6.90626859664917
1701889404223387400,17.803387451171876,3.744626522064209,-3.418910264968872,-7.021248817443848
1701889404240373800,17.820373779296876,4.114771842956543,-3.597393751144409,-7.033232688903809
1701889404257356300,17.837356201171875,4.5762457847595215,-3.7304396629333496,-6.692608833312988
1701889404274351400,17.854351318359374,4.976474285125732,-3.9967305660247803,-5.916872024536133
1701889404291333000,17.8713330078125,5.021139621734619,-4.3624267578125,-5.267683506011963
1701889404308330200,17.888330322265624,4.911826133728027,-5.023308753967285,-4.506561756134033
1701889404325316900,17.90531689453125,4.835237503051758,-5.666051387786865,-3.523284912109375
1701889404342304300,17.92230419921875,4.898051738739014,-6.137121677398682,-1.9968090057373047
1701889404359287800,17.939287841796876,4.6156325340271,-6.562295436859131,-0.24626922607421875
1701889404376279800,17.95627978515625,3.6790707111358643,-6.676922798156738,0.3187246322631836
1701889404393256200,17.973256103515624,2.5966639518737793,-6.72853422164917,0.12654399871826172
1701889404410254000,17.990254150390626,2.1306960582733154,-6.846227169036865,0.5556163787841797
1701889404427231200,18.007231201171876,1.4465177059173584,-6.838706970214844,0.6675300598144531
1701889404444211000,18.0242109375,0.9655375480651855,-6.579916954040527,1.0227394104003906
1701889404461206300,18.041206298828126,1.317803978919983,-6.246335029602051,1.9595699310302734
1701889404478204200,18.0582041015625,1.3085496425628662,-5.889425277709961,3.1023311614990234
1701889404495191800,18.07519189453125,0.8968418836593628,-5.50473690032959,3.6030378341674805
1701889404512179200,18.09217919921875,0.7479459047317505,-4.794654369354248,3.541876792907715
1701889404529166600,18.10916650390625,0.6647437810897827,-3.885284900665283,3.360576629638672
1701889404546153200,18.1261533203125,0.4786083698272705,-2.6205122470855713,3.6788454055786133
1701889404563142100,18.14314208984375,-0.10662806034088135,-0.8749022483825684,4.147031784057617
1701889404580129000,18.16012890625,-0.9448801875114441,0.8506336212158203,4.1393022537231445
1701889404597116700,18.17711669921875,-1.7896900177001953,2.2624411582946777,3.840834617614746
1701889404614104300,18.194104248046877,-2.4653525352478027,3.307257890701294,3.461815357208252
1701889404631091700,18.211091796875,-2.802565097808838,3.660228967666626,3.56146240234375
1701889404648079000,18.2280791015625,-2.642667055130005,3.807950019836426,3.611766815185547
1701889404665066500,18.24506640625,-1.6620349884033203,4.0691819190979,3.618091106414795
1701889404682050800,18.26205078125,-1.0912582874298096,4.527146339416504,4.163064002990723
1701889404699039200,18.279039306640627,-1.3804501295089722,5.156161308288574,3.9271841049194336
1701889404716029000,18.29602880859375,-1.846619725227356,5.552480697631836,3.8749518394470215
1701889404733016300,18.313016357421876,-2.467818021774292,5.829540252685547,3.949493408203125
1701889404750003700,18.330003662109377,-3.188779354095459,6.093236446380615,4.617978572845459
1701889404766991400,18.346991455078125,-3.9223217964172363,6.402126789093018,5.290176868438721
1701889404783978800,18.363978759765626,-4.295725345611572,6.655922889709473,5.858103275299072
1701889404800966400,18.38096630859375,-4.450626850128174,6.705409049987793,6.361867904663086
1701889404817953800,18.397953857421875,-4.381435394287109,6.781499862670898,6.928285598754883
1701889404834941200,18.414941162109375,-4.205348014831543,6.353482723236084,8.129514694213867
1701889404851928800,18.4319287109375,-4.148551940917969,4.809037685394287,10.041988372802734
1701889404868913700,18.44891357421875,-3.8111610412597656,3.1576623916625977,11.437406539916992
1701889404885906400,18.465906494140626,-2.883559226989746,2.114894390106201,12.40463638305664
1701889404902891300,18.482891357421874,-2.1020073890686035,2.3451762199401855,12.28902816772461
1701889404919879000,18.49987890625,-1.5922247171401978,2.7744498252868652,11.743247032165527
1701889404936866300,18.5168662109375,-1.1221749782562256,2.428546905517578,11.598397254943848
1701889404953853700,18.533853759765623,-0.7696524858474731,1.092811107635498,11.298637390136719
1701889404970841000,18.550841064453124,0.10712866485118866,-0.4910726547241211,10.315536499023438
1701889404987828500,18.567828369140624,1.2150704860687256,-1.579111099243164,8.962386131286621
1701889405004816000,18.58481591796875,2.139644145965576,-1.979447364807129,7.42013692855835
1701889405021804300,18.60180419921875,2.755164384841919,-1.8249640464782715,5.711417198181152
1701889405038791200,18.618791259765626,3.2407498359680176,-1.4961600303649902,3.8702173233032227
1701889405055765200,18.63576513671875,2.9909403324127197,-0.8455567359924316,1.7765083312988281
1701889405072768800,18.652768798828124,2.3789753913879395,-0.7343502044677734,0.46513938903808594
1701889405089749800,18.669749755859375,2.3221092224121094,-0.5427126884460449,-0.8845014572143555
1701889405106744800,18.686744873046877,2.0032479763031006,-0.5731902122497559,-1.6009588241577148
1701889405123725800,18.703725830078124,1.6247353553771973,-0.8884499073028564,-2.064492702484131
1701889405140718600,18.720718505859374,1.6258530616760254,-1.1537439823150635,-2.890850067138672
1701889405157703400,18.737703369140625,1.8411091566085815,-1.5595190525054932,-3.749516487121582
1701889405174690800,18.75469091796875,2.5372183322906494,-1.9713926315307617,-4.512768745422363
1701889405191675100,18.771675048828126,2.9969863891601562,-2.420238494873047,-5.08394193649292
1701889405208665900,18.788665771484375,3.3441662788391113,-2.6540069580078125,-5.842474937438965
1701889405225653200,18.8056533203125,3.558770179748535,-2.796872138977051,-6.157491683959961
1701889405242641000,18.822640869140624,3.9849295616149902,-2.95566987991333,-6.034654140472412
1701889405259628500,18.839628662109376,4.255744457244873,-3.2024922370910645,-5.436437606811523
1701889405276605400,18.85660546875,4.369819641113281,-3.432727575302124,-4.773660659790039
1701889405293600300,18.873600341796877,4.256989002227783,-4.056282043457031,-4.023639678955078
1701889405310590500,18.890590576171874,4.28081750869751,-4.617142200469971,-3.5111589431762695
1701889405327573200,18.9075732421875,4.313621997833252,-5.234187602996826,-2.7667927742004395
1701889405344556000,18.92455615234375,4.42167854309082,-5.384768486022949,-2.166024684906006
1701889405361553200,18.94155322265625,4.200727462768555,-5.667527198791504,-1.0243635177612305
1701889405378539800,18.958539794921876,3.4197771549224854,-5.980040073394775,-0.1970682144165039
1701889405395528700,18.97552880859375,2.542959213256836,-6.388525009155273,0.2861156463623047
1701889405412513000,18.992512939453125,1.9131059646606445,-6.654257774353027,0.20424938201904297
1701889405429505500,19.009505615234374,1.6250821352005005,-6.769815444946289,-0.05384540557861328
1701889405446489900,19.02648974609375,1.5561463832855225,-6.600593566894531,0.17022228240966797
1701889405463478800,19.043478759765627,1.4079232215881348,-5.82873010635376,1.1000919342041016
1701889405480465700,19.060465576171875,1.1472506523132324,-5.222550392150879,2.2340307235717773
1701889405497452800,19.077452880859376,0.844264805316925,-4.697422027587891,3.4922924041748047
1701889405514440700,19.094440673828124,0.4446526765823364,-4.036821365356445,4.128633499145508
1701889405531427600,19.111427490234377,0.18662571907043457,-3.1655163764953613,3.942636489868164
1701889405548415700,19.128415771484374,-0.12011659145355225,-1.8910269737243652,3.0675649642944336
1701889405565402000,19.145402099609374,-0.43797767162323,-0.5521836280822754,2.378119468688965
1701889405582391300,19.162391357421875,-0.8798089027404785,0.8723747730255127,2.139230728149414
1701889405599366000,19.179365966796876,-1.4014062881469727,2.2450711727142334,1.9988231658935547
1701889405616358000,19.19635791015625,-2.2737627029418945,3.336550712585449,1.6223030090332031
1701889405633352700,19.213352783203124,-3.1025261878967285,3.784050703048706,1.077906608581543
1701889405650340400,19.23034033203125,-3.0964670181274414,3.7494566440582275,0.598412036895752
1701889405667327700,19.24732763671875,-1.740238070487976,3.594876289367676,0.5962152481079102
1701889405684315100,19.264315185546874,-0.467061311006546,3.604334831237793,0.9410195350646973
1701889405701299500,19.281299560546874,0.2975766360759735,3.939049005508423,1.6814322471618652
1701889405718290200,19.298290283203126,-0.06616410613059998,4.436551094055176,2.204495906829834
1701889405735277600,19.315277587890623,-0.9060155153274536,4.755522727966309,2.632995128631592
1701889405752262000,19.332261962890627,-1.594429850578308,5.063545227050781,3.099618434906006
1701889405769239800,19.34923974609375,-2.1042912006378174,5.286324501037598,3.696648597717285
1701889405786238000,19.366238037109376,-2.223172664642334,5.578939437866211,4.297961711883545
1701889405803227400,19.383227294921873,-2.046004056930542,5.661406517028809,5.345037460327148
1701889405820215000,19.400215087890626,-1.9388768672943115,5.682229995727539,6.534280300140381
1701889405837202400,19.417202392578126,-2.0228464603424072,5.8273515701293945,7.264776706695557
1701889405854190000,19.434190185546875,-2.1932168006896973,6.149746894836426,7.517973899841309
1701889405871179800,19.4511796875,-2.338479995727539,5.754864692687988,8.558210372924805
1701889405888161800,19.468161865234375,-2.3423941135406494,4.42107629776001,10.123390197753906
1701889405905153000,19.485153076171876,-2.1312081813812256,2.824434757232666,11.316518783569336
1701889405922140000,19.502139892578125,-1.6308313608169556,2.3164258003234863,11.348613739013672
1701889405939126500,19.51912646484375,-1.1216374635696411,2.5402917861938477,10.578042984008789
1701889405956112600,19.536112548828125,-0.49396371841430664,2.741354465484619,9.637639999389648
1701889405973105000,19.55310498046875,0.32584717869758606,2.077381134033203,9.131486892700195
1701889405990089500,19.57008935546875,1.029793381690979,0.7817339897155762,8.843441009521484
1701889406007077600,19.58707763671875,1.665319800376892,-0.5713109970092773,8.53664493560791
1701889406024065000,19.60406494140625,2.0133862495422363,-1.069082260131836,7.317555904388428
1701889406041052200,19.62105224609375,2.2106552124023438,-0.8417739868164062,5.66368293762207
1701889406058039600,19.63803955078125,2.1966280937194824,-0.44680118560791016,4.0777482986450195
1701889406075027200,19.655027099609374,2.1974220275878906,-0.08743715286254883,2.5949087142944336
1701889406092011500,19.672011474609373,1.8389663696289062,-0.023890972137451172,1.3605766296386719
1701889406109000200,19.689000244140626,1.3622552156448364,-0.07903909683227539,0.22932720184326172
1701889406125989600,19.70598974609375,1.1693265438079834,-0.046601295471191406,-0.8940944671630859
1701889406142977000,19.72297705078125,0.9031954407691956,-0.1788620948791504,-1.6628646850585938
1701889406159954000,19.739953857421874,0.7178117036819458,-0.46880292892456055,-2.201626777648926
1701889406176951800,19.756951904296876,1.461440920829773,-0.7102220058441162,-3.050848960876465
1701889406193928700,19.7739287109375,2.3796989917755127,-1.0287516117095947,-3.8756089210510254
1701889406210915800,19.790915771484375,2.634462594985962,-1.3771181106567383,-4.757479667663574
1701889406227914500,19.80791455078125,2.4739830493927,-1.4938595294952393,-5.743132591247559
1701889406244901600,19.824901611328126,2.5808663368225098,-1.6782886981964111,-6.435877799987793
1701889406261889300,19.84188916015625,2.936046600341797,-1.9432158470153809,-6.618517875671387
1701889406278876000,19.8588759765625,3.2248387336730957,-2.280500650405884,-6.283895492553711
1701889406295864800,19.87586474609375,3.5682735443115234,-2.4202613830566406,-5.848099231719971
1701889406312851700,19.892851806640625,3.7306149005889893,-2.6292099952697754,-5.029012680053711
1701889406329839000,19.909839111328125,3.718759059906006,-3.1712074279785156,-3.904750347137451
1701889406346826500,19.926826416015626,3.7871179580688477,-3.8344521522521973,-2.8993186950683594
1701889406363814100,19.943814208984374,3.7760133743286133,-4.4051313400268555,-1.8179373741149902
1701889406380801800,19.9608017578125,3.7291712760925293,-4.759831428527832,-0.9372444152832031
1701889406397789000,19.977788818359375,3.3887813091278076,-5.288023948669434,0.07929611206054688
1701889406414776000,19.994776123046876,2.787130355834961,-5.707896709442139,0.7677288055419922
1701889406431765000,20.011764892578125,2.2626900672912598,-5.800878524780273,0.5069446563720703
1701889406448751600,20.028751708984377,1.9360923767089844,-5.939122200012207,0.2098369598388672
1701889406465738200,20.04573828125,1.8621869087219238,-6.158142566680908,0.4872169494628906
1701889406482727200,20.06272705078125,1.741146206855774,-5.977658748626709,0.7060050964355469
1701889406499713800,20.0797138671875,1.5365532636642456,-5.613230228424072,0.8261203765869141
1701889406516690700,20.096690673828125,1.5283172130584717,-5.423152923583984,1.6104812622070312
1701889406533685800,20.113685791015627,1.56695556640625,-4.930704593658447,2.785135269165039
1701889406550676200,20.13067626953125,1.0939886569976807,-4.085465431213379,3.2383956909179688
1701889406567663900,20.147663818359376,0.6987228393554688,-2.9397830963134766,2.975163459777832
1701889406584651300,20.1646513671875,0.3202282190322876,-1.5782427787780762,2.3798980712890625
1701889406601635600,20.181635498046877,-0.10321390628814697,-0.12653541564941406,1.577244758605957
1701889406618626000,20.1986259765625,-0.34400463104248047,1.1383721828460693,1.0847148895263672
1701889406635602700,20.215602783203124,-0.394023060798645,2.22135853767395,1.0738630294799805
1701889406652601000,20.23260107421875,-0.7059247493743896,3.2434773445129395,1.2362842559814453
1701889406669588700,20.249588623046876,-1.2382910251617432,4.013761043548584,0.8596005439758301
1701889406686575900,20.266575927734376,-1.666060447692871,4.245053291320801,0.3696894645690918
1701889406703563500,20.2835634765625,-2.143829584121704,4.088993072509766,0.2023453712463379
1701889406720551000,20.300551025390625,-2.444765567779541,4.001775741577148,0.5401077270507812
1701889406737538300,20.317538330078126,-2.7562732696533203,4.0235490798950195,1.0543012619018555
1701889406754526000,20.33452587890625,-3.2952065467834473,4.143715858459473,1.5043096542358398
1701889406771511000,20.351510986328126,-3.4829766750335693,4.50000524520874,2.1375832557678223
1701889406788502500,20.36850244140625,-3.669769287109375,4.915136814117432,2.637596607208252
1701889406805489200,20.3854892578125,-3.907139778137207,5.174456596374512,3.3565640449523926
1701889406822476800,20.402476806640625,-3.8134703636169434,5.151840686798096,4.554355621337891
1701889406839462400,20.41946240234375,-3.28413462638855,4.82949161529541,6.208521366119385
1701889406856452900,20.436452880859374,-2.7318167686462402,4.63906192779541,7.430248737335205
1701889406873433300,20.453433349609377,-2.2578516006469727,4.730474472045898,8.2383394241333
1701889406890428400,20.470428466796875,-2.0217230319976807,4.8102216720581055,9.135984420776367
1701889406907413200,20.487413330078127,-1.7730084657669067,4.517362594604492,10.066742897033691
1701889406924400600,20.504400634765624,-1.7823339700698853,3.692464828491211,10.8864107131958
1701889406941388000,20.521387939453124,-1.8301032781600952,2.525074005126953,11.259635925292969
1701889406958375400,20.53837548828125,-1.5703308582305908,1.7003130912780762,11.196191787719727
1701889406975362300,20.5553623046875,-1.3327964544296265,1.8587079048156738,10.428754806518555
1701889406992348700,20.5723486328125,-1.1151448488235474,2.4714112281799316,9.327457427978516
1701889407009340700,20.589340576171875,-0.5720248222351074,2.5521116256713867,8.584961891174316
1701889407026325500,20.606325439453126,0.014371782541275024,1.552565574645996,8.244682312011719
1701889407043312400,20.6233125,0.976344108581543,0.04869365692138672,7.9390459060668945
1701889407060300000,20.640300048828124,1.812585711479187,-1.4845051765441895,7.447602272033691
1701889407077275000,20.65727490234375,2.671238660812378,-1.7603559494018555,5.838070869445801
1701889407094270700,20.674270751953124,2.6967058181762695,-1.2221755981445312,3.9041037559509277
1701889407111254500,20.691254638671875,2.463700771331787,-0.6575794219970703,2.3499460220336914
1701889407128257000,20.708257080078123,2.4812111854553223,-0.06909751892089844,0.8785915374755859
1701889407145227800,20.725227783203124,2.058337450027466,0.11069679260253906,-0.3008747100830078
1701889407162214400,20.74221435546875,1.6159905195236206,0.03435516357421875,-1.374819278717041
1701889407179213300,20.75921337890625,1.2121270895004272,-0.22420620918273926,-2.3713226318359375
1701889407196200000,20.776199951171876,0.8810684680938721,-0.44051408767700195,-3.327914237976074
1701889407213187300,20.793187255859376,1.0662643909454346,-0.8361928462982178,-3.7899746894836426
1701889407230175000,20.810175048828125,1.6293038129806519,-0.9647457599639893,-4.15644645690918
1701889407247159800,20.827159912109376,1.8401142358779907,-1.2134318351745605,-4.740553855895996
1701889407264152600,20.844152587890626,2.0939807891845703,-1.3655362129211426,-5.447088241577148
1701889407281137400,20.861137451171874,2.581987142562866,-1.6325771808624268,-6.091802597045898
1701889407298111500,20.878111572265624,3.064391613006592,-1.8918321132659912,-6.430370330810547
1701889407315114800,20.89511474609375,3.280747890472412,-2.195892810821533,-6.240527153015137
1701889407332099300,20.912099365234376,3.6146535873413086,-2.5163896083831787,-5.403148651123047
1701889407349073200,20.9290732421875,3.8925328254699707,-2.913700580596924,-4.249462604522705
1701889407366073600,20.946073486328125,3.9244349002838135,-3.4838709831237793,-3.2457995414733887
1701889407383062800,20.963062744140625,3.7860827445983887,-4.30777645111084,-2.2026357650756836
1701889407400049700,20.980049560546874,3.7995433807373047,-4.749177932739258,-1.3588333129882812
1701889407417036800,20.997036865234374,3.4986090660095215,-5.278160095214844,-0.3403940200805664
1701889407434011400,21.014011474609376,2.75028133392334,-5.880945682525635,0.4019508361816406
1701889407451010800,21.0310107421875,2.0781750679016113,-6.361536979675293,0.6399192810058594
1701889407467992300,21.047992431640626,1.9190218448638916,-6.4386091232299805,0.24976539611816406
1701889407484978400,21.064978515625,2.4271395206451416,-6.705148220062256,0.27823734283447266
1701889407501964300,21.08196435546875,3.1471409797668457,-6.176095962524414,0.119903564453125
1701889407518953500,21.098953369140624,3.3576130867004395,-5.32774543762207,0.4464702606201172
1701889407535939300,21.115939208984376,2.8939809799194336,-4.966792583465576,1.5516319274902344
1701889407552931800,21.132931884765625,2.161196708679199,-4.507197856903076,2.9193525314331055
1701889407569919200,21.149919189453126,1.2253543138504028,-3.814592123031616,3.6669721603393555
1701889407586907400,21.166907470703126,0.2709141969680786,-2.793546199798584,3.2213354110717773
1701889407603892700,21.183892822265626,-0.5222198963165283,-1.4885008335113525,2.160940170288086
1701889407620880000,21.2008798828125,-1.0540765523910522,0.017694950103759766,1.1011409759521484
1701889407637864000,21.217864013671875,-1.3932287693023682,1.4587194919586182,0.25901126861572266
1701889407654857700,21.234857666015625,-1.6774437427520752,2.560204267501831,0.2803640365600586
1701889407671840800,21.2518408203125,-1.9680581092834473,3.659520149230957,0.5051002502441406
1701889407688833000,21.2688330078125,-2.683704137802124,4.245628356933594,0.45052433013916016
1701889407705822500,21.285822509765627,-3.4345645904541016,4.400240421295166,-0.10822057723999023
1701889407722809900,21.302809814453123,-3.400177001953125,4.082958221435547,-0.6323184967041016
1701889407739794200,21.319794189453123,-2.5112335681915283,3.639191150665283,-0.695192813873291
1701889407756776200,21.336776123046874,-1.195167064666748,3.3151350021362305,-0.3709893226623535
1701889407773779200,21.353779296875,-0.10484638810157776,3.3308489322662354,0.5351285934448242
1701889407790760200,21.37076025390625,-0.2537112832069397,3.4526517391204834,1.0323143005371094
1701889407807750700,21.387750732421875,-0.630375862121582,3.814659357070923,1.514462947845459
1701889407824737300,21.4047373046875,-1.240253210067749,3.963837146759033,2.333828926086426
1701889407841723400,21.421723388671875,-1.9300789833068848,4.093778610229492,3.5490546226501465
1701889407858711000,21.4387109375,-2.307309627532959,3.9815561771392822,5.334402561187744
1701889407875706600,21.45570654296875,-2.3937079906463623,4.042004108428955,7.252496719360352
1701889407892686600,21.4726865234375,-2.9758100509643555,4.649307727813721,8.224498748779297
1701889407909673500,21.489673583984374,-3.809492349624634,5.323144435882568,8.619280815124512
1701889407926660600,21.50666064453125,-4.543952941894531,4.9180908203125,9.6883544921875
1701889407943648500,21.5236484375,-4.6644606590271,3.755556106567383,11.154484748840332
1701889407960635600,21.5406357421875,-4.108860969543457,2.390016555786133,12.23583984375
1701889407977623300,21.557623291015624,-3.389930009841919,1.5388283729553223,12.66281509399414
1701889407994600200,21.57460009765625,-2.365818977355957,1.274705410003662,12.593496322631836
1701889408011597000,21.59159716796875,-1.2962894439697266,1.7776670455932617,11.815374374389648
1701889408028580600,21.60858056640625,-0.6726590394973755,1.8605399131774902,10.788969039916992
1701889408045575700,21.62557568359375,-0.17575949430465698,1.0479764938354492,10.051935195922852
1701889408062560300,21.642560302734374,0.8604764938354492,-0.1296248435974121,9.136554718017578
1701889408079548200,21.659548095703126,2.158535957336426,-1.1737403869628906,7.970083713531494
1701889408096532700,21.67653271484375,3.250150442123413,-1.6306896209716797,6.347377300262451
