time,seconds_elapsed,z,y,x
1701904888523084000,0.116083984375,-1.019704818725586,-0.7802734375,0.00022029876708984375
1701904888540078000,0.133078125,-1.3117289543151855,-1.036327838897705,-0.015233039855957031
1701904888557068300,0.150068359375,-1.9088859558105469,-1.3541250228881836,0.08514261245727539
1701904888574059800,0.167059814453125,-1.9849166870117188,-1.2065563201904297,0.004710197448730469
1701904888591056600,0.184056640625,-2.352125644683838,-1.2433977127075195,-0.2471606731414795
1701904888608059100,0.20105908203125,-2.0146875381469727,-1.5042729377746582,-0.4734330177307129
1701904888625036300,0.218036376953125,-1.1840238571166992,-1.8245162963867188,-0.6952254772186279
1701904888642028500,0.235028564453125,-0.9536705017089844,-3.1207735538482666,-0.2484130859375
1701904888659030800,0.25203076171875,-1.7480511665344238,-2.919462203979492,-0.32779932022094727
1701904888676007200,0.269007080078125,-3.1098086833953857,-2.2483346462249756,-0.4255943298339844
1701904888693004000,0.286004150390625,-4.287118434906006,-2.378038167953491,-0.1721482276916504
1701904888709996500,0.30299658203125,-3.984424352645874,-2.4245400428771973,-0.5461726188659668
1701904888726986000,0.319986083984375,-2.2051265239715576,-2.683575391769409,-1.2631430625915527
1701904888743966500,0.336966552734375,-0.6225395202636719,-2.577793836593628,-1.4330272674560547
1701904888760973600,0.3539736328125,-0.6988918781280518,-1.8934266567230225,-1.1041803359985352
1701904888777963800,0.3709638671875,-2.9601922035217285,-1.7111053466796875,0.12197065353393555
1701904888794952200,0.3879521484375,-3.4143617153167725,-1.207979440689087,1.0301799774169922
1701904888811943700,0.404943603515625,-2.1283888816833496,-1.3593122959136963,0.9401488304138184
1701904888828938800,0.421938720703125,0.773949384689331,-0.6144688129425049,0.02228069305419922
1701904888845928400,0.438928466796875,1.0799577236175537,0.6977510452270508,0.2997589111328125
1701904888862922500,0.455922607421875,-1.2772749662399292,0.6975178718566895,1.938446044921875
1701904888879910700,0.47291064453125,-1.7131291627883911,1.0170624256134033,2.9561052322387695
1701904888896904200,0.489904296875,0.1335289478302002,1.5326769351959229,2.8987035751342773
1701904888913898800,0.506898681640625,3.7175869941711426,2.07635235786438,2.7411231994628906
1701904888930891500,0.5238916015625,6.47640323638916,2.8294436931610107,4.304971694946289
1701904888947879200,0.540879150390625,5.954105854034424,3.921619176864624,6.01140022277832
1701904888964869000,0.557869140625,4.4659929275512695,4.977243423461914,6.602273941040039
1701904888981858600,0.574858642578125,3.2680232524871826,6.199345588684082,8.487069129943848
1701904888998855700,0.591855712890625,2.785858154296875,6.116208076477051,9.818424224853516
1701904889015839200,0.608839111328125,2.5535593032836914,6.3490118980407715,8.648428916931152
1701904889032835300,0.62583544921875,1.8541550636291504,6.323436260223389,6.012840270996094
1701904889049839400,0.64283935546875,1.122983455657959,6.00175142288208,4.138753890991211
1701904889066817800,0.65981787109375,0.942740797996521,5.302755832672119,3.5397214889526367
1701904889083812000,0.67681201171875,0.628287672996521,4.50438117980957,2.9444189071655273
1701904889100808000,0.693807861328125,0.01920175552368164,4.0360565185546875,1.6043519973754883
1701904889117791500,0.71079150390625,-0.4899686574935913,3.369393825531006,0.33463191986083984
1701904889134792000,0.7277919921875,-0.8117904663085938,2.6295323371887207,-0.5207843780517578
1701904889151779600,0.744779541015625,-0.8675523996353149,1.7839951515197754,-1.1209354400634766
1701904889168773400,0.7617734375,-0.6108502149581909,0.950955867767334,-1.615778923034668
1701904889185760000,0.778760009765625,-0.5500723719596863,0.3980674743652344,-2.386974811553955
1701904889202755600,0.795755615234375,-0.34915709495544434,-0.024200439453125,-3.51118803024292
1701904889219747000,0.8127470703125,-0.09121900796890259,-0.4553368091583252,-4.456557750701904
1701904889236737000,0.829737060546875,0.029224753379821777,-0.8402776718139648,-5.136256694793701
1701904889253728000,0.84672802734375,0.1804293394088745,-1.243272304534912,-5.600725173950195
1701904889270720500,0.863720458984375,0.41247832775115967,-1.5180506706237793,-6.1922454833984375
1701904889287708000,0.8807080078125,0.6453078389167786,-2.204629421234131,-6.560303688049316
1701904889304709400,0.89770947265625,0.7444270849227905,-2.77886962890625,-6.6563215255737305
1701904889321697800,0.91469775390625,0.7371004819869995,-3.4754550457000732,-6.7899627685546875
1701904889338686700,0.931686767578125,0.7744524478912354,-4.140489101409912,-7.081996917724609
1701904889355680000,0.948679931640625,0.5846779346466064,-4.840179443359375,-7.257282257080078
1701904889372672300,0.96567236328125,0.7316250205039978,-5.386346340179443,-6.897185325622559
1701904889389664800,0.982664794921875,1.2141218185424805,-6.212181091308594,-6.0824713706970215
1701904889406652400,0.99965234375,1.656409740447998,-7.153824329376221,-5.067728519439697
1701904889423647500,1.0166474609375,1.9559904336929321,-8.142256736755371,-3.771310329437256
1701904889440640000,1.033639892578125,2.1428964138031006,-9.023144721984863,-2.202145576477051
1701904889457627400,1.05062744140625,2.8038501739501953,-9.515080451965332,-0.6174945831298828
1701904889474623000,1.067623046875,3.0447609424591064,-9.843244552612305,0.9562463760375977
1701904889491614000,1.084614013671875,2.5039591789245605,-9.702763557434082,2.655510902404785
1701904889508606700,1.101606689453125,1.3146607875823975,-9.287242889404297,3.625779151916504
1701904889525597700,1.11859765625,0.9350135922431946,-9.203340530395508,4.2365522384643555
1701904889542585600,1.135585693359375,1.0504150390625,-9.25544548034668,4.154512405395508
1701904889559578000,1.152578125,1.6242437362670898,-9.20068359375,3.455998420715332
1701904889576573700,1.16957373046875,2.8052549362182617,-7.96251916885376,2.784038543701172
1701904889593563600,1.186563720703125,3.3952693939208984,-6.290005683898926,3.014486312866211
1701904889610553600,1.2035537109375,3.171481132507324,-4.981594562530518,4.022071838378906
1701904889627545300,1.22054541015625,2.444587230682373,-4.0303955078125,5.023502349853516
1701904889644540000,1.237539794921875,1.4720538854599,-3.3598804473876953,5.504096984863281
1701904889661530400,1.2545302734375,0.821142315864563,-2.8150577545166016,5.561490058898926
1701904889678524400,1.2715244140625,0.6559262871742249,-2.0997562408447266,5.295282363891602
1701904889695511300,1.28851123046875,0.7054778933525085,-1.118870735168457,4.981110095977783
1701904889712501000,1.3055009765625,0.8350194096565247,0.3834357261657715,4.96049690246582
1701904889729497000,1.3224970703125,0.9946236610412598,2.096203327178955,4.983921527862549
1701904889746489900,1.33948974609375,0.46276652812957764,3.6500730514526367,4.683437824249268
1701904889763480600,1.35648046875,-0.06300902366638184,4.833724021911621,4.292455673217773
1701904889780474600,1.373474609375,-0.25474023818969727,5.326401710510254,4.100334644317627
1701904889797460700,1.390460693359375,-0.1826486587524414,5.362424850463867,3.872117519378662
1701904889814458000,1.4074580078125,0.22345256805419922,5.246767997741699,3.688636302947998
1701904889831447300,1.424447265625,0.7171210050582886,5.124537944793701,3.8286609649658203
1701904889848441600,1.441441650390625,0.8677408695220947,5.15507698059082,3.8294310569763184
1701904889865428500,1.458428466796875,0.496576189994812,5.0492963790893555,3.98067569732666
1701904889882423300,1.47542333984375,0.1853644847869873,4.813455104827881,4.428073406219482
1701904889899418600,1.492418701171875,0.2398672103881836,4.647215366363525,4.9211554527282715
1701904889916401400,1.5094013671875,0.37279820442199707,4.538717269897461,5.506703853607178
1701904889933389800,1.526389892578125,0.4521946907043457,4.506139278411865,6.1071906089782715
1701904889950389000,1.543388916015625,0.4092550277709961,4.52126407623291,6.620701789855957
1701904889967381000,1.560381103515625,0.0715336799621582,4.414097785949707,7.067379951477051
1701904889984374000,1.5773740234375,-0.27731990814208984,4.11553430557251,7.609928607940674
1701904890001364500,1.594364501953125,-0.6785542368888855,3.717041015625,7.7231550216674805
1701904890018358500,1.611358642578125,-0.7192730903625488,2.932197093963623,7.93476676940918
1701904890035345700,1.628345703125,-0.6565144062042236,1.9603796005249023,7.98335599899292
1701904890052337200,1.645337158203125,-0.5889962911605835,0.9924731254577637,7.700359344482422
1701904890069332700,1.662332763671875,-0.3015413284301758,0.22811603546142578,7.320999622344971
1701904890086321400,1.6793212890625,-0.24235814809799194,-0.8702826499938965,7.262777805328369
1701904890103314400,1.696314453125,-0.2456573247909546,-1.6830425262451172,7.050075054168701
1701904890120299300,1.71329931640625,-0.13172197341918945,-2.1808815002441406,6.703015327453613
1701904890137293800,1.7302939453125,0.19483155012130737,-2.063842296600342,6.014611721038818
1701904890154293800,1.747293701171875,0.7370546460151672,-1.9295449256896973,5.352783679962158
1701904890171271000,1.76427099609375,1.2418439388275146,-2.2466583251953125,4.82038688659668
1701904890188265000,1.781264892578125,1.8041181564331055,-3.086838722229004,4.33327054977417
1701904890205262300,1.798262451171875,2.52443790435791,-4.128938674926758,3.698521614074707
1701904890222257200,1.815257080078125,3.0089898109436035,-5.04435396194458,2.851041793823242
1701904890239250000,1.83225,3.2060387134552,-5.154805660247803,1.4226837158203125
1701904890256231000,1.84923095703125,3.256462574005127,-4.774864196777344,0.03243541717529297
1701904890273231600,1.866231689453125,3.259430408477783,-4.048428535461426,-1.2315516471862793
1701904890290225400,1.883225341796875,3.3066940307617188,-3.310122489929199,-2.257809638977051
1701904890307211800,1.900211669921875,3.288611650466919,-2.716681718826294,-2.976865768432617
1701904890324209000,1.917208984375,3.32177734375,-2.309460163116455,-3.412532329559326
1701904890341196300,1.9341962890625,3.3589303493499756,-1.9960124492645264,-3.7325406074523926
1701904890358179000,1.951178955078125,3.303337335586548,-1.8107795715332031,-3.9969358444213867
1701904890375178000,1.968177978515625,3.243922472000122,-1.6807477474212646,-4.226175308227539
1701904890392173300,1.98517333984375,3.1296048164367676,-1.6527316570281982,-4.348784923553467
1701904890409168000,2.00216796875,3.095993995666504,-1.6310770511627197,-4.487961769104004
1701904890426148600,2.019148681640625,3.262152910232544,-1.6806855201721191,-4.591919898986816
1701904890443145700,2.036145751953125,3.618802547454834,-1.8259468078613281,-4.658263206481934
1701904890460143000,2.05314306640625,4.197304725646973,-2.067647933959961,-4.602972507476807
1701904890477130000,2.0701298828125,4.855559349060059,-2.3189988136291504,-4.5559916496276855
1701904890494112000,2.087112060546875,5.42410945892334,-2.573291301727295,-4.23240327835083
1701904890511118000,2.1041181640625,5.904102802276611,-2.9680917263031006,-3.3856916427612305
1701904890528110000,2.121110107421875,6.065829277038574,-3.4592857360839844,-2.511895179748535
1701904890545096400,2.138096435546875,5.968070983886719,-4.186723709106445,-1.7462806701660156
1701904890562091300,2.15509130859375,5.497800827026367,-4.880716323852539,-1.6143593788146973
1701904890579081700,2.172081787109375,5.091775417327881,-5.51596212387085,-1.6342687606811523
1701904890596069600,2.189069580078125,4.902722358703613,-5.834046840667725,-1.582444667816162
1701904890613065700,2.206065673828125,4.412294864654541,-5.937490940093994,-1.462641716003418
1701904890630056400,2.223056396484375,3.7316575050354004,-5.752784252166748,-1.4522075653076172
1701904890647047700,2.240047607421875,2.8926138877868652,-5.877373695373535,-1.531691551208496
1701904890664039400,2.257039306640625,1.9211301803588867,-6.319207191467285,-1.5793156623840332
1701904890681035300,2.27403515625,1.4146838188171387,-6.628596305847168,-2.0790629386901855
1701904890698019600,2.29101953125,1.7194783687591553,-6.048784255981445,-2.73789119720459
1701904890715011300,2.30801123046875,2.270508050918579,-5.106783866882324,-2.3626809120178223
1701904890732012500,2.325012451171875,2.506687879562378,-4.14261531829834,-1.3402318954467773
1701904890748999200,2.341999267578125,2.3143463134765625,-3.6004221439361572,0.16524982452392578
1701904890765984500,2.358984619140625,1.7008039951324463,-3.3492672443389893,1.5090818405151367
1701904890782982700,2.375982666015625,0.9835755825042725,-2.91640043258667,2.124333381652832
1701904890799976700,2.392976806640625,0.4048922657966614,-2.4030890464782715,2.2339563369750977
1701904890816963300,2.40996337890625,0.06585705280303955,-1.6679401397705078,2.131350517272949
1701904890833957400,2.426957275390625,0.049922943115234375,-0.6227755546569824,2.1976327896118164
1701904890850950400,2.443950439453125,-0.16096234321594238,0.5236268043518066,2.5790700912475586
1701904890867948500,2.460948486328125,-0.45271462202072144,1.6833367347717285,3.092026710510254
1701904890884928500,2.477928466796875,-0.8817135691642761,2.6642251014709473,3.4180541038513184
1701904890901925600,2.494925537109375,-1.382612705230713,3.3581461906433105,3.607938289642334
1701904890918919400,2.51191943359375,-1.6292128562927246,3.589127779006958,3.7721099853515625
1701904890935908600,2.52890869140625,-1.2912163734436035,3.6423301696777344,3.6248679161071777
1701904890952892200,2.54589208984375,-0.7236478328704834,3.5182979106903076,3.437598705291748
1701904890969894000,2.562893798828125,-0.04051482677459717,3.5937554836273193,3.39058780670166
1701904890986883300,2.57988330078125,0.08047521114349365,3.748725175857544,3.610776901245117
1701904891003869200,2.596869140625,-0.16033902764320374,3.8010709285736084,4.006106376647949
1701904891020855000,2.61385498046875,-0.36842817068099976,3.8633432388305664,4.271716117858887
1701904891037855700,2.630855712890625,-0.47082456946372986,3.899477005004883,4.562437057495117
1701904891054841000,2.647841064453125,-0.4816255271434784,3.7657175064086914,4.957289218902588
1701904891071842800,2.6648427734375,-0.5881167054176331,3.523098945617676,5.476320266723633
1701904891088836900,2.6818369140625,-0.825900673866272,3.3188695907592773,6.07506799697876
1701904891105840000,2.698840087890625,-1.4083901643753052,3.0486998558044434,6.726992130279541
1701904891122817300,2.7158173828125,-1.9556738138198853,2.996033191680908,6.985948085784912
1701904891139808000,2.73280810546875,-2.1654059886932373,2.8571901321411133,7.121257781982422
1701904891156791300,2.749791259765625,-2.064051389694214,2.265148639678955,7.307652950286865
1701904891173797600,2.766797607421875,-1.9384905099868774,1.5736327171325684,7.2294230461120605
1701904891190773800,2.783773681640625,-1.904759168624878,0.8467855453491211,6.915789604187012
1701904891207766300,2.800766357421875,-1.8512688875198364,-0.3191990852355957,6.7372894287109375
1701904891224760000,2.817760009765625,-1.6435908079147339,-1.4319252967834473,6.45932674407959
1701904891241746200,2.83474609375,-1.5394996404647827,-2.3189120292663574,6.031148433685303
1701904891258739700,2.85173974609375,-1.2054342031478882,-1.7364835739135742,5.0630011558532715
1701904891275736300,2.868736328125,-0.9527838230133057,-1.377798080444336,4.780608177185059
1701904891292725800,2.885725830078125,-0.56186842918396,-1.3192811012268066,4.329452991485596
1701904891309727500,2.9027275390625,0.05862435698509216,-2.0921573638916016,4.005326271057129
1701904891326714400,2.91971435546875,0.7389559745788574,-3.1774473190307617,3.5738048553466797
1701904891343707400,2.936707275390625,1.4195551872253418,-3.7713255882263184,2.4879064559936523
1701904891360700700,2.95370068359375,1.9183180332183838,-3.6428799629211426,1.0061874389648438
1701904891377691100,2.970691162109375,2.3795056343078613,-3.000490188598633,-0.4303455352783203
1701904891394685000,2.987684814453125,2.7990975379943848,-2.246072769165039,-1.5224113464355469
1701904891411676200,3.00467626953125,3.188382148742676,-1.647374153137207,-2.251483917236328
1701904891428669200,3.021669189453125,3.401008129119873,-1.2589423656463623,-2.731904983520508
1701904891445657300,3.0386572265625,3.414682388305664,-1.0113115310668945,-3.121021270751953
1701904891462647800,3.055647705078125,3.270256996154785,-0.8549823760986328,-3.4807934761047363
1701904891479644700,3.072644775390625,2.9738874435424805,-0.7926919460296631,-3.7763123512268066
1701904891496624400,3.089624267578125,2.762244462966919,-0.8324410915374756,-4.080204963684082
1701904891513625600,3.10662548828125,2.6980340480804443,-0.9708492755889893,-4.365796089172363
1701904891530617600,3.12361767578125,2.884679079055786,-1.267845869064331,-4.482430934906006
1701904891547611000,3.14061083984375,3.185704231262207,-1.580273151397705,-4.478484630584717
1701904891564599300,3.157599365234375,3.5584211349487305,-1.8233330249786377,-4.393892765045166
1701904891581596400,3.174596435546875,3.8460965156555176,-2.0175302028656006,-4.281503677368164
1701904891598576600,3.19157666015625,4.154808044433594,-2.352051258087158,-4.016157150268555
1701904891615575000,3.208574951171875,4.417221546173096,-2.6728646755218506,-3.621133327484131
1701904891632573200,3.2255732421875,4.698845863342285,-3.0522849559783936,-3.0016517639160156
1701904891649548300,3.24254833984375,4.878213405609131,-3.2907557487487793,-2.515547752380371
1701904891666540500,3.25954052734375,4.711569309234619,-3.8082756996154785,-2.1587462425231934
1701904891683537000,3.276536865234375,4.209120273590088,-4.317744731903076,-2.0903372764587402
1701904891700527600,3.293527587890625,3.990600347518921,-4.784046173095703,-2.248413562774658
1701904891717527000,3.310527099609375,3.9868931770324707,-5.555251598358154,-2.205726146697998
1701904891734520000,3.32752001953125,3.9311764240264893,-5.814665794372559,-2.1278467178344727
1701904891751511000,3.344510986328125,3.6153745651245117,-5.480222702026367,-2.2510437965393066
1701904891768502500,3.36150244140625,2.70410418510437,-5.656383514404297,-2.1035094261169434
1701904891785495000,3.3784951171875,1.627092957496643,-6.28237247467041,-1.7362122535705566
1701904891802486000,3.395486083984375,0.9729572534561157,-6.7553253173828125,-1.2971124649047852
1701904891819478000,3.41247802734375,1.2018725872039795,-6.355843544006348,-1.4751434326171875
1701904891836469200,3.42946923828125,1.6617214679718018,-5.353404521942139,-1.4415006637573242
1701904891853458700,3.446458740234375,1.9865390062332153,-4.220093727111816,-0.6470174789428711
1701904891870452500,3.463452392578125,1.8728511333465576,-3.4924371242523193,0.7234354019165039
1701904891887445500,3.480445556640625,1.2366403341293335,-3.0310492515563965,1.8340511322021484
1701904891904435000,3.49743505859375,0.47206032276153564,-2.642298698425293,2.1502065658569336
1701904891921431000,3.51443115234375,-0.054444193840026855,-2.189455032348633,1.7563018798828125
1701904891938418000,3.53141796875,-0.1822836995124817,-1.641402244567871,1.2752408981323242
1701904891955409200,3.5484091796875,0.004448890686035156,-0.7922453880310059,1.0826787948608398
1701904891972392700,3.565392822265625,0.12251114845275879,0.2484893798828125,1.3311748504638672
1701904891989385000,3.582385009765625,-0.013961821794509888,1.385772705078125,1.9171748161315918
1701904892006377200,3.599377197265625,-0.41990184783935547,2.394226551055908,2.7574453353881836
1701904892023376000,3.6163759765625,-0.859386682510376,3.196302652359009,3.230483055114746
1701904892040361700,3.63336181640625,-1.5288714170455933,3.5618650913238525,3.3468456268310547
1701904892057355300,3.650355224609375,-2.0795581340789795,3.606916904449463,3.1765904426574707
1701904892074346200,3.66734619140625,-1.9170465469360352,3.497159481048584,3.06630802154541
1701904892091336200,3.684336181640625,-1.2480216026306152,3.3447623252868652,3.1949377059936523
1701904892108325400,3.701325439453125,-0.8875947594642639,3.2915449142456055,3.661442279815674
1701904892125321500,3.718321533203125,-1.1015373468399048,3.468046188354492,4.084216594696045
1701904892142309600,3.7353095703125,-1.5303841829299927,3.653160572052002,4.137763500213623
1701904892159305200,3.75230517578125,-1.7471879720687866,3.5809974670410156,4.235257148742676
1701904892176292400,3.769292236328125,-1.6285697221755981,3.2625441551208496,4.5099406242370605
1701904892193288700,3.786288818359375,-1.3937504291534424,2.8356175422668457,5.255035877227783
1701904892210283800,3.80328369140625,-1.381274700164795,2.674577236175537,5.989559650421143
1701904892227271200,3.820271240234375,-1.662079095840454,2.870565891265869,6.253087520599365
1701904892244262400,3.837262451171875,-2.1219937801361084,2.8720717430114746,6.507683753967285
1701904892261254400,3.85425439453125,-2.5635950565338135,2.523869514465332,6.905048370361328
1701904892278242600,3.87124267578125,-3.1629867553710938,1.8565807342529297,6.989997863769531
1701904892295240400,3.888240478515625,-3.626211166381836,1.4324798583984375,6.402890682220459
1701904892312226600,3.9052265625,-3.8242383003234863,0.7727227210998535,6.082309246063232
1701904892329231000,3.922231201171875,-3.6014063358306885,-0.32593393325805664,6.19455623626709
1701904892346210000,3.9392099609375,-2.993445873260498,-1.3509941101074219,6.488571643829346
1701904892363202000,3.9562021484375,-2.1291933059692383,-1.517226219177246,6.411358833312988
1701904892380204000,3.9732041015625,-1.5432369709014893,-0.9633927345275879,5.85132360458374
1701904892397196300,3.9901962890625,-1.1133980751037598,-0.7779169082641602,5.391729831695557
1701904892414184400,4.007184326171875,-0.5013115406036377,-1.353959083557129,5.104818344116211
1701904892431182000,4.02418212890625,0.240888774394989,-3.032809257507324,5.326226711273193
1701904892448151800,4.04115185546875,0.8048266172409058,-4.749641418457031,5.0010294914245605
1701904892465162800,4.058162841796875,1.1827011108398438,-5.789980888366699,3.894902229309082
1701904892482154200,4.075154296875,1.4726247787475586,-5.719499111175537,2.2651195526123047
1701904892499147800,4.092147705078125,1.8976972103118896,-5.13619327545166,0.7922592163085938
1701904892516125400,4.10912548828125,2.4480226039886475,-4.437277317047119,-0.4919404983520508
1701904892533129500,4.12612939453125,2.828087329864502,-3.911144495010376,-1.607119083404541
1701904892550114600,4.143114501953125,3.0078511238098145,-3.6420857906341553,-2.6580724716186523
1701904892567116300,4.1601162109375,3.103452205657959,-3.404243230819702,-3.6804027557373047
1701904892584104200,4.177104248046875,3.1387839317321777,-3.217669725418091,-4.715947151184082
1701904892601096700,4.1940966796875,3.1523563861846924,-2.9836838245391846,-5.493635177612305
1701904892618100700,4.211100830078125,3.295370578765869,-2.7096450328826904,-6.000411033630371
1701904892635079700,4.22807958984375,3.407550573348999,-2.557943344116211,-6.254814147949219
1701904892652071200,4.2450712890625,3.5162711143493652,-2.5373690128326416,-6.291213035583496
1701904892669063400,4.2620634765625,3.649822235107422,-2.6031017303466797,-6.212153434753418
1701904892686037500,4.27903759765625,3.658196449279785,-2.685598850250244,-6.161151885986328
1701904892703046100,4.296046142578125,3.5322980880737305,-2.8181183338165283,-6.138027191162109
1701904892720034800,4.313034912109375,3.23500919342041,-3.00312876701355,-6.1516218185424805
1701904892737029400,4.330029296875,3.159677743911743,-3.138554096221924,-6.256783962249756
1701904892754019300,4.347019287109375,3.258460283279419,-3.350630760192871,-6.183588981628418
1701904892771005700,4.364005615234375,3.498056650161743,-3.7545571327209473,-5.832187652587891
1701904892788002300,4.381002197265625,3.6876015663146973,-4.077112197875977,-5.316404342651367
1701904892804999700,4.397999755859375,3.6258926391601562,-4.497662544250488,-4.6100311279296875
1701904892821985500,4.414985595703125,3.200643539428711,-4.98264217376709,-3.9499969482421875
1701904892838980000,4.43197998046875,3.041135787963867,-5.409951210021973,-3.2893848419189453
1701904892855974100,4.44897412109375,3.093517541885376,-5.954239368438721,-2.487666130065918
1701904892872960500,4.46596044921875,2.9263393878936768,-6.211040496826172,-1.9507627487182617
1701904892889954800,4.482954833984375,2.6416666507720947,-6.237195014953613,-1.268366813659668
1701904892906947300,4.499947265625,1.943245768547058,-6.590755462646484,-0.41993141174316406
1701904892923936000,4.51693603515625,1.6556051969528198,-6.855032444000244,0.05729103088378906
1701904892940922400,4.53392236328125,2.102593183517456,-6.8643798828125,0.3530874252319336
1701904892957921800,4.550921875,3.3043932914733887,-5.679184913635254,0.7783718109130859
1701904892974914000,4.5679140625,3.7096199989318848,-4.096261024475098,2.2747278213500977
1701904892991899000,4.58489892578125,2.8199996948242188,-2.955326557159424,4.102143287658691
1701904893008897800,4.601897705078125,1.019408106803894,-2.0465497970581055,5.619266510009766
1701904893025880600,4.618880615234375,-0.7046521306037903,-1.26873779296875,6.038632869720459
1701904893042880800,4.635880859375,-1.706608772277832,-0.7638797760009766,5.375412464141846
1701904893059871200,4.652871337890625,-1.792588233947754,-0.4387326240539551,4.266148567199707
1701904893076865000,4.669864990234375,-1.2777706384658813,-0.12987518310546875,3.4315576553344727
1701904893093852700,4.686852783203125,-0.4474382996559143,0.5399518013000488,2.7373290061950684
1701904893110850300,4.703850341796875,0.34816718101501465,1.5792222023010254,2.842036247253418
1701904893127838200,4.720838134765625,0.6024688482284546,2.84470796585083,3.2899489402770996
1701904893144831700,4.737831787109375,0.03736121952533722,3.8364810943603516,3.1935362815856934
1701904893161824800,4.75482470703125,-0.7850387096405029,4.3165788650512695,2.838533878326416
1701904893178809300,4.771809326171875,-1.520929217338562,4.4441375732421875,2.4045591354370117
1701904893195807700,4.788807861328125,-1.7837412357330322,4.384250164031982,1.9805192947387695
1701904893212803600,4.805803466796875,-1.7669763565063477,4.139290809631348,1.7428584098815918
1701904893229786600,4.82278662109375,-1.4818214178085327,3.8550119400024414,1.983978271484375
1701904893246783200,4.839783203125,-1.2611476182937622,3.5297560691833496,2.510983943939209
1701904893263772200,4.856772216796875,-1.1467002630233765,3.374795913696289,2.6051087379455566
1701904893280765400,4.873765380859375,-1.1121268272399902,3.072232246398926,2.6753621101379395
1701904893297756000,4.890755859375,-0.908672571182251,2.694643974304199,2.9151391983032227
1701904893314743000,4.907742919921875,-0.6725308895111084,2.140082836151123,3.5757713317871094
1701904893331736600,4.924736572265625,-0.3437674939632416,1.6492176055908203,4.78392219543457
1701904893348734500,4.941734375,-0.3375191390514374,1.8176593780517578,5.849099636077881
1701904893365722600,4.95872265625,-1.2489049434661865,2.2153329849243164,6.685705184936523
1701904893382711600,4.975711669921875,-2.417141914367676,2.5093069076538086,7.263057231903076
1701904893399707100,4.99270703125,-3.030406951904297,2.2551512718200684,7.579660415649414
1701904893416675600,5.009675537109375,-3.3780806064605713,1.2191381454467773,7.815213680267334
1701904893433692700,5.026692626953125,-3.604290723800659,0.12751531600952148,7.94124698638916
1701904893450679000,5.043678955078125,-4.001236915588379,-0.7557921409606934,7.8937482833862305
1701904893467662300,5.060662353515625,-4.610485553741455,-1.1918058395385742,7.1875529289245605
1701904893484666000,5.077666015625,-4.288890361785889,-1.102348804473877,6.32511043548584
1701904893501655000,5.094655029296875,-3.046123504638672,-0.7901420593261719,5.656227111816406
1701904893518649300,5.1116494140625,-1.6849370002746582,-0.9083466529846191,5.226691722869873
1701904893535640000,5.12864013671875,-0.5368868708610535,-1.382042407989502,4.8423309326171875
1701904893552644400,5.145644287109375,-0.1101875901222229,-2.554966926574707,4.548852443695068
1701904893569622300,5.162622314453125,-0.3879096806049347,-3.8057427406311035,3.8291192054748535
1701904893586616300,5.1796162109375,-0.9089542627334595,-4.704385280609131,2.6046199798583984
1701904893603595800,5.196595703125,-1.3103891611099243,-5.027017593383789,1.0773563385009766
1701904893620599000,5.21359912109375,-0.8580045700073242,-4.560450553894043,-0.47413063049316406
1701904893637589200,5.23058935546875,0.05220428854227066,-4.028995037078857,-1.4097528457641602
1701904893654583000,5.2475830078125,0.8717491626739502,-3.4976096153259277,-2.0796327590942383
1701904893671574000,5.264573974609375,1.5505276918411255,-2.93580961227417,-2.7440171241760254
1701904893688565000,5.28156494140625,1.9527812004089355,-2.5640056133270264,-3.204376220703125
1701904893705557000,5.298556884765625,2.2780566215515137,-2.2161643505096436,-3.5882105827331543
1701904893722549500,5.315549560546875,2.5282976627349854,-1.988816738128662,-3.9225850105285645
1701904893739540200,5.332540283203125,2.7552523612976074,-1.814286708831787,-4.220272541046143
1701904893756532500,5.349532470703125,3.0371882915496826,-1.7390995025634766,-4.475268363952637
1701904893773520600,5.366520751953125,3.1913318634033203,-1.713064193725586,-4.826291084289551
1701904893790515700,5.383515625,3.3180952072143555,-1.8184058666229248,-5.144969940185547
1701904893807507000,5.4005068359375,3.4022111892700195,-2.0253231525421143,-5.384654998779297
1701904893824499500,5.41749951171875,3.4654178619384766,-2.170107841491699,-5.57122278213501
1701904893841490400,5.434490478515625,3.4698054790496826,-2.3759891986846924,-5.535150527954102
1701904893858482700,5.451482666015625,3.3740248680114746,-2.4514007568359375,-5.56317138671875
1701904893875474200,5.46847412109375,3.2539162635803223,-2.62253737449646,-5.497241020202637
1701904893892463000,5.485463134765625,3.281886577606201,-2.782529830932617,-5.321482181549072
1701904893909457400,5.50245751953125,3.4042253494262695,-3.092982530593872,-4.847896099090576
1701904893926449400,5.519449462890625,3.408541202545166,-3.4850287437438965,-4.226147651672363
1701904893943448000,5.536447998046875,3.224914073944092,-3.7853500843048096,-3.601349353790283
1701904893960430000,5.55343017578125,2.995999336242676,-4.375410079956055,-2.8407702445983887
1701904893977424000,5.570423828125,2.678471326828003,-4.912660121917725,-1.9788179397583008
1701904893994406000,5.587406005859375,2.062084913253784,-5.285634994506836,-1.0623779296875
1701904894011407600,5.60440771484375,1.0732418298721313,-5.325325012207031,-0.8169317245483398
1701904894028399900,5.62139990234375,0.26598119735717773,-5.654575347900391,-0.6666145324707031
1701904894045390800,5.638390869140625,-0.17246127128601074,-6.057221412658691,-0.760960578918457
1701904894062383000,5.655383056640625,-0.060291171073913574,-6.568306922912598,-0.853118896484375
1701904894079374000,5.6723740234375,0.5889588594436646,-6.187010288238525,-0.8957490921020508
1701904894096366300,5.689366455078125,2.1809048652648926,-5.006799697875977,-0.4002647399902344
1701904894113347000,5.70634716796875,2.981454849243164,-3.5754685401916504,1.0271883010864258
1701904894130348000,5.72334814453125,2.7322728633880615,-2.6899189949035645,2.878725051879883
1701904894147342600,5.740342529296875,1.8114919662475586,-1.9880833625793457,3.996401786804199
1701904894164347000,5.757346923828125,0.6237614154815674,-1.4619765281677246,4.178407669067383
1701904894181324500,5.774324462890625,-0.2114619016647339,-1.1169648170471191,3.50775146484375
1701904894198316500,5.791316650390625,-0.436191201210022,-0.47183990478515625,2.426508903503418
1701904894215308300,5.808308349609375,-0.297191858291626,0.49086523056030273,1.6621737480163574
1701904894232289800,5.825289794921875,-0.11312800645828247,1.613935947418213,1.2808032035827637
1701904894249291500,5.84229150390625,0.007185161113739014,2.563088893890381,1.5662541389465332
1701904894266281200,5.85928125,0.1562601625919342,3.4074950218200684,1.8303112983703613
1701904894283274200,5.876274169921875,0.04628667235374451,3.790700912475586,1.7157893180847168
1701904894300249300,5.893249267578125,-0.24214774370193481,3.825657844543457,1.3864669799804688
1701904894317258200,5.91025830078125,-0.5780909061431885,3.650543689727783,1.1208906173706055
1701904894334250500,5.92725048828125,-0.5205037593841553,3.527742862701416,0.8831300735473633
1701904894351241700,5.94424169921875,-0.21629869937896729,3.4511752128601074,0.7551159858703613
1701904894368234000,5.96123388671875,0.015406876802444458,3.422847270965576,1.1555638313293457
1701904894385225200,5.97822509765625,-0.06045594811439514,3.4036026000976562,1.880052089691162
1701904894402217500,5.995217529296875,-0.3247147798538208,3.2802882194519043,2.5748114585876465
1701904894419208700,6.012208740234375,-0.723809003829956,3.2494802474975586,2.958730697631836
1701904894436201000,6.029200927734375,-0.9713164567947388,3.0826478004455566,3.2634992599487305
1701904894453181700,6.046181640625,-0.7260249257087708,2.945605754852295,3.871518135070801
1701904894470180400,6.063180419921875,-0.4482726454734802,2.775625228881836,4.827943325042725
1701904894487176200,6.08017626953125,-0.5606527924537659,2.656066417694092,5.781353950500488
1701904894504167400,6.09716748046875,-1.063737392425537,2.623037338256836,6.770444869995117
1701904894521156600,6.114156494140625,-1.9475464820861816,2.4706602096557617,7.494231224060059
1701904894538153200,6.1311533203125,-2.809802532196045,1.9186639785766602,7.959047317504883
1701904894555135700,6.1481357421875,-3.244217872619629,1.057438850402832,8.132415771484375
1701904894572139500,6.165139404296875,-3.521186351776123,-0.358123779296875,8.620994567871094
1701904894589129200,6.182129150390625,-3.3226542472839355,-1.357132911682129,8.782893180847168
1701904894606118100,6.1991181640625,-2.7772598266601562,-1.3324098587036133,8.354736328125
1701904894623108900,6.21610888671875,-2.193819999694824,-0.6710591316223145,7.6653852462768555
1701904894640104200,6.233104248046875,-1.248723030090332,-0.11474132537841797,6.814793586730957
1701904894657077800,6.250077880859375,-0.2097095251083374,-0.48082399368286133,6.2395339012146
1701904894674073300,6.2670732421875,0.42011603713035583,-1.687964916229248,5.7588419914245605
1701904894691072000,6.284072021484375,0.4230693578720093,-3.0211119651794434,4.754294395446777
1701904894708061000,6.30106103515625,0.32345861196517944,-3.8954386711120605,3.32843017578125
1701904894725061600,6.3180615234375,0.20580832660198212,-3.9993834495544434,1.9110736846923828
1701904894742047700,6.3350478515625,0.4087977111339569,-3.5155320167541504,0.6776065826416016
1701904894759033300,6.352033447265625,0.8976934552192688,-2.7461719512939453,-0.42613983154296875
1701904894776030700,6.36903076171875,1.3178069591522217,-2.1382570266723633,-1.2489662170410156
1701904894793017900,6.386017822265625,1.5523521900177002,-1.6944303512573242,-1.8998446464538574
1701904894810013400,6.403013427734375,1.709076166152954,-1.3749351501464844,-2.544569492340088
1701904894827011800,6.42001171875,1.913017988204956,-1.247469425201416,-3.0819201469421387
1701904894844001500,6.43700146484375,2.0072548389434814,-1.2514362335205078,-3.644273281097412
1701904894860993800,6.453993896484375,2.336268901824951,-1.3426501750946045,-4.025378227233887
1701904894877970000,6.470969970703125,2.6386072635650635,-1.441732406616211,-4.338626861572266
1701904894894980900,6.48798095703125,2.829256296157837,-1.5806660652160645,-4.6728434562683105
1701904894911966500,6.504966552734375,2.8631913661956787,-1.6718828678131104,-5.128005027770996
1701904894928957200,6.521957275390625,2.823486328125,-1.8740406036376953,-5.495311260223389
1701904894945954000,6.5389541015625,2.891909122467041,-2.212458848953247,-5.583888053894043
1701904894962939600,6.555939697265625,3.0080111026763916,-2.5181331634521484,-5.69666862487793
1701904894979934500,6.5729345703125,3.206955909729004,-2.824007749557495,-5.717555999755859
1701904894996924700,6.589924560546875,3.4139461517333984,-3.087738275527954,-5.72324800491333
1701904895013921500,6.606921630859375,3.5998616218566895,-3.5997049808502197,-5.412052154541016
1701904895030910000,6.623909912109375,3.654496669769287,-4.246638298034668,-4.777259349822998
1701904895047900000,6.64089990234375,3.5904204845428467,-4.460060119628906,-4.17573881149292
1701904895064895700,6.657895751953125,3.147317886352539,-4.597782135009766,-3.6935224533081055
1701904895081885400,6.674885498046875,2.839932441711426,-4.785296440124512,-3.077579975128174
1701904895098876400,6.69187646484375,2.7284297943115234,-4.998509407043457,-2.0010018348693848
1701904895115868200,6.7088681640625,2.4171669483184814,-5.145217418670654,-1.1325068473815918
1701904895132858400,6.7258583984375,1.9812039136886597,-5.365673065185547,-0.7308864593505859
1701904895149855000,6.74285498046875,1.2606643438339233,-5.6458258628845215,-0.7766218185424805
1701904895166842600,6.759842529296875,0.524310827255249,-5.8390092849731445,-0.9760022163391113
1701904895183836700,6.776836669921875,0.4858269691467285,-5.333020210266113,-1.2741880416870117
1701904895200827000,6.793826904296875,1.0294392108917236,-4.7957234382629395,-1.021824836730957
1701904895217827600,6.81082763671875,1.6697829961776733,-4.188459396362305,-0.0719766616821289
1701904895234807600,6.8278076171875,1.7930395603179932,-3.827767848968506,1.233877182006836
1701904895251801600,6.844801513671875,1.4484930038452148,-3.6043953895568848,2.0909385681152344
1701904895268794000,6.861794189453125,1.0695821046829224,-3.1464972496032715,2.252483367919922
1701904895285785000,6.87878515625,0.8308148384094238,-2.460719585418701,2.029629707336426
1701904895302774800,6.89577490234375,0.8082960247993469,-1.530050277709961,1.7176198959350586
1701904895319769600,6.91276953125,0.7496747970581055,-0.3086118698120117,1.4132275581359863
1701904895336760600,6.929760498046875,0.3619387149810791,0.945033073425293,1.3559722900390625
1701904895353742300,6.946742431640625,-0.11693006753921509,2.1451210975646973,1.305109977722168
1701904895370751000,6.9637509765625,-0.5592674016952515,2.9913151264190674,1.2562832832336426
1701904895387736000,6.980736083984375,-0.9040578007698059,3.5351102352142334,1.108853816986084
1701904895404727600,6.9977275390625,-1.1136102676391602,3.5143585205078125,1.0297837257385254
1701904895421719800,7.0147197265625,-0.9747143387794495,3.2415993213653564,1.006289005279541
1701904895438710500,7.03171044921875,-0.6562168598175049,2.8992018699645996,1.2338762283325195
1701904895455692500,7.048692626953125,-0.5107247829437256,2.735410213470459,1.5669994354248047
1701904895472684300,7.065684326171875,-0.44042542576789856,2.8592019081115723,1.7733845710754395
1701904895489676800,7.0826767578125,-0.5832428932189941,3.022916793823242,2.1768875122070312
1701904895506673200,7.099673095703125,-0.9765996932983398,3.007331371307373,2.8499298095703125
1701904895523664000,7.116663818359375,-1.1541508436203003,2.951618194580078,3.34527587890625
1701904895540657400,7.133657470703125,-1.0596930980682373,2.6980981826782227,4.040974140167236
1701904895557646600,7.150646484375,-0.7906531095504761,2.308112144470215,4.9896087646484375
1701904895574638000,7.16763818359375,-0.6966241598129272,2.137174606323242,6.019448757171631
1701904895591634000,7.184634033203125,-0.9337320923805237,2.2244019508361816,7.065909385681152
1701904895608619300,7.201619384765625,-1.467810869216919,2.3903136253356934,8.197275161743164
1701904895625609000,7.21860888671875,-1.5906833410263062,2.50150203704834,8.927268981933594
1701904895642612000,7.235612060546875,-1.8724682331085205,2.169322967529297,8.632234573364258
1701904895659596500,7.252596435546875,-2.2561113834381104,1.4061541557312012,7.894870281219482
1701904895676590800,7.2695908203125,-2.452660083770752,0.610081672668457,7.322216510772705
1701904895693576200,7.286576171875,-2.474327325820923,-0.1460399627685547,7.111475467681885
1701904895710574600,7.30357470703125,-1.978330135345459,-0.20770549774169922,6.762558937072754
1701904895727565000,7.32056494140625,-1.2705144882202148,0.02844095230102539,6.2701568603515625
1701904895744558600,7.33755859375,-0.6949050426483154,0.18463897705078125,5.838692665100098
1701904895761543000,7.35454296875,-0.2592538893222809,-0.04027605056762695,5.319999694824219
1701904895778541000,7.371541015625,0.26077157258987427,-0.7936630249023438,4.804635524749756
1701904895795539000,7.3885390625,0.7939662337303162,-1.956037998199463,4.372015476226807
1701904895812525300,7.405525390625,1.37747323513031,-2.7505970001220703,3.5711755752563477
1701904895829520400,7.422520263671875,1.9244577884674072,-2.9930663108825684,2.551778793334961
1701904895846509800,7.439509765625,2.2396438121795654,-2.71317720413208,1.4236292839050293
1701904895863505700,7.456505615234375,2.37930965423584,-2.180117130279541,0.38291168212890625
1701904895880492000,7.473491943359375,2.492227554321289,-1.6328673362731934,-0.5649900436401367
1701904895897484800,7.49048486328125,2.56796932220459,-1.1714682579040527,-1.5193605422973633
1701904895914481200,7.507481201171875,2.4625630378723145,-0.9721331596374512,-2.2115840911865234
1701904895931470800,7.524470947265625,2.551478624343872,-0.8540964126586914,-2.675553798675537
1701904895948462000,7.541462158203125,2.678356170654297,-0.839296817779541,-2.960463523864746
1701904895965454000,7.5584541015625,2.735434055328369,-0.8934645652770996,-3.2739791870117188
1701904895982445300,7.5754453125,2.6123313903808594,-0.9863624572753906,-3.737110137939453
1701904895999437300,7.592437255859375,2.516744375228882,-0.9927163124084473,-4.240073204040527
1701904896016426200,7.60942626953125,2.519423007965088,-0.9809412956237793,-4.531682968139648
1701904896033423600,7.626423583984375,2.5198276042938232,-1.1969232559204102,-4.6287994384765625
1701904896050412300,7.643412353515625,2.7804269790649414,-1.3733265399932861,-4.714417457580566
1701904896067403800,7.66040380859375,3.128744602203369,-1.6903893947601318,-4.607309341430664
1701904896084396300,7.677396240234375,3.4956469535827637,-1.8786492347717285,-4.580303192138672
1701904896101387800,7.6943876953125,3.681408643722534,-2.171725273132324,-4.349112033843994
1701904896118378800,7.711378662109375,3.6949117183685303,-2.6971185207366943,-4.00834321975708
1701904896135371300,7.728371337890625,3.4198176860809326,-3.484703302383423,-3.5739707946777344
1701904896152354000,7.74535400390625,3.1352946758270264,-4.2324748039245605,-3.3497538566589355
1701904896169354800,7.762354736328125,3.2363667488098145,-4.82828426361084,-2.9732775688171387
1701904896186345700,7.779345703125,3.5963315963745117,-5.019841194152832,-2.549623489379883
1701904896203335000,7.7963349609375,3.4979655742645264,-4.97776985168457,-1.7402701377868652
1701904896220329500,7.81332958984375,2.6165897846221924,-4.736097812652588,-1.6676125526428223
1701904896237308700,7.83030859375,1.1359899044036865,-4.882179260253906,-2.0015311241149902
1701904896254312700,7.847312744140625,0.2660343647003174,-5.473902702331543,-2.187836170196533
1701904896271304700,7.8643046875,0.3868389129638672,-5.819978713989258,-2.4306559562683105
1701904896288296000,7.8812958984375,1.3370029926300049,-5.322188377380371,-2.594985008239746
1701904896305288200,7.8982880859375,2.040388345718384,-4.305354118347168,-2.090486526489258
1701904896322279400,7.915279541015625,1.9343202114105225,-3.3372855186462402,-0.8146810531616211
1701904896339265000,7.93226513671875,1.2061448097229004,-2.8064098358154297,0.5195894241333008
1701904896356263000,7.949262939453125,0.24513447284698486,-2.473571300506592,1.1717462539672852
1701904896373244400,7.966244384765625,-0.43342602252960205,-2.118011474609375,1.1537561416625977
1701904896390242300,7.9832421875,-0.4511857032775879,-1.5934128761291504,0.7072849273681641
1701904896407239400,8.000239501953125,-0.057494521141052246,-0.9241175651550293,0.4142451286315918
1701904896424227600,8.0172275390625,0.3163493275642395,-0.04634666442871094,0.41678571701049805
1701904896441223700,8.0342236328125,0.39435142278671265,0.9188427925109863,0.7682485580444336
1701904896458209500,8.05120947265625,0.1920260787010193,1.8896007537841797,1.0687799453735352
1701904896475205400,8.068205322265625,-0.1894470453262329,2.5739641189575195,1.4977855682373047
1701904896492185900,8.085185791015626,-0.8015391826629639,2.946274757385254,1.5141558647155762
1701904896509188400,8.102188232421875,-1.2696595191955566,3.0159382820129395,1.3855533599853516
1701904896526179800,8.119179931640625,-1.1969273090362549,3.0084404945373535,1.2694945335388184
1701904896543161300,8.136161376953124,-0.8499612212181091,2.927297592163086,1.688751220703125
1701904896560163300,8.153163330078126,-1.0158019065856934,2.868335247039795,2.2701897621154785
1701904896577154800,8.17015478515625,-1.490229845046997,2.733150005340576,2.720395088195801
1701904896594147300,8.187147216796875,-1.5298168659210205,2.729564666748047,3.1982035636901855
1701904896611138800,8.204138916015625,-1.2240523099899292,2.7998709678649902,3.7250494956970215
1701904896628130000,8.221130126953126,-0.9370014667510986,2.8477540016174316,4.543214321136475
1701904896645121800,8.238121826171875,-1.0414782762527466,2.9040093421936035,5.306718826293945
1701904896662113500,8.255113525390625,-1.2655231952667236,2.8475656509399414,6.300845146179199
1701904896679105800,8.272105712890625,-1.3866589069366455,2.7318434715270996,7.31489372253418
1701904896696097000,8.289096923828126,-1.257979393005371,2.7989845275878906,7.980280876159668
1701904896713080000,8.306080078125,-1.0981448888778687,2.7298827171325684,8.443635940551758
1701904896730080800,8.323080810546875,-0.9394006729125977,2.4073920249938965,8.667623519897461
1701904896747072500,8.340072509765625,-1.0627697706222534,1.6836905479431152,8.501277923583984
1701904896764063500,8.3570634765625,-1.15404212474823,0.9968709945678711,7.942864894866943
1701904896781056000,8.374055908203125,-1.0889865159988403,-0.19440841674804688,7.767605304718018
1701904896798047000,8.391046875,-0.8691799640655518,-1.1641111373901367,7.404760837554932
1701904896815039200,8.408039306640624,-0.44841325283050537,-1.457230567932129,6.831094264984131
1701904896832030200,8.4250302734375,-0.013285312801599503,-0.9717493057250977,6.013119697570801
1701904896849025300,8.442025390625,0.42849090695381165,-0.5027785301208496,5.120816707611084
1701904896866011400,8.459011474609374,0.9387465715408325,-0.7684535980224609,4.483337879180908
1701904896883003000,8.4760029296875,1.418843388557434,-1.8177013397216797,4.055054664611816
1701904896900000800,8.493000732421875,1.7217341661453247,-3.174316883087158,3.592543601989746
1701904896916990500,8.509990478515626,1.789205551147461,-4.030508041381836,2.655520439147949
1701904896933980700,8.526980712890625,1.8325066566467285,-3.9612865447998047,1.312899112701416
1701904896950973000,8.543972900390624,1.9418915510177612,-3.1803383827209473,0.0792551040649414
1701904896967962000,8.560962158203125,2.0815227031707764,-2.1046371459960938,-0.7819576263427734
1701904896984958200,8.577958251953126,2.212803602218628,-1.109726905822754,-1.492835521697998
1701904897001947600,8.59494775390625,2.1440179347991943,-0.4658479690551758,-1.9244623184204102
1701904897018939600,8.611939697265624,1.8735922574996948,-0.08562755584716797,-2.32620906829834
1701904897035931000,8.628930908203126,1.5258135795593262,0.042502403259277344,-2.676248550415039
1701904897052923100,8.645923095703125,1.3040152788162231,-0.02294921875,-3.0119447708129883
1701904897069914000,8.6629140625,1.3575688600540161,-0.11658000946044922,-3.455110549926758
1701904897086905600,8.679905517578124,1.577624797821045,-0.3558063507080078,-3.993338108062744
1701904897103908000,8.696908203125,1.9087015390396118,-0.752821683883667,-4.585042476654053
1701904897120887300,8.71388720703125,2.4103448390960693,-1.1212542057037354,-5.124567031860352
1701904897137883600,8.730883544921875,2.8012888431549072,-1.445514440536499,-5.527162551879883
1701904897154873300,8.747873291015624,2.9872231483459473,-1.8804762363433838,-5.776329517364502
1701904897171853800,8.764853759765625,3.182168483734131,-1.9586758613586426,-6.13084602355957
1701904897188854500,8.7818544921875,3.4728736877441406,-2.082228899002075,-6.090449810028076
1701904897205851600,8.7988515625,3.759697198867798,-2.5380702018737793,-5.55452823638916
1701904897222835000,8.8158349609375,3.9067564010620117,-3.1523337364196777,-4.886656761169434
1701904897239831300,8.832831298828125,3.915126323699951,-3.9116246700286865,-3.9200711250305176
1701904897256823800,8.84982373046875,3.8002231121063232,-4.349041938781738,-3.003610134124756
1701904897273804000,8.866803955078124,3.247483491897583,-4.600681304931641,-2.1327638626098633
1701904897290803700,8.8838037109375,2.5107853412628174,-4.790373802185059,-1.438795566558838
1701904897307796000,8.9007958984375,1.6319665908813477,-4.872457504272461,-0.9628400802612305
1701904897324789500,8.91778955078125,0.948820948600769,-5.125191688537598,-0.5186605453491211
1701904897341784000,8.9347841796875,0.8091437816619873,-5.605473518371582,-0.27902793884277344
1701904897358774300,8.951774169921874,1.0243644714355469,-5.837390899658203,-0.5454273223876953
1701904897375762400,8.968762451171875,1.7895548343658447,-5.16172456741333,-1.0214037895202637
1701904897392759800,8.985759765625,2.1404871940612793,-3.9778637886047363,-0.7456769943237305
1701904897409747500,9.00274755859375,1.8385529518127441,-2.9824061393737793,0.23305797576904297
1701904897426731500,9.0197314453125,1.2701960802078247,-2.3994812965393066,1.274561882019043
1701904897443728600,9.036728759765625,0.7691466808319092,-2.0717949867248535,1.693568229675293
1701904897460727000,9.05372705078125,0.35953235626220703,-2.009458541870117,1.4586877822875977
1701904897477712400,9.07071240234375,0.3391682207584381,-1.853003978729248,0.7990531921386719
1701904897494710300,9.087710205078125,0.744803249835968,-1.2857694625854492,0.1635723114013672
1701904897511688700,9.104688720703125,0.9443060159683228,-0.24901914596557617,-0.03860616683959961
1701904897528680000,9.121679931640625,0.7199947237968445,0.9804272651672363,0.35521793365478516
1701904897545682000,9.138681884765624,-0.11553400754928589,2.1593337059020996,0.7712030410766602
1701904897562674200,9.155674072265626,-0.8042223453521729,3.0381526947021484,0.9205389022827148
1701904897579667700,9.172667724609376,-1.310858964920044,3.438727378845215,0.9152927398681641
1701904897596651500,9.189651611328125,-1.3510327339172363,3.370460033416748,0.7808904647827148
1701904897613642800,9.206642822265625,-0.8731014132499695,3.1163978576660156,0.5847263336181641
1701904897630643700,9.223643798828125,-0.1889694333076477,2.791717529296875,0.6623992919921875
1701904897647627500,9.24062744140625,0.2599008083343506,2.609853744506836,0.9493556022644043
1701904897664629000,9.25762890625,0.36732029914855957,2.6742334365844727,1.5073037147521973
1701904897681615600,9.27461572265625,0.25032326579093933,2.9307079315185547,1.9824891090393066
1701904897698607600,9.291607666015626,0.15144744515419006,3.190530776977539,2.4186062812805176
1701904897715598800,9.308598876953125,0.2385205626487732,3.1930480003356934,3.0789108276367188
1701904897732588000,9.325588134765624,0.30927208065986633,2.9340081214904785,4.0226545333862305
1701904897749582300,9.342582275390624,0.20733484625816345,2.4640541076660156,5.062063694000244
1701904897766574600,9.35957470703125,-0.11934921145439148,2.1529793739318848,6.048527240753174
1701904897783563000,9.37656298828125,-0.40950673818588257,2.239696979522705,6.8165974617004395
1701904897800557300,9.393557373046875,-0.6387006044387817,2.768634796142578,7.488405227661133
1701904897817548800,9.410548828125,-1.1777291297912598,3.000612258911133,8.09613037109375
1701904897834541300,9.427541259765626,-1.7656571865081787,2.671006679534912,8.256382942199707
1701904897851532500,9.444532470703125,-2.279437303543091,1.9458260536193848,8.03260612487793
1701904897868524800,9.46152490234375,-2.260335922241211,0.7192549705505371,8.135444641113281
1701904897885515800,9.478515869140624,-1.7663941383361816,-0.2844552993774414,8.093934059143066
1701904897902508300,9.49550830078125,-0.9794731140136719,-0.48954296112060547,7.845714569091797
1701904897919499300,9.512499267578125,-0.35071128606796265,0.25225210189819336,7.09483003616333
1701904897936491800,9.52949169921875,0.0013813572004437447,0.8904376029968262,6.161749839782715
1701904897953482800,9.546482666015624,0.38932573795318604,0.8078045845031738,5.419393539428711
1701904897970461700,9.563461669921875,0.9153226613998413,-0.15866422653198242,5.068630695343018
1701904897987454500,9.580454345703124,1.351114273071289,-1.4486050605773926,4.650381088256836
1701904898004459300,9.597459228515625,1.6871706247329712,-2.356144428253174,3.8130431175231934
1701904898021449500,9.614449462890626,1.78571617603302,-2.518752098083496,2.661496639251709
1701904898038432300,9.631432373046875,1.9212273359298706,-2.128451347351074,1.452253818511963
1701904898055421700,9.648421630859374,2.0646820068359375,-1.424818515777588,0.2777066230773926
1701904898072424000,9.665423828125,2.1727683544158936,-0.8491034507751465,-0.6081676483154297
1701904898089417200,9.682417236328124,2.0728249549865723,-0.4934091567993164,-1.2317533493041992
1701904898106408700,9.69940869140625,1.7961952686309814,-0.3052535057067871,-1.7983040809631348
1701904898123397400,9.7163974609375,1.384322166442871,-0.17850685119628906,-2.2629003524780273
1701904898140388400,9.733388427734376,0.8877094984054565,-0.16578149795532227,-2.686004638671875
1701904898157383200,9.750383056640626,0.6675856709480286,-0.2708735466003418,-3.122530460357666
1701904898174365400,9.767365478515625,0.9090092182159424,-0.5376410484313965,-3.644148826599121
1701904898191362600,9.784362548828126,1.4149677753448486,-0.9382219314575195,-4.197841167449951
1701904898208352000,9.80135205078125,2.0219736099243164,-1.3065392971038818,-4.740664958953857
1701904898225343500,9.818343505859374,2.6240358352661133,-1.6707003116607666,-5.100436687469482
1701904898242337300,9.835337158203124,3.3144211769104004,-2.031057834625244,-5.175169944763184
1701904898259331300,9.852331298828124,3.782228469848633,-2.207458019256592,-5.057836055755615
1701904898276327200,9.8693271484375,4.005452632904053,-2.17549729347229,-4.717845916748047
1701904898293315300,9.8863154296875,3.853940963745117,-2.6097805500030518,-4.104599952697754
1701904898310306300,9.903306396484375,3.4553468227386475,-3.551072835922241,-3.5389041900634766
1701904898327300600,9.920300537109375,3.173322916030884,-4.266966819763184,-3.308077812194824
1701904898344292000,9.9372919921875,3.2302792072296143,-4.7702484130859375,-2.9353551864624023
1701904898361283600,9.95428369140625,3.2912580966949463,-5.075322151184082,-2.374570369720459
1701904898378275800,9.97127587890625,3.1076886653900146,-5.220644950866699,-1.4129595756530762
1701904898395266800,9.988266845703125,2.3013503551483154,-5.055310249328613,-1.1603670120239258
1701904898412246300,10.005246337890625,1.5817173719406128,-5.3110857009887695,-1.2402691841125488
1701904898429253000,10.022253173828124,1.3613181114196777,-5.627446174621582,-1.7252554893493652
1701904898446242300,10.0392421875,1.8190239667892456,-5.80225133895874,-2.4146766662597656
1701904898463232000,10.05623193359375,2.4325456619262695,-5.155679702758789,-3.0390148162841797
1701904898480225800,10.073225830078124,2.535834789276123,-3.9183754920959473,-2.3040852546691895
1701904898497220600,10.090220703125,1.7137799263000488,-2.7414090633392334,-0.842646598815918
1701904898514207500,10.10720751953125,-0.11721432209014893,-2.4233789443969727,0.46471214294433594
1701904898531200800,10.12420068359375,-1.6785383224487305,-2.1729650497436523,0.9086675643920898
1701904898548190200,10.141190185546876,-2.344263792037964,-2.0004324913024902,0.8555154800415039
1701904898565186600,10.1581865234375,-2.058318614959717,-1.7717304229736328,0.45923614501953125
1701904898582176000,10.175176025390625,-1.0586366653442383,-1.1890482902526855,-0.06480121612548828
1701904898599167200,10.192167236328125,-0.07836270332336426,-0.35216808319091797,-0.10112285614013672
1701904898616159700,10.20915966796875,0.38464438915252686,0.8368625640869141,0.13627338409423828
1701904898633140200,10.22614013671875,0.0323372483253479,1.9083211421966553,0.3406200408935547
1701904898650142700,10.243142822265625,-0.559296190738678,2.5582313537597656,0.5344247817993164
1701904898667134000,10.260134033203125,-0.7124097943305969,2.9239118099212646,0.7163944244384766
1701904898684126500,10.27712646484375,-0.5733608603477478,3.006608009338379,0.99884033203125
1701904898701117700,10.29411767578125,-0.6731165051460266,2.939499855041504,1.286214828491211
1701904898718109700,10.311109619140625,-1.0228278636932373,2.9129292964935303,1.4757356643676758
1701904898735101000,10.328100830078125,-1.4801799058914185,2.8812742233276367,1.4704995155334473
1701904898752076500,10.34507666015625,-1.7509362697601318,2.802478313446045,1.3819513320922852
1701904898769084400,10.36208447265625,-1.5278198719024658,2.677028179168701,1.5998492240905762
1701904898786073600,10.379073486328124,-0.9193969368934631,2.665234088897705,2.1762003898620605
1701904898803067600,10.396067626953124,-0.4093821048736572,2.8139429092407227,2.717959403991699
1701904898820056600,10.413056640625,-0.3330118656158447,2.807919502258301,3.317594051361084
1701904898837052000,10.430052001953126,-0.4191628694534302,2.581137180328369,4.09445858001709
1701904898854043100,10.447043212890625,-0.49912241101264954,2.4663567543029785,4.827964782714844
1701904898871034000,10.4640341796875,-0.7009397745132446,2.5623321533203125,5.611135482788086
1701904898888024300,10.4810244140625,-1.1930938959121704,2.808349609375,6.405008316040039
1701904898905020700,10.498020751953124,-1.776937484741211,2.8550758361816406,7.254835605621338
1701904898922010000,10.515010009765625,-2.331968069076538,2.5969018936157227,7.738800048828125
1701904898939001300,10.53200146484375,-2.760312557220459,2.063417911529541,7.9357218742370605
1701904898955982800,10.54898291015625,-3.0834174156188965,1.3186688423156738,8.159223556518555
1701904898972983300,10.5659833984375,-3.298377275466919,0.24605321884155273,8.365616798400879
1701904898989970400,10.582970458984375,-2.8422868251800537,-0.34099578857421875,8.219839096069336
1701904899006959900,10.5999599609375,-2.271860122680664,-0.2739691734313965,7.727282524108887
1701904899023957000,10.61695703125,-1.8958253860473633,0.3776102066040039,6.715219020843506
1701904899040946000,10.63394580078125,-1.3672924041748047,0.6677565574645996,5.806694984436035
1701904899057934000,10.65093408203125,-0.5274759531021118,0.18717002868652344,5.161788463592529
1701904899074931500,10.667931396484375,0.4555421769618988,-0.8077182769775391,4.51803731918335
1701904899091915300,10.684915283203125,1.2008939981460571,-1.7533440589904785,3.612762451171875
1701904899108910800,10.701910888671875,1.6310675144195557,-2.448779582977295,2.6943612098693848
1701904899125906200,10.71890625,1.7221081256866455,-2.435823440551758,1.7492256164550781
1701904899142898000,10.73589794921875,1.8050391674041748,-2.0195465087890625,0.8551383018493652
1701904899159889400,10.752889404296875,1.9122344255447388,-1.3897743225097656,-0.034071922302246094
1701904899176878600,10.769878662109376,1.8814208507537842,-0.8539838790893555,-0.7157788276672363
1701904899193867800,10.78686767578125,1.7765356302261353,-0.47162818908691406,-1.316023349761963
1701904899210862000,10.803862060546875,1.7317649126052856,-0.20993423461914062,-1.9042377471923828
1701904899227855000,10.820855224609375,1.6594688892364502,-0.14833736419677734,-2.4027457237243652
1701904899244845600,10.837845458984376,1.684999704360962,-0.20757532119750977,-2.7725648880004883
1701904899261832200,10.854832275390624,1.9134509563446045,-0.31226539611816406,-2.9451470375061035
1701904899278835200,10.871835205078124,2.137561559677124,-0.4906001091003418,-3.0586652755737305
1701904899295827000,10.888826904296875,2.3334803581237793,-0.6279737949371338,-3.346221446990967
1701904899312819200,10.905819091796875,2.493591070175171,-0.7644503116607666,-3.765212059020996
1701904899329803000,10.922802978515625,2.7181663513183594,-0.9960412979125977,-4.22977876663208
1701904899346803000,10.939802978515624,3.0430338382720947,-1.328902244567871,-4.568539619445801
1701904899363794200,10.956794189453126,3.355302333831787,-1.6719253063201904,-4.750748157501221
1701904899380778500,10.973778564453125,3.7230982780456543,-2.035335063934326,-4.740951061248779
1701904899397776600,10.990776611328124,3.989671468734741,-2.611835241317749,-4.352458953857422
1701904899414755300,11.00775537109375,3.978006362915039,-3.3166251182556152,-3.77811336517334
1701904899431758600,11.024758544921875,3.659498691558838,-3.9286928176879883,-3.3649744987487793
1701904899448752600,11.041752685546875,3.3800108432769775,-4.345174312591553,-3.329314708709717
1701904899465738200,11.05873828125,3.4422240257263184,-4.715639114379883,-3.1305642127990723
1701904899482735400,11.0757353515625,3.4879937171936035,-5.057518005371094,-2.2602005004882812
1701904899499727600,11.0927275390625,2.7596027851104736,-4.977095127105713,-1.224268913269043
1701904899516718800,11.10971875,1.7434580326080322,-4.753505706787109,-0.957550048828125
1701904899533708000,11.1267080078125,0.8771151304244995,-4.939621925354004,-1.1556358337402344
1701904899550702600,11.14370263671875,0.7104874849319458,-5.5455474853515625,-1.5458731651306152
1701904899567692000,11.160692138671875,0.9996547102928162,-5.955342769622803,-1.943443775177002
1701904899584688400,11.1776884765625,1.3274331092834473,-5.564289093017578,-2.124605655670166
1701904899601675500,11.194675537109376,1.5088754892349243,-4.528385162353516,-1.7258763313293457
1701904899618671900,11.211671875,1.28426992893219,-3.1908681392669678,-0.9343633651733398
1701904899635660500,11.22866064453125,0.5563506484031677,-2.5686862468719482,0.17560386657714844
1701904899652651500,11.245651611328125,0.056187450885772705,-2.2729835510253906,1.0434160232543945
1701904899669643800,11.262643798828124,-0.32959169149398804,-2.1381092071533203,1.2743949890136719
1701904899686636000,11.279635986328126,-0.30936872959136963,-1.931467056274414,0.9157733917236328
1701904899703628300,11.296628173828125,-0.136971116065979,-1.5583553314208984,0.8020524978637695
1701904899720613600,11.313613525390625,-0.24080544710159302,-0.7916183471679688,0.911834716796875
1701904899737614000,11.330614013671875,-0.22623670101165771,0.26317787170410156,1.2377996444702148
1701904899754602800,11.347602783203126,-0.25862783193588257,1.4414992332458496,1.431351661682129
1701904899771594800,11.3645947265625,-0.4498826265335083,2.3311145305633545,1.5777864456176758
1701904899788586000,11.3815859375,-0.5589898228645325,2.98970890045166,1.7023167610168457
1701904899805578500,11.39857861328125,-0.8067612648010254,3.230067491531372,2.0753068923950195
1701904899822569700,11.41556982421875,-0.9527527093887329,3.339249849319458,2.5172858238220215
1701904899839562000,11.43256201171875,-0.8830291032791138,3.4361376762390137,2.669076442718506
1701904899856553000,11.449552978515625,-0.7432429790496826,3.4225101470947266,3.0569591522216797
1701904899873545200,11.466545166015624,-0.6101627945899963,3.599778175354004,3.3547396659851074
1701904899890536200,11.4835361328125,-0.7473532557487488,3.7041120529174805,3.9050984382629395
1701904899907527700,11.500527587890625,-1.0414618253707886,3.9614741802215576,4.508868217468262
1701904899924514800,11.517514892578125,-1.368619680404663,4.183210372924805,5.097657203674316
1701904899941511700,11.53451171875,-1.532033920288086,4.301988124847412,5.54906702041626
1701904899958492400,11.551492431640625,-1.3184446096420288,4.277390480041504,5.845452785491943
1701904899975495700,11.56849560546875,-0.9971514940261841,3.999283790588379,6.022556304931641
1701904899992486400,11.585486328125,-0.6061979532241821,3.72206974029541,6.163729667663574
1701904900009479000,11.60247900390625,-0.3662213683128357,3.533173084259033,6.379181385040283
1701904900026469600,11.6194697265625,-0.4545567035675049,3.2755837440490723,6.533402919769287
1701904900043458800,11.636458740234374,-0.7791614532470703,2.791475296020508,6.637112140655518
1701904900060459000,11.653458984375,-1.0642309188842773,2.1769723892211914,6.644176006317139
1701904900077445600,11.670445556640624,-1.1401609182357788,1.3480195999145508,6.906135082244873
1701904900094436900,11.687436767578125,-1.0809372663497925,0.4096665382385254,7.331270694732666
1701904900111428900,11.704428955078125,-0.848873496055603,0.021826744079589844,7.5490546226501465
1701904900128409600,11.72140966796875,-0.5707692503929138,0.38797712326049805,7.2733845710754395
1701904900145412400,11.738412353515624,-0.5636216402053833,1.1118392944335938,6.628718852996826
1701904900162403300,11.7554033203125,-0.6169933676719666,1.2591938972473145,6.172108173370361
1701904900179385000,11.772385009765625,-0.29585814476013184,0.7201886177062988,5.749791622161865
1701904900196386800,11.78938671875,0.20592188835144043,-0.49130821228027344,5.2798380851745605
1701904900213379000,11.806379150390624,0.8761188983917236,-1.610334873199463,4.52467679977417
1701904900230366500,11.823366455078125,1.426990032196045,-2.252291202545166,3.345004081726074
1701904900247363000,11.840363037109375,1.7849303483963013,-2.299628734588623,1.9603333473205566
1701904900264353800,11.857353759765624,2.0740652084350586,-2.0751895904541016,0.7356739044189453
1701904900281344800,11.8743447265625,2.250450611114502,-1.6380114555358887,-0.28675317764282227
1701904900298338300,11.89133837890625,2.2459325790405273,-1.282346248626709,-1.0812420845031738
1701904900315329300,11.908329345703125,2.104623556137085,-0.9857516288757324,-1.7337689399719238
1701904900332323300,11.9253232421875,1.8507517576217651,-0.8321595191955566,-2.200228214263916
1701904900349302000,11.942302001953125,1.6551506519317627,-0.795051097869873,-2.537424087524414
1701904900366304000,11.959303955078125,1.7674849033355713,-0.8696856498718262,-2.698606014251709
1701904900383295500,11.97629541015625,2.07141375541687,-0.8972198963165283,-2.9819064140319824
1701904900400287700,11.993287841796874,2.3295626640319824,-1.0205957889556885,-3.3095345497131348
1701904900417268000,12.01026806640625,2.520899534225464,-1.1812231540679932,-3.6062698364257812
1701904900434271200,12.027271240234375,2.5703463554382324,-1.4131255149841309,-4.02573299407959
1701904900451263000,12.044262939453125,2.6277782917022705,-1.6282985210418701,-4.38145112991333
1701904900468254200,12.061254150390624,2.90177321434021,-1.8449862003326416,-4.4685959815979
1701904900485246200,12.07824609375,3.2466537952423096,-2.025151252746582,-4.459937572479248
1701904900502240500,12.095240478515626,3.612626552581787,-2.3735413551330566,-4.112523555755615
1701904900519226600,12.1122265625,3.9568252563476562,-2.8181676864624023,-3.642456531524658
1701904900536219400,12.129219482421876,4.129258632659912,-3.4231178760528564,-3.006526470184326
1701904900553204500,12.14620458984375,3.8955211639404297,-4.02338981628418,-2.511147975921631
1701904900570204000,12.163203857421875,3.558246374130249,-4.587316513061523,-2.054149627685547
1701904900587196400,12.180196533203125,3.4190080165863037,-4.830342769622803,-2.034438133239746
1701904900604187400,12.1971875,3.357388973236084,-5.0170159339904785,-1.7326903343200684
1701904900621180000,12.214179931640626,3.5778932571411133,-4.970415115356445,-1.227562427520752
1701904900638171000,12.2311708984375,3.245253324508667,-4.8189802169799805,-0.8159170150756836
1701904900655163100,12.2481630859375,2.1562511920928955,-5.024293899536133,-0.810582160949707
1701904900672142600,12.265142578125,1.446796178817749,-5.373086929321289,-0.9730539321899414
1701904900689146400,12.282146484375,1.713047742843628,-5.264377593994141,-1.1056632995605469
1701904900706136000,12.299135986328125,2.2750279903411865,-4.575824737548828,-1.3044614791870117
1701904900723131600,12.316131591796875,2.1253933906555176,-3.6125166416168213,-1.035440444946289
1701904900740117200,12.3331171875,1.1691663265228271,-2.7445003986358643,-0.4114112854003906
1701904900757114000,12.350114013671876,-0.3959106206893921,-2.436636447906494,0.14740753173828125
1701904900774104600,12.3671044921875,-1.4467402696609497,-2.355764389038086,0.46541881561279297
1701904900791096800,12.384096923828125,-1.766322374343872,-2.368978977203369,0.4653139114379883
1701904900808087300,12.40108740234375,-1.2016887664794922,-2.2384860515594482,0.33644580841064453
1701904900825080800,12.418080810546876,-0.2929716110229492,-1.7990012168884277,0.0801553726196289
1701904900842071300,12.4350712890625,0.4508301317691803,-0.9034080505371094,-0.10178661346435547
1701904900859063600,12.4520634765625,0.5218732357025146,0.11079883575439453,0.008967399597167969
1701904900876051000,12.469051025390625,0.09077692031860352,1.1406936645507812,0.22472381591796875
1701904900893045200,12.486045166015625,-0.44727224111557007,1.906794548034668,0.6343355178833008
1701904900910033400,12.503033447265626,-0.9527078866958618,2.4368510246276855,1.0921273231506348
1701904900927029200,12.520029296875,-1.3540534973144531,2.711561679840088,1.6017913818359375
1701904900944022300,12.537022216796874,-1.6123045682907104,2.9636433124542236,1.9226984977722168
1701904900961013500,12.554013427734375,-1.6486742496490479,3.0873520374298096,2.3029298782348633
1701904900977999000,12.5709990234375,-1.3891407251358032,3.3286454677581787,2.7337698936462402
1701904900994997000,12.5879970703125,-1.2576676607131958,3.5408072471618652,3.291667938232422
1701904901011988000,12.604988037109376,-1.294767141342163,3.8006672859191895,4.0615153312683105
1701904901028978000,12.62197802734375,-1.472072720527649,4.002065658569336,5.069433212280273
1701904901045974300,12.638974365234375,-1.7334352731704712,4.284214496612549,5.878372669219971
1701904901062960600,12.655960693359376,-1.7686940431594849,4.479368209838867,6.67903470993042
1701904901079955000,12.672954833984376,-1.6005885601043701,4.503376007080078,7.210278511047363
1701904901096947500,12.689947509765625,-1.4184749126434326,4.535591125488281,7.385380268096924
1701904901113938400,12.7069384765625,-1.4331003427505493,4.545337200164795,7.46886682510376
1701904901130927600,12.723927734375,-1.6060596704483032,4.407583713531494,7.744600772857666
1701904901147913000,12.740912841796876,-2.0577054023742676,4.062717437744141,7.955508708953857
1701904901164912000,12.757912109375,-2.436645746231079,3.236647129058838,7.968180179595947
1701904901181902600,12.774902587890624,-2.3915810585021973,2.5428824424743652,7.501191139221191
1701904901198900000,12.79189990234375,-2.059643030166626,1.5605454444885254,7.522038459777832
1701904901215888400,12.808888427734376,-1.5596762895584106,0.8415188789367676,7.668893814086914
1701904901232869600,12.82586962890625,-0.9148688316345215,0.6185979843139648,7.591568946838379
1701904901249872000,12.842871826171875,-0.5529811382293701,0.7444972991943359,7.142795562744141
1701904901266865200,12.859865234375,-0.42908167839050293,0.8599405288696289,6.442808151245117
1701904901283855400,12.87685546875,-0.11784979701042175,0.7061753273010254,5.877738952636719
1701904901300847600,12.89384765625,0.29500773549079895,-0.08395624160766602,5.558600425720215
1701904901317836000,12.9108359375,0.8542838096618652,-1.0319647789001465,5.084559917449951
1701904901334833700,12.927833740234375,1.473551630973816,-1.8210997581481934,4.32581901550293
1701904901351815000,12.94481494140625,1.9245038032531738,-2.1488919258117676,3.2527575492858887
1701904901368807700,12.9618076171875,2.3906571865081787,-2.2299013137817383,2.244852066040039
1701904901385808100,12.97880810546875,2.6684699058532715,-2.1249637603759766,1.3946599960327148
1701904901402798000,12.995798095703124,2.4896984100341797,-1.933220386505127,0.49852848052978516
1701904901419789000,13.0127890625,2.0190439224243164,-1.5931758880615234,-0.4067955017089844
1701904901436777500,13.029777587890624,1.5898303985595703,-1.2046422958374023,-1.2296791076660156
1701904901453772800,13.046772705078125,1.2729129791259766,-0.83917236328125,-1.9535369873046875
1701904901470764300,13.063764404296874,1.2667417526245117,-0.6469550132751465,-2.439558982849121
1701904901487755500,13.080755615234375,1.4743835926055908,-0.7265675067901611,-2.549294948577881
1701904901504748000,13.097748046875,1.8204509019851685,-0.9754750728607178,-2.7748403549194336
1701904901521739000,13.114739013671874,2.2106878757476807,-1.2712979316711426,-3.363414764404297
1701904901538731300,13.131731201171876,2.610687732696533,-1.5138344764709473,-4.043078899383545
1701904901555722500,13.148722412109375,2.9351587295532227,-1.751462459564209,-4.59568452835083
1701904901572712000,13.1657119140625,3.1582913398742676,-1.9977021217346191,-4.921064853668213
1701904901589703400,13.182703369140626,3.5833637714385986,-2.2463650703430176,-5.0178399085998535
1701904901606700500,13.199700439453125,4.095650672912598,-2.4518823623657227,-4.932514190673828
1701904901623685000,13.21668505859375,4.4528608322143555,-2.558985948562622,-4.600924491882324
1701904901640682500,13.2336826171875,4.575106620788574,-2.98686146736145,-3.8270487785339355
1701904901657670000,13.250669921875,4.451314926147461,-3.543236017227173,-3.1729817390441895
1701904901674655200,13.2676552734375,4.320074081420898,-4.050793647766113,-2.7501096725463867
1701904901691656200,13.28465625,4.121103286743164,-4.6662187576293945,-2.2157540321350098
1701904901708639000,13.301638916015625,4.066681385040283,-5.049736022949219,-1.621352195739746
1701904901725627400,13.31862744140625,4.271742343902588,-5.089479446411133,-1.0129995346069336
1701904901742623700,13.335623779296874,4.084961891174316,-5.10994291305542,-0.23009395599365234
1701904901759617000,13.352616943359376,3.5516490936279297,-5.09433650970459,0.29865169525146484
1701904901776616700,13.36961669921875,2.4703750610351562,-5.337203502655029,0.29874134063720703
1701904901793606100,13.386606201171874,1.3498769998550415,-5.539214134216309,-0.13218975067138672
1701904901810598700,13.4035986328125,0.6961137056350708,-5.183957099914551,-0.9211311340332031
1701904901827587000,13.420587158203125,1.0333579778671265,-4.218510150909424,-1.5140738487243652
1701904901844584400,13.43758447265625,1.3926918506622314,-3.192845106124878,-1.4003901481628418
1701904901861572900,13.45457275390625,1.4060558080673218,-2.681330919265747,-0.9310131072998047
1701904901878565000,13.471565185546876,1.014821171760559,-2.5053727626800537,-0.2275848388671875
1701904901895556600,13.488556640625,0.37294209003448486,-2.4128036499023438,0.17481231689453125
1701904901912548600,13.505548583984375,-0.14717674255371094,-2.312877655029297,0.16327667236328125
1701904901929539600,13.52253955078125,-0.2472851276397705,-2.0144386291503906,-0.1637258529663086
1701904901946531800,13.53953173828125,-0.062747061252594,-1.3666982650756836,-0.6031022071838379
1701904901963520300,13.556520263671874,0.21672141551971436,-0.47911930084228516,-0.6431517601013184
1701904901980515300,13.573515380859375,0.2607237994670868,0.48337459564208984,-0.25902843475341797
1701904901997507600,13.590507568359374,-0.19480392336845398,1.412179946899414,0.37302589416503906
1701904902014498800,13.607498779296876,-1.2345905303955078,1.956207275390625,0.9360604286193848
1701904902031490300,13.624490234375,-2.159268617630005,2.222942352294922,1.3397812843322754
1701904902048482000,13.64148193359375,-2.552604913711548,2.4106173515319824,1.5169072151184082
1701904902065473000,13.65847314453125,-2.4970781803131104,2.3341407775878906,1.909271240234375
1701904902082465500,13.675465576171876,-1.9689135551452637,2.383697032928467,2.412050247192383
1701904902099456500,13.69245654296875,-1.544978141784668,2.5098824501037598,3.202221393585205
1701904902116449000,13.709448974609375,-1.4827475547790527,2.7303285598754883,3.9351396560668945
1701904902133441500,13.726441650390624,-1.7995994091033936,3.051420211791992,4.669976711273193
1701904902150429200,13.74342919921875,-2.1145071983337402,3.456252098083496,5.303225994110107
1701904902167423500,13.760423583984375,-2.3054611682891846,3.7846269607543945,5.878484725952148
1701904902184415700,13.777415771484375,-2.6464743614196777,3.78767728805542,6.700074672698975
1701904902201406700,13.79440673828125,-3.479969024658203,3.664977550506592,7.565726280212402
1701904902218403000,13.811403076171874,-4.538250923156738,3.344050407409668,8.216117858886719
1701904902235379700,13.828379638671874,-5.092240333557129,3.345780372619629,8.242939949035645
1701904902252382500,13.845382568359375,-5.02496862411499,3.4416708946228027,7.999032974243164
1701904902269373400,13.86237353515625,-4.665137767791748,3.137876033782959,7.788546085357666
1701904902286366200,13.8793662109375,-3.910510778427124,2.366745948791504,7.5361647605896
1701904902303357200,13.896357177734375,-3.2017383575439453,1.5004515647888184,7.267241477966309
1701904902320344600,13.913344482421875,-2.522580623626709,0.4859185218811035,7.326050281524658
1701904902337344300,13.93034423828125,-1.858618974685669,0.07812309265136719,7.178924560546875
1701904902354333700,13.947333740234376,-1.134105920791626,0.3510599136352539,6.8093953132629395
1701904902371323600,13.96432373046875,-0.4653930068016052,0.9250073432922363,6.195544719696045
1701904902388316000,13.98131591796875,-0.029680445790290833,0.9520168304443359,5.6760783195495605
1701904902405307000,13.998306884765626,0.5807607173919678,0.3967123031616211,5.414161682128906
1701904902422299400,14.01529931640625,1.1932411193847656,-0.629847526550293,5.336845397949219
1701904902439290400,14.032290283203125,1.5672358274459839,-1.4777226448059082,5.011236667633057
1701904902456278000,14.049278076171875,1.7765650749206543,-1.766195297241211,4.319240570068359
1701904902473262600,14.0662626953125,1.7765119075775146,-1.4643268585205078,3.2209830284118652
1701904902490258200,14.083258056640625,1.680574655532837,-0.949103832244873,2.1369848251342773
1701904902507247900,14.100247802734375,1.6070632934570312,-0.35093164443969727,1.2029814720153809
1701904902524245500,14.11724560546875,1.5292437076568604,0.033158302307128906,0.6272659301757812
1701904902541239000,14.134239013671875,1.3816890716552734,0.23703765869140625,0.22622919082641602
1701904902558226200,14.15122607421875,1.3402454853057861,0.3319864273071289,-0.10679292678833008
1701904902575219000,14.168218994140625,1.4122676849365234,0.26441097259521484,-0.3368062973022461
1701904902592207000,14.18520703125,1.4915951490402222,0.0932455062866211,-0.6374893188476562
1701904902609202200,14.2022021484375,1.6970115900039673,-0.13720321655273438,-1.1559948921203613
1701904902626197200,14.219197265625,2.0281949043273926,-0.5197315216064453,-1.6637611389160156
1701904902643185200,14.23618505859375,2.629085063934326,-0.7368474006652832,-2.193793773651123
1701904902660173800,14.253173828125,3.262125253677368,-1.1012687683105469,-2.5543570518493652
1701904902677169400,14.27016943359375,4.008111000061035,-1.5230019092559814,-2.752258777618408
1701904902694159400,14.287159423828125,4.656153202056885,-2.008530616760254,-2.930051326751709
1701904902711153400,14.3041533203125,5.228119850158691,-2.31320858001709,-3.1692824363708496
1701904902728139300,14.32113916015625,5.546975135803223,-2.8417575359344482,-3.1778221130371094
1701904902745140200,14.33814013671875,5.802618503570557,-3.1978626251220703,-3.038564682006836
1701904902762125000,14.355125,5.759737968444824,-3.7102973461151123,-2.6671876907348633
1701904902779113700,14.37211376953125,5.3661394119262695,-4.28215217590332,-2.317416191101074
1701904902796121000,14.38912109375,4.893051624298096,-4.810100555419922,-2.243557929992676
1701904902813096400,14.406096435546875,4.7335968017578125,-5.1862688064575195,-2.158939838409424
1701904902830103800,14.423103759765626,4.889185905456543,-5.142886161804199,-2.0843143463134766
1701904902847090400,14.44009033203125,4.570524215698242,-4.911243915557861,-1.9710631370544434
1701904902864084000,14.457083984375,3.544959545135498,-4.967312335968018,-1.699270248413086
1701904902881074400,14.474074462890625,2.522078037261963,-5.340729713439941,-1.8172316551208496
1701904902898067000,14.49106689453125,1.7958413362503052,-5.690399646759033,-2.1923680305480957
1701904902915058000,14.508057861328124,1.3683011531829834,-5.5280609130859375,-2.9455928802490234
1701904902932039700,14.525039794921875,1.2768760919570923,-4.689256191253662,-3.3976731300354004
1701904902949046500,14.542046630859375,1.0403449535369873,-3.5369553565979004,-3.129127025604248
1701904902966033700,14.55903369140625,0.2417699098587036,-2.8995180130004883,-1.997896671295166
1701904902983021600,14.576021484375,-0.5684782266616821,-2.862224817276001,-0.8063106536865234
1701904903000014000,14.59301416015625,-1.1209605932235718,-2.9724981784820557,-0.02837657928466797
1701904903017007900,14.6100078125,-1.093490719795227,-2.93918776512146,0.11019325256347656
1701904903034000400,14.62700048828125,-0.7666666507720947,-2.71960711479187,0.04525947570800781
1701904903050988500,14.643988525390625,-0.504704475402832,-2.0919790267944336,-0.07042980194091797
1701904903067981000,14.66098095703125,-0.4340360164642334,-1.1415119171142578,0.16411113739013672
1701904903084977200,14.67797705078125,-0.8327915668487549,-0.0776052474975586,0.40929698944091797
1701904903101964300,14.69496435546875,-1.4939703941345215,0.9007711410522461,0.906682014465332
1701904903118960400,14.71196044921875,-2.041283130645752,1.7170424461364746,1.49446439743042
1701904903135949800,14.72894970703125,-2.3380818367004395,2.239014148712158,2.116161346435547
1701904903152942300,14.7459423828125,-2.479863405227661,2.4738340377807617,2.5485854148864746
1701904903169923300,14.76292333984375,-2.570835828781128,2.5484237670898438,2.689350128173828
1701904903186925600,14.779925537109374,-2.473031520843506,2.480196475982666,2.8876566886901855
1701904903203912400,14.796912353515625,-1.9389762878417969,2.49782657623291,3.2261314392089844
1701904903220908500,14.813908447265625,-1.434371829032898,2.6057562828063965,3.8429226875305176
1701904903237900000,14.830900146484375,-1.2313871383666992,3.073408603668213,4.579142093658447
1701904903254892500,14.847892578125,-1.4590061902999878,3.4279189109802246,5.250568866729736
1701904903271871200,14.864871337890625,-1.5865209102630615,3.8292293548583984,5.854773998260498
1701904903288872700,14.881872802734375,-1.742966651916504,3.9761881828308105,6.574290752410889
1701904903305869800,14.898869873046875,-1.9906959533691406,3.8489513397216797,7.273640155792236
1701904903322858200,14.915858154296876,-2.382580280303955,3.7525763511657715,7.667291164398193
1701904903339850800,14.932850830078126,-2.8852574825286865,3.7507481575012207,7.789134502410889
1701904903356842000,14.949842041015625,-3.516983985900879,3.734799385070801,7.843942642211914
1701904903373831000,14.966830810546876,-4.1055521965026855,3.477809429168701,7.806957721710205
1701904903390825500,14.983825439453126,-4.201616287231445,2.6909074783325195,7.9127726554870605
1701904903407814700,15.000814697265625,-3.710665702819824,1.8532662391662598,7.877248764038086
1701904903424811800,15.017811767578126,-3.1027753353118896,0.7438669204711914,8.025050163269043
1701904903441801000,15.034801025390625,-2.3374760150909424,0.0045032501220703125,8.061176300048828
1701904903458792200,15.051792236328126,-1.5492123365402222,0.11545181274414062,7.593180179595947
1701904903475783400,15.068783447265625,-1.0200755596160889,0.6935992240905762,6.818512439727783
1701904903492770800,15.085770751953126,-0.6286431550979614,1.0350499153137207,6.094101428985596
1701904903509776600,15.102776611328125,-0.18955868482589722,0.7376232147216797,5.552129745483398
1701904903526755600,15.119755615234375,0.370615690946579,-0.23308467864990234,5.304274559020996
1701904903543753700,15.136753662109374,0.8097867965698242,-1.4081830978393555,4.9254536628723145
1701904903560739000,15.153739013671874,1.1844725608825684,-2.2569499015808105,3.9605894088745117
1701904903577734400,15.170734375,1.7120552062988281,-2.3847432136535645,2.6051363945007324
1701904903594715100,15.187715087890625,2.3576130867004395,-2.1028995513916016,1.3951292037963867
1701904903611707400,15.204707275390625,2.8408045768737793,-1.5777673721313477,0.3726315498352051
1701904903628709000,15.221709228515625,3.090656280517578,-1.1072463989257812,-0.3849186897277832
1701904903645701400,15.238701416015624,3.027277708053589,-0.7619786262512207,-0.9515705108642578
1701904903662692400,15.2556923828125,2.5969934463500977,-0.5338969230651855,-1.4299397468566895
1701904903679684600,15.2726845703125,2.0847651958465576,-0.4321708679199219,-1.8180122375488281
1701904903696676000,15.289676025390625,1.7737520933151245,-0.36173582077026367,-2.0972752571105957
1701904903713668000,15.306668212890624,1.6776255369186401,-0.3258829116821289,-2.3124618530273438
1701904903730659000,15.3236591796875,1.8961701393127441,-0.3119978904724121,-2.5399928092956543
1701904903747651300,15.3406513671875,2.3819007873535156,-0.29965829849243164,-2.608126640319824
1701904903764642800,15.357642822265625,2.8531599044799805,-0.30411529541015625,-2.643474578857422
1701904903781634600,15.374634521484374,3.285048723220825,-0.42592477798461914,-2.7052054405212402
1701904903798623200,15.391623291015625,3.759117841720581,-0.6601448059082031,-2.780074119567871
1701904903815620900,15.408620849609376,4.222054958343506,-0.9724838733673096,-3.0044455528259277
1701904903832609000,15.425609130859375,4.680661678314209,-1.2509281635284424,-3.258596897125244
1701904903849601800,15.442601806640624,4.995336532592773,-1.7461559772491455,-3.3299832344055176
1701904903866592500,15.459592529296875,5.083364009857178,-2.401049852371216,-3.255537986755371
1701904903883581700,15.476581787109374,5.078883647918701,-3.2074482440948486,-2.822056770324707
1701904903900576000,15.493575927734375,4.92766809463501,-3.610269546508789,-2.6679201126098633
1701904903917568000,15.510568115234374,4.5133280754089355,-3.993917942047119,-2.3784584999084473
1701904903934559500,15.5275595703125,4.204041481018066,-4.079538345336914,-2.2937450408935547
1701904903951545000,15.544545166015626,3.903212070465088,-4.164847373962402,-2.073908805847168
1701904903968542700,15.561542724609374,3.472498893737793,-4.032883167266846,-1.7062835693359375
1701904903985535200,15.57853515625,2.4390196800231934,-4.042839527130127,-1.002495288848877
1701904904002526200,15.595526123046875,1.2762669324874878,-4.293750762939453,-0.5070886611938477
1701904904019518500,15.6125185546875,0.4683384895324707,-4.46682071685791,-0.6843137741088867
1701904904036509000,15.629509033203124,0.5195690393447876,-4.172875881195068,-1.5478320121765137
1701904904053502700,15.646502685546874,1.1122316122055054,-3.408831834793091,-2.1460185050964355
1701904904070489900,15.66348974609375,1.6613682508468628,-2.4322404861450195,-2.0050835609436035
1701904904087485200,15.680485107421875,1.572129726409912,-1.995671272277832,-1.246375560760498
1701904904104476400,15.697476318359374,0.9786978960037231,-2.079087734222412,-0.12274646759033203
1701904904121460700,15.714460693359374,0.4039180874824524,-2.172219753265381,0.5210990905761719
1701904904138459600,15.731459716796875,-0.2513202428817749,-2.260765552520752,0.6256313323974609
1701904904155452000,15.748451904296875,-0.6458186507225037,-2.0202994346618652,0.5878486633300781
1701904904172443100,15.765443115234374,-1.1218349933624268,-1.3369879722595215,0.48072338104248047
1701904904189435100,15.78243505859375,-1.807598352432251,-0.5240287780761719,0.6524624824523926
1701904904206426400,15.79942626953125,-2.415464401245117,0.45191097259521484,1.2318854331970215
1701904904223419000,15.8164189453125,-2.640005111694336,1.5522003173828125,1.6328444480895996
1701904904240409900,15.833409912109374,-2.7252111434936523,2.234104633331299,1.9976649284362793
1701904904257402400,15.85040234375,-2.6487345695495605,2.4860339164733887,2.421414375305176
1701904904274393000,15.86739306640625,-2.3415746688842773,2.5647215843200684,2.730088710784912
1701904904291385600,15.884385498046875,-2.0537819862365723,2.637528419494629,2.8746137619018555
1701904904308376600,15.90137646484375,-1.9511052370071411,2.751741409301758,3.0909409523010254
1701904904325368800,15.918368896484376,-2.056511402130127,2.8426413536071777,3.322795867919922
1701904904342360300,15.9353603515625,-2.304468870162964,2.88137149810791,3.614321231842041
1701904904359352000,15.95235205078125,-2.6235945224761963,2.942446708679199,3.9226536750793457
1701904904376343600,15.969343505859374,-3.08475923538208,3.00844669342041,4.155237674713135
1701904904393332500,15.98633251953125,-3.376986503601074,3.0755820274353027,4.446948051452637
1701904904410316300,16.00331640625,-3.3861584663391113,3.0386695861816406,4.878044128417969
1701904904427313200,16.020313232421874,-3.231433391571045,2.8905982971191406,5.414093494415283
1701904904444310000,16.03731005859375,-3.1416192054748535,2.622133255004883,5.901671409606934
1701904904461302300,16.05430224609375,-3.1583638191223145,2.284942626953125,6.342498779296875
1701904904478291200,16.071291259765626,-3.222494602203369,2.244871139526367,6.475975513458252
1701904904495285800,16.08828564453125,-3.218660354614258,2.4734606742858887,6.428136825561523
1701904904512266500,16.1052666015625,-3.0497701168060303,2.4107112884521484,6.533250331878662
1701904904529266700,16.1222666015625,-2.8011655807495117,1.973684310913086,6.633630752563477
1701904904546262800,16.1392626953125,-2.604001522064209,1.3093552589416504,6.512845516204834
1701904904563252500,16.15625244140625,-2.3691389560699463,0.49358367919921875,6.371120452880859
1701904904580239600,16.173239501953127,-1.9448082447052002,-0.4052300453186035,6.2290568351745605
1701904904597224000,16.190223876953127,-1.2955149412155151,-0.8735775947570801,5.768682479858398
1701904904614219300,16.20721923828125,-0.48661720752716064,-0.8826117515563965,5.168818473815918
1701904904631219200,16.22421923828125,0.1346256136894226,-0.5294013023376465,4.552416801452637
1701904904648210000,16.2412099609375,0.5577898025512695,-0.4496431350708008,4.301937580108643
1701904904665204200,16.258204345703124,0.7092195749282837,-0.7606201171875,4.121651649475098
1701904904682193400,16.275193359375,0.8072993755340576,-1.3866944313049316,3.931429386138916
1701904904699186000,16.29218603515625,1.0574164390563965,-2.0563621520996094,3.4833412170410156
1701904904716177000,16.309177001953124,1.4139715433120728,-2.280247688293457,2.752800464630127
1701904904733159200,16.3261591796875,1.7680600881576538,-1.9917569160461426,2.0067505836486816
1701904904750161000,16.343160888671875,2.1748268604278564,-1.335172176361084,1.2164483070373535
1701904904767152000,16.360152099609376,2.6148552894592285,-0.5882525444030762,0.4653458595275879
1701904904784145000,16.377144775390626,2.8071746826171875,-0.007939815521240234,-0.1744379997253418
1701904904801136400,16.394136474609375,2.8304443359375,0.2376728057861328,-0.7461018562316895
1701904904818127400,16.41112744140625,2.6899116039276123,0.2725405693054199,-1.3093323707580566
1701904904835119600,16.42811962890625,2.552206039428711,0.11569023132324219,-1.8216662406921387
1701904904852096500,16.445096435546876,2.4586100578308105,-0.15862417221069336,-2.2984089851379395
1701904904869102800,16.462102783203125,2.511673927307129,-0.5176873207092285,-2.755673885345459
1701904904886097000,16.479096923828124,2.6539347171783447,-0.9222412109375,-3.220029354095459
1701904904903083300,16.496083251953124,3.0319430828094482,-1.1295533180236816,-3.726287841796875
1701904904920073000,16.513072998046876,3.429811716079712,-1.253556489944458,-4.14853572845459
1701904904937072400,16.530072265625,3.5325112342834473,-1.1792263984680176,-4.5194196701049805
1701904904954061000,16.54706103515625,3.374265432357788,-1.2452821731567383,-4.747082233428955
1701904904971050000,16.564050048828125,3.538670063018799,-1.512134075164795,-4.712891578674316
1701904904988041500,16.58104150390625,4.114810943603516,-2.0415337085723877,-4.218473434448242
1701904905005039400,16.598039306640626,4.466510772705078,-2.79219388961792,-3.3799185752868652
1701904905022017000,16.61501708984375,4.512686252593994,-3.5436387062072754,-2.6666598320007324
1701904905039009800,16.632009765625,4.408740997314453,-3.9405806064605713,-2.5280098915100098
1701904905056011300,16.64901123046875,4.131208896636963,-4.14828634262085,-2.4349775314331055
1701904905072993300,16.6659931640625,3.832371473312378,-4.349745273590088,-2.0403761863708496
1701904905089994200,16.682994140625,3.2947750091552734,-4.157104015350342,-1.741166591644287
1701904905106987500,16.699987548828126,2.62619948387146,-3.981343984603882,-1.4022254943847656
1701904905123978000,16.71697802734375,1.6575300693511963,-4.25356388092041,-1.4652795791625977
1701904905140970200,16.73397021484375,0.7298973798751831,-4.579301834106445,-2.3023738861083984
1701904905157959000,16.750958984375,0.7419941425323486,-4.659985542297363,-3.014831066131592
1701904905174945500,16.767945556640626,1.2578678131103516,-4.118680953979492,-2.919426441192627
1701904905191934700,16.784934814453123,1.4165706634521484,-3.245420455932617,-1.5803403854370117
1701904905208926200,16.80192626953125,0.6609925627708435,-2.29813814163208,-0.2426013946533203
1701904905225919200,16.818919189453126,-0.7366083860397339,-1.786837100982666,0.8109912872314453
1701904905242911000,16.835910888671876,-1.8819031715393066,-1.6063446998596191,1.2426748275756836
1701904905259902700,16.85290283203125,-2.1529593467712402,-1.5191807746887207,1.2445521354675293
1701904905276906000,16.869906005859374,-1.7734808921813965,-1.4836740493774414,1.4260497093200684
1701904905293891600,16.8868916015625,-1.8196122646331787,-1.170196533203125,1.577937126159668
1701904905310876400,16.90387646484375,-2.4281728267669678,-0.47817420959472656,1.4562749862670898
1701904905327875600,16.92087548828125,-3.102741241455078,0.5873699188232422,1.3761944770812988
1701904905344873000,16.937873046875,-3.5219151973724365,1.7669057846069336,1.5331335067749023
1701904905361861600,16.954861572265624,-3.491830348968506,2.744856834411621,1.6569809913635254
1701904905378843100,16.971843017578124,-2.9659905433654785,3.334932327270508,1.8133149147033691
1701904905395844400,16.98884423828125,-2.3062658309936523,3.4494423866271973,1.9417657852172852
1701904905412832000,17.00583203125,-1.5146121978759766,3.2924375534057617,2.207522392272949
1701904905429831000,17.022830810546875,-1.1264641284942627,3.092811107635498,2.5035529136657715
1701904905446811100,17.03981103515625,-1.2168610095977783,3.064589500427246,2.6859278678894043
1701904905463811800,17.056811767578125,-1.5623118877410889,3.1325020790100098,2.7472381591796875
1701904905480801000,17.073801025390626,-1.865170955657959,3.149956226348877,2.7578940391540527
1701904905497795000,17.090795166015624,-1.9150538444519043,3.079765796661377,3.155550003051758
1701904905514787300,17.107787353515626,-1.7702546119689941,3.171891212463379,3.7170262336730957
1701904905531778600,17.124778564453123,-1.6758480072021484,3.3513145446777344,4.3998003005981445
1701904905548770600,17.1417705078125,-1.754624843597412,3.4563894271850586,4.903059482574463
1701904905565762000,17.158761962890626,-1.7829396724700928,3.3633790016174316,5.2973737716674805
1701904905582754300,17.17575439453125,-1.8245216608047485,2.982668399810791,5.6520676612854
1701904905599745500,17.19274560546875,-1.8200898170471191,2.5830960273742676,5.825087547302246
1701904905616737800,17.20973779296875,-1.8458430767059326,2.3168840408325195,5.8282952308654785
1701904905633728500,17.226728515625,-1.9537932872772217,2.2943286895751953,5.656266689300537
1701904905650720800,17.243720703125,-2.0718994140625,1.879343032836914,5.7198309898376465
1701904905667700000,17.260699951171876,-1.9739363193511963,1.0356202125549316,5.8398542404174805
1701904905684705500,17.27770556640625,-1.7067941427230835,0.06164407730102539,5.781100749969482
1701904905701693000,17.29469287109375,-1.333267092704773,-1.1702656745910645,5.872974395751953
1701904905718690000,17.31168994140625,-0.9639521837234497,-2.150704860687256,5.871140003204346
1701904905735679200,17.32867919921875,-0.6302270889282227,-2.292269706726074,5.254775047302246
1701904905752671000,17.3456708984375,-0.4567232131958008,-1.7804169654846191,4.3075337409973145
1701904905769662200,17.362662109375,0.002023935317993164,-1.2931151390075684,3.6631717681884766
1701904905786654500,17.379654541015626,0.6415015459060669,-1.2587943077087402,3.2044506072998047
1701904905803642600,17.396642578125,1.215627670288086,-1.9571170806884766,3.0316405296325684
1701904905820638000,17.413637939453125,1.66488778591156,-2.8955259323120117,2.8543734550476074
1701904905837629200,17.430629150390626,1.9515109062194824,-3.2290306091308594,2.318014621734619
1701904905854621400,17.447621337890624,1.9731261730194092,-2.7788052558898926,1.48494291305542
1701904905871609600,17.464609619140624,1.9174631834030151,-2.0012173652648926,0.7776241302490234
1701904905888597800,17.48159765625,1.8168919086456299,-1.0264735221862793,-0.0009717941284179688
1701904905905585200,17.498585205078125,1.7022511959075928,-0.2987394332885742,-0.6749730110168457
1701904905922569000,17.51556884765625,1.5969603061676025,0.15042543411254883,-1.4431285858154297
1701904905939569400,17.5325693359375,1.637115716934204,0.2345261573791504,-2.1868185997009277
1701904905956563500,17.5495634765625,1.6641918420791626,0.037339210510253906,-2.7900452613830566
1701904905973552600,17.566552734375,1.792907476425171,-0.3197774887084961,-3.2616748809814453
1701904905990553600,17.5835537109375,1.8693068027496338,-0.6975116729736328,-3.6394004821777344
1701904906007537700,17.60053759765625,2.090651035308838,-1.0061259269714355,-4.034029483795166
1701904906024528100,17.617528076171876,2.2616019248962402,-1.3247904777526855,-4.478600025177002
1701904906041526800,17.63452685546875,2.5687947273254395,-1.5442235469818115,-4.849412441253662
1701904906058512400,17.651512451171875,2.9057507514953613,-1.5984461307525635,-5.187719345092773
1701904906075505400,17.66850537109375,3.205657482147217,-1.8122305870056152,-5.179319381713867
1701904906092494000,17.685494140625,3.4424238204956055,-2.228769063949585,-4.7284464836120605
1701904906109487400,17.7024873046875,3.6667699813842773,-2.376664400100708,-4.014479637145996
1701904906126480400,17.71948046875,3.719472885131836,-2.7222414016723633,-3.075697898864746
1701904906143469300,17.73646923828125,3.185239791870117,-3.3641016483306885,-2.4538145065307617
1701904906160461000,17.7534609375,2.5740113258361816,-4.112018585205078,-2.286311149597168
1701904906177458200,17.770458251953126,2.2669146060943604,-4.686495780944824,-2.443326950073242
1701904906194446800,17.78744677734375,2.327838659286499,-4.9032182693481445,-2.6657180786132812
1701904906211448000,17.804447998046875,2.336904287338257,-4.9761199951171875,-2.588529109954834
1701904906228438800,17.821438720703124,2.1695752143859863,-4.85809326171875,-2.1087818145751953
1701904906245429800,17.8384296875,1.7054826021194458,-4.629939079284668,-1.519454002380371
1701904906262421800,17.855421875,0.9714107513427734,-4.88942813873291,-0.9213333129882812
1701904906279413000,17.8724130859375,0.3231467008590698,-5.129807949066162,-0.6414070129394531
1701904906296405200,17.8894052734375,-0.03041994571685791,-4.618467330932617,-1.09407377243042
1701904906313393200,17.90639306640625,0.20767569541931152,-3.6968321800231934,-1.392207145690918
1701904906330388700,17.923388671875,0.4397658109664917,-2.777207374572754,-1.0340633392333984
1701904906347379700,17.940379638671875,0.28487253189086914,-2.1878747940063477,0.02696704864501953
1701904906364372200,17.957372314453124,-0.12991607189178467,-1.9378504753112793,1.25732421875
1701904906381363200,17.97436328125,-0.6077855229377747,-1.6931228637695312,1.8167304992675781
1701904906398352600,17.9913525390625,-0.8901447653770447,-1.4730501174926758,1.322342872619629
1701904906415349200,18.008349365234373,-0.7702417373657227,-1.287804126739502,0.7667760848999023
1701904906432339000,18.0253388671875,-0.5756566524505615,-0.5347685813903809,0.24534130096435547
1701904906449321000,18.042321044921874,-0.6133682727813721,0.43709230422973633,0.29849958419799805
1701904906466322400,18.059322509765625,-1.01980721950531,1.3875560760498047,0.7527923583984375
1701904906483313400,18.0763134765625,-1.5564366579055786,2.278110980987549,1.6029648780822754
1701904906500301600,18.093301513671875,-1.982914686203003,3.0046334266662598,2.1408286094665527
1701904906517294800,18.110294921875,-2.3960211277008057,3.3648741245269775,2.2421936988830566
1701904906534291700,18.127291748046876,-2.731637477874756,3.3698055744171143,2.0097532272338867
1701904906551284500,18.144284423828125,-2.812659502029419,3.1989662647247314,1.6372976303100586
1701904906568271600,18.161271728515626,-2.630138874053955,2.987278461456299,1.4886980056762695
1701904906585266700,18.1782666015625,-2.405226230621338,2.7789411544799805,1.7281441688537598
1701904906602253800,18.19525390625,-2.357623338699341,2.7828497886657715,2.3603243827819824
1701904906619246800,18.212246826171874,-2.6209020614624023,2.887065887451172,2.835435390472412
1701904906636239600,18.229239501953124,-2.9901819229125977,3.058615207672119,2.8885498046875
1701904906653220000,18.24622021484375,-2.996217727661133,3.008018970489502,3.1178359985351562
1701904906670220000,18.263219970703126,-2.934272050857544,2.7152657508850098,3.5075583457946777
1701904906687215600,18.280215576171877,-2.7747597694396973,2.2945404052734375,4.0928635597229
1701904906704206800,18.297206787109374,-2.6250181198120117,1.8943090438842773,4.501262187957764
1701904906721194500,18.314194580078127,-2.5428433418273926,1.7031006813049316,4.742311000823975
1701904906738192100,18.331192138671874,-2.47879695892334,1.5938410758972168,5.0803704261779785
1701904906755180500,18.3481806640625,-2.377802848815918,1.3255515098571777,5.435588836669922
1701904906772163600,18.36516357421875,-2.3677968978881836,0.638026237487793,5.700516700744629
1701904906789163800,18.382163818359373,-2.3260624408721924,-0.22077322006225586,5.866273880004883
1701904906806148600,18.399148681640625,-2.2527074813842773,-1.389350414276123,6.264568328857422
1701904906823144200,18.416144287109375,-1.9927561283111572,-2.329103469848633,6.643470764160156
1701904906840139500,18.433139404296874,-1.5502158403396606,-2.5329365730285645,6.534682273864746
1701904906857130800,18.450130859375,-0.846563458442688,-1.7025365829467773,5.860339641571045
1701904906874123300,18.467123291015625,-0.13557517528533936,-0.8411130905151367,5.262243270874023
1701904906891111200,18.484111083984374,0.3640071749687195,-0.5216641426086426,4.80935001373291
1701904906908106000,18.50110595703125,0.7108385562896729,-1.0378198623657227,4.599807262420654
1701904906925097500,18.518097412109373,0.8858330845832825,-1.9082231521606445,4.328623294830322
1701904906942089700,18.53508984375,0.7456578016281128,-2.4968671798706055,3.774171829223633
1701904906959081000,18.5520810546875,0.5521406531333923,-2.4804158210754395,2.649350166320801
1701904906976072400,18.569072509765626,0.6135330200195312,-2.135875701904297,1.563746452331543
1701904906993051000,18.58605078125,0.9289035797119141,-1.586744785308838,0.4878664016723633
1701904907010053400,18.603053466796876,1.179997444152832,-1.2153172492980957,-0.4879627227783203
1701904907027048200,18.620048095703126,1.3849914073944092,-0.9726982116699219,-1.423914909362793
1701904907044037400,18.637037353515623,1.5473605394363403,-0.8648204803466797,-2.3196210861206055
1701904907061033500,18.654033447265626,1.677976131439209,-0.822169303894043,-3.2200965881347656
1701904907078022400,18.6710224609375,1.8719184398651123,-0.8673751354217529,-3.973977565765381
1701904907095015200,18.68801513671875,1.9608302116394043,-1.0370893478393555,-4.5962395668029785
1701904907112006700,18.705006591796874,2.0517892837524414,-1.3200323581695557,-5.134527683258057
1701904907128995300,18.721995361328126,2.1320013999938965,-1.652195930480957,-5.578763961791992
1701904907145993000,18.738992919921873,2.2309210300445557,-1.9738800525665283,-6.0095038414001465
1701904907162981000,18.755981201171874,2.320037364959717,-2.281553268432617,-6.385101795196533
1701904907179973400,18.772973388671875,2.539614677429199,-2.488380193710327,-6.581421852111816
1701904907196958700,18.789958740234376,2.7164673805236816,-2.640733003616333,-6.492644309997559
1701904907213953500,18.80695361328125,2.9021148681640625,-2.814164400100708,-5.800476551055908
1701904907230948000,18.823947998046876,3.1193699836730957,-2.9982752799987793,-4.767938137054443
1701904907247940600,18.840940673828126,3.1252503395080566,-3.319000720977783,-3.757263660430908
1701904907264930800,18.857930908203127,2.869813919067383,-3.9406850337982178,-2.8857474327087402
1701904907281925000,18.874925048828125,2.511017322540283,-4.637388229370117,-2.2504873275756836
1701904907298914800,18.891914794921874,2.336343288421631,-5.1639485359191895,-1.7574272155761719
1701904907315907000,18.908906982421875,2.208383083343506,-5.227438926696777,-1.2715787887573242
1701904907332895000,18.92589501953125,1.9236299991607666,-4.947989463806152,-0.7130851745605469
1701904907349890600,18.942890625,1.4841902256011963,-4.62019157409668,-0.5269241333007812
1701904907366881500,18.959881591796876,1.1185365915298462,-4.604239463806152,-0.4308147430419922
1701904907383874000,18.9768740234375,1.039409875869751,-4.740869522094727,-0.4857921600341797
1701904907400862000,18.993862060546874,1.014176607131958,-4.7908759117126465,-0.8335161209106445
1701904907417857000,19.01085693359375,1.3520780801773071,-4.045309543609619,-1.3981575965881348
1701904907434848300,19.02784814453125,1.546834945678711,-3.103396415710449,-1.3215880393981934
1701904907451840500,19.044840576171875,1.292961835861206,-2.344331979751587,-0.7062997817993164
1701904907468829200,19.0618291015625,0.6282820701599121,-1.8779025077819824,0.15268421173095703
1701904907485826300,19.078826416015627,-0.3184983730316162,-1.7123088836669922,0.9118614196777344
1701904907502815700,19.095815673828124,-1.1153228282928467,-1.6660985946655273,1.1043615341186523
1701904907519807500,19.112807373046873,-1.5365626811981201,-1.6090173721313477,0.8975801467895508
1701904907536798700,19.129798828125,-1.4011011123657227,-1.232201099395752,0.511631965637207
1701904907553790700,19.146790771484376,-0.8955288529396057,-0.4574594497680664,0.3415718078613281
1701904907570781700,19.16378173828125,-0.5394924879074097,0.4114408493041992,0.6509184837341309
1701904907587773200,19.180773193359375,-0.6826468110084534,1.4882206916809082,1.2937731742858887
1701904907604773000,19.197773193359374,-1.3575811386108398,2.5251007080078125,1.4302325248718262
1701904907621768700,19.214768798828125,-2.0674548149108887,3.099992513656616,1.4159493446350098
1701904907638748700,19.231748779296876,-2.4031190872192383,3.2343709468841553,1.5590734481811523
1701904907655737300,19.2487373046875,-2.2233216762542725,3.1289021968841553,1.7282681465148926
1701904907672736000,19.265736083984375,-1.721740484237671,2.8745970726013184,1.9532008171081543
1701904907689724200,19.28272412109375,-1.4777648448944092,2.7499094009399414,2.076289176940918
1701904907706715400,19.29971533203125,-1.4437578916549683,2.8417773246765137,2.242809772491455
1701904907723704600,19.31670458984375,-1.687398910522461,2.991377830505371,2.5607047080993652
1701904907740699000,19.333698974609376,-1.99478018283844,2.9405150413513184,3.1278724670410156
1701904907757691000,19.35069091796875,-2.004737615585327,2.9790706634521484,3.7585082054138184
1701904907774682600,19.3676826171875,-1.9717893600463867,2.8052115440368652,4.336395740509033
1701904907791670000,19.384669921875,-1.990042805671692,2.4318594932556152,4.78704833984375
1701904907808665600,19.40166552734375,-1.9671125411987305,2.085970401763916,5.1474714279174805
1701904907825657900,19.418657958984376,-2.009242534637451,1.9920001029968262,5.503174304962158
1701904907842650400,19.435650390625,-2.1224939823150635,2.3293771743774414,5.932698726654053
1701904907859639000,19.45263916015625,-2.3175177574157715,2.539127826690674,6.35214900970459
1701904907876633300,19.46963330078125,-2.6746394634246826,2.1670713424682617,6.751932621002197
1701904907893614300,19.4866142578125,-2.726198673248291,1.3563103675842285,6.813429832458496
1701904907910612700,19.50361279296875,-2.567857503890991,0.31295299530029297,6.878149032592773
1701904907927611400,19.520611328125,-2.3476614952087402,-0.7129831314086914,6.985967636108398
1701904907944595700,19.537595703125,-1.9767882823944092,-1.0957212448120117,6.96155309677124
1701904907961591300,19.55459130859375,-1.5946590900421143,-0.49718189239501953,6.398988723754883
1701904907978578400,19.571578369140624,-1.174383282661438,0.3301215171813965,5.602055549621582
1701904907995575000,19.588574951171875,-0.6891709566116333,0.6596436500549316,4.94357442855835
1701904908012566000,19.60556591796875,-0.10735827684402466,0.15290164947509766,4.549493312835693
1701904908029558000,19.62255810546875,0.31749749183654785,-0.884650707244873,4.160953044891357
1701904908046538800,19.639538818359377,0.5581609010696411,-1.7942633628845215,3.522484302520752
1701904908063541500,19.65654150390625,0.6992149949073792,-2.0796189308166504,2.441707134246826
1701904908080531000,19.673531005859374,0.7403221130371094,-1.7530570030212402,1.2685680389404297
1701904908097525800,19.69052587890625,0.786184549331665,-1.164360523223877,0.3710150718688965
1701904908114517000,19.70751708984375,0.854433536529541,-0.5092658996582031,-0.36891889572143555
1701904908131508200,19.72450830078125,0.8431156277656555,-0.07613182067871094,-0.9748449325561523
1701904908148499700,19.741499755859376,0.7506893873214722,0.1602783203125,-1.4314441680908203
1701904908165491500,19.758491455078126,0.7379426956176758,0.264554500579834,-1.8516502380371094
1701904908182483000,19.77548291015625,0.7904473543167114,0.13494396209716797,-2.2151975631713867
1701904908199475200,19.79247509765625,0.9639689922332764,-0.1116018295288086,-2.6100220680236816
1701904908216466400,19.809466552734374,1.2043226957321167,-0.4995536804199219,-3.0921130180358887
1701904908233455400,19.826455322265623,1.4773857593536377,-0.9587874412536621,-3.6510391235351562
1701904908250450000,19.843449951171873,1.8176302909851074,-1.413346529006958,-4.2005815505981445
1701904908267442000,19.86044189453125,2.241751194000244,-1.7015376091003418,-4.751885414123535
1701904908284433200,19.87743310546875,2.851893901824951,-1.845560073852539,-5.143026828765869
1701904908301422800,19.8944228515625,3.5180606842041016,-2.0749311447143555,-5.243485450744629
1701904908318427600,19.911427734375,4.018845558166504,-2.201181173324585,-5.076335430145264
1701904908335405600,19.928405517578124,4.169224739074707,-2.6135828495025635,-4.348759651184082
1701904908352397300,19.945397216796874,3.7304739952087402,-3.0695407390594482,-3.591662883758545
1701904908369394700,19.962394775390624,2.8606839179992676,-3.623662233352661,-2.8911519050598145
1701904908386383000,19.979383056640625,2.179697275161743,-3.922194719314575,-2.6027979850769043
1701904908403375600,19.996375732421875,2.0057926177978516,-4.3289570808410645,-2.254363536834717
1701904908420363000,20.013363037109375,2.2017667293548584,-4.578612327575684,-1.742985725402832
1701904908437359600,20.030359619140626,2.0036988258361816,-4.712958335876465,-1.4722895622253418
1701904908454350000,20.04735009765625,1.4703351259231567,-4.79315185546875,-1.280817985534668
1701904908471342000,20.064342041015625,1.0735175609588623,-5.224506855010986,-1.1326932907104492
1701904908488332300,20.081332275390626,1.0537405014038086,-5.539218425750732,-1.3140602111816406
1701904908505326600,20.09832666015625,1.4552454948425293,-5.303382873535156,-2.0926408767700195
1701904908522306300,20.115306396484375,1.9991283416748047,-4.58267879486084,-2.8397469520568848
1701904908539309300,20.132309326171875,2.3618788719177246,-3.823129892349243,-2.617900848388672
1701904908556300500,20.149300537109376,2.05434250831604,-3.4332704544067383,-1.26820707321167
1701904908573282000,20.166281982421875,1.300735592842102,-3.1659798622131348,-0.12018394470214844
1701904908590283500,20.183283447265627,0.5038002729415894,-2.8870792388916016,0.256439208984375
1701904908607273000,20.20027294921875,0.016418933868408203,-2.6918468475341797,0.12412834167480469
1701904908624269600,20.21726953125,-0.17112356424331665,-2.1827054023742676,-0.26950740814208984
1701904908641259300,20.23425927734375,-0.0587119460105896,-1.2133073806762695,-0.5725951194763184
1701904908658248000,20.251248046875,-0.2690878212451935,-0.14142513275146484,-0.32634973526000977
1701904908675232300,20.268232177734376,-0.8652102947235107,0.9751262664794922,-0.1185755729675293
1701904908692223200,20.28522314453125,-1.454242467880249,1.899609088897705,0.13066530227661133
1701904908709226000,20.30222607421875,-1.8689725399017334,2.549654483795166,0.30231142044067383
1701904908726213600,20.319213623046874,-2.1100172996520996,2.611631155014038,0.39510488510131836
1701904908743199000,20.336198974609374,-2.017866849899292,2.4437928199768066,0.4905991554260254
1701904908760188700,20.353188720703123,-1.811133861541748,2.2185306549072266,0.6847543716430664
1701904908777187300,20.370187255859374,-1.8000552654266357,2.0399117469787598,1.1200881004333496
1701904908794175200,20.38717529296875,-1.9900972843170166,2.0939645767211914,1.6765413284301758
1701904908811167700,20.404167724609376,-2.3275482654571533,2.0999655723571777,2.1122941970825195
1701904908828167200,20.421167236328124,-2.624154806137085,2.2107834815979004,2.4013724327087402
1701904908845151500,20.4381513671875,-2.7399823665618896,2.2230305671691895,2.9576826095581055
1701904908862153200,20.4551533203125,-2.6892313957214355,2.056870937347412,3.7339720726013184
1701904908879143200,20.47214306640625,-2.5298550128936768,1.806973934173584,4.584291458129883
1701904908896127000,20.489126953125,-2.49715256690979,1.8328399658203125,5.383632183074951
1701904908913115600,20.50611572265625,-2.7942440509796143,2.183013916015625,5.89744234085083
1701904908930118100,20.5231181640625,-3.2120752334594727,2.5459980964660645,6.475561141967773
1701904908947108600,20.540108642578126,-3.4650979042053223,2.2891669273376465,7.437914848327637
1701904908964102700,20.5571025390625,-3.5135064125061035,1.3963088989257812,8.28986930847168
1701904908981083000,20.574082763671875,-3.325286865234375,0.6938095092773438,8.304773330688477
1701904908998083300,20.591083251953126,-3.118896961212158,-0.042110443115234375,8.377815246582031
1701904909015077400,20.608077392578124,-2.999044418334961,-0.5098886489868164,8.489042282104492
1701904909032055300,20.62505517578125,-2.7322750091552734,-0.4694643020629883,8.238499641418457
1701904909049059600,20.6420595703125,-2.139369010925293,-0.001430511474609375,7.642284393310547
1701904909066048800,20.659048828125,-1.4288151264190674,0.1705765724182129,7.060702323913574
1701904909083046000,20.6760458984375,-0.5987221002578735,-0.14504623413085938,6.4322004318237305
1701904909100031200,20.69303125,0.29459148645401,-0.9469447135925293,5.868003845214844
1701904909117026600,20.710026611328125,0.9884681105613708,-1.8712992668151855,5.273475646972656
1701904909134014700,20.7270146484375,1.3735945224761963,-2.4042344093322754,4.502117156982422
1701904909150999600,20.74399951171875,1.330397129058838,-2.337355136871338,3.482731342315674
1701904909167998500,20.76099853515625,1.2963380813598633,-1.7437119483947754,2.1815109252929688
1701904909184977700,20.777977783203124,1.4752857685089111,-1.0131220817565918,0.9057307243347168
1701904909201984500,20.794984619140624,2.2904269695281982,-0.531580924987793,-0.2739882469177246
1701904909218977000,20.81197705078125,3.205106496810913,-0.09157323837280273,-1.2385401725769043
1701904909235968000,20.828968017578124,3.05185604095459,-0.08353757858276367,-1.9544391632080078
1701904909252957200,20.845957275390624,2.3515684604644775,-0.3116116523742676,-2.5235743522644043
1701904909269951200,20.862951171875,1.8377270698547363,-0.45964765548706055,-3.239771842956543
1701904909286943700,20.87994384765625,1.7234241962432861,-0.6200051307678223,-3.884695529937744
1701904909303934700,20.896934814453125,1.8956217765808105,-0.8504633903503418,-4.378011226654053
1701904909320924000,20.913923828125,2.074913501739502,-1.123352289199829,-4.766193866729736
1701904909337918000,20.93091796875,2.2298202514648438,-1.4108338356018066,-5.02457332611084
1701904909354910200,20.94791015625,2.413100242614746,-1.702134370803833,-5.184291839599609
1701904909371903200,20.9649033203125,2.696591377258301,-1.9447355270385742,-5.303581237792969
1701904909388891000,20.981890869140624,3.1075258255004883,-2.00374174118042,-5.342254638671875
1701904909405887500,20.998887451171875,3.3933777809143066,-2.301625967025757,-4.975433349609375
1701904909422877200,21.015877197265624,3.4283995628356934,-2.8735761642456055,-4.372775077819824
1701904909439859500,21.032859375,3.221405029296875,-3.7323145866394043,-3.699197292327881
1701904909456851700,21.049851806640625,2.970118522644043,-4.245757102966309,-3.455017566680908
1701904909473842000,21.066842041015626,2.921645402908325,-4.530651092529297,-3.342210292816162
1701904909490836700,21.083836669921876,2.9812426567077637,-4.860015869140625,-2.925968647003174
1701904909507823000,21.100822998046876,2.7982516288757324,-5.218536853790283,-2.1750311851501465
1701904909524820000,21.117820068359375,2.212846517562866,-5.312471866607666,-1.742762565612793
1701904909541810400,21.134810546875,1.671420693397522,-5.502997875213623,-1.3892321586608887
1701904909558803700,21.1518037109375,1.2160146236419678,-5.645794868469238,-1.4083151817321777
1701904909575795200,21.168795166015624,0.7900136709213257,-5.703049659729004,-1.9663023948669434
1701904909592784000,21.185783935546876,0.32358527183532715,-5.213354110717773,-2.679370403289795
1701904909609778700,21.20277880859375,-0.29486989974975586,-4.551013469696045,-2.5115551948547363
1701904909626769200,21.21976904296875,-0.7684428691864014,-3.7049474716186523,-1.5589475631713867
1701904909643759600,21.236759521484377,-0.9490110874176025,-3.1658248901367188,-0.35689735412597656
1701904909660750000,21.25375,-0.4802851676940918,-2.7101778984069824,0.40264129638671875
1701904909677745700,21.27074560546875,0.008533000946044922,-2.3467698097229004,0.5886926651000977
1701904909694735400,21.2877353515625,0.346055805683136,-2.0077881813049316,0.5417308807373047
1701904909711737600,21.304737548828125,0.4879157841205597,-1.2416791915893555,0.4576740264892578
1701904909728729000,21.32172900390625,0.37717899680137634,-0.31122636795043945,0.5829505920410156
1701904909745725700,21.3387255859375,0.1480356752872467,0.7217302322387695,0.9595232009887695
1701904909762713300,21.35571337890625,-0.2380765825510025,1.7819480895996094,1.6051955223083496
1701904909779702000,21.372701904296875,-0.6631515622138977,2.6491456031799316,2.0111823081970215
1701904909796694500,21.389694580078125,-1.1905145645141602,3.1365346908569336,2.072145462036133
1701904909813685500,21.406685546875,-1.7169476747512817,3.224090099334717,1.9060535430908203
1701904909830674700,21.4236748046875,-1.9874061346054077,2.9841322898864746,1.6816601753234863
1701904909847666400,21.44066650390625,-1.7574577331542969,2.698093891143799,1.5840811729431152
1701904909864663800,21.457663818359375,-1.2538658380508423,2.4149136543273926,1.8505210876464844
1701904909881641700,21.474641845703125,-0.9021746516227722,2.3555970191955566,2.2069010734558105
1701904909898644200,21.491644287109374,-0.9629518985748291,2.380190849304199,2.424767017364502
1701904909915633200,21.508633056640626,-1.1675102710723877,2.50356388092041,2.762174129486084
1701904909932630500,21.525630615234373,-1.306814193725586,2.6625232696533203,3.1923880577087402
1701904909949619200,21.542619140625,-1.2210431098937988,2.695509910583496,3.862520217895508
1701904909966611500,21.559611572265624,-0.8298294544219971,2.562962532043457,4.63143253326416
1701904909983592000,21.576592041015626,-0.39902234077453613,2.366055965423584,5.280439853668213
