time,seconds_elapsed,z,y,x
1701097474390008300,0.15700830078125,-1.092970371246338,0.258394718170166,0.7419774532318115
1701097474407000300,0.174000244140625,-1.428541660308838,0.42977476119995117,0.9118340015411377
1701097474423987500,0.190987548828125,-0.8523168563842773,0.5080256462097168,0.8527289628982544
1701097474440979500,0.2079794921875,0.29390430450439453,0.38659191131591797,0.6038566827774048
1701097474457972200,0.22497216796875,0.7227573394775391,0.33816099166870117,0.41697752475738525
1701097474474962400,0.24196240234375,0.8161382675170898,0.2422962188720703,0.2708066701889038
1701097474491954400,0.258954345703125,0.34819889068603516,0.285642147064209,-0.5028053522109985
1701097474508948500,0.275948486328125,-0.8325986862182617,0.3952770233154297,-1.2513972520828247
1701097474525936600,0.2929365234375,-2.1846866607666016,0.6278243064880371,-1.566818118095398
1701097474542930400,0.309930419921875,-2.7074546813964844,0.9913272857666016,-1.454952359199524
1701097474559912000,0.326911865234375,-2.442676544189453,1.153200626373291,-1.231431007385254
1701097474576910000,0.34391015625,-1.6590590476989746,1.3466529846191406,-1.0637602806091309
1701097474593903400,0.3609033203125,-1.1881780624389648,1.3167791366577148,-1.111316442489624
1701097474610894600,0.37789453125,-0.7067399024963379,1.3275446891784668,-1.3009953498840332
1701097474627885800,0.3948857421875,-0.6992111206054688,1.5188899040222168,-1.4786620140075684
1701097474644874500,0.41187451171875,-1.2957301139831543,1.354219913482666,-1.4059741497039795
1701097474661869300,0.428869384765625,-2.281008243560791,1.2505545616149902,-1.4027931690216064
1701097474678848300,0.44584814453125,-3.0255465507507324,0.8769245147705078,-2.0102932453155518
1701097474695850200,0.462850341796875,-3.2683629989624023,0.2996053695678711,-2.705620288848877
1701097474712841500,0.479841552734375,-2.5733721256256104,-0.6194992065429688,-2.437998056411743
1701097474729833500,0.49683349609375,-1.3842415809631348,-1.4790520668029785,-2.8801116943359375
1701097474746825500,0.513825439453125,-1.0128827095031738,-2.1051602363586426,-3.4677717685699463
1701097474763813600,0.530813720703125,-2.1579856872558594,-2.5527758598327637,-4.127138614654541
1701097474780807200,0.54780712890625,-3.774625301361084,-3.3130176067352295,-4.334258079528809
1701097474797796400,0.56479638671875,-4.239032745361328,-3.9197511672973633,-4.334028244018555
1701097474814787300,0.581787353515625,-3.215769052505493,-4.563299179077148,-3.6381587982177734
1701097474831782100,0.5987822265625,-1.2915570735931396,-4.712069034576416,-3.3308181762695312
1701097474848771600,0.615771484375,0.23625004291534424,-4.645546913146973,-3.337228775024414
1701097474865765600,0.632765625,0.7253084778785706,-4.811741828918457,-2.810129165649414
1701097474882751700,0.649751708984375,1.0153601169586182,-4.791975021362305,-2.249969482421875
1701097474899746300,0.666746337890625,0.6344908475875854,-4.943957328796387,-2.2736740112304688
1701097474916737800,0.68373779296875,0.7001359462738037,-5.143151760101318,-1.1058683395385742
1701097474933720600,0.700720458984375,0.7198597192764282,-4.930962562561035,0.29982948303222656
1701097474950716400,0.71771630859375,1.1107470989227295,-4.659073829650879,2.0950613021850586
1701097474967714300,0.73471435546875,0.6724647879600525,-4.288595676422119,3.0744590759277344
1701097474984702200,0.7517021484375,-0.0026284456253051758,-4.49847936630249,3.4181699752807617
1701097475001695000,0.768695068359375,-0.6220760345458984,-5.20697546005249,4.030088424682617
1701097475018684400,0.785684326171875,-0.6045883893966675,-5.470128059387207,4.545408248901367
1701097475035678200,0.80267822265625,-0.5443986654281616,-5.222543239593506,4.451486587524414
1701097475052664300,0.819664306640625,-0.7076070308685303,-5.2220048904418945,4.941259384155273
1701097475069659400,0.836659423828125,-0.7900704145431519,-5.867199897766113,6.341581344604492
1701097475086651400,0.8536513671875,-0.6135730147361755,-6.404034614562988,7.614499092102051
1701097475103639600,0.8706396484375,-0.058583974838256836,-6.026156425476074,7.403661727905273
1701097475120632000,0.887632080078125,1.1280897855758667,-4.544027328491211,6.1713666915893555
1701097475137626000,0.904626220703125,1.8312065601348877,-2.9372451305389404,5.622585296630859
1701097475154612200,0.9216123046875,2.0703275203704834,-1.8218092918395996,5.9497175216674805
1701097475171608000,0.938608154296875,2.3747329711914062,-1.063371181488037,6.172239303588867
1701097475188595700,0.955595703125,2.465747117996216,-0.5080170631408691,5.641604423522949
1701097475205593000,0.972593017578125,2.6417455673217773,0.16870689392089844,4.57154655456543
1701097475222577700,0.98957763671875,2.495805263519287,1.0024051666259766,4.268727779388428
1701097475239572200,1.006572265625,1.92039954662323,2.027193069458008,5.0373406410217285
1701097475256565200,1.023565185546875,0.9854967594146729,3.3055973052978516,5.435384750366211
1701097475273551400,1.04055126953125,0.0008288025856018066,4.483051300048828,4.922220230102539
1701097475290545200,1.057545166015625,-0.9032540321350098,5.3091254234313965,3.865896224975586
1701097475307539000,1.0745390625,-2.23980450630188,5.590627670288086,2.6122560501098633
1701097475324525600,1.091525634765625,-2.546407699584961,5.570097923278809,1.7372617721557617
1701097475341518000,1.10851806640625,-2.437035083770752,5.440975189208984,1.643202304840088
1701097475358513000,1.125512939453125,-1.768917441368103,5.2545013427734375,2.6976094245910645
1701097475375513900,1.142513916015625,-0.7562506198883057,5.620251655578613,3.76336669921875
1701097475392490500,1.159490478515625,-0.6415098309516907,5.964816093444824,3.5503416061401367
1701097475409485000,1.176485107421875,-1.487907886505127,5.6573286056518555,3.0077342987060547
1701097475426477000,1.19347705078125,-2.0963356494903564,5.158028602600098,2.4194698333740234
1701097475443465500,1.210465576171875,-1.8162901401519775,4.783351421356201,2.358579158782959
1701097475460458200,1.227458251953125,-1.0310159921646118,4.747135162353516,2.89571475982666
1701097475477452000,1.2444521484375,-0.42608147859573364,4.80236291885376,3.585171699523926
1701097475494438100,1.261438232421875,-0.17559146881103516,4.917794227600098,3.722418785095215
1701097475511434000,1.27843408203125,-0.12281310558319092,4.593753814697266,3.7346487045288086
1701097475528423200,1.295423095703125,-0.2178492546081543,4.052574157714844,3.744357109069824
1701097475545417500,1.31241748046875,-0.3174772262573242,3.790693998336792,3.7072691917419434
1701097475562403300,1.3294033203125,-1.0271587371826172,3.3157825469970703,4.732320308685303
1701097475579398000,1.34639794921875,-1.9497573375701904,2.5644054412841797,6.66909646987915
1701097475596388600,1.363388671875,-2.7496910095214844,2.3198323249816895,7.5767107009887695
1701097475613378300,1.38037841796875,-2.951531410217285,1.8926033973693848,7.16395378112793
1701097475630370800,1.397370849609375,-2.5058681964874268,0.6612353324890137,6.957999229431152
1701097475647354000,1.41435400390625,-1.0908534526824951,-0.5640602111816406,7.835748672485352
1701097475664349000,1.431348876953125,0.9870126247406006,-1.568690299987793,9.480266571044922
1701097475681349000,1.44834912109375,2.06903338432312,-1.556166172027588,10.628238677978516
1701097475698336300,1.465336181640625,2.2876930236816406,-1.4053945541381836,10.798083305358887
1701097475715330300,1.482330322265625,1.95222008228302,-1.1976428031921387,9.846643447875977
1701097475732316400,1.49931640625,1.578667402267456,-2.142401695251465,8.614789962768555
1701097475749311200,1.516311279296875,1.3589105606079102,-3.808753490447998,7.441288948059082
1701097475766303500,1.533303466796875,1.2872345447540283,-5.109250545501709,5.609719276428223
1701097475783290000,1.5502900390625,1.181431770324707,-5.993229866027832,3.616872787475586
1701097475800298500,1.567298583984375,1.269335150718689,-6.139862060546875,1.4369802474975586
1701097475817277400,1.58427734375,1.6075074672698975,-6.022243976593018,-0.6175956726074219
1701097475834267400,1.601267333984375,2.0347790718078613,-5.207918167114258,-2.566664218902588
1701097475851264500,1.618264404296875,2.2872443199157715,-4.557116508483887,-3.7596402168273926
1701097475868238800,1.63523876953125,2.2961902618408203,-4.043578147888184,-4.432051181793213
1701097475885244000,1.652243896484375,2.1156370639801025,-3.704970359802246,-4.7705512046813965
1701097475902229200,1.669229248046875,2.0872678756713867,-3.5168070793151855,-4.968061923980713
1701097475919224000,1.68622412109375,2.1340465545654297,-3.4359230995178223,-5.2693681716918945
1701097475936216300,1.70321630859375,2.144318103790283,-3.5318071842193604,-5.552817344665527
1701097475953197000,1.720197021484375,2.2273895740509033,-3.681468963623047,-5.824113845825195
1701097475970197000,1.737197021484375,2.5803847312927246,-3.8908183574676514,-5.996767997741699
1701097475987188000,1.75418798828125,2.879681348800659,-4.2249674797058105,-5.9540629386901855
1701097476004180500,1.771180419921875,3.205577850341797,-4.630420207977295,-5.729320526123047
1701097476021172700,1.7881728515625,3.667854070663452,-4.8510541915893555,-5.398260116577148
1701097476038162400,1.805162353515625,4.024951457977295,-5.096321105957031,-4.958011150360107
1701097476055152000,1.822152099609375,4.51406192779541,-5.301713466644287,-4.534578323364258
1701097476072148500,1.8391484375,5.015657901763916,-5.484057426452637,-3.90238094329834
1701097476089137200,1.85613720703125,5.4071364402771,-5.6171488761901855,-3.283522129058838
1701097476106116600,1.87311669921875,5.605454444885254,-6.146185874938965,-2.0731048583984375
1701097476123117300,1.890117431640625,5.404884338378906,-6.657223701477051,-1.0691156387329102
1701097476140110000,1.907110107421875,4.9803242683410645,-6.995090961456299,-0.35834217071533203
1701097476157104000,1.924104248046875,4.281577110290527,-7.203677654266357,0.11844539642333984
1701097476174090200,1.94109033203125,3.357903003692627,-7.551664352416992,1.9000740051269531
1701097476191085800,1.9580859375,2.0887789726257324,-7.963875770568848,3.8536853790283203
1701097476208072000,1.975072021484375,0.17029356956481934,-7.800396919250488,3.3985471725463867
1701097476225072600,1.99207275390625,-2.256521701812744,-7.282607078552246,0.9072723388671875
1701097476242057200,2.00905712890625,-3.696098804473877,-6.350775718688965,-2.0860180854797363
1701097476259050200,2.02605029296875,-3.211519479751587,-5.533613204956055,-3.827622413635254
1701097476276040400,2.04304052734375,-1.3675544261932373,-5.2171430587768555,-3.538693428039551
1701097476293037000,2.060037109375,0.4819784164428711,-5.306803226470947,-1.3186235427856445
1701097476310011600,2.07701171875,1.4742705821990967,-5.536019325256348,1.068655014038086
1701097476327015700,2.094015625,1.7321144342422485,-5.416175842285156,2.2758731842041016
1701097476344006100,2.111006103515625,1.8898897171020508,-4.731057167053223,2.359513282775879
1701097476360998400,2.127998291015625,1.8389208316802979,-3.448960065841675,2.099729537963867
1701097476377993700,2.14499365234375,1.4753179550170898,-1.8050761222839355,1.7615880966186523
1701097476394981000,2.161981201171875,0.74818354845047,-0.21125221252441406,1.7552261352539062
1701097476411969000,2.178968994140625,0.12742573022842407,1.185079574584961,2.1792192459106445
1701097476428959700,2.195959716796875,-0.46406668424606323,2.247523546218872,2.915100574493408
1701097476445962500,2.21296240234375,-1.1231709718704224,2.8542206287384033,3.7026214599609375
1701097476462945300,2.2299453125,-1.7661190032958984,3.4436962604522705,4.095746994018555
1701097476479937300,2.246937255859375,-2.0556082725524902,3.815864324569702,4.423902988433838
1701097476496930300,2.263930419921875,-1.9803931713104248,4.056045055389404,5.201235771179199
1701097476513910800,2.280910888671875,-1.5682291984558105,4.648674011230469,5.818831443786621
1701097476530912000,2.297912109375,-1.2388741970062256,5.135018348693848,6.0089497566223145
1701097476547902000,2.31490185546875,-1.0822086334228516,5.4471869468688965,6.124649524688721
1701097476564891600,2.3318916015625,-1.0464410781860352,5.699048042297363,6.440707683563232
1701097476581885000,2.348885009765625,-1.1634174585342407,5.7705078125,6.977532386779785
1701097476598876200,2.365876220703125,-0.913613498210907,5.783692359924316,7.61656379699707
1701097476615868200,2.3828681640625,-0.5192972421646118,5.8158769607543945,8.058454513549805
1701097476632856800,2.39985693359375,-0.08292490243911743,5.81399393081665,8.074101448059082
1701097476649849300,2.416849365234375,0.26950621604919434,5.73115348815918,7.9909772872924805
1701097476666840800,2.4338408203125,-0.045216381549835205,5.038305282592773,8.197443008422852
1701097476683837200,2.450837158203125,-0.5119801163673401,4.219968795776367,8.471526145935059
1701097476700825000,2.4678251953125,-1.0142402648925781,3.445100784301758,8.660728454589844
1701097476717814800,2.484814697265625,-1.4448809623718262,2.4758505821228027,8.742433547973633
1701097476734803200,2.50180322265625,-1.1807637214660645,1.3009881973266602,9.029247283935547
1701097476751813400,2.5188134765625,-0.38410335779190063,0.3101334571838379,9.512776374816895
1701097476768789500,2.53578955078125,0.5100648403167725,-0.09531354904174805,9.838323593139648
1701097476785781500,2.552781494140625,1.0576460361480713,0.36476564407348633,9.369632720947266
1701097476802771500,2.569771484375,1.4936165809631348,0.44948434829711914,8.782306671142578
1701097476819762400,2.586762451171875,1.7152466773986816,-0.9908843040466309,9.581148147583008
1701097476836756500,2.603756591796875,1.2533621788024902,-2.697925090789795,10.088417053222656
1701097476853742600,2.62074267578125,0.5918279886245728,-4.349487781524658,9.352359771728516
1701097476870738400,2.637738525390625,0.48518139123916626,-5.341018199920654,7.233029365539551
1701097476887717400,2.65471728515625,0.759917676448822,-6.169435977935791,4.890195846557617
1701097476904717600,2.671717529296875,1.192683458328247,-6.244965553283691,2.4797821044921875
1701097476921714700,2.688714599609375,1.8876101970672607,-5.8484344482421875,0.589421272277832
1701097476938700300,2.7057001953125,2.1813507080078125,-5.279362678527832,-0.8268699645996094
1701097476955684600,2.7226845703125,1.988416075706482,-4.825009346008301,-1.9038238525390625
1701097476972683000,2.73968310546875,1.86392343044281,-4.574769973754883,-2.7814888954162598
1701097476989675300,2.75667529296875,1.9334168434143066,-4.509075164794922,-3.5791640281677246
1701097477006669600,2.773669677734375,2.1687188148498535,-4.5697526931762695,-4.258367538452148
1701097477023656000,2.790656005859375,2.517533779144287,-4.687042713165283,-4.734807968139648
1701097477040650800,2.807650634765625,3.206380844116211,-4.728370189666748,-5.011197566986084
1701097477057642800,2.824642822265625,3.6678035259246826,-4.9761481285095215,-4.964739799499512
1701097477074631000,2.841630859375,3.9147567749023438,-5.285210132598877,-4.784991264343262
1701097477091624400,2.85862451171875,4.155178070068359,-5.51060676574707,-4.684635639190674
1701097477108616000,2.875615966796875,4.1056413650512695,-5.832986354827881,-4.570587158203125
1701097477125607700,2.892607666015625,4.087597846984863,-6.190768241882324,-4.520312786102295
1701097477142596400,2.909596435546875,4.133481979370117,-6.519879341125488,-4.547702789306641
1701097477159588600,2.926588623046875,4.290674209594727,-6.948554515838623,-4.471715927124023
1701097477176582700,2.943582763671875,4.662723541259766,-7.34014892578125,-4.34403657913208
1701097477193569000,2.960569091796875,5.136909484863281,-7.922097682952881,-3.8718156814575195
1701097477210562600,2.9775625,5.583318710327148,-8.658191680908203,-3.5085487365722656
1701097477227556600,2.994556640625,5.8012800216674805,-9.138792037963867,-3.3574271202087402
1701097477244543200,3.011543212890625,5.865187644958496,-9.330568313598633,-2.785841464996338
1701097477261537500,3.02853759765625,5.178055763244629,-9.270085334777832,-2.2443366050720215
1701097477278529300,3.045529296875,3.597670316696167,-9.518034934997559,-1.5417661666870117
1701097477295521000,3.06252099609375,1.8074734210968018,-9.881377220153809,-0.691563606262207
1701097477312518700,3.0795185546875,0.2142261266708374,-10.08476734161377,-0.137054443359375
1701097477329502700,3.096502685546875,-0.23918575048446655,-9.33761978149414,-0.42429351806640625
1701097477346493400,3.113493408203125,0.7041395306587219,-8.145130157470703,-0.35955142974853516
1701097477363487200,3.1304873046875,1.368732213973999,-7.3510003089904785,0.8120708465576172
1701097477380472600,3.14747265625,1.1018303632736206,-6.821995735168457,2.1967992782592773
1701097477397468400,3.164468505859375,-0.05052053928375244,-6.6207275390625,3.1554508209228516
1701097477414460700,3.181460693359375,-0.9318619966506958,-6.046119213104248,3.182671546936035
1701097477431451100,3.198451171875,-1.480150818824768,-5.173770904541016,2.6476593017578125
1701097477448443000,3.21544287109375,-1.4972236156463623,-3.8388514518737793,2.193929672241211
1701097477465435000,3.232434814453125,-0.9978271722793579,-2.4829394817352295,2.600412368774414
1701097477482424600,3.249424560546875,-0.43204566836357117,-1.1425204277038574,3.677424430847168
1701097477499416000,3.266416015625,-0.058386266231536865,0.30180835723876953,4.511361122131348
1701097477516395800,3.283395751953125,-0.2911255955696106,1.5544142723083496,4.882698059082031
1701097477533389000,3.30038916015625,-1.2540373802185059,2.410905361175537,4.922012805938721
1701097477550393000,3.31739306640625,-1.7494337558746338,3.0521881580352783,4.7869768142700195
1701097477567381500,3.334381591796875,-1.573297142982483,3.2389869689941406,5.105557918548584
1701097477584373800,3.351373779296875,-0.9657063484191895,3.6572418212890625,5.772970199584961
1701097477601360400,3.3683603515625,-0.414646178483963,4.255170822143555,6.405679225921631
1701097477618360300,3.3853603515625,-0.16481146216392517,5.027512550354004,6.737835884094238
1701097477635346700,3.4023466796875,-0.4904889464378357,5.805551528930664,7.276553630828857
1701097477652339000,3.4193388671875,-0.9924005270004272,6.354535102844238,7.972355365753174
1701097477669329400,3.436329345703125,-1.0515096187591553,6.790165424346924,8.61599349975586
1701097477686321700,3.45332177734375,0.031165137887001038,6.804976940155029,9.10721206665039
1701097477703312100,3.47031201171875,1.9641873836517334,6.772039890289307,9.420825958251953
1701097477720304600,3.4873046875,3.373706340789795,6.6640119552612305,9.485218048095703
1701097477737294800,3.504294921875,3.6362574100494385,6.4570159912109375,9.670305252075195
1701097477754288400,3.521288330078125,2.9374818801879883,5.678596496582031,10.079296112060547
1701097477771276000,3.538276123046875,2.013437032699585,4.987237930297852,10.168680191040039
1701097477788269600,3.55526953125,1.3366206884384155,4.344102382659912,9.924657821655273
1701097477805260000,3.572260009765625,1.1275631189346313,3.1913256645202637,9.897117614746094
1701097477822251500,3.58925146484375,1.6545765399932861,2.026365280151367,9.878746032714844
1701097477839243500,3.606243408203125,2.7676239013671875,1.3745851516723633,9.95571517944336
1701097477856224500,3.623224609375,3.2504143714904785,1.172780990600586,9.701658248901367
1701097477873225500,3.6402255859375,2.6518712043762207,0.8473353385925293,9.423514366149902
1701097477890215000,3.65721484375,1.4980758428573608,0.04471778869628906,8.996835708618164
1701097477907210500,3.67421044921875,1.0725343227386475,-1.4150257110595703,8.535356521606445
1701097477924200200,3.6912001953125,1.6082789897918701,-2.779611110687256,7.629292964935303
1701097477941192400,3.7081923828125,2.3396716117858887,-4.283980369567871,6.96720027923584
1701097477958181000,3.72518115234375,2.22560977935791,-4.985933303833008,5.650589942932129
1701097477975173000,3.742173095703125,1.8982956409454346,-5.016963481903076,3.6438722610473633
1701097477992165600,3.75916552734375,1.2199962139129639,-4.931118965148926,1.7847661972045898
1701097478009155800,3.77615576171875,0.7404429912567139,-4.764799118041992,0.173126220703125
1701097478026148400,3.7931484375,0.7869469523429871,-4.773276329040527,-1.0960311889648438
1701097478043128300,3.81012841796875,1.0918700695037842,-4.8255462646484375,-2.1491189002990723
1701097478060130300,3.82713037109375,1.466812252998352,-4.940682411193848,-3.138583183288574
1701097478077121500,3.84412158203125,1.7178726196289062,-5.0707478523254395,-3.9843549728393555
1701097478094123800,3.861123779296875,1.8772954940795898,-5.238275527954102,-4.651889801025391
1701097478111104000,3.87810400390625,2.0886058807373047,-5.352738380432129,-5.198767185211182
1701097478128096300,3.89509619140625,2.3417115211486816,-5.510359287261963,-5.513056755065918
1701097478145086500,3.91208642578125,2.7271156311035156,-5.552201747894287,-5.5524444580078125
1701097478162078700,3.92907861328125,3.1407992839813232,-5.64042854309082,-5.28971529006958
1701097478179069000,3.94606884765625,3.315237522125244,-5.808078765869141,-5.013884544372559
1701097478196061200,3.963061279296875,3.433218479156494,-5.872464656829834,-4.872279167175293
1701097478213052000,3.980052001953125,3.589479923248291,-5.947846412658691,-4.688785076141357
1701097478230044200,3.997044189453125,3.7856287956237793,-6.162733554840088,-4.330846786499023
1701097478247034600,4.01403466796875,4.055972576141357,-6.637256145477295,-3.7545461654663086
1701097478264026600,4.031026611328125,4.392608165740967,-7.541445255279541,-2.8307876586914062
1701097478281017000,4.04801708984375,5.088396072387695,-8.550715446472168,-2.126880645751953
1701097478298009600,4.065009521484375,5.871333122253418,-9.051485061645508,-2.142594814300537
1701097478314982400,4.081982421875,6.280845642089844,-9.033761978149414,-2.0360054969787598
1701097478331992000,4.098991943359375,5.528341770172119,-9.14958667755127,-1.4468331336975098
1701097478348989000,4.115989013671875,3.7696359157562256,-9.52730941772461,-0.6597318649291992
1701097478365974800,4.132974853515625,2.2275712490081787,-9.647991180419922,-0.2176952362060547
1701097478382965200,4.14996533203125,1.441746711730957,-9.467249870300293,0.2723989486694336
1701097478399957200,4.166957275390625,1.8005088567733765,-8.286166191101074,0.07858848571777344
1701097478416947500,4.183947509765625,1.8406007289886475,-7.001588344573975,-0.20385456085205078
1701097478433940000,4.20093994140625,1.3711860179901123,-6.226235389709473,0.25916290283203125
1701097478450934000,4.21793408203125,0.3237704932689667,-6.017597198486328,1.387258529663086
1701097478467908600,4.23490869140625,-0.6927566528320312,-5.817694187164307,2.482616424560547
1701097478484902700,4.251902587890625,-1.4190868139266968,-5.270895481109619,2.6700572967529297
1701097478501905400,4.268905517578125,-1.4538888931274414,-4.207373142242432,1.7813606262207031
1701097478518895600,4.2858955078125,-1.042335033416748,-2.8106298446655273,0.7469949722290039
1701097478535888100,4.30288818359375,-0.526447057723999,-1.3943300247192383,0.48976898193359375
1701097478552878000,4.319878173828125,-0.31529080867767334,-0.30431127548217773,1.044785499572754
1701097478569870600,4.33687060546875,-0.28923216462135315,0.5963389873504639,2.262105941772461
1701097478586861000,4.353861083984375,-0.687183141708374,1.3199234008789062,3.1900205612182617
1701097478603853300,4.370853271484375,-1.4169319868087769,1.986093521118164,3.1879215240478516
1701097478620843800,4.38784375,-1.9250411987304688,2.4920568466186523,3.097123146057129
1701097478637835800,4.404835693359375,-2.0057849884033203,2.9069154262542725,3.5159192085266113
1701097478654827000,4.421826904296875,-1.5616177320480347,3.2405526638031006,4.744002342224121
1701097478671818800,4.43881884765625,-0.9902167320251465,3.861896514892578,6.850940704345703
1701097478688809000,4.45580908203125,-1.3572421073913574,4.783482551574707,7.710996627807617
1701097478705795600,4.472795654296875,-2.3839609622955322,5.39041805267334,7.7541303634643555
1701097478722791700,4.489791748046875,-3.458568811416626,5.850506782531738,7.691049575805664
1701097478739784200,4.5067841796875,-3.4329543113708496,6.136905670166016,8.633081436157227
1701097478756774400,4.5237744140625,-2.645859956741333,6.470875263214111,10.46766471862793
1701097478773764400,4.540764404296875,-2.3324618339538574,6.769360065460205,11.692269325256348
1701097478790742500,4.557742431640625,-2.945599317550659,6.793050765991211,12.000251770019531
1701097478807747600,4.57474755859375,-3.6351118087768555,6.3025288581848145,11.805131912231445
1701097478824739600,4.591739501953125,-4.191092014312744,5.190499305725098,11.549251556396484
1701097478841724700,4.608724609375,-4.050084590911865,4.096227645874023,11.3204927444458
1701097478858717200,4.62571728515625,-3.2925729751586914,2.8854379653930664,11.771677017211914
1701097478875713500,4.642713623046875,-2.450762987136841,1.8102779388427734,12.35495662689209
1701097478892708900,4.659708984375,-1.5210492610931396,1.0651836395263672,12.794459342956543
1701097478909694700,4.67669482421875,-0.9088239669799805,0.9118423461914062,12.187368392944336
1701097478926685000,4.693684814453125,-0.650902271270752,1.11049222946167,10.726062774658203
1701097478943679700,4.7106796875,-0.028806209564208984,0.5428519248962402,9.663740158081055
1701097478960672800,4.7276728515625,1.0216596126556396,-0.9235739707946777,9.04251480102539
1701097478977662700,4.744662841796875,1.818274736404419,-2.8517208099365234,8.55634880065918
1701097478994653000,4.76165283203125,2.200840711593628,-4.456576824188232,7.198635101318359
1701097479011645400,4.7786455078125,2.4997646808624268,-5.172513961791992,4.781266212463379
1701097479028635600,4.7956357421875,2.767462730407715,-5.33358907699585,2.349551200866699
1701097479045617400,4.812617431640625,2.848862648010254,-5.00933837890625,0.28136444091796875
1701097479062618000,4.8296181640625,2.7402632236480713,-4.636702537536621,-1.170395851135254
1701097479079610600,4.846610595703125,2.4348864555358887,-4.505104064941406,-1.9936447143554688
1701097479096590300,4.86359033203125,2.1698436737060547,-4.342803955078125,-2.4850077629089355
1701097479113593000,4.880593017578125,2.337684154510498,-4.375855445861816,-2.7947511672973633
1701097479130573300,4.8975732421875,2.5691540241241455,-4.496136665344238,-3.114229679107666
1701097479147578000,4.914578125,2.9452321529388428,-4.5659074783325195,-3.3722214698791504
1701097479164563000,4.93156298828125,3.5026729106903076,-4.601138591766357,-3.3786072731018066
1701097479181559000,4.94855908203125,3.7779524326324463,-4.7991814613342285,-3.0003161430358887
1701097479198551600,4.965551513671875,4.172500133514404,-5.001478672027588,-2.3051886558532715
1701097479215541200,4.982541259765625,4.468566417694092,-5.139129161834717,-1.8621745109558105
1701097479232531700,4.99953173828125,4.74257230758667,-5.539764404296875,-1.7183942794799805
1701097479249524000,5.01652392578125,5.097570896148682,-6.046794891357422,-2.1963539123535156
1701097479266514400,5.033514404296875,5.758277893066406,-6.383792400360107,-2.9355545043945312
1701097479283505000,5.0505048828125,6.550781726837158,-6.706264495849609,-3.596303939819336
1701097479300496100,5.06749609375,7.068355560302734,-7.356079578399658,-3.6293463706970215
1701097479317492000,5.084491943359375,7.397919654846191,-8.176213264465332,-3.4288125038146973
1701097479334479600,5.101479736328125,7.258880615234375,-8.684815406799316,-3.5283303260803223
1701097479351462000,5.1184619140625,6.966527462005615,-8.752569198608398,-3.876667022705078
1701097479368462300,5.13546240234375,5.878957748413086,-8.447158813476562,-4.033708095550537
1701097479385446700,5.15244677734375,3.9899234771728516,-8.498771667480469,-3.329211711883545
1701097479402444800,5.16944482421875,2.0794248580932617,-8.674575805664062,-2.600076198577881
1701097479419437000,5.18643701171875,0.59832763671875,-8.877422332763672,-2.097301959991455
1701097479436427800,5.203427734375,-0.12845134735107422,-8.677958488464355,-2.398629665374756
1701097479453420000,5.220419921875,-0.15206480026245117,-7.92544412612915,-2.9829559326171875
1701097479470410200,5.23741015625,-0.013518929481506348,-7.233686923980713,-2.5311837196350098
1701097479487402800,5.25440283203125,0.22747153043746948,-7.025275230407715,-0.6364002227783203
1701097479504393000,5.27139306640625,0.6507706642150879,-7.1630096435546875,1.4730634689331055
1701097479521380000,5.288380126953125,1.345867395401001,-7.075017929077148,2.8959884643554688
1701097479538373400,5.305373291015625,1.6317510604858398,-6.579901695251465,3.3858346939086914
1701097479555367700,5.32236767578125,1.1821720600128174,-5.562511444091797,2.944666862487793
1701097479572359200,5.339359130859375,0.9700865745544434,-3.9428255558013916,2.6797924041748047
1701097479589350700,5.3563505859375,0.5627717971801758,-2.283879280090332,2.971097946166992
1701097479606350800,5.373350830078125,-0.1076904833316803,-0.8026704788208008,3.9737119674682617
1701097479623333400,5.39033349609375,-0.9452601671218872,0.5260062217712402,5.125818252563477
1701097479640321800,5.40732177734375,-1.746085524559021,1.5627832412719727,5.973897933959961
1701097479657318100,5.424318115234375,-2.291184186935425,2.3609256744384766,6.09665584564209
1701097479674307600,5.4413076171875,-2.530033588409424,2.9318056106567383,5.78268575668335
1701097479691297800,5.4582978515625,-2.452414035797119,3.233006000518799,6.117444038391113
1701097479708289000,5.4752890625,-2.328245162963867,3.7828922271728516,6.805800914764404
1701097479725280500,5.492280517578125,-2.267313003540039,4.382551670074463,7.1025614738464355
1701097479742272300,5.509272216796875,-2.008812665939331,5.071071624755859,6.865325450897217
1701097479759264300,5.52626416015625,-1.4092899560928345,5.538137912750244,6.696374416351318
1701097479776254500,5.54325439453125,-0.6181226372718811,5.830119609832764,6.832255840301514
1701097479793246700,5.560246826171875,0.20108458399772644,6.13077449798584,7.16923713684082
1701097479810237200,5.5772373046875,0.8509595990180969,6.232907295227051,7.841795921325684
1701097479827229400,5.5942294921875,1.1017835140228271,6.214940071105957,8.7156343460083
1701097479844220000,5.611219970703125,0.931384265422821,6.322213172912598,9.484325408935547
1701097479861209600,5.628209716796875,0.2679084241390228,6.25700569152832,10.291568756103516
1701097479878204200,5.6452041015625,-0.6992050409317017,5.913207054138184,10.97357177734375
1701097479895195600,5.662195556640625,-1.4631978273391724,5.339642524719238,11.330404281616211
1701097479912185300,5.679185302734375,-1.6906756162643433,4.502451419830322,11.521018028259277
1701097479929177300,5.69617724609375,-1.146705150604248,3.429056167602539,11.604987144470215
1701097479946167800,5.713167724609375,-0.1366530805826187,2.422638416290283,11.683959007263184
1701097479963160300,5.730160400390625,0.4285493493080139,1.6939773559570312,11.634525299072266
1701097479980150300,5.747150390625,0.7763726115226746,1.5449295043945312,11.124725341796875
1701097479997154000,5.764154052734375,0.4352031350135803,1.0543122291564941,10.428603172302246
1701097480014133000,5.781133056640625,0.26255327463150024,-0.07883119583129883,9.833808898925781
1701097480031125500,5.79812548828125,0.5585756301879883,-1.7262444496154785,9.312498092651367
1701097480048115700,5.81511572265625,1.1579993963241577,-3.3787007331848145,8.611477851867676
1701097480065107200,5.832107177734375,1.6526362895965576,-4.4723968505859375,7.343421459197998
1701097480082099000,5.849098876953125,2.1019399166107178,-4.956121921539307,5.5515313148498535
1701097480099091000,5.866091064453125,2.5403852462768555,-5.042336940765381,3.7000904083251953
1701097480116081000,5.883080810546875,2.6822102069854736,-4.857713222503662,1.9403905868530273
1701097480133073400,5.900073486328125,2.547571897506714,-4.51943302154541,0.35504150390625
1701097480150058800,5.917058837890625,2.209030866622925,-4.287033557891846,-0.9248495101928711
1701097480167056100,5.93405615234375,1.9802989959716797,-4.083370208740234,-1.9568800926208496
1701097480184046300,5.95104638671875,1.975024700164795,-4.028047561645508,-2.76472806930542
1701097480201038800,5.968038818359375,2.197646379470825,-4.1137542724609375,-3.349151611328125
1701097480218026500,5.985026611328125,2.5546164512634277,-4.276418209075928,-3.8566927909851074
1701097480235024000,6.00202392578125,2.995331287384033,-4.43813419342041,-4.212778091430664
1701097480252001000,6.0190009765625,3.389453411102295,-4.706467151641846,-4.369349002838135
1701097480269004000,6.036004150390625,3.695106029510498,-4.986788749694824,-4.430216312408447
1701097480285994500,6.052994384765625,4.172067642211914,-5.383765697479248,-4.379513263702393
1701097480302987000,6.069987060546875,4.597344398498535,-5.598287582397461,-4.477687358856201
1701097480319977200,6.086977294921875,4.815913677215576,-5.943845748901367,-4.635015487670898
1701097480336969700,6.1039697265625,5.232606887817383,-6.1947431564331055,-4.907660007476807
1701097480353960000,6.1209599609375,5.671404838562012,-6.58914852142334,-4.779736042022705
1701097480370955300,6.137955322265625,6.032742500305176,-7.108994483947754,-4.34237003326416
1701097480387929300,6.154929443359375,6.09772253036499,-7.663355827331543,-3.937377452850342
1701097480404935200,6.17193505859375,5.9080424308776855,-8.189088821411133,-3.816162586212158
1701097480421925000,6.188925048828125,5.580479621887207,-8.372552871704102,-3.7453556060791016
1701097480438917600,6.205917724609375,4.643281936645508,-8.445281028747559,-3.485149383544922
1701097480455908000,6.222908203125,3.4121994972229004,-8.482254028320312,-3.0111703872680664
1701097480472900400,6.239900390625,2.0551629066467285,-8.962502479553223,-2.2622580528259277
1701097480489890600,6.256890625,1.0020216703414917,-9.288385391235352,-1.7058300971984863
1701097480506886400,6.273886474609375,0.4247410297393799,-9.066643714904785,-1.9171967506408691
1701097480523874600,6.29087451171875,0.6609324216842651,-8.151633262634277,-1.9904365539550781
1701097480540865500,6.307865478515625,1.0884164571762085,-7.2646965980529785,-0.7913961410522461
1701097480557856000,6.32485595703125,1.3609132766723633,-6.668121814727783,1.192906379699707
1701097480574848500,6.3418486328125,1.1697561740875244,-6.193889617919922,2.5589399337768555
1701097480591838700,6.358838623046875,0.7222254276275635,-6.287652969360352,3.078388214111328
1701097480608827400,6.375827392578125,0.3606800138950348,-5.795292377471924,2.729562759399414
1701097480625814300,6.392814208984375,0.010126370005309582,-4.763291358947754,2.1303625106811523
1701097480642813700,6.409813720703125,-0.06253137439489365,-3.115124225616455,1.951528549194336
1701097480659804200,6.42680419921875,-0.41723957657814026,-1.6372952461242676,2.640658378601074
1701097480676796400,6.44379638671875,-0.9190070033073425,-0.26883888244628906,3.6765146255493164
1701097480693786600,6.46078662109375,-1.0943646430969238,0.863551139831543,4.4966721534729
1701097480710775600,6.477775634765625,-1.3144848346710205,1.6126174926757812,4.893491268157959
1701097480727783200,6.494783203125,-1.2956006526947021,2.049736499786377,4.84713077545166
1701097480744761900,6.511761962890625,-1.139603853225708,2.4218974113464355,4.953783988952637
1701097480761751800,6.528751708984375,-1.0287777185440063,2.6517934799194336,5.5701494216918945
1701097480778744300,6.545744384765625,-0.8812397718429565,3.0479865074157715,6.826841831207275
1701097480795734800,6.56273486328125,-0.7422000765800476,3.804318904876709,7.932461261749268
1701097480812727000,6.57972705078125,-1.0226318836212158,4.659763336181641,8.556962966918945
1701097480829717500,6.596717529296875,-1.530102252960205,5.225469589233398,8.996774673461914
1701097480846708700,6.613708740234375,-1.7300729751586914,5.760115623474121,9.265193939208984
1701097480863698400,6.630698486328125,-1.5406707525253296,6.13494348526001,9.67647933959961
1701097480880684500,6.6476845703125,-1.3502755165100098,6.235925197601318,10.404953956604004
1701097480897682700,6.6646826171875,-0.8332126140594482,6.591463088989258,10.79100227355957
1701097480914675200,6.68167529296875,-0.6852220296859741,6.583904266357422,10.990745544433594
1701097480931665700,6.698665771484375,-0.7635761499404907,6.0230326652526855,11.067312240600586
1701097480948669700,6.715669677734375,-1.0102790594100952,5.077019214630127,11.158647537231445
1701097480965642200,6.732642333984375,-1.2910115718841553,4.295909404754639,11.0556001663208
1701097480982640600,6.749640625,-1.1768633127212524,3.227447032928467,11.106552124023438
1701097480999630800,6.766630859375,-0.6712085008621216,1.9682998657226562,11.29409408569336
1701097481016623000,6.783623046875,0.16848528385162354,1.0284461975097656,11.445937156677246
1701097481033600800,6.800600830078125,0.7671307921409607,0.7807645797729492,11.189275741577148
1701097481050596600,6.8175966796875,0.81348717212677,0.872706413269043,10.715934753417969
1701097481067585800,6.834585693359375,0.6185608506202698,0.3116488456726074,10.035896301269531
1701097481084583700,6.851583740234375,0.6327599287033081,-1.040128231048584,9.520427703857422
1701097481101567200,6.868567138671875,1.0091655254364014,-2.867711067199707,8.969555854797363
1701097481118567400,6.8855673828125,1.355155348777771,-4.527670383453369,8.336520195007324
1701097481135558400,6.902558349609375,1.364139437675476,-5.254530906677246,6.790493965148926
1701097481152546000,6.919546142578125,1.5925931930541992,-5.236994743347168,4.711271286010742
1701097481169535500,6.936535400390625,1.7682523727416992,-4.9228901863098145,2.753765106201172
1701097481186526500,6.9535263671875,1.909972906112671,-4.517848968505859,1.1366376876831055
1701097481203516400,6.970516357421875,2.05171275138855,-4.283798694610596,-0.38115596771240234
1701097481220516400,6.987516357421875,2.23542857170105,-4.112934112548828,-1.5578279495239258
1701097481237507600,7.004507568359375,2.4016518592834473,-4.177944183349609,-2.3952713012695312
1701097481254497300,7.021497314453125,2.5888679027557373,-4.239032745361328,-3.1274828910827637
1701097481271489000,7.038489013671875,2.751451015472412,-4.280503273010254,-3.7691941261291504
1701097481288475100,7.05547509765625,2.9098124504089355,-4.311531066894531,-4.362711429595947
1701097481305461500,7.07246142578125,3.1016128063201904,-4.437338352203369,-4.86942195892334
1701097481322462500,7.08946240234375,3.4650559425354004,-4.615746021270752,-5.213673114776611
1701097481339447800,7.10644775390625,3.7439541816711426,-4.8400163650512695,-5.470481872558594
1701097481356440800,7.12344091796875,4.160013198852539,-5.061217784881592,-5.6380157470703125
1701097481373440500,7.1404404296875,4.528194427490234,-5.107172966003418,-5.887751579284668
1701097481390432500,7.1574326171875,4.7324700355529785,-5.160826206207275,-5.986113548278809
1701097481407423000,7.174423095703125,4.796319961547852,-5.372080326080322,-5.641732692718506
1701097481424415200,7.191415283203125,4.728283882141113,-5.711526870727539,-5.073049068450928
1701097481441402400,7.20840234375,4.659933090209961,-6.140724182128906,-4.60593318939209
1701097481458401300,7.2254013671875,4.793885707855225,-6.636322975158691,-4.463308811187744
1701097481475388400,7.242388427734375,5.185686111450195,-7.23947811126709,-4.1748223304748535
1701097481492381000,7.259380859375,5.500908374786377,-7.55766487121582,-3.601266860961914
1701097481509371100,7.27637109375,4.976463794708252,-7.856642723083496,-2.601858139038086
1701097481526363400,7.29336328125,3.784151554107666,-8.02493953704834,-1.6856074333190918
1701097481543353600,7.310353515625,2.3637311458587646,-8.38379192352295,-1.2305431365966797
1701097481560346000,7.32734619140625,1.4470667839050293,-8.709977149963379,-1.5731449127197266
1701097481577336800,7.3443369140625,1.514355182647705,-8.359399795532227,-2.0510616302490234
1701097481594329000,7.3613291015625,2.14815616607666,-7.4344916343688965,-1.6080131530761719
1701097481611319000,7.378319091796875,2.0457072257995605,-6.667029857635498,-0.4192342758178711
1701097481628311600,7.3953115234375,1.83628249168396,-6.341803073883057,1.114227294921875
1701097481645302000,7.412302001953125,1.9019789695739746,-6.095645904541016,2.192172050476074
1701097481662294000,7.4292939453125,1.792365550994873,-5.789361000061035,2.699605941772461
1701097481679282200,7.4462822265625,1.1936477422714233,-5.103425979614258,2.659688949584961
1701097481696276700,7.46327685546875,0.6418997049331665,-3.695058822631836,2.384078025817871
1701097481713269800,7.480269775390625,0.09619641304016113,-2.0772957801818848,2.1999425888061523
1701097481730255000,7.497255126953125,-0.5498557686805725,-0.6358942985534668,2.4596738815307617
1701097481747250000,7.51425,-1.1409882307052612,0.5793776512145996,3.2587528228759766
1701097481764242200,7.5312421875,-1.6725184917449951,1.5924711227416992,3.9346814155578613
1701097481781230000,7.54822998046875,-2.334089517593384,2.151397705078125,4.176969051361084
1701097481798227500,7.5652275390625,-2.7114102840423584,2.5178723335266113,4.303252696990967
1701097481815199700,7.58219970703125,-2.806306838989258,2.684492588043213,4.625613212585449
1701097481832208000,7.599207763671875,-2.4228453636169434,2.875356674194336,5.217305660247803
1701097481849197800,7.61619775390625,-1.8737717866897583,3.288214683532715,6.056792259216309
1701097481866190300,7.6331904296875,-1.830291748046875,3.8223109245300293,6.7684645652771
1701097481883181000,7.65018115234375,-2.2407941818237305,4.316093921661377,7.433457374572754
1701097481900172500,7.667172607421875,-2.7524094581604004,4.604777812957764,8.31623649597168
1701097481917166800,7.684166748046875,-2.7146096229553223,4.8423004150390625,9.134002685546875
1701097481934152200,7.701152099609375,-2.451172113418579,4.983641624450684,9.730777740478516
1701097481951157800,7.71815771484375,-2.047102689743042,5.01315975189209,10.090677261352539
1701097481968128800,7.735128662109375,-1.3472882509231567,5.021597385406494,10.533736228942871
1701097481985129000,7.75212890625,-0.9616610407829285,4.990591049194336,11.109370231628418
1701097482002121200,7.769121337890625,-1.3428592681884766,4.7135844230651855,11.555986404418945
1701097482019111400,7.786111328125,-2.2223448753356934,4.338472366333008,11.462726593017578
1701097482036103700,7.803103759765625,-2.3452353477478027,3.681567668914795,11.244745254516602
1701097482053094000,7.820093994140625,-1.407238245010376,2.634758472442627,11.050768852233887
1701097482070086400,7.83708642578125,-0.1550002098083496,1.3522162437438965,11.130148887634277
1701097482087076900,7.854076904296875,0.8085454702377319,0.7395725250244141,10.886127471923828
1701097482104069400,7.8710693359375,0.9919188022613525,0.7658987045288086,10.420417785644531
1701097482121059600,7.8880595703125,0.4971451759338379,0.6584925651550293,9.958005905151367
1701097482138052000,7.905052001953125,0.38447654247283936,-0.1123042106628418,9.521787643432617
1701097482155040300,7.922040283203125,0.9460589289665222,-1.4926395416259766,8.902856826782227
1701097482172034800,7.939034912109375,1.9256401062011719,-2.9127140045166016,7.939287185668945
1701097482189022200,7.956022216796875,2.780836582183838,-3.758998394012451,6.5769171714782715
1701097482206019800,7.973019775390625,3.20174503326416,-3.940493106842041,4.98710298538208
1701097482223007700,7.9900078125,3.054564952850342,-3.7555341720581055,3.46649169921875
1701097482240000000,8.007,2.5778510570526123,-3.41994047164917,1.789912223815918
1701097482256990500,8.023990478515625,1.9450523853302002,-3.1026511192321777,0.4849977493286133
1701097482273981400,8.0409814453125,1.5150713920593262,-2.8411145210266113,-0.6211395263671875
1701097482290974200,8.05797412109375,1.3329784870147705,-2.7489547729492188,-1.5712785720825195
1701097482307954700,8.07495458984375,1.4979382753372192,-2.7781081199645996,-2.4554896354675293
1701097482324955600,8.09195556640625,1.813873529434204,-2.9183907508850098,-3.3548707962036133
1701097482341948200,8.1089482421875,2.1963839530944824,-3.0091733932495117,-4.277031898498535
1701097482358938400,8.1259384765625,2.765835762023926,-3.11832857131958,-4.976165771484375
1701097482375920000,8.142920166015625,3.520563840866089,-3.5004589557647705,-5.18746280670166
1701097482392921000,8.159921142578124,4.159336090087891,-4.02780818939209,-5.422007083892822
1701097482409913300,8.176913330078126,4.683233261108398,-4.394167900085449,-5.717875003814697
1701097482426903800,8.19390380859375,4.805529594421387,-4.638279914855957,-5.91773796081543
1701097482443896000,8.21089599609375,4.475722789764404,-4.845698356628418,-5.971944808959961
1701097482460884700,8.227884765625,3.9738850593566895,-4.993043422698975,-5.944080352783203
1701097482477878800,8.244878662109375,3.6185572147369385,-5.413623332977295,-5.7044196128845215
1701097482494870800,8.261870849609375,3.58060359954834,-5.932882785797119,-5.378282070159912
1701097482511859700,8.278859619140626,3.9037277698516846,-6.533426761627197,-5.059676647186279
1701097482528851700,8.295851806640625,4.7891845703125,-7.0964789390563965,-4.664767742156982
1701097482545833700,8.312833740234375,5.349422931671143,-7.511656284332275,-4.05450439453125
1701097482562832100,8.32983203125,5.359724998474121,-7.753350734710693,-3.0208983421325684
1701097482579829200,8.346829345703124,4.512971878051758,-7.910364151000977,-1.5401744842529297
1701097482596817200,8.363817138671875,2.816469669342041,-8.136068344116211,-0.45328617095947266
1701097482613809700,8.3808095703125,1.162762999534607,-8.582343101501465,-0.14740467071533203
1701097482630789400,8.397789306640625,0.2803715467453003,-8.623711585998535,-0.5972127914428711
1701097482647782000,8.414781982421875,1.0238630771636963,-7.609853267669678,-1.1176996231079102
1701097482664781000,8.431781005859374,1.4895267486572266,-6.639708518981934,-0.3406181335449219
1701097482681774800,8.44877490234375,1.2821794748306274,-5.8303375244140625,1.1540708541870117
1701097482698765000,8.46576513671875,0.21840745210647583,-5.366771221160889,2.60556697845459
1701097482715757600,8.482757568359375,-0.9776778221130371,-4.858702182769775,3.3005361557006836
1701097482732745700,8.499745849609376,-2.0790045261383057,-4.147304534912109,2.960179328918457
1701097482749740300,8.516740234375,-2.4641737937927246,-3.1359310150146484,2.131052017211914
1701097482766730500,8.53373046875,-1.9937630891799927,-1.9296941757202148,1.3577871322631836
1701097482783720400,8.550720458984374,-1.1040518283843994,-0.7557158470153809,1.5524702072143555
1701097482800716000,8.567716064453125,-0.25679415464401245,0.48667049407958984,2.2811636924743652
1701097482817705700,8.584705810546875,0.1397913098335266,1.5171566009521484,2.966977119445801
1701097482834693400,8.601693359375,0.1034780740737915,2.2568278312683105,3.712797164916992
1701097482851690800,8.618690673828125,-0.3867645263671875,2.758660316467285,4.440676689147949
1701097482868679000,8.635678955078125,-0.8696703910827637,3.131911277770996,4.936174392700195
1701097482885661000,8.652660888671875,-1.0759634971618652,3.215986728668213,5.549256324768066
1701097482902660600,8.66966064453125,-0.902564287185669,3.403353214263916,6.330262660980225
1701097482919654700,8.686654541015624,-0.5406585335731506,3.7456889152526855,7.464221954345703
1701097482936644000,8.70364404296875,-0.26158085465431213,4.312768936157227,8.367128372192383
1701097482953636600,8.72063671875,-0.31355732679367065,5.007378578186035,8.734373092651367
1701097482970626600,8.73762646484375,-0.23192188143730164,5.50410270690918,8.929193496704102
1701097482987619000,8.754619140625,0.1238362193107605,5.808431625366211,9.160205841064453
1701097483004608500,8.7716083984375,0.6518425345420837,5.769829750061035,9.459793090820312
1701097483021600500,8.7886005859375,1.0833477973937988,5.84449577331543,9.407855033874512
1701097483038594800,8.8055947265625,1.2176347970962524,5.756623268127441,9.594318389892578
1701097483055582700,8.822582763671875,0.7958409786224365,5.067512512207031,10.430046081542969
1701097483072576800,8.83957666015625,0.07748827338218689,4.120723724365234,11.190547943115234
1701097483089564700,8.856564697265625,-0.5135380029678345,3.36881160736084,11.47862720489502
1701097483106560300,8.873560302734376,-0.5056600570678711,2.2434844970703125,12.105138778686523
1701097483123547100,8.890547119140624,0.38991475105285645,1.3710274696350098,12.442586898803711
1701097483140543000,8.90754296875,1.7951148748397827,0.9947113990783691,12.513755798339844
1701097483157532700,8.92453271484375,2.33638334274292,1.2357568740844727,11.856698036193848
1701097483174523000,8.94152294921875,2.0870838165283203,1.5056562423706055,10.652671813964844
1701097483191515400,8.958515380859374,1.5860435962677002,0.8429708480834961,9.707480430603027
1701097483208505600,8.975505615234376,1.3532204627990723,-0.676356315612793,9.122230529785156
1701097483225482200,8.992482177734376,1.5304875373840332,-2.457767963409424,8.351886749267578
1701097483242488300,9.00948828125,1.6072641611099243,-3.876948356628418,7.039822101593018
1701097483259480800,9.026480712890624,1.5402779579162598,-4.356080055236816,4.928299427032471
1701097483276471000,9.043470947265625,1.3993866443634033,-4.132084846496582,2.668548583984375
1701097483293463600,9.060463623046875,1.3702296018600464,-3.625715732574463,0.8644599914550781
1701097483310454000,9.0774541015625,1.3216750621795654,-3.0473036766052246,-0.6825432777404785
1701097483327446000,9.094446044921876,1.2975181341171265,-2.8771753311157227,-1.5006952285766602
1701097483344436500,9.1114365234375,1.2835553884506226,-2.913344383239746,-2.075428009033203
1701097483361431000,9.12843115234375,1.2812565565109253,-2.9128730297088623,-2.698629856109619
1701097483378413600,9.14541357421875,1.3103556632995605,-3.075342893600464,-3.180312156677246
1701097483395408600,9.16240869140625,1.4662957191467285,-3.1500203609466553,-3.7163987159729004
1701097483412401400,9.1794013671875,1.8052401542663574,-3.2387640476226807,-4.147521495819092
1701097483429394700,9.196394775390624,2.364344358444214,-3.4739043712615967,-4.023754119873047
1701097483446384600,9.213384521484375,3.0939924716949463,-3.6182234287261963,-3.9607200622558594
1701097483463377000,9.230376953125,3.473083019256592,-4.018733501434326,-4.017477989196777
1701097483480367000,9.2473671875,3.5482492446899414,-4.45693302154541,-4.698437690734863
1701097483497350700,9.2643505859375,3.9322195053100586,-4.794748783111572,-5.08580207824707
1701097483514339000,9.281339111328125,4.671008586883545,-4.9506731033325195,-5.107238292694092
1701097483531342600,9.298342529296875,5.226502418518066,-5.459064483642578,-4.458171367645264
1701097483548322000,9.315322021484375,5.612157821655273,-5.953348636627197,-3.738743305206299
1701097483565325000,9.332324951171875,5.643729209899902,-6.9006524085998535,-3.2427148818969727
1701097483582315500,9.3493154296875,5.91700553894043,-7.391531467437744,-3.189274311065674
1701097483599307800,9.366307861328124,5.995298385620117,-7.5106096267700195,-3.035928726196289
1701097483616297700,9.383297607421875,5.578272819519043,-7.460864543914795,-2.585498332977295
1701097483633290200,9.400290283203125,4.215834617614746,-7.7594218254089355,-1.8826603889465332
1701097483650280700,9.41728076171875,2.9715373516082764,-7.8918023109436035,-1.7490148544311523
1701097483667273000,9.43427294921875,2.6289305686950684,-7.641788005828857,-2.0300722122192383
1701097483684263400,9.451263427734375,2.76430082321167,-6.970911979675293,-2.0368971824645996
1701097483701252400,9.46825244140625,2.6969683170318604,-6.09283447265625,-1.308624267578125
1701097483718249200,9.485249267578125,1.879819393157959,-5.661835670471191,0.2315511703491211
1701097483735241200,9.5022412109375,1.0662293434143066,-5.2672119140625,1.6174421310424805
1701097483752228600,9.519228515625,0.4969039261341095,-5.067625522613525,2.668105125427246
1701097483769218800,9.53621875,0.555721640586853,-4.144314289093018,2.2769508361816406
1701097483786214100,9.553214111328124,0.5619768500328064,-3.0678977966308594,1.401291847229004
1701097483803203800,9.570203857421875,0.4676397442817688,-1.7568697929382324,0.6781988143920898
1701097483820191500,9.58719140625,0.32395029067993164,-0.38379669189453125,0.7380161285400391
1701097483837189400,9.604189453125,-0.28742897510528564,0.727787971496582,1.4061059951782227
1701097483854177000,9.621177001953125,-1.1780214309692383,1.6595120429992676,2.228634834289551
1701097483871169300,9.638169189453125,-2.215574026107788,2.346017599105835,2.9201345443725586
1701097483888148200,9.655148193359375,-2.9550652503967285,3.0072038173675537,2.9877963066101074
1701097483905139500,9.672139404296875,-3.59445858001709,3.1476666927337646,3.0536231994628906
1701097483922145000,9.68914501953125,-3.686776638031006,3.0709738731384277,3.1536431312561035
1701097483939134500,9.706134521484374,-3.019132614135742,3.0323944091796875,3.606090545654297
1701097483956124700,9.723124755859375,-2.2943763732910156,3.158658981323242,4.440625190734863
1701097483973115600,9.74011572265625,-2.00360369682312,3.551074504852295,5.098474502563477
1701097483990107600,9.757107666015624,-2.1976535320281982,3.882546901702881,5.885694980621338
1701097484007100200,9.77410009765625,-2.831002712249756,4.176042079925537,6.97702693939209
1701097484024090000,9.791090087890625,-3.3722989559173584,4.397470951080322,7.938372611999512
1701097484041083000,9.808082763671875,-3.1567108631134033,4.480215072631836,8.908902168273926
1701097484058073000,9.825072998046876,-2.443070650100708,4.570435523986816,9.568163871765137
1701097484075065300,9.8420654296875,-1.8916970491409302,4.731348037719727,10.180288314819336
1701097484092055300,9.85905517578125,-1.8783642053604126,4.710803031921387,11.180774688720703
1701097484109048600,9.876048583984375,-2.761425256729126,4.255890369415283,11.948989868164062
1701097484126038300,9.893038330078125,-3.323772430419922,3.567108631134033,12.205240249633789
1701097484143030800,9.91003076171875,-2.766338348388672,2.3201661109924316,12.372322082519531
1701097484160018400,9.927018310546876,-1.198202133178711,1.331362247467041,12.19845962524414
1701097484177016000,9.94401611328125,0.5228041410446167,1.2148571014404297,11.690385818481445
1701097484194003700,9.961003662109375,1.6060398817062378,1.8063898086547852,10.718658447265625
1701097484210996200,9.977996337890625,1.9826207160949707,1.9365472793579102,9.6717529296875
1701097484227976200,9.99497607421875,1.9554710388183594,1.084737777709961,8.861662864685059
1701097484244979200,10.011979248046876,1.8886806964874268,-0.31127214431762695,7.937925338745117
1701097484261968600,10.02896875,2.100419282913208,-1.6009960174560547,6.74113130569458
1701097484278962000,10.0459619140625,2.36592960357666,-2.2069687843322754,5.415152549743652
1701097484295952100,10.0629521484375,2.802558422088623,-2.1146817207336426,3.839611530303955
1701097484312945400,10.0799453125,2.662874698638916,-1.6245026588439941,2.149857521057129
1701097484329933800,10.096933837890624,2.2804064750671387,-1.244987964630127,0.8149361610412598
1701097484346927000,10.113927001953124,1.8914579153060913,-0.9933261871337891,-0.31549787521362305
1701097484363917300,10.130917236328125,1.5955854654312134,-1.0341148376464844,-1.1391181945800781
1701097484380909800,10.147909912109375,1.568865180015564,-1.1770567893981934,-1.9480195045471191
1701097484397900000,10.164900146484374,1.6681843996047974,-1.5018987655639648,-2.505603790283203
1701097484414892500,10.181892578125,1.731002926826477,-1.8861486911773682,-3.026309013366699
1701097484431882800,10.1988828125,1.891890287399292,-2.165616512298584,-3.6872458457946777
1701097484448881000,10.215880859375,2.0660288333892822,-2.5119810104370117,-4.1815314292907715
1701097484465866500,10.232866455078126,2.455294132232666,-2.8563849925994873,-4.601840496063232
1701097484482855700,10.249855712890625,2.9680051803588867,-3.418315887451172,-4.783253192901611
1701097484499848000,10.266847900390625,3.3826417922973633,-4.080611228942871,-4.769043445587158
1701097484516843300,10.28384326171875,4.012048721313477,-4.638175010681152,-4.654950141906738
1701097484533818600,10.300818603515625,4.47651481628418,-5.157832145690918,-4.275779724121094
1701097484550825700,10.31782568359375,4.379627227783203,-5.668838024139404,-3.8139190673828125
1701097484576305400,10.343305419921874,4.319685935974121,-6.376100063323975,-3.094141960144043
1701097484593297000,10.360296875,4.360550880432129,-6.774378299713135,-2.4989027976989746
1701097484610286600,10.37728662109375,4.60434627532959,-7.191344738006592,-1.7883200645446777
1701097484627280000,10.39427978515625,4.451146125793457,-7.485553741455078,-1.1143274307250977
1701097484644264200,10.41126416015625,3.592900514602661,-7.630875110626221,-0.7368879318237305
1701097484661263600,10.428263671875,2.5243849754333496,-7.568439483642578,-0.673975944519043
1701097484678249200,10.445249267578125,1.3588542938232422,-7.686354637145996,-1.0998468399047852
1701097484695242800,10.46224267578125,0.6245996356010437,-7.613436698913574,-2.0395145416259766
1701097484712237600,10.479237548828126,0.5617201328277588,-7.09014892578125,-3.2519164085388184
1701097484729223400,10.496223388671876,0.5353918075561523,-6.113874435424805,-3.6787948608398438
1701097484746210600,10.51321044921875,0.0968184620141983,-5.16625452041626,-2.8530797958374023
1701097484763214600,10.530214599609375,-0.35114699602127075,-4.520495891571045,-1.3956079483032227
1701097484780202000,10.547201904296875,-0.8449682593345642,-4.1956071853637695,-0.1133260726928711
1701097484797190100,10.564190185546876,-1.2104344367980957,-3.8764374256134033,0.3215217590332031
1701097484814171000,10.5811708984375,-1.0985302925109863,-3.3404765129089355,0.17736434936523438
1701097484831177500,10.598177490234375,-0.6920662522315979,-2.3901114463806152,-0.26510143280029297
1701097484848161000,10.6151611328125,-0.3043285608291626,-1.1528677940368652,0.01618480682373047
1701097484865150700,10.632150634765624,-0.27946871519088745,-0.054601192474365234,1.0792608261108398
1701097484882150100,10.649150146484375,-0.6515302062034607,0.7070879936218262,2.900163173675537
1701097484899135500,10.666135498046875,-1.2104370594024658,1.4807744026184082,4.5309834480285645
1701097484916133000,10.683133056640624,-2.0618910789489746,2.2342910766601562,5.527904033660889
1701097484933117000,10.700116943359374,-3.0149872303009033,2.9490532875061035,5.6200408935546875
1701097484950114800,10.71711474609375,-2.7898268699645996,3.063560962677002,5.22261905670166
1701097484967111400,10.734111328125,-1.631881833076477,2.9463443756103516,5.071639060974121
1701097484984102100,10.75110205078125,-0.5960800647735596,2.894713878631592,5.476749420166016
1701097485001092900,10.7680927734375,-0.2591419517993927,3.069864273071289,6.299566745758057
1701097485018081800,10.785081787109375,-0.6623223423957825,3.8258533477783203,6.8722758293151855
1701097485035075600,10.80207568359375,-1.4843498468399048,4.467421054840088,7.284818649291992
1701097485052070100,10.819070068359375,-1.9100444316864014,4.937766075134277,7.683507442474365
1701097485069058300,10.836058349609376,-1.8585619926452637,5.03737211227417,8.51845932006836
1701097485086049800,10.8530498046875,-1.619465708732605,5.2167229652404785,9.15757942199707
1701097485103041000,10.870041015625,-1.5115368366241455,5.322862148284912,9.441508293151855
1701097485120032800,10.88703271484375,-1.0563095808029175,5.466219902038574,9.439170837402344
1701097485137023500,10.9040234375,-0.49822643399238586,5.223758697509766,9.914689064025879
1701097485154005200,10.921005126953125,-0.48809126019477844,4.783550262451172,10.50788688659668
1701097485171006200,10.938006103515624,-0.9350005388259888,4.379897117614746,10.782696723937988
1701097485187987500,10.954987548828125,-0.7910329699516296,3.8369626998901367,10.977487564086914
1701097485204989000,10.971989013671875,-0.35722649097442627,2.851714611053467,11.346027374267578
1701097485221980700,10.988980712890625,0.3366314768791199,1.9963793754577637,11.786608695983887
1701097485238972000,11.005971923828126,0.38873499631881714,1.8063278198242188,11.64728832244873
1701097485255953200,11.022953125,-0.04297560453414917,1.6216506958007812,11.337692260742188
1701097485272951800,11.039951904296874,-0.12142866849899292,0.9346013069152832,10.834219932556152
1701097485289948700,11.05694873046875,0.49611401557922363,-0.7758045196533203,10.8915433883667
1701097485306937300,11.073937255859375,0.8729800581932068,-2.6782279014587402,10.948813438415527
1701097485323926300,11.09092626953125,1.221510648727417,-3.6749134063720703,9.782112121582031
1701097485340922000,11.107922119140625,1.791489839553833,-4.0242533683776855,8.025850296020508
1701097485357911300,11.124911376953126,2.497659683227539,-4.049250602722168,6.00514030456543
1701097485374902800,11.14190283203125,2.953718423843384,-4.049107551574707,4.2580485343933105
1701097485391892500,11.158892578125,3.074437141418457,-4.062249660491943,2.5219573974609375
1701097485408887000,11.175886962890624,2.673107862472534,-4.128979682922363,1.0072317123413086
1701097485425883100,11.192883056640625,2.445838451385498,-4.2507004737854,-0.2179861068725586
1701097485442868200,11.2098681640625,2.3879506587982178,-4.414227485656738,-1.3697137832641602
1701097485459859700,11.226859619140624,2.2492971420288086,-4.658058166503906,-2.291138172149658
1701097485476850400,11.243850341796875,2.589907169342041,-4.822386741638184,-3.160433292388916
1701097485493842200,11.26084228515625,2.845947265625,-5.026137828826904,-3.7825002670288086
1701097485510833700,11.277833740234374,3.199979782104492,-5.38663911819458,-4.1176605224609375
1701097485527831000,11.2948310546875,3.5891737937927246,-5.745165824890137,-4.307088375091553
1701097485544816000,11.311816162109375,3.829944372177124,-6.240486145019531,-4.2459492683410645
1701097485561807600,11.3288076171875,4.207861423492432,-6.535513877868652,-4.585380554199219
1701097485578798800,11.345798828125,4.441169261932373,-6.703018665313721,-4.8466796875
1701097485595790600,11.36279052734375,4.560025215148926,-7.0869364738464355,-4.88098669052124
1701097485612779300,11.379779296875,4.732538223266602,-7.350255966186523,-4.917791843414307
1701097485629775000,11.396775146484375,4.816892623901367,-7.5391526222229,-4.886483669281006
1701097485646751500,11.41375146484375,4.7712507247924805,-7.999423027038574,-4.788422584533691
1701097485663753700,11.430753662109375,5.065467834472656,-8.2437744140625,-5.1703925132751465
1701097485680748800,11.447748779296875,5.276788711547852,-8.477645874023438,-5.343984603881836
1701097485697727500,11.4647275390625,5.2223968505859375,-8.54205322265625,-4.8917622566223145
1701097485714719200,11.48171923828125,4.48267126083374,-8.489425659179688,-4.093106746673584
1701097485731718700,11.49871875,2.9064221382141113,-8.716586112976074,-3.055016040802002
1701097485748714800,11.51571484375,1.3044013977050781,-8.797632217407227,-2.816967010498047
1701097485765686000,11.53268603515625,0.05855369567871094,-8.793137550354004,-3.1106343269348145
1701097485782695200,11.549695068359375,-0.2428816556930542,-8.08008861541748,-3.7183279991149902
1701097485799686700,11.566686767578124,-0.4018282890319824,-7.432800769805908,-3.368373394012451
1701097485816677400,11.583677490234376,0.07328709959983826,-7.35441780090332,-1.2348661422729492
1701097485833670700,11.600670654296875,0.843845546245575,-7.219052314758301,1.4901447296142578
1701097485850648300,11.6176484375,1.2398173809051514,-6.9880876541137695,3.5031051635742188
1701097485867654400,11.634654296875,1.1182525157928467,-6.432032585144043,3.998091697692871
1701097485884643000,11.65164306640625,0.6777419447898865,-5.702122211456299,3.8868026733398438
1701097485901631700,11.6686318359375,0.6660823822021484,-4.464071273803711,4.104159355163574
1701097485918628900,11.68562890625,0.8179446458816528,-2.8514676094055176,5.083143711090088
1701097485935617800,11.70261767578125,0.5284604430198669,-1.3301730155944824,7.1187968254089355
1701097485952608500,11.7196083984375,-0.36826005578041077,0.509890079498291,8.798040390014648
1701097485969599700,11.736599853515624,-1.690417766571045,1.983506202697754,9.242876052856445
1701097485986591200,11.75359130859375,-2.7021584510803223,3.3584651947021484,8.417497634887695
1701097486003580400,11.770580322265625,-3.0980491638183594,3.6697731018066406,7.787227630615234
1701097486020576300,11.787576171875,-2.540743112564087,3.5853705406188965,7.089664936065674
1701097486037565700,11.804565673828124,-1.194817304611206,3.162027359008789,7.306353569030762
1701097486054557000,11.821556884765625,0.8121196627616882,3.2692508697509766,8.735661506652832
1701097486071546400,11.83854638671875,1.692894697189331,4.284390926361084,9.345519065856934
1701097486088542500,11.85554248046875,0.6038359999656677,4.800078868865967,8.931707382202148
1701097486105530600,11.872530517578125,-1.001373291015625,5.091799259185791,8.334038734436035
1701097486122520600,11.8895205078125,-1.5243796110153198,5.0275421142578125,8.394953727722168
1701097486139515400,11.906515380859375,-0.35116490721702576,4.7319488525390625,8.931493759155273
1701097486156504800,11.9235048828125,1.3574047088623047,4.566251754760742,9.693998336791992
1701097486173494300,11.940494384765625,2.2680225372314453,4.915596961975098,10.175060272216797
1701097486190489600,11.957489501953125,1.6760246753692627,5.075595855712891,10.60177230834961
1701097486207479300,11.974479248046874,0.42710357904434204,4.8804168701171875,11.057670593261719
1701097486224470000,11.991469970703125,-0.5658987760543823,4.310992240905762,11.430123329162598
1701097486241460500,12.00846044921875,-0.39833763241767883,3.3943777084350586,11.92467975616455
1701097486258454000,12.0254541015625,0.23903417587280273,2.021090507507324,12.364034652709961
1701097486275444700,12.04244482421875,1.5597143173217773,0.9176292419433594,12.697673797607422
1701097486292435200,12.059435302734375,2.3214375972747803,0.5491809844970703,12.543497085571289
1701097486309427000,12.076427001953125,1.9757426977157593,0.8526315689086914,11.708730697631836
1701097486326414300,12.093414306640625,1.0916316509246826,0.7545757293701172,10.812536239624023
1701097486343413800,12.110413818359374,0.8345656394958496,-0.12043571472167969,10.151542663574219
1701097486360400600,12.127400634765625,1.3206737041473389,-1.7208175659179688,9.635398864746094
1701097486377392600,12.144392578125,2.0155029296875,-3.4090676307678223,8.602468490600586
1701097486394383600,12.161383544921875,2.50520658493042,-4.377347469329834,7.222347736358643
1701097486411375400,12.178375244140625,3.0594112873077393,-4.738846302032471,5.688164710998535
1701097486428366300,12.195366455078124,2.7701709270477295,-4.498429775238037,4.110580921173096
1701097486445357800,12.21235791015625,1.9501408338546753,-4.293071746826172,2.515861988067627
1701097486462349300,12.229349365234375,1.3757351636886597,-3.9423837661743164,0.8620977401733398
1701097486479338800,12.2463388671875,1.3051313161849976,-3.5892276763916016,-0.20380115509033203
1701097486496333600,12.26333349609375,1.3995742797851562,-3.4806761741638184,-0.9576530456542969
1701097486513323000,12.280322998046875,1.6270251274108887,-3.533169746398926,-1.7286524772644043
1701097486530314500,12.297314453125,1.9465616941452026,-3.8042445182800293,-2.4614334106445312
1701097486547303700,12.3143037109375,2.3105406761169434,-4.183212757110596,-3.1453857421875
1701097486564298000,12.331298095703126,2.7110636234283447,-4.493391036987305,-3.8016014099121094
1701097486581281500,12.348281494140625,3.2472591400146484,-4.873585224151611,-4.22069787979126
1701097486598277400,12.36527734375,3.785832405090332,-5.195146083831787,-4.305877208709717
1701097486615274000,12.38227392578125,4.157535076141357,-5.589768409729004,-4.130861759185791
1701097486632264400,12.399264404296876,4.42791748046875,-5.90763521194458,-4.108236312866211
1701097486649253600,12.416253662109375,4.597709655761719,-6.136659622192383,-4.53843355178833
1701097486666243000,12.4332431640625,4.97017765045166,-6.293666839599609,-4.9755473136901855
1701097486683237000,12.450237060546876,5.319645881652832,-6.621105194091797,-5.222644805908203
1701097486700228000,12.46722802734375,5.500125885009766,-7.236701011657715,-5.1205034255981445
1701097486717219600,12.484219482421874,5.697774887084961,-8.107433319091797,-4.8932671546936035
1701097486734210600,12.50121044921875,5.732332229614258,-8.781320571899414,-4.811700344085693
1701097486751202300,12.518202392578125,5.663618564605713,-8.68354320526123,-5.3873796463012695
1701097486768192300,12.535192138671874,5.103428840637207,-8.560537338256836,-5.856980323791504
1701097486785186000,12.55218603515625,4.244394302368164,-8.636656761169434,-5.308492183685303
1701097486802176300,12.56917626953125,3.1212987899780273,-9.042860984802246,-3.7629647254943848
1701097486819154400,12.586154541015626,2.172701358795166,-9.137748718261719,-2.6307740211486816
1701097486836161000,12.6031611328125,1.5209990739822388,-8.772432327270508,-1.7117376327514648
1701097486853150500,12.620150390625,1.2120686769485474,-7.886534214019775,-1.0422239303588867
1701097486870141400,12.637141357421875,0.9179620742797852,-7.287356376647949,-0.32266712188720703
1701097486887124500,12.65412451171875,0.5796897411346436,-7.235527515411377,0.7654495239257812
1701097486904122000,12.6711220703125,0.49068814516067505,-7.135763168334961,2.5503368377685547
1701097486921117700,12.68811767578125,-0.025387125089764595,-6.839259624481201,3.7547435760498047
1701097486938107000,12.70510693359375,-0.43530139327049255,-5.980914115905762,4.048206329345703
1701097486955098600,12.7220986328125,-0.7042102813720703,-4.757959365844727,3.9265527725219727
1701097486972089900,12.73908984375,-0.8600656986236572,-3.219583511352539,3.8817052841186523
1701097486989076500,12.756076416015626,-1.128800392150879,-1.5481877326965332,4.338156223297119
1701097487006077200,12.7730771484375,-1.6800450086593628,-0.07146453857421875,5.1596808433532715
1701097487023070000,12.790070068359375,-2.4063878059387207,1.116816520690918,5.942298412322998
1701097487040055000,12.807054931640625,-2.928112506866455,1.9211645126342773,6.431079387664795
1701097487057046500,12.824046630859375,-3.3154098987579346,2.638366222381592,6.472208499908447
1701097487074026000,12.84102587890625,-3.3273744583129883,2.870871067047119,6.851850986480713
1701097487091018200,12.858018310546875,-2.782020092010498,3.249239444732666,7.045725345611572
1701097487108012800,12.8750126953125,-2.2179274559020996,3.5442862510681152,7.205294609069824
1701097487125012000,12.892011962890624,-1.101697564125061,3.937509059906006,7.650330543518066
1701097487142000000,12.909000244140625,-0.02385234832763672,4.241709232330322,8.182199478149414
1701097487158997800,12.925997802734376,0.2696746587753296,4.26296854019165,8.734299659729004
1701097487175985700,12.942985595703124,-0.006166815757751465,4.350658893585205,9.145553588867188
1701097487192977400,12.959977294921876,-0.5050569176673889,4.3222246170043945,9.738727569580078
1701097487209969000,12.976968994140625,-0.8092498183250427,4.645025730133057,10.541494369506836
1701097487226960100,12.993960205078125,-0.8999522924423218,5.102642059326172,11.412654876708984
1701097487243940900,13.01094091796875,-1.0520823001861572,5.656533241271973,12.067279815673828
1701097487260943400,13.027943359375,-0.7945049405097961,5.784967422485352,12.683830261230469
1701097487277933300,13.044933349609375,-0.8687952160835266,4.915835380554199,13.072728157043457
1701097487294926000,13.061926025390624,-0.7208366394042969,3.9147491455078125,12.427632331848145
1701097487311916500,13.07891650390625,-0.10662683844566345,2.5738167762756348,11.852638244628906
1701097487328897500,13.0958974609375,0.7930373549461365,1.2345819473266602,11.717323303222656
1701097487345899500,13.1128994140625,1.801819086074829,0.35091209411621094,11.778450012207031
1701097487362891300,13.129891357421876,2.256150245666504,0.08570003509521484,11.475008010864258
1701097487379882000,13.146882080078125,1.854384422302246,0.42734527587890625,10.621354103088379
1701097487396873700,13.163873779296875,1.2606542110443115,0.44356441497802734,9.975481033325195
1701097487413863700,13.18086376953125,1.076603651046753,-0.3976020812988281,9.661779403686523
1701097487430858000,13.19785791015625,1.3116226196289062,-1.8657760620117188,9.270133972167969
1701097487447837700,13.214837646484375,1.8923583030700684,-3.088243007659912,8.270120620727539
1701097487464839200,13.231839111328124,2.4250051975250244,-3.852303981781006,6.739736080169678
1701097487481830100,13.248830078125,2.806807279586792,-4.190934658050537,4.867001533508301
1701097487498822100,13.265822265625,2.8301353454589844,-4.007034778594971,2.89188289642334
1701097487515812600,13.2828125,2.495025157928467,-3.6720986366271973,1.285130500793457
1701097487532804600,13.2998046875,1.940100073814392,-3.3339896202087402,-0.1458582878112793
1701097487549795800,13.3167958984375,1.5094375610351562,-3.068958282470703,-1.2802038192749023
1701097487566799600,13.333799560546876,1.3789211511611938,-2.973404884338379,-2.2231054306030273
1701097487583775700,13.350775634765625,1.5576493740081787,-2.9758925437927246,-2.8267464637756348
1701097487600771000,13.36777099609375,1.9069963693618774,-3.069753408432007,-3.4225568771362305
1701097487617760800,13.3847607421875,2.279493808746338,-3.350472927093506,-3.827785015106201
1701097487634754800,13.4017548828125,2.560119390487671,-3.7076103687286377,-4.164144515991211
1701097487651741000,13.418740966796875,3.1294360160827637,-4.064547538757324,-4.538524150848389
1701097487668735200,13.4357353515625,3.754639148712158,-4.392127990722656,-4.74682092666626
1701097487685714200,13.452714111328126,4.216579437255859,-4.654763221740723,-4.840254306793213
1701097487702711600,13.469711669921875,4.6747026443481445,-4.851505279541016,-4.804605007171631
1701097487719705600,13.48670556640625,5.089390277862549,-4.894192218780518,-4.826858997344971
1701097487736701000,13.503700927734375,5.305059432983398,-5.10161018371582,-4.947794437408447
1701097487753692200,13.520692138671874,5.47043514251709,-5.530483245849609,-4.958122730255127
1701097487770684000,13.537683837890626,5.695969581604004,-6.063536643981934,-4.742068290710449
1701097487787674400,13.55467431640625,5.989283561706543,-6.546332836151123,-4.537496089935303
1701097487804666000,13.571666015625,6.125563621520996,-7.03816032409668,-4.19352912902832
1701097487821657300,13.5886572265625,5.918503761291504,-7.2780351638793945,-3.7274675369262695
1701097487838649000,13.605649169921875,5.069506645202637,-7.198850631713867,-3.307617664337158
1701097487855640000,13.62264013671875,3.5623631477355957,-7.317256450653076,-2.8399853706359863
1701097487872631600,13.639631591796874,2.0596542358398438,-7.640495300292969,-2.4871559143066406
1701097487889620700,13.656620849609375,1.327392816543579,-7.693558216094971,-2.3559627532958984
1701097487906617000,13.6736171875,1.312125325202942,-7.372756481170654,-2.236116409301758
1701097487923601400,13.690601318359375,2.136408567428589,-6.548056125640869,-1.6071453094482422
1701097487940601000,13.70760107421875,2.746861457824707,-5.613882064819336,0.08864688873291016
1701097487957588200,13.724588134765625,2.013664960861206,-5.264498233795166,1.6566448211669922
1701097487974580200,13.741580322265625,0.853471040725708,-5.2180328369140625,2.263932228088379
1701097487991571000,13.758571044921876,-0.15800368785858154,-5.384881973266602,2.252528190612793
1701097488008562400,13.7755625,-0.1324598491191864,-4.742912769317627,1.473114013671875
1701097488025541000,13.792541015625,0.25250598788261414,-3.5922536849975586,1.3741474151611328
1701097488042547700,13.809547607421875,0.04640001058578491,-2.0893940925598145,1.9256057739257812
1701097488059546600,13.826546630859376,-0.7666582465171814,-0.6718454360961914,2.891031265258789
1701097488076515300,13.843515380859374,-1.6967616081237793,0.5135574340820312,4.173386096954346
1701097488093516800,13.860516845703126,-2.2634363174438477,1.578503131866455,5.021618843078613
1701097488110501400,13.87750146484375,-2.7347161769866943,2.22804594039917,5.208069324493408
1701097488127498200,13.894498291015625,-2.768749952316284,2.4318065643310547,5.559401512145996
1701097488144486700,13.911486572265625,-2.4536447525024414,2.824981689453125,6.037960052490234
1701097488161473800,13.928473876953126,-2.151984691619873,3.241765022277832,7.004800319671631
1701097488178472000,13.945471923828125,-1.9749504327774048,3.9491281509399414,7.997222423553467
1701097488195458000,13.9624580078125,-2.094985008239746,4.537322521209717,8.697032928466797
1701097488212456400,13.97945654296875,-2.4975624084472656,5.096433639526367,9.307596206665039
1701097488229440500,13.9964404296875,-2.967223644256592,5.375459671020508,9.914342880249023
1701097488246432000,14.013431884765625,-2.9917101860046387,5.518280506134033,10.544271469116211
1701097488263422500,14.03042236328125,-2.579185962677002,5.441013336181641,11.086952209472656
1701097488280415000,14.0474150390625,-1.8831961154937744,5.52191162109375,11.617473602294922
1701097488297407500,14.064407470703125,-1.1936964988708496,5.7956743240356445,12.01540470123291
1701097488314397700,14.081397705078125,-1.1283824443817139,5.9579057693481445,12.193724632263184
1701097488331396000,14.09839599609375,-1.4884006977081299,5.487283706665039,12.255916595458984
1701097488348380000,14.1153798828125,-1.6993049383163452,4.67767333984375,12.166984558105469
1701097488365376000,14.1323759765625,-1.6666375398635864,3.7084693908691406,11.840851783752441
1701097488382369300,14.149369384765626,-0.9513555765151978,2.4728174209594727,11.532100677490234
1701097488399360500,14.166360595703125,0.33445656299591064,1.4255261421203613,11.27747917175293
1701097488416353300,14.183353271484375,1.3343939781188965,0.8120183944702148,11.102300643920898
1701097488433342000,14.200342041015626,1.6724014282226562,0.7565884590148926,10.658346176147461
1701097488450324700,14.21732470703125,1.3973674774169922,0.654695987701416,10.061714172363281
1701097488467325700,14.23432568359375,1.1180617809295654,-0.03999042510986328,9.551858901977539
1701097488484314400,14.251314453125,1.1551636457443237,-1.6743106842041016,9.516581535339355
1701097488501309200,14.26830908203125,1.3408085107803345,-3.224727153778076,8.897595405578613
1701097488518303500,14.285303466796876,1.4844082593917847,-4.025378227233887,7.427791595458984
1701097488535287000,14.302287109375,1.727077841758728,-4.3369526863098145,5.788903713226318
1701097488552289500,14.31928955078125,1.9092192649841309,-4.2916364669799805,4.107329845428467
1701097488569289700,14.336289794921875,1.8661036491394043,-3.943357467651367,2.4111146926879883
1701097488586268700,14.3532685546875,1.565675139427185,-3.5983357429504395,0.9115591049194336
1701097488603259600,14.370259765625,1.40823233127594,-3.238335132598877,-0.6169929504394531
1701097488620240600,14.38724072265625,1.412446141242981,-3.02144193649292,-1.7556424140930176
1701097488637242400,14.404242431640625,1.5622050762176514,-3.0089049339294434,-2.654916286468506
1701097488654234400,14.421234375,1.7390620708465576,-3.164334535598755,-3.3702497482299805
1701097488671225000,14.43822509765625,1.841911792755127,-3.425736665725708,-4.010171890258789
1701097488688216600,14.455216552734376,2.3146204948425293,-3.602768898010254,-4.590278625488281
1701097488705203200,14.472203125,2.7735061645507812,-3.967102289199829,-4.967214107513428
1701097488722204200,14.4892041015625,3.2762017250061035,-4.3368682861328125,-5.3289475440979
1701097488739190300,14.506190185546876,3.9389657974243164,-4.779716491699219,-5.59968376159668
1701097488756182000,14.52318212890625,4.628040790557861,-4.994687080383301,-5.85042667388916
1701097488773174300,14.54017431640625,4.980323791503906,-5.166476726531982,-5.892982482910156
1701097488790162000,14.557161865234375,5.18341064453125,-5.304893970489502,-5.647065162658691
1701097488807158300,14.574158203125,5.190424919128418,-5.596268177032471,-5.405503273010254
1701097488824147500,14.5911474609375,5.306034564971924,-6.221259593963623,-5.11796236038208
1701097488841134800,14.608134765625,5.718992710113525,-6.8917107582092285,-4.910676956176758
1701097488858130700,14.625130615234376,6.499134063720703,-7.144477367401123,-4.609128952026367
1701097488875121400,14.642121337890625,7.116863250732422,-6.98601770401001,-3.1328563690185547
1701097488892113200,14.659113037109375,5.972158908843994,-6.846897602081299,-1.4248785972595215
1701097488909104400,14.6761044921875,3.832212448120117,-6.858648777008057,-0.6029605865478516
1701097488926095600,14.693095703125,1.6300344467163086,-7.072616100311279,-0.875981330871582
1701097488943086800,14.7100869140625,0.4608558416366577,-7.5265583992004395,-1.491929054260254
1701097488960078000,14.727078125,0.7687828540802002,-7.055573463439941,-2.2550339698791504
1701097488977067300,14.7440673828125,1.4516773223876953,-6.173238754272461,-1.8722167015075684
1701097488994063600,14.761063720703126,2.0334725379943848,-5.445058345794678,-0.34082508087158203
1701097489011041500,14.77804150390625,2.222440242767334,-4.888697147369385,1.2044858932495117
1701097489028033500,14.795033447265626,2.0824921131134033,-4.53909158706665,2.091059684753418
1701097489045035300,14.81203515625,1.640123963356018,-4.433996200561523,2.1034889221191406
1701097489062026800,14.82902685546875,1.4568262100219727,-4.013983249664307,1.5680170059204102
1701097489079017200,14.846017333984374,1.5711660385131836,-2.9885764122009277,1.0083427429199219
1701097489096009000,14.863009033203125,1.6389038562774658,-1.7662696838378906,1.276005744934082
1701097489113000700,14.880000732421875,1.377162218093872,-0.48760080337524414,2.3091773986816406
1701097489129992200,14.8969921875,0.7665891647338867,0.5968813896179199,3.3522486686706543
1701097489146983000,14.91398291015625,-0.39719483256340027,1.4296040534973145,4.107992172241211
1701097489163974700,14.930974609375,-1.675276756286621,2.017122745513916,4.570013999938965
1701097489180966100,14.947966064453125,-2.4636995792388916,2.545168876647949,5.004168510437012
1701097489197954800,14.964954833984375,-2.833754062652588,2.8463668823242188,5.781060218811035
1701097489214948400,14.9819482421875,-2.8495593070983887,3.284343719482422,6.818682670593262
1701097489231942100,14.998942138671875,-3.360013008117676,3.7870712280273438,7.7372260093688965
1701097489248927200,15.01592724609375,-3.9683847427368164,4.119698524475098,8.56130599975586
1701097489265923000,15.032923095703126,-4.293301582336426,4.448702335357666,8.958372116088867
1701097489282914000,15.0499140625,-4.2925944328308105,4.6184258460998535,9.286225318908691
1701097489299905500,15.066905517578125,-3.958838939666748,4.711994171142578,9.682914733886719
1701097489316897000,15.08389697265625,-3.472890615463257,4.481301307678223,10.655536651611328
1701097489333888300,15.10088818359375,-2.627305030822754,4.671197891235352,11.585992813110352
1701097489350879000,15.11787890625,-2.1572461128234863,5.155237197875977,11.84131908416748
1701097489367881700,15.1348818359375,-2.348670721054077,5.334651470184326,12.123612403869629
1701097489384862500,15.151862548828126,-3.168795347213745,4.65762996673584,12.473496437072754
1701097489401853700,15.168853759765625,-3.677098274230957,3.8107142448425293,12.158537864685059
1701097489418834400,15.18583447265625,-3.1617238521575928,2.9490270614624023,11.53250503540039
1701097489435836400,15.20283642578125,-2.104017734527588,1.9280409812927246,11.163200378417969
1701097489452828000,15.219827880859375,-0.7142204642295837,1.022505760192871,11.197196006774902
1701097489469819400,15.2368193359375,0.3588995933532715,0.41934776306152344,11.002998352050781
1701097489486799600,15.253799560546875,0.8157094717025757,0.39966678619384766,10.480475425720215
1701097489503799600,15.270799560546875,0.6873563528060913,0.22252941131591797,9.932043075561523
1701097489520795400,15.28779541015625,0.6554129123687744,-0.4542083740234375,9.533428192138672
1701097489537784800,15.304784912109374,0.8516882658004761,-1.6243419647216797,8.879522323608398
1701097489554775600,15.321775634765626,1.3434476852416992,-2.781162738800049,7.897582530975342
1701097489571767300,15.338767333984375,2.040585994720459,-3.460106372833252,6.453308582305908
1701097489588758500,15.355758544921875,2.7078893184661865,-3.449398994445801,4.721894264221191
1701097489605739500,15.372739501953125,2.901099443435669,-3.090890407562256,3.1466240882873535
1701097489622740700,15.38974072265625,2.5929553508758545,-2.5668630599975586,1.9554762840270996
1701097489639732500,15.406732421875,1.8870702981948853,-2.2765445709228516,0.9412398338317871
1701097489656724000,15.423723876953124,1.48722243309021,-2.139509677886963,0.026355743408203125
1701097489673715700,15.4407158203125,1.4851692914962769,-2.2412939071655273,-0.7193942070007324
1701097489690706400,15.45770654296875,1.8325421810150146,-2.4994497299194336,-1.5484609603881836
1701097489707698000,15.474697998046874,2.322844982147217,-2.878366231918335,-2.4670982360839844
1701097489724689200,15.491689208984376,2.8170676231384277,-3.254305601119995,-3.407464027404785
1701097489741681200,15.50868115234375,3.121304988861084,-3.6611244678497314,-4.2830986976623535
1701097489758672000,15.525671875,3.5928139686584473,-4.002938270568848,-4.918491840362549
1701097489775663600,15.54266357421875,3.9781904220581055,-4.298800468444824,-5.352419376373291
1701097489792654800,15.55965478515625,4.495850563049316,-4.70287561416626,-5.482769012451172
1701097489809643800,15.576643798828124,4.740963935852051,-4.767757892608643,-5.821499824523926
1701097489826640000,15.593639892578125,4.693519592285156,-4.829899787902832,-6.065564155578613
1701097489843629800,15.6106298828125,4.567572593688965,-4.828078746795654,-6.272382736206055
1701097489860619300,15.627619384765625,4.587859153747559,-5.096512794494629,-6.102271556854248
1701097489877612000,15.644612060546875,4.559741973876953,-5.833047866821289,-5.694353103637695
1701097489894602500,15.6616025390625,4.524810791015625,-6.72080659866333,-5.284007549285889
1701097489911594200,15.67859423828125,4.2853102684021,-7.620269775390625,-4.9242424964904785
1701097489928586000,15.6955859375,3.712373971939087,-8.182762145996094,-4.9081220626831055
1701097489945577200,15.7125771484375,3.026717185974121,-8.645021438598633,-4.587985515594482
1701097489962568200,15.729568115234375,2.238706111907959,-9.015666961669922,-3.9637632369995117
1701097489979559400,15.746559326171875,1.7566421031951904,-8.824176788330078,-3.7422194480895996
1701097489996551000,15.763551025390624,1.7650314569473267,-8.337699890136719,-3.4770126342773438
1701097490013540000,15.7805400390625,1.8210442066192627,-7.761925220489502,-3.034489631652832
1701097490030538500,15.79753857421875,1.678863286972046,-7.515527725219727,-0.5805025100708008
1701097490047523000,15.814523193359374,1.7025870084762573,-7.05897331237793,1.6963090896606445
1701097490064516600,15.8315166015625,1.1796261072158813,-7.085051536560059,2.398390769958496
1701097490081505500,15.848505615234375,0.36703670024871826,-7.014276027679443,2.1369800567626953
1701097490098502000,15.865501953125,-0.21455490589141846,-6.337273120880127,1.213998794555664
1701097490115490800,15.88249072265625,-0.7291395664215088,-5.384464740753174,1.0112237930297852
1701097490132482000,15.89948193359375,-0.6564793586730957,-3.892719268798828,1.9911227226257324
1701097490149473500,15.9164736328125,-0.6100021600723267,-2.34344482421875,3.5813655853271484
1701097490166464000,15.933464111328124,-1.0620795488357544,-0.9489445686340332,5.015786170959473
1701097490183456300,15.950456298828126,-1.8559157848358154,0.14489221572875977,6.0264387130737305
1701097490200447500,15.967447509765625,-2.491553783416748,0.9245204925537109,6.644383907318115
1701097490217439000,15.98443896484375,-2.7153966426849365,1.3390116691589355,6.980015277862549
1701097490234429700,16.0014296875,-2.599069595336914,1.5937209129333496,7.187095642089844
1701097490251421700,16.018421630859375,-1.8499572277069092,1.923995018005371,7.768182754516602
1701097490268404500,16.035404541015627,-1.0569188594818115,2.370297431945801,8.963560104370117
1701097490285400600,16.052400634765625,-0.5544254779815674,3.010157585144043,10.161578178405762
1701097490302397700,16.069397705078124,-0.651577353477478,3.834012985229492,10.915732383728027
1701097490319386600,16.08638671875,-1.460627555847168,4.507472515106201,11.417055130004883
1701097490336378400,16.10337841796875,-1.8603981733322144,5.141002178192139,11.59344482421875
1701097490353370000,16.1203701171875,-1.1169192790985107,5.56171178817749,12.248781204223633
1701097490370350300,16.137350341796875,-0.13865119218826294,5.963973045349121,13.22777271270752
1701097490387352300,16.154352294921875,0.7623974680900574,6.153457164764404,13.969785690307617
1701097490404343800,16.17134375,1.2019684314727783,6.036269187927246,14.172858238220215
1701097490421334500,16.18833447265625,0.7785515785217285,5.172457695007324,14.102081298828125
1701097490438326500,16.205326416015627,0.05867946892976761,4.2476348876953125,13.8617582321167
1701097490455305500,16.222305419921874,-0.24528652429580688,3.329007625579834,13.63724422454834
1701097490472309200,16.239309326171874,0.129571333527565,2.0482583045959473,13.843144416809082
1701097490489299200,16.25629931640625,0.9275888800621033,0.6360759735107422,13.845895767211914
1701097490506294000,16.2732939453125,1.7766019105911255,-0.2708473205566406,13.201277732849121
1701097490523282200,16.2902822265625,2.3361904621124268,-0.2911844253540039,12.058238983154297
1701097490540274700,16.307274658203124,2.5049829483032227,-0.2529716491699219,11.229714393615723
1701097490557266200,16.32426611328125,2.4313230514526367,-0.9326057434082031,10.75583267211914
1701097490574257000,16.3412568359375,2.4898552894592285,-2.230266571044922,9.965578079223633
1701097490591251000,16.3582509765625,2.7666776180267334,-3.687091827392578,8.67065715789795
1701097490608237800,16.37523779296875,3.1196682453155518,-4.932112216949463,7.058409690856934
1701097490625231600,16.392231689453126,3.3051035404205322,-5.446993827819824,5.1792192459106445
1701097490642222300,16.409222412109376,3.054974317550659,-5.285569190979004,3.2816667556762695
1701097490659200800,16.42620068359375,2.205508232116699,-4.646259784698486,1.655294418334961
1701097490676216600,16.443216552734373,1.273199439048767,-3.9385218620300293,0.5374808311462402
1701097490693197300,16.460197265625,0.7817553281784058,-3.5034894943237305,-0.24919652938842773
1701097490710188300,16.477188232421874,0.7921581864356995,-3.424330711364746,-0.9679303169250488
1701097490727179000,16.494178955078127,1.2163127660751343,-3.648226737976074,-1.8703675270080566
1701097490744160300,16.51116015625,2.0504958629608154,-3.881326198577881,-2.9328393936157227
1701097490761162200,16.528162353515626,2.8488876819610596,-4.051238059997559,-3.779031753540039
1701097490778153200,16.5451533203125,3.419220447540283,-4.204845428466797,-4.377362251281738
1701097490795145200,16.562145263671876,4.003259658813477,-4.378338813781738,-4.733567237854004
1701097490812133600,16.579133544921874,4.444360733032227,-4.554173946380615,-4.864564895629883
1701097490829130200,16.596130126953124,4.726221561431885,-4.7423930168151855,-4.766633987426758
1701097490846118700,16.61311865234375,4.8047895431518555,-4.959927558898926,-4.616086959838867
1701097490863110400,16.6301103515625,4.880805015563965,-5.2410969734191895,-4.550455570220947
1701097490880102000,16.647101806640624,5.2358078956604,-5.467867851257324,-4.56676721572876
1701097490897092900,16.6640927734375,5.658562660217285,-5.755753993988037,-4.668305397033691
1701097490914084600,16.681084716796875,6.003312110900879,-6.129663944244385,-4.8741254806518555
1701097490931075800,16.698075927734376,6.3099894523620605,-6.561155319213867,-5.176983833312988
1701097490948056800,16.715056884765627,6.408170700073242,-6.918033599853516,-5.427591800689697
1701097490965058800,16.732058837890627,5.886672019958496,-7.0277533531188965,-5.18828821182251
1701097490982045400,16.74904541015625,4.846506118774414,-7.18817663192749,-4.414185047149658
1701097490999045600,16.766045654296875,3.5535905361175537,-7.281338214874268,-4.091289043426514
1701097491016033800,16.78303369140625,2.0308737754821777,-7.538003921508789,-4.0880656242370605
1701097491033024000,16.80002392578125,0.5724352598190308,-7.84616756439209,-4.0089263916015625
1701097491050015000,16.817014892578126,-0.28184831142425537,-8.089753150939941,-3.80258846282959
1701097491067006700,16.8340068359375,0.1765836477279663,-7.6993818283081055,-2.629685401916504
1701097491083998200,16.850998291015625,0.9404742121696472,-7.14598274230957,0.04866218566894531
1701097491100989400,16.867989501953126,1.0451271533966064,-6.493094444274902,2.014979362487793
1701097491117980200,16.884980224609375,0.7116007208824158,-6.021478176116943,2.9443492889404297
1701097491134972200,16.90197216796875,0.2545856535434723,-5.770204067230225,3.167019844055176
1701097491151963400,16.91896337890625,0.12986767292022705,-5.180617332458496,2.7553863525390625
1701097491168955000,16.935954833984376,0.31642961502075195,-4.187764644622803,2.3966245651245117
1701097491185945900,16.95294580078125,0.6588305830955505,-2.836137294769287,2.400228500366211
1701097491202937600,16.9699375,0.8574016094207764,-1.3659625053405762,2.990764617919922
1701097491219929000,16.98692919921875,0.6474926471710205,-0.10044193267822266,4.084441184997559
1701097491236920300,17.00392041015625,0.048142969608306885,0.7125029563903809,4.881861209869385
1701097491253911300,17.020911376953126,-0.5472597479820251,1.2677884101867676,5.3009562492370605
1701097491270903000,17.037903076171876,-0.8810992240905762,1.855360984802246,5.394959449768066
1701097491287881700,17.0548818359375,-0.9807912111282349,2.369457721710205,5.693859100341797
1701097491304886000,17.071885986328127,-0.8193616271018982,2.812563896179199,6.559576034545898
1701097491321874200,17.088874267578124,-0.5732300281524658,3.219515800476074,8.146600723266602
1701097491338871000,17.10587109375,-0.7276142239570618,4.071889877319336,9.594123840332031
1701097491355860000,17.12285986328125,-1.9515562057495117,5.168565273284912,10.21647834777832
1701097491372851500,17.1398515625,-3.761317729949951,5.788242340087891,10.746472358703613
1701097491389842200,17.15684228515625,-4.971231460571289,6.285507678985596,11.130594253540039
1701097491406834000,17.173833984375,-5.003516674041748,6.379499435424805,12.05157470703125
1701097491423825400,17.190825439453125,-4.264543056488037,6.3679680824279785,12.92734432220459
1701097491440811300,17.207811279296877,-3.428919792175293,6.496609687805176,13.064048767089844
1701097491457807600,17.2248076171875,-2.610907554626465,6.252862930297852,12.940914154052734
1701097491474799400,17.24179931640625,-1.9258511066436768,5.511729717254639,12.645332336425781
1701097491491790600,17.25879052734375,-1.212967038154602,4.516200542449951,12.155339241027832
1701097491508774400,17.2757744140625,-0.6049970388412476,3.4579386711120605,12.017555236816406
1701097491525762800,17.2927626953125,-0.16146612167358398,2.2522964477539062,12.224952697753906
1701097491542767000,17.30976708984375,0.44987940788269043,1.6016817092895508,12.317707061767578
1701097491559757600,17.326757568359376,0.8071526885032654,1.281428337097168,12.42671012878418
1701097491576733200,17.343733154296874,0.8916919827461243,1.1950531005859375,12.089351654052734
1701097491593735700,17.360735595703126,0.7465212345123291,0.6577072143554688,11.568147659301758
1701097491610724000,17.37772412109375,0.8148660659790039,-0.5872926712036133,11.068975448608398
1701097491627718400,17.394718505859377,1.1026614904403687,-2.3603506088256836,10.707450866699219
1701097491644710400,17.41171044921875,1.44278883934021,-3.9564051628112793,9.713680267333984
1701097491661697300,17.428697265625,1.840927004814148,-4.641454219818115,7.896151542663574
1701097491678688800,17.445688720703124,2.139071226119995,-4.676886558532715,5.659529685974121
1701097491695677200,17.46267724609375,2.5176808834075928,-4.334303379058838,3.604422092437744
1701097491712674600,17.479674560546876,2.581848382949829,-3.796391487121582,1.7578239440917969
1701097491729664300,17.496664306640625,2.3730227947235107,-3.238504409790039,0.1830453872680664
1701097491746653000,17.51365283203125,2.1889283657073975,-2.8589391708374023,-1.0100798606872559
1701097491763643600,17.5306435546875,1.996994137763977,-2.7578229904174805,-1.808342456817627
1701097491780637700,17.5476376953125,1.9438718557357788,-2.799807071685791,-2.514965534210205
1701097491797629000,17.56462890625,2.104940891265869,-2.900400400161743,-3.2668843269348145
1701097491814618000,17.5816181640625,2.3986644744873047,-3.0870606899261475,-3.9799718856811523
1701097491831609300,17.598609375,2.7029895782470703,-3.3596184253692627,-4.544105529785156
1701097491848598800,17.615598876953126,3.011023998260498,-3.758417844772339,-4.813485622406006
1701097491865585200,17.632585205078126,3.3042774200439453,-4.258318901062012,-4.940191745758057
1701097491882589400,17.64958935546875,3.5851683616638184,-4.918639659881592,-5.057006359100342
1701097491899580200,17.666580078125,4.047886848449707,-5.5221405029296875,-5.35376501083374
1701097491916573200,17.6835732421875,4.799915313720703,-5.989394664764404,-5.758675575256348
1701097491933556700,17.700556640625,5.460101127624512,-6.416566848754883,-5.937743663787842
1701097491950548700,17.717548828125,5.844724655151367,-6.744641304016113,-5.935803413391113
1701097491967547400,17.73454736328125,6.203014373779297,-6.882245063781738,-6.038284778594971
1701097491984541200,17.751541259765624,6.482643127441406,-6.876888275146484,-6.375741004943848
1701097492001528600,17.768528564453124,6.645480155944824,-7.062234878540039,-6.510403633117676
1701097492018523100,17.785523193359374,6.514596462249756,-7.092129707336426,-6.083232402801514
1701097492035508700,17.8025087890625,6.013677597045898,-6.897164821624756,-5.333276748657227
1701097492052505900,17.819505859375,4.716771125793457,-7.442103862762451,-4.028128147125244
1701097492069496600,17.83649658203125,2.3955211639404297,-8.303199768066406,-2.8480634689331055
1701097492086485800,17.85348583984375,-0.14536511898040771,-9.13847541809082,-1.8210487365722656
1701097492103481900,17.87048193359375,-1.560980200767517,-8.750442504882812,-1.6519832611083984
1701097492120471300,17.88747119140625,-1.1902073621749878,-7.881595611572266,0.4791393280029297
1701097492137462000,17.9044619140625,-0.13904905319213867,-7.244186878204346,4.509591102600098
1701097492154453800,17.921453857421874,0.12932467460632324,-6.535094738006592,8.276217460632324
1701097492171445200,17.9384453125,-0.04472935199737549,-5.612008571624756,9.79339599609375
1701097492188436700,17.955436767578124,-0.6518394947052002,-4.741208553314209,8.81967830657959
1701097492205414100,17.9724140625,-1.4792218208312988,-3.4775681495666504,6.003118515014648
1701097492222419200,17.989419189453123,-1.7025202512741089,-1.8176603317260742,3.1187658309936523
1701097492239409200,18.0064091796875,-1.2424936294555664,-0.21784639358520508,1.5857205390930176
1701097492256403500,18.023403564453126,-0.6714824438095093,0.7324132919311523,2.4877448081970215
1701097492273393200,18.04039306640625,-0.4942653179168701,2.031280040740967,3.6752238273620605
1701097492290384600,18.057384521484376,-0.9686605930328369,3.0777029991149902,3.6806225776672363
1701097492307375900,18.0743759765625,-1.639543890953064,3.64481782913208,3.0114569664001465
1701097492324367600,18.09136767578125,-2.04866623878479,3.7678613662719727,2.528757095336914
1701097492341356500,18.1083564453125,-2.021259307861328,3.6408796310424805,2.541269302368164
1701097492358352400,18.125352294921875,-1.6519849300384521,3.343508720397949,3.4102935791015625
1701097492375341600,18.142341552734376,-0.8610265254974365,3.350559711456299,4.674777030944824
1701097492392333000,18.1593330078125,-0.6373727917671204,3.344409465789795,5.645318984985352
1701097492409323800,18.17632373046875,-0.8217973113059998,3.461635112762451,6.564520359039307
1701097492426315500,18.1933154296875,-1.6541885137557983,3.733954906463623,7.486874103546143
1701097492443296300,18.210296142578127,-2.556734085083008,4.173917770385742,8.195676803588867
1701097492460298500,18.227298583984375,-2.9359841346740723,4.549543857574463,8.918161392211914
1701097492477289200,18.244289306640624,-2.3435564041137695,4.641767978668213,9.788078308105469
1701097492494281000,18.261281005859374,-1.2381012439727783,4.566190719604492,10.661145210266113
1701097492511272400,18.2782724609375,-0.49168136715888977,4.619932174682617,11.472013473510742
1701097492528264000,18.295263916015625,-0.9571020007133484,4.3199992179870605,12.339153289794922
1701097492545254700,18.312254638671874,-2.4163947105407715,3.7672295570373535,12.38309097290039
1701097492562246400,18.329246337890623,-3.527425765991211,3.372692584991455,12.028932571411133
1701097492579238000,18.34623779296875,-3.3051199913024902,2.3606925010681152,12.323283195495605
1701097492596229400,18.3632294921875,-1.4656941890716553,1.887063980102539,12.396551132202148
1701097492613220000,18.38022021484375,0.32755494117736816,1.7060165405273438,12.458755493164062
1701097492630210800,18.3972109375,1.2394933700561523,2.2558932304382324,11.655548095703125
1701097492647192600,18.414192626953124,1.003438949584961,2.4185824394226074,10.823439598083496
1701097492664194800,18.43119482421875,0.5185900330543518,1.938797950744629,10.288223266601562
1701097492681188600,18.448188720703126,0.5079794526100159,0.5641002655029297,9.98554801940918
1701097492698174000,18.465174072265626,1.1161853075027466,-1.0070686340332031,9.364873886108398
1701097492715168500,18.48216845703125,1.7918716669082642,-2.206979751586914,8.283884048461914
1701097492732160500,18.499160400390625,2.2928876876831055,-2.7053823471069336,6.652621269226074
1701097492749151000,18.51615087890625,2.4057743549346924,-2.777479648590088,4.94409704208374
1701097492766142700,18.533142822265624,2.3832757472991943,-2.4121899604797363,3.2157130241394043
1701097492783134000,18.550134033203125,1.9433850049972534,-2.220271587371826,1.8449211120605469
1701097492800126200,18.567126220703123,1.680764079093933,-2.1193485260009766,0.7063369750976562
1701097492817115600,18.58411572265625,1.563772201538086,-2.3502421379089355,-0.24410152435302734
1701097492834108000,18.60110791015625,1.5268577337265015,-2.7775254249572754,-1.3563942909240723
1701097492851099400,18.618099365234375,1.51118803024292,-3.1598262786865234,-2.636911392211914
1701097492868091100,18.635091064453125,1.585191249847412,-3.490922451019287,-3.8625078201293945
1701097492885082000,18.65208203125,1.9139797687530518,-3.6185238361358643,-4.824808120727539
1701097492902073600,18.669073486328124,2.349358558654785,-3.7113349437713623,-5.241011142730713
1701097492919065600,18.686065673828125,2.9841840267181396,-4.172321796417236,-5.0271124839782715
1701097492936042800,18.703042724609375,3.674361228942871,-4.489432334899902,-4.9986724853515625
1701097492953050000,18.720050048828124,4.030284404754639,-4.832465648651123,-4.835794925689697
1701097492970039300,18.737039306640625,4.323958396911621,-5.023021697998047,-4.81742000579834
1701097492987030300,18.7540302734375,4.393429756164551,-5.21126651763916,-4.782365798950195
1701097493004022300,18.771022216796876,4.288336753845215,-5.621418476104736,-4.615868091583252
1701097493021013000,18.788012939453125,4.362070083618164,-6.176143646240234,-4.30269718170166
1701097493038004700,18.805004638671875,4.825636863708496,-6.854604244232178,-3.9451727867126465
1701097493054996000,18.821995849609376,5.300323486328125,-7.492517471313477,-3.747926712036133
1701097493071987500,18.838987548828126,5.419501304626465,-7.720232009887695,-3.372307300567627
1701097493088977400,18.855977294921875,4.624079704284668,-7.859653949737549,-2.946107864379883
1701097493105970000,18.872969970703124,3.309520721435547,-8.664313316345215,-1.945326328277588
1701097493122961200,18.889961181640626,1.9311192035675049,-10.068988800048828,-0.09900188446044922
1701097493139953200,18.906953125,0.9634871482849121,-10.120631217956543,0.6240768432617188
1701097493156944000,18.92394384765625,0.4567112326622009,-8.757296562194824,-0.2830944061279297
1701097493173935400,18.940935302734374,0.8083726763725281,-7.326186180114746,-1.332657814025879
1701097493190928400,18.957928466796876,1.707517147064209,-6.4564127922058105,-1.1406879425048828
1701097493207906000,18.974906005859374,2.367264986038208,-6.2697062492370605,0.4414339065551758
1701097493224909000,18.991908935546874,2.3128862380981445,-5.929971694946289,1.9669132232666016
1701097493241901000,19.008901123046876,1.3923349380493164,-5.254371643066406,2.4793777465820312
1701097493258892000,19.02589208984375,0.36024755239486694,-3.9988980293273926,1.9788341522216797
1701097493275884000,19.042884033203126,-0.42695900797843933,-2.3247690200805664,1.6292285919189453
1701097493292883700,19.0598837890625,-0.910898745059967,-0.7564687728881836,2.344951629638672
1701097493309868000,19.076867919921874,-1.4990122318267822,0.6854424476623535,3.871652603149414
1701097493326858500,19.0938583984375,-2.199842691421509,1.9962925910949707,4.8342084884643555
1701097493343849200,19.11084912109375,-3.012399911880493,3.0076661109924316,4.693462371826172
1701097493360830000,19.127829833984375,-3.8430423736572266,3.2843222618103027,4.521599292755127
1701097493377831700,19.144831787109375,-3.9189674854278564,3.426694393157959,4.3033127784729
1701097493394823200,19.1618232421875,-2.594740629196167,3.260434150695801,4.1157989501953125
1701097493411815000,19.17881494140625,-0.4928041696548462,2.8579025268554688,5.5361456871032715
1701097493428805600,19.1958056640625,0.3955683708190918,2.9030532836914062,7.774005889892578
1701097493445790200,19.212790283203127,-0.8538050651550293,3.512600898742676,8.761381149291992
1701097493462783500,19.229783447265625,-2.6178910732269287,4.179871082305908,9.143009185791016
1701097493479782100,19.2467822265625,-3.705658435821533,4.671774387359619,9.808568954467773
1701097493496770800,19.263770751953125,-3.409024715423584,5.030961036682129,10.448692321777344
1701097493513760300,19.28076025390625,-2.5589489936828613,5.023713111877441,10.989358901977539
1701097493530753800,19.29775390625,-2.326965093612671,4.821811676025391,11.686429977416992
1701097493547748000,19.314748046875,-2.7671141624450684,4.921279430389404,12.313338279724121
1701097493564741400,19.331741455078124,-3.836181163787842,5.055275917053223,12.70697021484375
1701097493581728000,19.34872802734375,-4.9598894119262695,4.7280449867248535,13.13577651977539
1701097493598719500,19.365719482421873,-5.127243518829346,4.0427141189575195,13.382018089294434
1701097493615711200,19.382711181640627,-4.192812442779541,3.0817065238952637,13.442464828491211
1701097493632701700,19.39970166015625,-2.822902202606201,1.8372836112976074,13.310464859008789
1701097493649678800,19.416678955078126,-1.2128006219863892,0.9162998199462891,12.804573059082031
1701097493666685000,19.433684814453127,0.2817615270614624,0.3969907760620117,12.168447494506836
1701097493683673900,19.450673828125,1.6555951833724976,0.45052337646484375,11.338376998901367
1701097493700670200,19.467670166015626,2.465153932571411,0.2657938003540039,10.861593246459961
1701097493717659000,19.484658935546875,2.6036014556884766,-0.4106330871582031,10.222743034362793
1701097493734650400,19.501650390625,2.6580607891082764,-1.6020116806030273,9.224457740783691
1701097493751641900,19.518641845703126,2.7853853702545166,-3.0964956283569336,8.035571098327637
1701097493768632800,19.5356328125,3.156121253967285,-4.62526273727417,6.726283550262451
1701097493785615000,19.552614990234375,3.3793532848358154,-5.363804817199707,5.056626319885254
1701097493802612000,19.569612060546874,3.09968900680542,-4.986366271972656,2.988051414489746
1701097493819600100,19.58660009765625,2.6371259689331055,-4.297956466674805,1.401738166809082
1701097493836598000,19.603597900390625,2.0949196815490723,-3.7374300956726074,0.3209095001220703
1701097493853579800,19.620579833984376,1.6721925735473633,-3.369342803955078,-0.37160158157348633
1701097493870581200,19.637581298828124,1.6391760110855103,-3.010432243347168,-1.033790111541748
1701097493887571700,19.65457177734375,1.7410246133804321,-2.863405704498291,-1.7212014198303223
1701097493904564700,19.671564697265627,1.7419860363006592,-2.8367271423339844,-2.3561954498291016
1701097493921553200,19.68855322265625,1.9289429187774658,-2.7483487129211426,-3.041175365447998
1701097493938549200,19.70554931640625,2.19504451751709,-2.8592379093170166,-3.521207809448242
1701097493955538400,19.722538330078127,2.4737534523010254,-3.1809170246124268,-3.8276071548461914
1701097493972529200,19.739529052734376,2.980592727661133,-3.61655592918396,-4.197947978973389
1701097493989520600,19.756520751953126,3.5376155376434326,-4.077425956726074,-4.244642734527588
1701097494006512000,19.77351220703125,4.020847320556641,-4.261227607727051,-4.230754375457764
1701097494023502300,19.79050244140625,4.014265060424805,-4.320947170257568,-4.416072368621826
1701097494040496000,19.80749609375,3.7330780029296875,-4.495270729064941,-4.913354873657227
1701097494057486600,19.824486572265624,3.744394302368164,-5.013172626495361,-4.926136493682861
1701097494074477800,19.841477783203125,4.027803421020508,-5.653489589691162,-4.587821006774902
1701097494091469300,19.85846923828125,4.282758712768555,-6.218213081359863,-4.5530171394348145
1701097494108460000,19.8754599609375,4.336014270782471,-6.845858573913574,-4.929276943206787
1701097494125447400,19.892447509765624,4.2369279861450195,-7.189525604248047,-5.4702253341674805
1701097494142443300,19.909443359375,4.121601104736328,-7.294835567474365,-5.598527431488037
1701097494159434800,19.926434814453124,3.752941131591797,-7.378808975219727,-4.973710536956787
1701097494176425200,19.94342529296875,2.9408063888549805,-7.5427680015563965,-3.625833034515381
1701097494193417200,19.960417236328126,1.975806713104248,-7.64259672164917,-2.4925713539123535
1701097494210409200,19.9774091796875,1.24878990650177,-7.452187538146973,-2.165174961090088
1701097494227402500,19.994402587890626,1.2269070148468018,-7.041055679321289,-1.9459233283996582
1701097494244388400,20.011388427734374,1.8460808992385864,-6.502577781677246,-1.3485164642333984
1701097494261385200,20.02838525390625,2.5251305103302,-6.069777488708496,0.14052295684814453
1701097494278371600,20.04537158203125,2.4770939350128174,-5.800975799560547,1.990565299987793
1701097494295365600,20.06236572265625,1.8384521007537842,-5.52999210357666,3.2263364791870117
1701097494312354600,20.0793544921875,1.0251020193099976,-5.046229362487793,3.2525129318237305
1701097494329350100,20.09635009765625,0.5932180881500244,-4.224467754364014,2.847322463989258
1701097494346339300,20.11333935546875,0.618478536605835,-3.118960380554199,2.8595008850097656
1701097494363331300,20.130331298828125,0.8300535678863525,-1.561690330505371,3.3603811264038086
1701097494380322000,20.147322021484374,0.34739765524864197,-0.27103424072265625,4.397592067718506
1701097494397313500,20.1643134765625,-0.2582544982433319,1.1006674766540527,5.25969123840332
1701097494414294300,20.181294189453126,-1.0802555084228516,2.2831435203552246,5.8506693840026855
1701097494431280000,20.198280029296875,-2.0360310077667236,2.9424047470092773,6.253763198852539
1701097494448289800,20.215289794921876,-2.597372531890869,3.2454795837402344,6.230270862579346
1701097494465276000,20.23227587890625,-2.3287692070007324,3.2953290939331055,6.107565402984619
1701097494482273500,20.2492734375,-1.7166969776153564,3.314924716949463,6.196470260620117
1701097494499262000,20.266261962890624,-0.8186243176460266,3.375950336456299,6.761735916137695
1701097494516253000,20.2832529296875,-0.24778518080711365,3.802525520324707,7.502326965332031
1701097494533244700,20.30024462890625,-0.3592013418674469,4.244533061981201,8.08554458618164
1701097494550235600,20.317235595703124,-0.6809514760971069,4.61690092086792,8.457220077514648
1701097494567227600,20.3342275390625,-0.5649157762527466,5.074695587158203,8.743054389953613
1701097494584218000,20.351218017578127,-0.36313727498054504,5.125970363616943,9.275267601013184
1701097494601207300,20.368207275390624,0.47934260964393616,5.1136698722839355,9.904645919799805
1701097494618217000,20.385217041015625,1.407464861869812,5.023148536682129,10.80357551574707
1701097494635193000,20.402193115234375,1.7374505996704102,4.94893741607666,11.537683486938477
1701097494652181200,20.41918115234375,1.2047282457351685,4.755650997161865,12.201809883117676
1701097494669177900,20.436177734375,0.21461710333824158,4.491404056549072,12.647869110107422
1701097494686156300,20.45315625,-0.5964537858963013,4.117730617523193,12.892097473144531
1701097494703158500,20.470158447265625,-0.8258664608001709,3.150437355041504,13.021886825561523
1701097494720149200,20.487149169921874,-0.13952139019966125,1.9111781120300293,12.799325942993164
1701097494737140700,20.504140625,0.9734280109405518,1.0019464492797852,12.227035522460938
1701097494754132200,20.52113232421875,1.695763111114502,0.6661739349365234,11.472179412841797
1701097494771123700,20.538123779296875,1.7926363945007324,0.9337978363037109,10.43895435333252
1701097494788114700,20.55511474609375,1.3181984424591064,0.8592681884765625,9.754938125610352
1701097494805106200,20.572106201171874,1.0959360599517822,0.05821800231933594,9.350229263305664
1701097494822099000,20.589098876953123,1.2204787731170654,-1.1056537628173828,8.629547119140625
1701097494839088000,20.606088134765624,1.7435405254364014,-2.365767478942871,7.392672538757324
1701097494856080100,20.623080078125,2.3060925006866455,-3.417375087738037,5.7689714431762695
1701097494873071900,20.64007177734375,2.683030843734741,-3.868999481201172,3.731151580810547
1701097494890060500,20.657060546875,2.8166775703430176,-3.5847697257995605,1.6244711875915527
1701097494907057400,20.674057373046875,2.575071096420288,-3.122659683227539,0.17986726760864258
1701097494924045600,20.691045654296875,2.064049243927002,-2.768216133117676,-0.9054737091064453
1701097494941037000,20.708037109375,1.809930443763733,-2.403122901916504,-2.019947052001953
1701097494958028800,20.72502880859375,1.75514817237854,-2.2746405601501465,-2.837827682495117
1701097494975020500,20.7420205078125,1.917055606842041,-2.173684597015381,-3.5063161849975586
1701097494992011300,20.75901123046875,2.134521484375,-2.2016162872314453,-3.9039859771728516
1701097495008999400,20.77599951171875,2.4156484603881836,-2.3050882816314697,-4.216523170471191
1701097495025996800,20.792996826171876,2.660552501678467,-2.5518059730529785,-4.314403057098389
1701097495042985700,20.80998583984375,2.9988086223602295,-2.780416488647461,-4.401279449462891
1701097495059976400,20.8269765625,3.475856065750122,-3.0608320236206055,-4.522453308105469
1701097495076954600,20.84395458984375,3.9974966049194336,-3.399552583694458,-4.645998954772949
1701097495093947100,20.860947021484375,4.403631210327148,-3.6741347312927246,-4.679780960083008
1701097495110942700,20.877942626953125,4.909448146820068,-4.077033996582031,-4.640124797821045
1701097495127930600,20.8949306640625,5.005983352661133,-4.349277496337891,-4.589616775512695
1701097495144929300,20.91192919921875,4.721879005432129,-4.836477756500244,-4.420235633850098
1701097495161913900,20.928913818359376,4.531298637390137,-5.56620979309082,-4.0951738357543945
1701097495178915000,20.9459150390625,4.605218887329102,-6.465146064758301,-3.779162883758545
1701097495195897900,20.96289794921875,4.980618476867676,-6.872256755828857,-3.7503437995910645
1701097495212893200,20.97989306640625,4.948602199554443,-7.025481224060059,-3.5573577880859375
1701097495229883100,20.996883056640623,3.8867125511169434,-7.374489784240723,-2.9594368934631348
1701097495246870000,21.0138701171875,2.656001091003418,-7.6664652824401855,-2.3408560752868652
1701097495263868700,21.03086865234375,1.941199779510498,-7.663518905639648,-1.2833194732666016
1701097495280857600,21.047857666015624,1.6789023876190186,-6.828788757324219,-0.11416435241699219
1701097495297844700,21.0648447265625,1.0524506568908691,-5.730167388916016,0.3418149948120117
1701097495314833400,21.08183349609375,0.06179007887840271,-4.874332904815674,0.49155521392822266
1701097495331828000,21.098827880859375,-0.9297260642051697,-4.550116062164307,0.8945808410644531
1701097495348820000,21.115820068359376,-1.5542153120040894,-4.410728931427002,1.4948368072509766
1701097495365810400,21.132810546875,-1.6552226543426514,-4.096827507019043,1.6676568984985352
1701097495382807000,21.14980712890625,-1.3180902004241943,-3.282400131225586,1.1662864685058594
1701097495399801300,21.16680126953125,-1.1531469821929932,-2.285583019256592,0.46767616271972656
1701097495416794000,21.183794189453124,-1.1253528594970703,-1.081507682800293,-0.15836858749389648
1701097495433780000,21.200780029296876,-0.8457784652709961,-0.08820390701293945,-0.030029296875
1701097495450772000,21.21777197265625,-0.3787940740585327,0.868687629699707,0.7214012145996094
1701097495467769600,21.23476953125,-0.11120551824569702,1.5308380126953125,1.4152421951293945
1701097495484751000,21.251751220703124,-0.4436509609222412,1.9781808853149414,1.9343624114990234
1701097495501746200,21.26874609375,-0.8396424651145935,2.2167859077453613,2.5397958755493164
1701097495518746600,21.28574658203125,-1.132246971130371,2.4232869148254395,3.0871047973632812
1701097495535734500,21.302734619140626,-1.1195716857910156,2.3730664253234863,3.8265299797058105
1701097495552726500,21.3197265625,-0.6708014011383057,2.471987724304199,4.504450798034668
1701097495569717800,21.3367177734375,-0.1720547080039978,2.5736308097839355,5.490985870361328
1701097495586709200,21.353709228515626,0.11204224824905396,2.9301681518554688,6.656186580657959
1701097495603692800,21.37069287109375,0.07268023490905762,3.324925422668457,7.640403747558594
1701097495620694500,21.387694580078126,-0.06619980931282043,3.6752495765686035,8.3480863571167
1701097495637683500,21.404683349609375,-0.04410666227340698,3.840935230255127,9.090215682983398
1701097495654675200,21.42167529296875,0.38258349895477295,3.947521686553955,9.897286415100098
1701097495671649000,21.43864892578125,1.0121698379516602,4.1263885498046875,10.947434425354004
1701097495688649700,21.455649658203125,1.6054099798202515,4.359044551849365,12.323190689086914
1701097495705642200,21.472642333984375,1.7021958827972412,4.201817989349365,13.618185043334961
1701097495722635800,21.4896357421875,1.0848093032836914,3.765338897705078,14.251463890075684
1701097495739635700,21.5066357421875,0.6884813904762268,3.3793015480041504,14.201900482177734
1701097495756620000,21.5236201171875,0.6226779222488403,2.642697811126709,13.7625732421875
1701097495773606100,21.540606201171876,1.4237136840820312,2.2441816329956055,12.6492338180542
1701097495790605800,21.557605712890624,2.128666639328003,1.9871563911437988,11.554529190063477
1701097495807598300,21.574598388671873,2.2495059967041016,2.097959518432617,10.467987060546875
1701097495824586500,21.59158642578125,1.676850438117981,2.118983745574951,9.515959739685059
1701097495841577000,21.608576904296875,0.8405700325965881,1.4923219680786133,8.920818328857422
1701097495858563300,21.625563232421875,0.4132203459739685,0.26221275329589844,8.444023132324219
1701097495875562000,21.64256201171875,0.5573395490646362,-1.0591955184936523,7.708150386810303
1701097495892554000,21.659553955078124,1.0569013357162476,-2.169783592224121,6.763556480407715
1701097495909545200,21.676545166015625,1.504136085510254,-2.713761329650879,5.609612941741943
1701097495926537200,21.693537109375,1.6253471374511719,-2.7150115966796875,4.3379034996032715
1701097495943528400,21.710528564453124,1.1383329629898071,-2.49839448928833,3.160282611846924
1701097495960518100,21.72751806640625,0.4146277904510498,-1.8225460052490234,1.839076042175293
1701097495977508400,21.74450830078125,-0.07085010409355164,-1.1997895240783691,0.955998420715332
1701097495994504200,21.761504150390625,0.053957462310791016,-0.9200339317321777,0.6212019920349121
1701097496011492900,21.778492919921874,0.5997544527053833,-1.0566229820251465,0.25936460494995117
