time,seconds_elapsed,z,y,x
1701904670838600000,0.115599853515625,-0.5713977813720703,0.34787917137145996,1.3786780834197998
1701904670855592000,0.132592041015625,-1.4659490585327148,0.3895893096923828,1.3883298635482788
1701904670872587300,0.149587158203125,-1.8856596946716309,0.15296411514282227,1.0665340423583984
1701904670889581000,0.1665810546875,-1.7955331802368164,-0.14187407493591309,1.0810943841934204
1701904670906572300,0.183572265625,-1.817612648010254,-0.36369895935058594,0.9542693495750427
1701904670923563800,0.200563720703125,-2.440951347351074,-0.7821223735809326,0.410591721534729
1701904670940552400,0.217552490234375,-3.0463790893554688,-1.3263413906097412,-0.5862247943878174
1701904670957553000,0.234552978515625,-3.4662528038024902,-2.069730758666992,-1.721883773803711
1701904670974544100,0.251544189453125,-3.890146255493164,-3.0065131187438965,-2.7735753059387207
1701904670991533000,0.268532958984375,-4.492143630981445,-4.0474419593811035,-3.596517324447632
1701904671008532700,0.28553271484375,-5.091219902038574,-5.1542181968688965,-4.22953987121582
1701904671025522200,0.302522216796875,-5.2804388999938965,-5.789358615875244,-4.755027770996094
1701904671042509300,0.31950927734375,-5.460710048675537,-6.0938496589660645,-5.113460540771484
1701904671059487700,0.33648779296875,-5.586539268493652,-6.345095157623291,-4.842006683349609
1701904671076495600,0.35349560546875,-4.9375739097595215,-6.826265811920166,-4.487933158874512
1701904671093493500,0.370493408203125,-3.291980266571045,-7.122891426086426,-3.9990670680999756
1701904671110477300,0.387477294921875,-2.3774876594543457,-7.5396575927734375,-3.158642292022705
1701904671127478000,0.40447802734375,-3.228821277618408,-7.858613014221191,-1.9044489860534668
1701904671144482300,0.421482421875,-4.106000900268555,-7.879347801208496,-1.0245838165283203
1701904671161455400,0.438455322265625,-3.5207207202911377,-7.6433305740356445,-0.5457019805908203
1701904671178444000,0.455444091796875,-2.30692982673645,-7.9187116622924805,0.8111095428466797
1701904671195439400,0.472439453125,-1.6006014347076416,-8.516363143920898,3.0484304428100586
1701904671212435000,0.48943505859375,-1.7364590167999268,-9.32859992980957,5.91767692565918
1701904671229431300,0.506431396484375,-2.1389145851135254,-10.076870918273926,7.243926048278809
1701904671246412300,0.523412353515625,-2.608835220336914,-10.51265811920166,7.00103759765625
1701904671263417000,0.5404169921875,-2.3822572231292725,-10.647311210632324,6.634549140930176
1701904671280405200,0.5574052734375,-0.9827002286911011,-10.540323257446289,7.454366683959961
1701904671297387500,0.574387451171875,0.433127224445343,-10.093971252441406,9.210857391357422
1701904671314390300,0.591390380859375,1.6879768371582031,-8.96717357635498,10.080608367919922
1701904671331380200,0.608380126953125,2.6210389137268066,-7.2670793533325195,9.828024864196777
1701904671348380000,0.6253798828125,3.3764359951019287,-5.638498306274414,8.933055877685547
1701904671365371600,0.64237158203125,4.146508693695068,-3.86649751663208,7.758917808532715
1701904671382359800,0.65935986328125,4.631620407104492,-1.8164458274841309,6.486086845397949
1701904671399356000,0.67635595703125,4.71058988571167,0.35599660873413086,5.343319892883301
1701904671416347100,0.69334716796875,4.320499420166016,2.3716084957122803,4.533870220184326
1701904671433335800,0.710335693359375,3.288846731185913,3.9751856327056885,4.425983428955078
1701904671450329900,0.727329833984375,2.028898239135742,5.205283164978027,4.364981651306152
1701904671467327500,0.744327392578125,0.9819943308830261,6.055628776550293,4.16532564163208
1701904671484318500,0.761318359375,0.19051611423492432,6.516998291015625,3.9549660682678223
1701904671501303300,0.77830322265625,-0.2126384675502777,6.680349349975586,3.8174004554748535
1701904671518298000,0.795298095703125,-0.16724750399589539,6.766424179077148,3.896500587463379
1701904671535294700,0.812294677734375,0.1527024209499359,6.938430309295654,4.376537799835205
1701904671552287500,0.82928759765625,0.5052024722099304,7.248242378234863,5.116167068481445
1701904671569296600,0.846296630859375,0.513657808303833,7.5787739753723145,5.797662258148193
1701904671586265900,0.863265869140625,0.09086836874485016,7.579212188720703,6.778024196624756
1701904671603265500,0.880265625,-0.177205890417099,7.5962347984313965,7.74486780166626
1701904671620248300,0.897248291015625,-0.47564002871513367,7.8385186195373535,8.460493087768555
1701904671637241000,0.914240966796875,-0.7853279709815979,7.9719157218933105,8.914048194885254
1701904671654248000,0.931248046875,-0.9773294925689697,7.80773401260376,9.798870086669922
1701904671671220000,0.948219970703125,-0.7001683115959167,7.311807155609131,10.722298622131348
1701904671688229600,0.965229736328125,-0.688468337059021,5.982939720153809,11.453756332397461
1701904671705221600,0.9822216796875,-1.1026432514190674,4.277078151702881,11.56637954711914
1701904671722202600,0.99920263671875,-1.154344081878662,3.0410871505737305,11.175631523132324
1701904671739206100,1.0162060546875,-0.83653724193573,1.6837506294250488,11.25943374633789
1701904671756197000,1.033197021484375,-0.8010640144348145,0.5878281593322754,11.543252944946289
1701904671773188900,1.05018896484375,-0.9909307956695557,-0.23569250106811523,11.000884056091309
1701904671790180900,1.067180908203125,-0.9906594157218933,-0.7720232009887695,9.798320770263672
1701904671807177500,1.084177490234375,-0.5919521450996399,-2.2396092414855957,9.644770622253418
1701904671824168400,1.10116845703125,-0.2600606679916382,-3.961198329925537,9.82438850402832
1701904671841157600,1.11815771484375,0.2883750796318054,-5.330990314483643,9.23741626739502
1701904671858151700,1.135151611328125,0.9683324694633484,-6.286139488220215,7.724416732788086
1701904671875146800,1.152146728515625,1.7137045860290527,-6.844705104827881,6.104791641235352
1701904671892127000,1.169126953125,2.424435615539551,-6.883140563964844,4.528041839599609
1701904671909130800,1.186130859375,2.670170545578003,-6.3585004806518555,2.869196891784668
1701904671926122000,1.2031220703125,2.4160006046295166,-5.893942832946777,1.051473617553711
1701904671943103500,1.220103515625,2.0675318241119385,-5.658322811126709,-0.6254606246948242
1701904671960104700,1.237104736328125,2.64517879486084,-5.862881660461426,-2.043846607208252
1701904671977102000,1.25410205078125,3.766052484512329,-5.848936557769775,-3.365607738494873
1701904671994093300,1.27109326171875,3.7727479934692383,-5.967513561248779,-4.351587772369385
1701904672011071700,1.28807177734375,3.048506736755371,-6.001402854919434,-4.844954967498779
1701904672028077300,1.305077392578125,2.2654995918273926,-5.891493797302246,-4.959169387817383
1701904672045071600,1.322071533203125,1.9437191486358643,-5.817539691925049,-4.954853534698486
1701904672062059300,1.339059326171875,2.1839215755462646,-5.838381290435791,-5.018249988555908
1701904672079055600,1.3560556640625,3.2304768562316895,-5.858497619628906,-5.072003364562988
1701904672096045000,1.373045166015625,4.28871488571167,-5.725756645202637,-4.797319412231445
1701904672113043700,1.390043701171875,4.636318683624268,-5.774820327758789,-4.357414245605469
1701904672130030800,1.40703076171875,4.796689987182617,-5.947518348693848,-3.7701363563537598
1701904672147023000,1.424023193359375,4.858551025390625,-6.573798179626465,-2.9947867393493652
1701904672164009700,1.441009765625,4.843763828277588,-7.261364936828613,-2.3862595558166504
1701904672181007400,1.45800732421875,4.781440734863281,-7.630775451660156,-2.2003679275512695
1701904672198002200,1.475002197265625,4.848234176635742,-8.068374633789062,-2.0904760360717773
1701904672214997000,1.4919970703125,5.077829360961914,-8.623908996582031,-1.7840089797973633
1701904672231983400,1.5089833984375,5.39830207824707,-9.112884521484375,-1.1565423011779785
1701904672248983000,1.525983154296875,5.378155708312988,-9.612979888916016,-0.30312633514404297
1701904672265969200,1.54296923828125,4.6924662590026855,-9.912805557250977,0.3802967071533203
1701904672282964700,1.55996484375,3.2040388584136963,-9.813196182250977,-0.3371734619140625
1701904672299955000,1.576954833984375,2.233100652694702,-9.598801612854004,-2.0028676986694336
1701904672316948500,1.593948486328125,2.453305721282959,-9.073448181152344,-2.2777018547058105
1701904672333939500,1.610939453125,2.9030728340148926,-8.585884094238281,-0.58563232421875
1701904672350934000,1.62793408203125,2.706932783126831,-8.127260208129883,2.1165847778320312
1701904672367929900,1.644929931640625,1.946276068687439,-7.40835428237915,3.884396553039551
1701904672384908300,1.661908203125,0.37653017044067383,-6.58273458480835,3.9296560287475586
1701904672401908000,1.678907958984375,-0.9229502081871033,-5.502838134765625,3.095376968383789
1701904672418909000,1.695908935546875,-1.504180669784546,-4.384849548339844,2.3308706283569336
1701904672435897000,1.71289697265625,-1.4271876811981201,-3.182669162750244,1.8622827529907227
1701904672452885000,1.729885009765625,-0.9354473948478699,-2.0623626708984375,2.1473007202148438
1701904672469884700,1.746884765625,-0.6714081168174744,-0.8197660446166992,2.358480453491211
1701904672486874400,1.763874267578125,-0.7818529605865479,0.2633683681488037,2.2862367630004883
1701904672503868200,1.7808681640625,-1.220504641532898,0.9733433723449707,2.1332502365112305
1701904672520856000,1.79785595703125,-1.7554237842559814,1.2821221351623535,2.089138984680176
1701904672537852200,1.81485205078125,-1.7622572183609009,1.421342372894287,2.331784248352051
1701904672554849000,1.83184912109375,-1.4818017482757568,1.5166220664978027,2.9193243980407715
1701904672571832800,1.848832763671875,-1.0827832221984863,1.8649563789367676,3.6823811531066895
1701904672588830200,1.865830322265625,-1.0584291219711304,2.403522491455078,4.553740501403809
1701904672605822000,1.882822021484375,-1.362048625946045,2.97523832321167,5.718818187713623
1701904672622812200,1.899812255859375,-2.0927085876464844,3.6379735469818115,7.188894748687744
1701904672639807200,1.91680712890625,-2.78480863571167,4.355985641479492,8.740413665771484
1701904672656789000,1.9337890625,-3.521960735321045,5.118927955627441,10.238588333129883
1701904672673793000,1.95079296875,-4.290304183959961,6.201861381530762,11.45816707611084
1701904672690774800,1.96777490234375,-5.326870918273926,7.04861307144165,12.67602252960205
1701904672707776300,1.9847763671875,-5.63923978805542,7.5369720458984375,13.425329208374023
1701904672724760800,2.0017607421875,-5.423251152038574,7.210353851318359,13.46098518371582
1701904672741759000,2.018759033203125,-5.364686489105225,6.127455234527588,12.978973388671875
1701904672758760400,2.035760498046875,-5.217338562011719,5.155002593994141,12.245477676391602
1701904672775753500,2.05275341796875,-4.892965793609619,3.933063507080078,11.882492065429688
1701904672792737300,2.0697373046875,-4.420468807220459,3.3393635749816895,11.18724250793457
1701904672809732400,2.086732421875,-3.597795009613037,3.089322090148926,10.161148071289062
1701904672826724400,2.103724365234375,-2.6590092182159424,2.4542226791381836,9.275215148925781
1701904672843713500,2.120713623046875,-1.4181519746780396,1.3782715797424316,8.77883529663086
1701904672860706800,2.137706787109375,-0.19333410263061523,0.05229043960571289,8.682802200317383
1701904672877702000,2.154701904296875,0.6900649070739746,-1.3133769035339355,8.884234428405762
1701904672894684700,2.1716845703125,1.0524964332580566,-2.3082447052001953,8.579198837280273
1701904672911684900,2.188684814453125,1.1666568517684937,-2.6794300079345703,7.235334396362305
1701904672928676900,2.2056767578125,1.485685110092163,-2.6702380180358887,5.378392219543457
1701904672945662200,2.222662109375,1.924953579902649,-2.473416805267334,3.5401735305786133
1701904672962661600,2.23966162109375,2.4835104942321777,-2.4432363510131836,2.0875425338745117
1701904672979653600,2.256653564453125,2.827150821685791,-2.870772123336792,1.2421035766601562
1701904672996638500,2.273638427734375,3.0547025203704834,-3.666473388671875,0.8593072891235352
1701904673013639200,2.29063916015625,3.050346851348877,-4.640682220458984,0.3607006072998047
1701904673030635000,2.307635009765625,3.0516648292541504,-5.411724090576172,-0.4202394485473633
1701904673047627000,2.324626953125,3.088113307952881,-5.732680797576904,-1.594825267791748
1701904673064617700,2.34161767578125,3.1634764671325684,-5.7667622566223145,-2.8003554344177246
1701904673081608400,2.3586083984375,3.139732837677002,-5.7266998291015625,-3.7493295669555664
1701904673098604000,2.37560400390625,2.954265594482422,-6.175824165344238,-4.054925441741943
1701904673115593700,2.39259375,2.724085569381714,-6.617778301239014,-4.270813941955566
1701904673132586500,2.40958642578125,2.851327896118164,-6.8866071701049805,-4.572571277618408
1701904673149581600,2.42658154296875,3.3740267753601074,-6.984163284301758,-4.915368556976318
1701904673166563600,2.4435634765625,3.88089919090271,-7.425142288208008,-4.760432720184326
1701904673183554300,2.46055419921875,4.03463077545166,-8.19717788696289,-4.200926780700684
1701904673200556300,2.477556396484375,4.053348541259766,-8.90676498413086,-3.8655409812927246
1701904673217553400,2.494553466796875,3.9249420166015625,-9.536455154418945,-3.5042214393615723
1701904673234542800,2.51154296875,3.7926368713378906,-9.74496841430664,-2.8700122833251953
1701904673251536000,2.528535888671875,3.485945463180542,-9.69656753540039,-2.316702365875244
1701904673268529000,2.54552880859375,2.4094443321228027,-9.902099609375,-1.4768953323364258
1701904673285519400,2.562519287109375,1.3627058267593384,-10.110231399536133,-0.8765144348144531
1701904673302514000,2.579513916015625,0.6997573375701904,-10.405838012695312,-0.6039085388183594
1701904673319506700,2.596506591796875,0.6759299635887146,-10.27875804901123,-0.11774349212646484
1701904673336498700,2.613498779296875,1.0191287994384766,-9.596566200256348,0.7114620208740234
1701904673353489200,2.6304892578125,0.9387791752815247,-8.949092864990234,1.7109785079956055
1701904673370478600,2.647478515625,0.14406287670135498,-8.208977699279785,2.2556276321411133
1701904673387478300,2.664478271484375,-1.0578733682632446,-7.5587663650512695,2.0796003341674805
1701904673404479500,2.6814794921875,-1.845078706741333,-6.993812084197998,1.491307258605957
1701904673421459200,2.698459228515625,-1.5339422225952148,-6.100441932678223,0.29132080078125
1701904673438445000,2.715445068359375,-0.7560855150222778,-4.89818000793457,-0.7911872863769531
1701904673455438800,2.73243896484375,-0.3759046792984009,-3.632951259613037,-1.1502456665039062
1701904673472436000,2.74943603515625,-0.5099977254867554,-2.36848783493042,-0.6196813583374023
1701904673489431600,2.766431640625,-0.8477317094802856,-1.0582659244537354,0.012111663818359375
1701904673506423600,2.783423583984375,-1.607234239578247,-0.06376957893371582,0.36888694763183594
1701904673523417300,2.800417236328125,-2.4246597290039062,0.5313396453857422,0.566314697265625
1701904673540402000,2.81740185546875,-2.931565999984741,0.8219053745269775,0.7207908630371094
1701904673557404400,2.834404296875,-2.928537130355835,1.0379035472869873,0.9228801727294922
1701904673574413800,2.851413818359375,-2.818751573562622,1.0824875831604004,1.7473697662353516
1701904673591380200,2.868380126953125,-2.7156002521514893,1.6419646739959717,2.6326847076416016
1701904673608381200,2.885381103515625,-3.2620081901550293,2.2051947116851807,3.937831401824951
1701904673625372000,2.902371826171875,-3.848039150238037,2.8237156867980957,5.193894386291504
1701904673642360800,2.91936083984375,-3.974729537963867,3.6074378490448,6.190116882324219
1701904673659356000,2.93635595703125,-3.976191997528076,4.1979265213012695,7.395221710205078
1701904673676338200,2.953338134765625,-3.867806911468506,4.88913631439209,8.797994613647461
1701904673693342200,2.97034228515625,-3.8289196491241455,5.720101356506348,10.104787826538086
1701904673710328000,2.987328125,-3.9126110076904297,6.646893501281738,11.404182434082031
1701904673727328300,3.004328369140625,-3.826939582824707,7.1810760498046875,12.357505798339844
1701904673744321000,3.021321044921875,-3.594010591506958,6.846993923187256,12.804764747619629
1701904673761304800,3.038304931640625,-3.4919681549072266,5.885104656219482,12.801680564880371
1701904673778304800,3.0553046875,-3.420332431793213,4.922022819519043,12.188095092773438
1701904673795293200,3.072293212890625,-3.6053972244262695,4.004733085632324,11.422605514526367
1701904673812287500,3.08928759765625,-3.560072898864746,3.6107900142669678,10.475985527038574
1701904673829295000,3.106295166015625,-3.3403944969177246,3.2211477756500244,9.430868148803711
1701904673846264800,3.123264892578125,-2.818312644958496,2.6091933250427246,8.53300666809082
1701904673863261700,3.14026171875,-2.044532299041748,1.7556147575378418,7.709188938140869
1701904673880260400,3.15726025390625,-1.0775282382965088,0.552947998046875,7.341341972351074
1701904673897251000,3.1742509765625,-0.4096510112285614,-0.8844699859619141,7.3644633293151855
1701904673914244400,3.191244384765625,-0.087654709815979,-1.99119234085083,7.076615333557129
1701904673931229700,3.208229736328125,0.047069400548934937,-2.5208420753479004,6.0189008712768555
1701904673948221000,3.225220947265625,0.2048073709011078,-2.531986713409424,4.350376129150391
1701904673965221000,3.24222119140625,0.4287351667881012,-2.3585104942321777,2.7454967498779297
1701904673982214400,3.25921435546875,0.578101634979248,-2.2237601280212402,1.273904800415039
1701904673999201300,3.276201171875,0.9518096446990967,-2.2761971950531006,0.08199310302734375
1701904674016199000,3.293198974609375,1.2424137592315674,-2.607351541519165,-0.7772216796875
1701904674033191000,3.31019091796875,1.5233571529388428,-3.0744311809539795,-1.5252571105957031
1701904674050178000,3.327177978515625,1.696901798248291,-3.493027687072754,-2.3246231079101562
1701904674067168000,3.34416796875,1.8854479789733887,-3.7896203994750977,-3.0647215843200684
1701904674084169000,3.3611689453125,2.123633861541748,-3.965715169906616,-3.6374945640563965
1701904674101160700,3.37816064453125,2.197192430496216,-4.0714921951293945,-4.161534786224365
1701904674118153200,3.3951533203125,2.2234549522399902,-4.2302422523498535,-4.377843856811523
1701904674135146800,3.412146728515625,2.423374652862549,-4.365356922149658,-4.249124526977539
1701904674152140800,3.429140869140625,2.570099353790283,-4.506600379943848,-4.14634370803833
1701904674169127700,3.446127685546875,2.7646327018737793,-4.72234582901001,-4.109360218048096
1701904674186114300,3.4631142578125,3.1481432914733887,-5.219412803649902,-3.7784571647644043
1701904674203115800,3.48011572265625,3.5313680171966553,-6.075803756713867,-3.007267475128174
1701904674220108500,3.497108642578125,3.587315320968628,-6.880754470825195,-2.2638821601867676
1701904674237100500,3.5141005859375,3.578317642211914,-7.396030426025391,-1.6111879348754883
1701904674254090500,3.531090576171875,3.909752368927002,-7.540372371673584,-1.3683195114135742
1701904674271085600,3.54808544921875,4.3518829345703125,-7.989597797393799,-0.916377067565918
1701904674288078300,3.565078369140625,4.616621017456055,-8.198366165161133,-0.578618049621582
1701904674305070000,3.582070068359375,4.385205268859863,-8.120765686035156,-0.6915054321289062
1701904674322064000,3.59906396484375,3.5359175205230713,-8.20181655883789,-0.9059991836547852
1701904674339055400,3.616055419921875,2.4160284996032715,-8.275605201721191,-1.4330649375915527
1701904674356048600,3.633048583984375,1.7306699752807617,-7.948683261871338,-2.201845169067383
1701904674373037300,3.650037353515625,1.490138292312622,-7.437969207763672,-2.362307548522949
1701904674390030300,3.6670302734375,1.4845503568649292,-6.891164779663086,-1.843423843383789
1701904674407025400,3.684025390625,1.3014243841171265,-6.515182018280029,-0.8371906280517578
1701904674424018700,3.701018798828125,0.7544008493423462,-6.316400051116943,0.01406097412109375
1701904674441007000,3.718007080078125,-0.055021464824676514,-5.870911598205566,0.3855457305908203
1701904674458003500,3.73500341796875,-1.1702256202697754,-5.321746349334717,0.26785850524902344
1701904674474995500,3.751995361328125,-1.9153920412063599,-4.385076522827148,-0.29271793365478516
1701904674491988200,3.76898828125,-2.094784736633301,-3.142392873764038,-0.6998567581176758
1701904674508966100,3.785966064453125,-1.933327078819275,-1.9583889245986938,-0.5318565368652344
1701904674525971200,3.80297119140625,-1.7144367694854736,-0.7836627960205078,-0.21827411651611328
1701904674542966300,3.81996630859375,-1.491966724395752,0.36602187156677246,-0.0370025634765625
1701904674559959300,3.836959228515625,-1.5930242538452148,1.0815815925598145,0.026996612548828125
1701904674576950300,3.8539501953125,-2.086644411087036,1.2051267623901367,0.14627838134765625
1701904674593943000,3.870943115234375,-2.485616445541382,1.1834144592285156,0.5465974807739258
1701904674610936000,3.88793603515625,-2.489433526992798,1.2853198051452637,1.1922922134399414
1701904674627927300,3.90492724609375,-2.3850083351135254,1.4970264434814453,1.7854032516479492
1701904674644921000,3.921921142578125,-2.3839516639709473,1.6576201915740967,2.660533905029297
1701904674661912800,3.938912841796875,-2.2386281490325928,2.0499603748321533,3.9303135871887207
1701904674678905000,3.955905029296875,-2.219052314758301,2.650970220565796,5.30696439743042
1701904674695898000,3.972898193359375,-2.351915121078491,3.392171621322632,6.699550151824951
1701904674712889900,3.989889892578125,-2.734104633331299,4.187496185302734,8.1218900680542
1701904674729883000,4.0068828125,-2.9476935863494873,5.068042755126953,9.322579383850098
1701904674746875000,4.023875,-3.1692185401916504,5.873224258422852,10.289676666259766
1701904674763864600,4.040864501953125,-3.499727725982666,6.427285194396973,10.914908409118652
1701904674780858600,4.057858642578125,-3.753025531768799,6.249110698699951,11.422008514404297
1701904674797853000,4.07485302734375,-4.027341842651367,5.338058948516846,11.66425895690918
1701904674814846500,4.091846435546875,-3.888376235961914,4.704507350921631,10.942224502563477
1701904674831837700,4.108837646484375,-3.432767152786255,3.8342599868774414,10.101714134216309
1701904674848829700,4.12582958984375,-2.8298723697662354,2.8916735649108887,9.493820190429688
1701904674865822500,4.142822509765625,-2.0633091926574707,2.4694666862487793,8.916816711425781
1701904674882815500,4.1598154296875,-1.3516514301300049,2.344634532928467,8.5530366897583
1701904674899807500,4.176807373046875,-0.9122259616851807,2.126880645751953,8.024295806884766
1701904674916799700,4.1937998046875,-0.6176760792732239,1.5135712623596191,7.460464000701904
1701904674933792800,4.210792724609375,-0.16746312379837036,0.6171231269836426,7.008932590484619
1701904674950781400,4.227781494140625,0.27337586879730225,-0.5438637733459473,6.776270389556885
1701904674967771000,4.24477099609375,0.40713638067245483,-1.500570297241211,6.236642837524414
1701904674984756700,4.2617568359375,0.4366488456726074,-1.8297324180603027,5.03419303894043
1701904675001771500,4.278771484375,0.37365230917930603,-1.6541404724121094,3.549361228942871
1701904675018754300,4.29575439453125,0.2939138412475586,-1.373520851135254,2.1307592391967773
1701904675035756500,4.312756591796875,0.2567337453365326,-1.2159743309020996,0.9481916427612305
1701904675052742100,4.3297421875,0.29947224259376526,-1.353344440460205,-0.13181495666503906
1701904675069732400,4.346732421875,0.5527557134628296,-1.7622356414794922,-1.0324831008911133
1701904675086724400,4.363724365234375,0.9330680966377258,-2.3449177742004395,-1.7551665306091309
1701904675103717600,4.380717529296875,1.2957136631011963,-2.900364398956299,-2.455453395843506
1701904675120709000,4.397709228515625,1.668199896812439,-3.3344902992248535,-3.221330165863037
1701904675137701600,4.41470166015625,1.929502248764038,-3.653144359588623,-3.990933418273926
1701904675154681900,4.431681884765625,2.1485745906829834,-4.074075698852539,-4.404194355010986
1701904675171690000,4.44868994140625,2.3383846282958984,-4.4474005699157715,-4.6756062507629395
1701904675188669200,4.465669189453125,2.5819694995880127,-4.769496917724609,-4.777853965759277
1701904675205662200,4.482662109375,2.854081392288208,-4.839547157287598,-4.839959144592285
1701904675222651400,4.4996513671875,3.1099767684936523,-5.210371017456055,-4.399327754974365
1701904675239659800,4.51665966796875,3.335237979888916,-6.320565223693848,-3.3342161178588867
1701904675256649500,4.5336494140625,3.441288471221924,-7.286140441894531,-2.5567126274108887
1701904675273639000,4.550638916015625,3.770212173461914,-7.736623764038086,-2.014357566833496
1701904675290634200,4.56763427734375,4.113486289978027,-7.689548969268799,-1.9731330871582031
1701904675307627000,4.584626953125,4.215432643890381,-7.807591438293457,-1.6242775917053223
1701904675324616200,4.6016162109375,4.024501323699951,-7.773782730102539,-1.3879437446594238
1701904675341612000,4.618612060546875,3.7254040241241455,-7.525186061859131,-1.2466917037963867
1701904675358604000,4.63560400390625,3.0488698482513428,-7.509557723999023,-0.9888181686401367
1701904675375593700,4.65259375,1.8024108409881592,-7.56988000869751,-1.0951042175292969
1701904675392581400,4.669581298828125,0.8991668224334717,-7.282429218292236,-1.8152379989624023
1701904675409582000,4.68658203125,1.0994763374328613,-6.478826522827148,-2.351189136505127
1701904675426574000,4.703573974609375,1.4847991466522217,-5.842349529266357,-1.8566136360168457
1701904675443566800,4.72056689453125,1.5455658435821533,-5.376258373260498,-0.4602489471435547
1701904675460553500,4.737553466796875,0.9109225273132324,-4.851459503173828,0.8550958633422852
1701904675477554400,4.754554443359375,-0.13949525356292725,-4.351332664489746,1.0708284378051758
1701904675494543600,4.771543701171875,-0.9460384845733643,-3.7269976139068604,0.30066871643066406
1701904675511528000,4.78852783203125,-1.2962729930877686,-3.030669689178467,-0.5815830230712891
1701904675528528000,4.80552783203125,-1.039715051651001,-2.118190050125122,-0.941925048828125
1701904675545519600,4.82251953125,-0.6314366459846497,-1.1679112911224365,-0.5635051727294922
1701904675562516200,4.83951611328125,-0.3399229049682617,-0.06067800521850586,0.05558490753173828
1701904675579519200,4.856519287109375,-0.439420223236084,0.8685300350189209,0.7040748596191406
1701904675596496100,4.87349609375,-1.0790270566940308,1.5759453773498535,1.159562110900879
1701904675613494000,4.890493896484375,-1.929258108139038,2.0172414779663086,1.4871339797973633
1701904675630481200,4.907481201171875,-2.4265692234039307,2.3537099361419678,1.8192386627197266
1701904675647478300,4.924478271484375,-2.267143726348877,2.491943836212158,2.422985553741455
1701904675664481800,4.941481689453125,-1.5822465419769287,2.633058547973633,3.2488560676574707
1701904675681459000,4.958458984375,-1.1853997707366943,2.8088784217834473,4.60133695602417
1701904675698456300,4.975456298828125,-1.7578712701797485,3.119370698928833,5.9351887702941895
1701904675715436000,4.99243603515625,-2.7197041511535645,3.7414238452911377,6.940032482147217
1701904675732441000,5.009441162109375,-3.77482008934021,4.390318870544434,7.674874305725098
1701904675749431300,5.026431396484375,-4.195291519165039,4.781948089599609,8.550938606262207
1701904675766423300,5.04342333984375,-3.839874744415283,5.0196757316589355,9.33349895477295
1701904675783413200,5.060413330078125,-3.3742737770080566,5.19296407699585,9.702566146850586
1701904675800408600,5.07740869140625,-3.3923559188842773,5.3040452003479,9.810367584228516
1701904675817398000,5.09439794921875,-3.748471736907959,5.22764778137207,9.787501335144043
1701904675834390300,5.111390380859375,-4.175086975097656,4.599897384643555,9.61219596862793
1701904675851373000,5.128373046875,-4.316919803619385,3.9506590366363525,9.15032958984375
1701904675868380700,5.145380615234375,-4.133368015289307,3.3717308044433594,8.91184139251709
1701904675885372200,5.1623720703125,-3.6546740531921387,2.597919464111328,9.039758682250977
1701904675902362400,5.1793623046875,-2.808032274246216,2.2850117683410645,8.985909461975098
1701904675919356200,5.196356201171875,-1.8737071752548218,2.3139233589172363,8.71285629272461
1701904675936348200,5.21334814453125,-1.2699556350708008,2.207047462463379,8.274314880371094
1701904675953341200,5.230341064453125,-0.9072340130805969,1.6472759246826172,7.7705464363098145
1701904675970326000,5.247325927734375,-0.5407914519309998,0.5366039276123047,7.511324882507324
1701904675987329500,5.26432958984375,0.11928653717041016,-0.6131572723388672,7.264342308044434
1701904676004317700,5.281317626953125,0.5992394089698792,-1.6778531074523926,6.9441914558410645
1701904676021313500,5.2983134765625,0.8080151081085205,-2.098377227783203,5.960413932800293
1701904676038297300,5.31529736328125,0.9792512655258179,-1.8896021842956543,4.380234718322754
1701904676055305700,5.3323056640625,1.2584389448165894,-1.4466614723205566,2.7922592163085938
1701904676072287700,5.349287841796875,1.4766647815704346,-1.1331830024719238,1.4626188278198242
1701904676089281000,5.366281005859375,1.575263261795044,-1.0569138526916504,0.5350561141967773
1701904676106274000,5.383274169921875,1.85036039352417,-1.2081718444824219,-0.17388343811035156
1701904676123264500,5.400264404296875,2.055777072906494,-1.6086430549621582,-0.5809764862060547
1701904676140257500,5.417257568359375,2.328883647918701,-2.1298460960388184,-0.8655214309692383
1701904676157250800,5.434250732421875,2.647608518600464,-2.585794448852539,-1.4268412590026855
1701904676174239500,5.451239501953125,2.8457894325256348,-3.0355610847473145,-2.0820932388305664
1701904676191233000,5.46823291015625,3.0675196647644043,-3.417235851287842,-2.7283668518066406
1701904676208230400,5.48523046875,3.4044997692108154,-3.741544723510742,-3.259645462036133
1701904676225218300,5.50221826171875,3.867112636566162,-4.112222671508789,-3.5980448722839355
1701904676242214400,5.51921435546875,4.674526691436768,-4.323022365570068,-3.6860671043395996
1701904676259205000,5.536205078125,5.507595062255859,-4.490901470184326,-3.632218837738037
1701904676276196600,5.553196533203125,5.973220348358154,-4.831770420074463,-3.4969191551208496
1701904676293187800,5.570187744140625,6.13044548034668,-5.330441951751709,-3.1947855949401855
1701904676310179800,5.587179931640625,5.996462821960449,-5.848756790161133,-2.7448925971984863
1701904676327176000,5.604176025390625,5.8693037033081055,-6.2663164138793945,-2.2695279121398926
1701904676344169500,5.62116943359375,5.826371669769287,-6.963744163513184,-1.3332829475402832
1701904676361156900,5.638156982421875,5.638336181640625,-7.437600135803223,-0.7009954452514648
1701904676378152200,5.655152099609375,5.548647880554199,-7.148674964904785,-0.9041872024536133
1701904676395145200,5.672145263671875,5.291751384735107,-7.165621280670166,-1.0736165046691895
1701904676412137200,5.68913720703125,4.4006242752075195,-7.150529861450195,-1.521491527557373
1701904676429130000,5.7061298828125,2.4250173568725586,-6.961343765258789,-2.4357728958129883
1701904676446122000,5.7231220703125,0.1376957893371582,-6.590721130371094,-3.174009323120117
1701904676463115000,5.740114990234375,-0.7216110229492188,-6.436056613922119,-2.550046920776367
1701904676480099300,5.757099365234375,-0.020714640617370605,-5.896810531616211,-1.613502025604248
1701904676497100300,5.774100341796875,0.5237159729003906,-5.528285503387451,-0.14374160766601562
1701904676514091800,5.791091796875,-0.01671576499938965,-5.0351338386535645,0.9847822189331055
1701904676531084800,5.808084716796875,-1.7046085596084595,-4.877971172332764,1.2474889755249023
1701904676548076000,5.825075927734375,-3.1176886558532715,-4.495924949645996,0.5747871398925781
1701904676565060000,5.84206005859375,-3.7696969509124756,-3.7945809364318848,-0.32466697692871094
1701904676582061600,5.8590615234375,-3.78908109664917,-2.9683196544647217,-0.9234371185302734
1701904676599054800,5.876054931640625,-3.5214710235595703,-1.9772906303405762,-1.1404781341552734
1701904676616046800,5.893046875,-2.954313039779663,-0.9203863143920898,-0.9918451309204102
1701904676633040000,5.910039794921875,-2.486802101135254,0.02831125259399414,-0.42757129669189453
1701904676650028500,5.927028564453125,-1.9869110584259033,0.7542879581451416,0.10608482360839844
1701904676667013400,5.944013427734375,-1.6055673360824585,1.063408374786377,0.7205314636230469
1701904676684015900,5.961015869140625,-1.1249278783798218,1.0371379852294922,1.8445816040039062
1701904676701002800,5.978002685546875,-0.7450377345085144,1.0946149826049805,2.9484386444091797
1701904676717996000,5.99499609375,-1.1322016716003418,1.6288108825683594,3.0063681602478027
1701904676734989300,6.0119892578125,-2.693488121032715,1.8331704139709473,3.074054718017578
1701904676751986400,6.028986328125,-4.089543342590332,1.9917516708374023,3.7677993774414062
1701904676768979500,6.0459794921875,-4.8506975173950195,2.223764419555664,5.117285251617432
1701904676785971500,6.062971435546875,-5.102031230926514,2.712742328643799,6.609187126159668
1701904676802964200,6.079964111328125,-5.102343559265137,3.3323841094970703,7.847628593444824
1701904676819956000,6.0969560546875,-4.817173004150391,4.065044403076172,8.438565254211426
1701904676836949200,6.11394921875,-4.1527323722839355,4.593267440795898,8.865139961242676
1701904676853941000,6.13094091796875,-3.4310500621795654,5.07076358795166,9.192649841308594
1701904676870931200,6.14793115234375,-2.7001895904541016,5.221668243408203,9.978416442871094
1701904676887927600,6.164927490234375,-2.1475002765655518,4.800490379333496,10.629110336303711
1701904676904917800,6.181917724609375,-1.8526839017868042,4.071320533752441,10.78738021850586
1701904676921910800,6.198910888671875,-1.7593598365783691,3.5682053565979004,10.087567329406738
1701904676938903800,6.21590380859375,-1.855360984802246,2.6167869567871094,9.707910537719727
1701904676955886600,6.232886474609375,-1.6886425018310547,2.2409024238586426,9.095098495483398
1701904676972889000,6.24988916015625,-1.5296647548675537,2.3651208877563477,8.227861404418945
1701904676989880800,6.266880859375,-1.534049391746521,2.3059210777282715,7.518387794494629
1701904677006874000,6.2838740234375,-1.2922377586364746,1.9329314231872559,6.795855522155762
1701904677023865600,6.300865478515625,-0.7736417055130005,1.0129890441894531,6.398571014404297
1701904677040859000,6.31785888671875,-0.16436302661895752,-0.0583343505859375,6.214526653289795
1701904677057849900,6.334849853515625,0.41585463285446167,-0.857572078704834,6.022275447845459
1701904677074841000,6.351841064453125,0.5906216502189636,-1.1646027565002441,5.610964775085449
1701904677091835600,6.368835693359375,0.3544158339500427,-0.6864199638366699,4.567636013031006
1701904677108828700,6.38582861328125,-0.017583847045898438,0.2638850212097168,3.117788791656494
1701904677125820200,6.402820068359375,-0.3152914047241211,1.0390229225158691,2.0312867164611816
1701904677142814200,6.419814208984375,-0.5176889896392822,1.4309477806091309,1.2764692306518555
1701904677159792600,6.436792724609375,-0.3697243928909302,1.2133755683898926,1.2469043731689453
1701904677176790500,6.45379052734375,-0.4894368648529053,0.6062641143798828,1.3491954803466797
1701904677193787400,6.470787353515625,-0.6563758850097656,0.03556632995605469,0.9356002807617188
1701904677210783200,6.487783203125,-0.49561595916748047,-0.5628242492675781,0.21005821228027344
1701904677227775500,6.504775390625,0.45375871658325195,-1.3724002838134766,-0.28287506103515625
1701904677244768500,6.5217685546875,1.8192095756530762,-2.224374771118164,-0.6075658798217773
1701904677261760000,6.538760009765625,3.284533977508545,-3.3477141857147217,-0.25815773010253906
1701904677278753500,6.55575341796875,4.687776565551758,-4.250215530395508,-0.20328712463378906
1701904677295745500,6.57274560546875,5.5894880294799805,-4.773736476898193,-0.8599081039428711
1701904677312737800,6.58973779296875,6.228051662445068,-5.180237770080566,-1.645535945892334
1701904677329729800,6.606729736328125,6.694312572479248,-5.916732311248779,-1.651580810546875
1701904677346723000,6.62372314453125,7.033731937408447,-7.048466682434082,-0.9860219955444336
1701904677363715000,6.640715087890625,7.212218284606934,-8.000320434570312,-0.3787403106689453
1701904677380697600,6.657697509765625,7.1845011711120605,-8.215024948120117,-0.4933929443359375
1701904677397700000,6.6747001953125,6.978212356567383,-8.389369010925293,-0.8408079147338867
1701904677414690300,6.691690185546875,6.886989116668701,-8.40047836303711,-1.3825297355651855
1701904677431687400,6.7086875,6.417864799499512,-8.215112686157227,-2.07560396194458
1701904677448676900,6.7256767578125,5.491364479064941,-8.190659523010254,-2.48406982421875
1701904677465670400,6.74267041015625,4.481245517730713,-8.3404541015625,-2.8744091987609863
1701904677482662700,6.75966259765625,3.7322311401367188,-8.259295463562012,-3.4422807693481445
1701904677499641900,6.776641845703125,3.1027092933654785,-7.610916614532471,-4.318417549133301
1701904677516636700,6.79363671875,2.411027431488037,-6.864229679107666,-4.886605262756348
1701904677533631200,6.81063134765625,1.3890615701675415,-6.416794776916504,-4.608037948608398
1701904677550624300,6.827624267578125,0.49595463275909424,-6.453904151916504,-3.4719552993774414
1701904677567608800,6.84460888671875,0.05960845947265625,-6.427771091461182,-2.3257861137390137
1701904677584611800,6.86161181640625,0.18707120418548584,-6.443841934204102,-1.2726774215698242
1701904677601597400,6.878597412109375,0.08494293689727783,-6.195992946624756,-0.5622148513793945
1701904677618602500,6.8956025390625,-0.8818925619125366,-5.681821346282959,-0.32131385803222656
1701904677635588600,6.912588623046875,-1.791511058807373,-4.662594795227051,-0.558807373046875
1701904677652578000,6.929578125,-2.2717607021331787,-3.4095449447631836,-0.3815593719482422
1701904677669569500,6.946569580078125,-2.476609468460083,-2.2158172130584717,0.1888427734375
1701904677686569000,6.96356884765625,-2.4699547290802,-1.1647601127624512,0.9304304122924805
1701904677703558100,6.98055810546875,-2.512680768966675,-0.2462294101715088,1.5117578506469727
1701904677720552000,6.997552001953125,-2.764904499053955,0.23163843154907227,2.1211633682250977
1701904677737542700,7.014542724609375,-3.3484678268432617,0.6236701011657715,2.660161018371582
1701904677754537700,7.031537841796875,-4.212486267089844,0.8181300163269043,3.182366371154785
1701904677771521800,7.048521728515625,-5.186248302459717,1.120307445526123,3.6334075927734375
1701904677788519400,7.06551953125,-5.645237922668457,1.5318665504455566,4.046822547912598
1701904677805516300,7.082516357421875,-5.654693603515625,1.8981118202209473,4.57344388961792
1701904677822509000,7.099509033203125,-5.417266845703125,2.052964210510254,5.68183708190918
1701904677839495700,7.11649560546875,-5.435837745666504,2.468067169189453,6.704890251159668
1701904677856492300,7.1334921875,-5.649396896362305,2.8694095611572266,7.523904800415039
1701904677873488000,7.15048779296875,-5.653840065002441,3.1949610710144043,8.136974334716797
1701904677890477800,7.167477783203125,-5.335361480712891,3.5329537391662598,8.516644477844238
1701904677907474400,7.184474365234375,-4.864240646362305,3.9404821395874023,8.691120147705078
1701904677924464000,7.201464111328125,-4.610500335693359,4.320005416870117,8.827507972717285
1701904677941461200,7.218461181640625,-4.783956527709961,4.0703816413879395,9.238836288452148
1701904677958450700,7.23545068359375,-5.124823570251465,3.3385167121887207,9.60344123840332
1701904677975444500,7.252444580078125,-5.059017658233643,2.7301220893859863,9.55462646484375
1701904677992436200,7.269436279296875,-4.78111457824707,1.7911081314086914,9.677335739135742
1701904678009428500,7.286428466796875,-4.4136962890625,1.1369280815124512,9.406675338745117
1701904678026421500,7.30342138671875,-3.815089225769043,0.9766249656677246,8.750116348266602
1701904678043413000,7.3204130859375,-2.850053071975708,0.8450889587402344,7.945072650909424
1701904678060406300,7.33740625,-1.830452799797058,0.18774938583374023,7.579744815826416
1701904678077398300,7.354398193359375,-0.7441082000732422,-0.8858561515808105,7.631127834320068
1701904678094387700,7.3713876953125,0.13809430599212646,-1.8146047592163086,7.601418972015381
1701904678111383000,7.388383056640625,0.6408998370170593,-2.3904242515563965,7.304426193237305
1701904678128376300,7.405376220703125,0.8625240921974182,-2.1840953826904297,6.207793712615967
1701904678145367800,7.422367919921875,1.2073707580566406,-1.5829057693481445,4.760860443115234
1701904678162360800,7.43936083984375,1.5246946811676025,-1.1071205139160156,3.46317195892334
1701904678179354600,7.456354736328125,1.9537272453308105,-0.8322153091430664,2.1892004013061523
1701904678196345900,7.473345947265625,2.4478919506073,-1.1046876907348633,1.333913803100586
1701904678213334800,7.490334716796875,2.9362335205078125,-1.5799670219421387,0.5131731033325195
1701904678230330600,7.50733056640625,3.140395402908325,-2.099283456802368,-0.6319770812988281
1701904678247318300,7.524318359375,3.0165514945983887,-2.6973094940185547,-1.9097108840942383
1701904678264320500,7.541320556640625,3.0022153854370117,-3.3022756576538086,-3.073070526123047
1701904678281304300,7.55830419921875,3.219942092895508,-3.814239501953125,-4.123036861419678
1701904678298300400,7.575300537109375,3.285285234451294,-4.374815940856934,-4.867822170257568
1701904678315292400,7.59229248046875,3.7422659397125244,-4.737687110900879,-5.283787727355957
1701904678332285400,7.609285400390625,3.9260337352752686,-4.937060356140137,-5.545353889465332
1701904678349277400,7.62627734375,4.1592607498168945,-5.128697872161865,-5.544891357421875
1701904678366270000,7.64327001953125,4.6664323806762695,-5.3118133544921875,-5.341641426086426
1701904678383262700,7.6602626953125,4.98140811920166,-5.872560024261475,-4.679940223693848
1701904678400255200,7.677255126953125,5.13162899017334,-6.5825514793396,-3.8821492195129395
1701904678417247000,7.6942470703125,4.729891777038574,-7.106712341308594,-3.3343048095703125
1701904678434240300,7.711240234375,4.351222991943359,-7.294217586517334,-3.5161890983581543
1701904678451232000,7.72823193359375,4.209901332855225,-7.45261812210083,-3.785944938659668
1701904678468224300,7.745224365234375,4.239383220672607,-7.818075180053711,-3.640019416809082
1701904678485217500,7.762217529296875,4.320720672607422,-8.107348442077637,-3.376254081726074
1701904678502207200,7.779207275390625,4.379890441894531,-8.256387710571289,-3.074188232421875
1701904678519191800,7.79619189453125,4.094752311706543,-8.403152465820312,-2.805997848510742
1701904678536197600,7.81319775390625,3.040590524673462,-8.337199211120605,-2.8984365463256836
1701904678553186800,7.830186767578125,2.1014316082000732,-7.6550068855285645,-3.4293603897094727
1701904678570179800,7.847179931640625,1.4577776193618774,-7.109403133392334,-3.214202404022217
1701904678587171800,7.864171875,1.513161301612854,-6.346076011657715,-2.2941431999206543
1701904678604161800,7.881161865234375,1.4511666297912598,-5.907951354980469,-0.4746131896972656
1701904678621156600,7.898156494140625,0.7475330829620361,-5.531532287597656,1.1033897399902344
1701904678638149600,7.915149658203125,-0.16319000720977783,-5.19218635559082,1.7979631423950195
1701904678655141600,7.9321416015625,-0.5321658849716187,-4.537846088409424,1.5400543212890625
1701904678672134700,7.949134765625,-0.12175985425710678,-3.5721189975738525,0.9609136581420898
1701904678689126400,7.96612646484375,0.7738034725189209,-2.2800240516662598,0.7167825698852539
1701904678706119400,7.983119384765625,1.0710017681121826,-0.9276540279388428,1.0940923690795898
1701904678723111400,8.000111328125,0.4580230712890625,0.3921651840209961,1.8136749267578125
1701904678740102400,8.017102294921875,-0.6308320760726929,1.3856143951416016,2.259079933166504
1701904678757096200,8.03409619140625,-1.7218821048736572,2.169743776321411,2.3518495559692383
1701904678774078500,8.051078369140624,-2.5900583267211914,2.5701725482940674,2.5033721923828125
1701904678791078000,8.068077880859375,-2.858083963394165,2.715031862258911,2.8650126457214355
1701904678808074200,8.08507421875,-2.67067551612854,2.809281826019287,3.402134418487549
1701904678825066000,8.10206591796875,-2.5883994102478027,2.9412665367126465,3.9221410751342773
1701904678842048300,8.11904833984375,-2.4833950996398926,3.161297082901001,4.597578525543213
1701904678859050800,8.13605078125,-2.435199737548828,3.3701579570770264,5.099129676818848
1701904678876040200,8.153040283203126,-2.4032909870147705,3.55145001411438,5.557387351989746
1701904678893039400,8.170039306640625,-2.4619572162628174,3.598498582839966,6.279038906097412
1701904678910025700,8.187025634765625,-2.5135889053344727,3.52180814743042,7.2785515785217285
1701904678927020500,8.2040205078125,-2.824352741241455,3.7459781169891357,8.18459701538086
1701904678944013600,8.221013671875,-3.732102394104004,3.9812097549438477,9.041977882385254
1701904678961005600,8.238005615234375,-4.877186298370361,4.280513286590576,9.699483871459961
1701904678977997800,8.254997802734374,-5.899880886077881,4.211853981018066,10.235347747802734
1701904678994988800,8.27198876953125,-6.395644187927246,3.6426217555999756,10.519594192504883
1701904679011975400,8.288975341796874,-6.308967590332031,3.071458339691162,10.07181453704834
1701904679028975400,8.305975341796875,-5.934177875518799,2.2702627182006836,9.96512222290039
1701904679045966800,8.322966796875,-6.157356262207031,1.3544402122497559,10.534144401550293
1701904679062962000,8.3399619140625,-6.967739582061768,0.8474411964416504,10.768640518188477
1701904679079953200,8.356953125,-7.267451763153076,0.5587263107299805,10.249820709228516
1701904679096942600,8.373942626953125,-6.71829891204834,-0.21882963180541992,9.540115356445312
1701904679113937700,8.390937744140626,-5.143825531005859,-1.699052333831787,9.150968551635742
1701904679130930000,8.407929931640625,-3.482062578201294,-3.485157012939453,9.00450611114502
1701904679147923000,8.4249228515625,-2.1411547660827637,-4.676407337188721,8.557303428649902
1701904679164911000,8.4419111328125,-1.3235135078430176,-5.318455696105957,7.428765296936035
1701904679181910500,8.45891064453125,-1.0401265621185303,-5.150820255279541,5.672792434692383
1701904679198895600,8.4758955078125,-1.1070644855499268,-4.768471717834473,3.693291664123535
1701904679215893000,8.49289306640625,-0.8183135390281677,-4.214090347290039,1.8470935821533203
1701904679232884700,8.509884765625,-0.4040454626083374,-3.8843588829040527,0.18259048461914062
1701904679249879300,8.52687939453125,0.06367474794387817,-3.8264198303222656,-1.3107938766479492
1701904679266868000,8.543867919921874,0.329839825630188,-4.027725696563721,-2.573289394378662
1701904679283862800,8.56086279296875,0.5299259424209595,-4.243383884429932,-3.5652685165405273
1701904679300843800,8.57784375,0.76917964220047,-4.417479515075684,-4.3776068687438965
1701904679317847600,8.59484765625,1.1114146709442139,-4.588472843170166,-5.049291610717773
1701904679334837200,8.611837158203125,1.4047276973724365,-4.671703815460205,-5.652096748352051
1701904679351834600,8.628834716796876,1.834370732307434,-4.732707977294922,-6.044868469238281
1701904679368823600,8.645823486328124,2.1613857746124268,-4.853294372558594,-6.310852527618408
1701904679385807400,8.662807373046874,2.321178436279297,-5.019054412841797,-6.601085186004639
1701904679402809300,8.679809326171876,2.5944316387176514,-5.044116020202637,-6.892080307006836
1701904679419802000,8.696802001953126,3.016416072845459,-4.951980113983154,-6.923412322998047
1701904679436793900,8.7137939453125,3.2772936820983887,-5.002748012542725,-6.838778018951416
1701904679453787000,8.730786865234375,3.454925537109375,-5.103968620300293,-6.609030723571777
1701904679470785000,8.747784912109376,3.452785015106201,-5.398357391357422,-6.11588191986084
1701904679487769300,8.764769287109376,3.4261252880096436,-5.79878044128418,-5.573798656463623
1701904679504766500,8.781766357421875,3.433018445968628,-6.528195381164551,-4.7293806076049805
1701904679521752000,8.798751953125,3.7692646980285645,-7.124402046203613,-3.514878273010254
1701904679538749000,8.8157490234375,3.801689624786377,-7.595839977264404,-2.188462734222412
1701904679555741700,8.83274169921875,2.781339645385742,-7.830585479736328,-1.1263742446899414
1701904679572733700,8.849733642578125,1.9338207244873047,-8.087627410888672,-0.16481876373291016
1701904679589726500,8.8667265625,1.1946072578430176,-8.373153686523438,0.3438549041748047
1701904679606718500,8.883718505859376,1.4048880338668823,-8.022320747375488,0.7112417221069336
1701904679623709400,8.90070947265625,1.5656464099884033,-7.294750213623047,1.253035545349121
1701904679640699600,8.91769970703125,1.270322322845459,-6.532257556915283,2.5691614151000977
1701904679657696500,8.934696533203125,0.4010993242263794,-5.559903144836426,3.925236701965332
1701904679674686000,8.95168603515625,-0.6489241123199463,-5.399275779724121,5.242109298706055
1701904679691680500,8.968680419921874,0.35434815287590027,-4.578526496887207,5.220269203186035
1701904679708673000,8.985673095703126,1.7748206853866577,-3.468538284301758,4.193026542663574
1701904679725666300,9.002666259765626,2.44917368888855,-1.8665995597839355,2.961092948913574
1701904679742655500,9.019655517578125,1.3679660558700562,-0.24653959274291992,2.2518739700317383
1701904679759653400,9.0366533203125,-0.790095329284668,1.0584771633148193,2.46038818359375
1701904679776640500,9.053640625,-2.091644763946533,2.4661290645599365,2.7743139266967773
1701904679793638400,9.070638427734375,-2.546250104904175,3.427122116088867,2.4638757705688477
1701904679810624800,9.087624755859375,-2.1886494159698486,3.7022719383239746,2.0896825790405273
1701904679827620900,9.104620849609375,-1.5525243282318115,3.5549023151397705,1.8814783096313477
1701904679844612600,9.121612548828125,-1.0856775045394897,3.3245253562927246,1.6452126502990723
1701904679861605600,9.138605712890625,-0.6441919803619385,3.487832546234131,1.5845413208007812
1701904679878596900,9.155596923828124,-0.6975774765014648,3.84928297996521,2.5975289344787598
1701904679895591400,9.17259130859375,-0.9448700547218323,4.412815093994141,4.011157989501953
1701904679912582100,9.18958203125,-1.4992287158966064,4.932923793792725,5.244141101837158
1701904679929575200,9.2065751953125,-2.011352300643921,5.261315822601318,5.825541973114014
1701904679946580500,9.22358056640625,-2.2941529750823975,5.70810604095459,6.42260217666626
1701904679963560400,9.240560546875,-2.84555983543396,6.126301288604736,6.832149028778076
1701904679980552200,9.25755224609375,-2.7535948753356934,6.3425822257995605,7.625382423400879
1701904679997545200,9.274545166015624,-2.2446863651275635,6.595459938049316,8.584559440612793
1701904680014534100,9.2915341796875,-1.627492904663086,6.76585054397583,9.544219017028809
1701904680031530200,9.3085302734375,-1.9744616746902466,6.438534736633301,10.50198745727539
1701904680048516900,9.325516845703126,-3.0222432613372803,5.673293113708496,10.998035430908203
1701904680065514800,9.3425146484375,-3.4546337127685547,5.353483200073242,11.065617561340332
1701904680082506800,9.3595068359375,-3.5319252014160156,4.633070945739746,11.834527015686035
1701904680099499800,9.376499755859374,-3.2625789642333984,4.0005950927734375,12.512662887573242
1701904680116494000,9.393494140625,-2.861575126647949,3.9113059043884277,11.924064636230469
1701904680133479200,9.410479248046874,-2.576326847076416,3.531059980392456,10.73617172241211
1701904680150476800,9.427476806640625,-2.057213306427002,2.7152791023254395,9.533419609069824
1701904680167469600,9.444469482421875,-1.250343680381775,1.2956428527832031,8.884601593017578
1701904680184451000,9.461451171875,-0.4738023281097412,-0.18590402603149414,8.525651931762695
1701904680201451500,9.478451416015625,-0.13295471668243408,-1.281991958618164,7.957839488983154
1701904680218446300,9.4954462890625,-0.0523531436920166,-1.7920479774475098,6.8933281898498535
1701904680235439400,9.512439453125,0.10407590866088867,-1.697443962097168,5.150572776794434
1701904680252431400,9.529431396484375,0.46691182255744934,-1.2928261756896973,3.0745010375976562
1701904680269428000,9.546427978515625,0.9206111431121826,-0.9868135452270508,1.132981300354004
1701904680286416400,9.56341650390625,1.4977467060089111,-0.9365768432617188,-0.31266307830810547
1701904680303409000,9.580408935546876,1.909623384475708,-1.1108648777008057,-1.396026611328125
1701904680320399000,9.597399169921875,2.1124908924102783,-1.4978978633880615,-2.087043285369873
1701904680337386200,9.61438623046875,2.1443586349487305,-2.017153263092041,-2.640101432800293
1701904680354377200,9.631377197265625,2.2318317890167236,-2.5139575004577637,-3.1313247680664062
1701904680371381200,9.64838134765625,2.3211565017700195,-2.9260778427124023,-3.679436683654785
1701904680388369700,9.66536962890625,2.5049448013305664,-3.151040554046631,-4.2477569580078125
1701904680405354000,9.68235400390625,2.610030174255371,-3.3447070121765137,-4.6202287673950195
1701904680422349000,9.69934912109375,2.8858377933502197,-3.5882720947265625,-4.673215389251709
1701904680439348200,9.71634814453125,3.2228822708129883,-3.868864059448242,-4.479781150817871
1701904680456341500,9.733341552734375,3.5742907524108887,-4.066155910491943,-4.270684719085693
1701904680473332000,9.75033203125,3.9301135540008545,-4.158134460449219,-4.205875396728516
1701904680490325200,9.7673251953125,4.174313545227051,-4.531854629516602,-3.9406089782714844
1701904680507318300,9.784318359375,4.211822986602783,-5.30279541015625,-3.4742064476013184
1701904680524307200,9.80130712890625,4.39702844619751,-6.006835460662842,-3.2884926795959473
1701904680541304800,9.818304931640625,4.686352252960205,-6.650073528289795,-2.916090488433838
1701904680558293500,9.83529345703125,5.013094902038574,-7.311795711517334,-2.012897491455078
1701904680575288000,9.8522880859375,4.692172050476074,-7.488427639007568,-1.181375503540039
1701904680592279800,9.86927978515625,3.359787702560425,-7.682600498199463,-1.1235418319702148
1701904680609273000,9.886273193359376,1.8313734531402588,-7.830263137817383,-1.7920026779174805
1701904680626264600,9.9032646484375,1.3674869537353516,-7.93115758895874,-2.6966896057128906
1701904680643257900,9.9202578125,2.035602331161499,-7.344090938568115,-3.075498104095459
1701904680660249600,9.93724951171875,2.5636425018310547,-6.767645359039307,-1.8607268333435059
1701904680677241300,9.954241455078124,2.4445457458496094,-6.118520736694336,-0.16968536376953125
1701904680694236000,9.97123583984375,1.4658209085464478,-5.6535186767578125,1.0000495910644531
1701904680711224300,9.988224365234375,0.15345489978790283,-5.153697490692139,1.480698585510254
1701904680728219400,10.005219482421875,-0.7412362098693848,-4.5232439041137695,1.5994853973388672
1701904680745212400,10.02221240234375,-1.1004283428192139,-3.7136127948760986,1.2927064895629883
1701904680762204400,10.039204345703125,-0.8476400375366211,-2.6016688346862793,0.8370895385742188
1701904680779188700,10.056188720703124,-0.5493002533912659,-1.3614897727966309,0.475341796875
1701904680796189400,10.073189453125,-0.458756685256958,-0.04607105255126953,0.26589298248291016
1701904680813182000,10.090181884765625,-0.5375336408615112,1.1608281135559082,0.2258443832397461
1701904680830174000,10.107174072265625,-0.956122875213623,2.012626886367798,0.4196596145629883
1701904680847167000,10.1241669921875,-1.9216947555541992,2.4270803928375244,0.8308067321777344
1701904680864159000,10.141158935546875,-3.1832356452941895,2.507277250289917,0.9321088790893555
1701904680881152000,10.158152099609374,-3.7540578842163086,2.5319223403930664,0.9490022659301758
1701904680898143200,10.175143310546876,-3.27014422416687,2.607788562774658,1.399075984954834
1701904680915137500,10.192137451171876,-2.0202579498291016,3.0340073108673096,2.4071006774902344
1701904680932128800,10.209128662109375,-0.4827362596988678,3.6153311729431152,3.8028621673583984
1701904680949125000,10.226125,0.21395450830459595,4.223649978637695,5.029744625091553
1701904680966109000,10.24310888671875,-0.05467796325683594,4.51517391204834,6.169990539550781
1701904680983094300,10.26009423828125,-0.8378872871398926,4.897300720214844,7.063292026519775
1701904681000098600,10.2770986328125,-1.7606561183929443,5.025606155395508,7.915079593658447
1701904681017081900,10.294081787109375,-2.0938658714294434,5.295041084289551,8.704351425170898
1701904681034082600,10.31108251953125,-2.1817376613616943,5.790009021759033,9.539255142211914
1701904681051068200,10.328068115234375,-2.511798858642578,6.220378398895264,10.313172340393066
1701904681068064000,10.34506396484375,-3.1368391513824463,5.811799049377441,11.180091857910156
1701904681085056000,10.362055908203125,-4.134312152862549,4.926451683044434,11.624626159667969
1701904681102043000,10.37904296875,-4.66164493560791,4.0828094482421875,11.865931510925293
1701904681119034600,10.39603466796875,-4.321789741516113,3.104475498199463,12.240251541137695
1701904681136034600,10.41303466796875,-3.5037012100219727,2.5734615325927734,12.340721130371094
1701904681153028600,10.430028564453124,-2.896266460418701,2.512439250946045,11.74875545501709
1701904681170013200,10.44701318359375,-2.3525819778442383,2.40872859954834,10.521347045898438
1701904681187012900,10.464012939453125,-1.504624843597412,1.6347618103027344,9.406362533569336
1701904681203996700,10.48099658203125,-0.28302180767059326,0.5640406608581543,8.601404190063477
1701904681220989700,10.49798974609375,0.787061870098114,-0.616218090057373,8.141311645507812
1701904681237983700,10.514983642578125,1.0274364948272705,-1.3686251640319824,7.7746901512146
1701904681254975000,10.53197509765625,0.8399195075035095,-1.3651480674743652,6.5815629959106445
1701904681271969500,10.548969482421874,0.6384345293045044,-0.955939769744873,4.748705863952637
1701904681288963800,10.5659638671875,0.7564454674720764,-0.6445088386535645,2.8566789627075195
1701904681305957400,10.582957275390624,1.1100645065307617,-0.5962076187133789,1.260066032409668
1701904681322952200,10.5999521484375,1.6383886337280273,-0.9079756736755371,0.025739669799804688
1701904681339936800,10.616936767578125,1.952216386795044,-1.4491143226623535,-0.9689168930053711
1701904681356935400,10.633935302734375,2.2429614067077637,-1.9705491065979004,-1.8537535667419434
1701904681373922800,10.6509228515625,2.381761312484741,-2.420846462249756,-2.6634092330932617
1701904681390922200,10.667922119140625,2.519374370574951,-2.8101887702941895,-3.4233903884887695
1701904681407910700,10.68491064453125,2.649062156677246,-3.162376642227173,-4.133770942687988
1701904681424910800,10.701910888671875,2.789334297180176,-3.47786808013916,-4.784114837646484
1701904681441901600,10.718901611328125,2.903109550476074,-3.7794864177703857,-5.368364334106445
1701904681458892300,10.735892333984374,3.144350528717041,-3.995936393737793,-5.741798400878906
1701904681475887900,10.752887939453124,3.3803935050964355,-4.103203773498535,-5.865416049957275
1701904681492872400,10.76987255859375,3.6445388793945312,-4.222877502441406,-5.6942219734191895
1701904681509871400,10.786871337890625,3.9190480709075928,-4.478073596954346,-5.217370510101318
1701904681526864100,10.803864013671875,4.009891510009766,-4.983306407928467,-4.598662376403809
1701904681543853000,10.82085302734375,3.913119316101074,-5.56414270401001,-4.0913496017456055
1701904681560843300,10.83784326171875,3.9219799041748047,-6.275993347167969,-3.607889175415039
1701904681577841200,10.854841064453124,4.195864677429199,-6.569295883178711,-3.5170321464538574
1701904681594833200,10.871833251953126,4.553697109222412,-6.9715399742126465,-2.882505416870117
1701904681611823600,10.88882373046875,4.677443504333496,-6.950697898864746,-1.9328866004943848
1701904681628818700,10.905818603515625,4.233678817749023,-6.8658833503723145,-1.5880508422851562
1701904681645806000,10.92280615234375,3.3470263481140137,-7.155673980712891,-1.3412837982177734
1701904681662804500,10.939804443359375,2.326429843902588,-7.43072509765625,-1.4527168273925781
1701904681679795500,10.95679541015625,1.5487236976623535,-7.287916660308838,-1.9155621528625488
1701904681696788200,10.973788330078126,1.7407848834991455,-6.793074131011963,-1.7166814804077148
1701904681713780500,10.990780517578125,2.256892204284668,-6.0443315505981445,-0.2855110168457031
1701904681730770000,11.00777001953125,1.9183562994003296,-5.445953369140625,1.515096664428711
1701904681747765000,11.024764892578125,1.1181941032409668,-4.84218168258667,2.372593879699707
1701904681764758000,11.041758056640624,0.2800540328025818,-4.269775390625,2.38767147064209
1701904681781750000,11.05875,-0.12133634090423584,-3.5211329460144043,1.8681764602661133
1701904681798742300,11.0757421875,-0.20922958850860596,-2.462517738342285,1.355788230895996
1701904681815735800,11.09273583984375,-0.3309009075164795,-1.3498454093933105,1.4270286560058594
1701904681832729300,11.109729248046875,-0.5359115600585938,-0.05731821060180664,1.8531322479248047
1701904681849706000,11.1267060546875,-0.9301635026931763,1.2407855987548828,2.122220993041992
1701904681866714600,11.143714599609375,-1.4224153757095337,2.1821422576904297,1.9785184860229492
1701904681883702300,11.160702392578125,-1.9338995218276978,2.65981388092041,1.7791237831115723
1701904681900702700,11.17770263671875,-2.097135066986084,2.7064077854156494,1.7555503845214844
1701904681917689600,11.194689697265625,-1.6675236225128174,2.7247371673583984,2.0559239387512207
1701904681934679300,11.21167919921875,-0.9521921873092651,2.791774272918701,2.9113564491271973
1701904681951675400,11.22867529296875,-0.7621579170227051,3.324748992919922,3.706486225128174
1701904681968667600,11.245667724609374,-1.2196450233459473,3.8159003257751465,4.735514163970947
1701904681985659400,11.262659423828126,-2.203676462173462,4.32707405090332,5.593781471252441
1701904682002652000,11.27965185546875,-2.923537492752075,4.74664306640625,6.400139808654785
1701904682019644200,11.29664404296875,-3.275754451751709,4.9571709632873535,7.561474323272705
1701904682036634400,11.31363427734375,-3.3642921447753906,4.981096267700195,8.803598403930664
1701904682053628400,11.33062841796875,-3.203406810760498,5.2222700119018555,9.951220512390137
1701904682070621700,11.34762158203125,-3.614720106124878,5.8208327293396,11.153547286987305
1701904682087613700,11.36461376953125,-4.070350646972656,6.3573994636535645,11.993500709533691
1701904682104596700,11.3815966796875,-4.141378402709961,6.318350791931152,12.361030578613281
1701904682121595400,11.398595458984374,-3.8618838787078857,5.477109909057617,12.333738327026367
1701904682138588700,11.415588623046874,-3.5050477981567383,4.622455596923828,11.952413558959961
1701904682155575600,11.432575439453124,-3.3163986206054688,3.5065579414367676,11.967430114746094
1701904682172576500,11.449576416015624,-3.2938742637634277,2.767758846282959,12.017580032348633
1701904682189568300,11.466568359375,-3.2596566677093506,2.8575940132141113,11.56899356842041
1701904682206561000,11.48356103515625,-3.209716796875,2.6650023460388184,10.860708236694336
1701904682223553300,11.50055322265625,-2.817951202392578,1.8903851509094238,9.981430053710938
1701904682240546000,11.517546142578125,-1.859631061553955,0.7470526695251465,9.27647876739502
1701904682257538000,11.5345380859375,-0.6527295708656311,-0.4626026153564453,8.686473846435547
1701904682274533600,11.55153369140625,0.4468728303909302,-1.5177316665649414,7.992640972137451
1701904682291520000,11.56852001953125,1.1839312314987183,-2.062669277191162,6.743398189544678
1701904682308515000,11.58551513671875,1.7379107475280762,-2.165466785430908,5.000146865844727
1701904682325508400,11.60250830078125,2.1964170932769775,-1.9847030639648438,3.2188968658447266
1701904682342500600,11.61950048828125,2.612744092941284,-1.6958904266357422,1.5618095397949219
1701904682359482400,11.636482421875,2.715419292449951,-1.662693977355957,0.20620155334472656
1701904682376483000,11.653483154296875,2.6095268726348877,-1.858208179473877,-0.964879035949707
1701904682393480000,11.67047998046875,2.5802578926086426,-2.037989854812622,-1.9063267707824707
1701904682410470400,11.687470458984375,2.4845032691955566,-2.33487868309021,-2.5231523513793945
1701904682427462100,11.704462158203125,2.4212231636047363,-2.5260181427001953,-3.1266350746154785
1701904682444449300,11.72144921875,2.431567668914795,-2.5680127143859863,-3.820953369140625
1701904682461449500,11.738449462890625,2.475884199142456,-2.7000246047973633,-4.364811897277832
1701904682478440400,11.7554404296875,2.566534996032715,-2.9011921882629395,-4.778850078582764
1701904682495431400,11.772431396484375,2.824772596359253,-3.262033462524414,-5.008133411407471
1701904682512424700,11.7894248046875,3.247929334640503,-3.6673502922058105,-5.060513019561768
1701904682529416400,11.80641650390625,3.7430803775787354,-3.9113245010375977,-5.120993614196777
1701904682546395100,11.82339501953125,4.184876918792725,-4.2131195068359375,-5.151477813720703
1701904682563401500,11.8404013671875,4.571216106414795,-4.798126697540283,-4.897039890289307
1701904682580394500,11.85739453125,4.639249801635742,-5.626506328582764,-4.476654529571533
1701904682597386500,11.874386474609375,4.6692376136779785,-6.341170787811279,-3.9836878776550293
1701904682614379000,11.89137890625,4.711308002471924,-6.958686828613281,-3.2091541290283203
1701904682631368200,11.9083681640625,4.958802700042725,-7.486444473266602,-2.1323752403259277
1701904682648364000,11.925364013671874,4.935208320617676,-7.515048503875732,-1.4849319458007812
1701904682665356300,11.942356201171876,4.240333557128906,-7.603109359741211,-0.7264680862426758
1701904682682349000,11.95934912109375,2.771807909011841,-7.863631248474121,-0.2534494400024414
1701904682699347700,11.97634765625,1.8395799398422241,-7.680432319641113,-0.47176647186279297
1701904682716330500,11.99333056640625,1.4808954000473022,-7.116758823394775,-1.0405168533325195
1701904682733329400,12.010329345703125,1.8061347007751465,-6.526594161987305,-1.0462579727172852
1701904682750318800,12.02731884765625,2.231228828430176,-5.890256881713867,-0.26483726501464844
1701904682767310300,12.044310302734376,2.1003224849700928,-5.307291030883789,0.7103500366210938
1701904682784303400,12.061303466796875,1.3437447547912598,-4.987367153167725,1.3800630569458008
1701904682801295600,12.078295654296875,0.8431270122528076,-4.592750072479248,1.6935691833496094
1701904682818287400,12.095287353515625,0.7221263647079468,-3.920241117477417,1.5743227005004883
1701904682835281200,12.11228125,0.6425574421882629,-2.8397347927093506,0.8843326568603516
1701904682852273200,12.129273193359374,0.3949345350265503,-1.711460828781128,0.4575786590576172
1701904682869262600,12.1462626953125,-0.015491604804992676,-0.3783383369445801,0.3250541687011719
1701904682886260200,12.16326025390625,-0.4614766836166382,0.7774126529693604,0.4781532287597656
1701904682903250700,12.180250732421875,-1.0244029760360718,1.717756748199463,0.7646999359130859
1701904682920242700,12.19724267578125,-1.4834551811218262,2.2478225231170654,0.9614505767822266
1701904682937234700,12.214234619140624,-1.4561536312103271,2.3672502040863037,1.405008316040039
1701904682954224600,12.231224609375,-0.9232068657875061,2.421523094177246,2.10451602935791
1701904682971219500,12.248219482421876,-0.4636690020561218,2.7758185863494873,3.1359939575195312
1701904682988212700,12.265212646484375,-0.4729446768760681,3.2641096115112305,4.346187591552734
1701904683005204500,12.28220458984375,-1.0677646398544312,3.944291830062866,5.460772514343262
1701904683022197200,12.299197265625,-2.0153656005859375,4.3906450271606445,6.617660999298096
1701904683039187700,12.316187744140626,-2.8450469970703125,4.801337242126465,7.479658126831055
1701904683056182000,12.33318212890625,-3.559333324432373,5.039949417114258,8.482929229736328
1701904683073174000,12.350174072265625,-4.176604270935059,5.166413307189941,9.540019989013672
1701904683090167000,12.3671669921875,-4.433335781097412,5.54221248626709,9.893381118774414
1701904683107159000,12.384158935546875,-4.423521041870117,5.970102310180664,10.015480041503906
1701904683124149200,12.401149169921876,-4.259881496429443,6.371757507324219,10.201044082641602
1701904683141150700,12.418150634765626,-3.9597413539886475,6.228455543518066,10.75324821472168
1701904683158122800,12.435122802734375,-3.8236684799194336,5.55824089050293,11.229976654052734
1701904683175131100,12.452131103515624,-3.5680103302001953,5.163225173950195,11.153217315673828
1701904683192121600,12.46912158203125,-3.271542549133301,4.420368194580078,11.26973819732666
1701904683209112600,12.486112548828125,-2.8704817295074463,3.478473663330078,11.480003356933594
1701904683226107000,12.50310693359375,-2.1264498233795166,3.185070037841797,10.905682563781738
1701904683243098400,12.520098388671874,-1.4237325191497803,2.962205410003662,9.994158744812012
1701904683260088300,12.53708837890625,-0.7134555578231812,2.5360593795776367,9.037712097167969
1701904683277084000,12.554083984375,0.12420561909675598,1.6801252365112305,8.314773559570312
1701904683294076000,12.571075927734375,1.083915114402771,0.7465319633483887,7.7384934425354
1701904683311068000,12.58806787109375,1.591408133506775,-0.11366701126098633,7.131254196166992
1701904683328062200,12.605062255859375,1.7623200416564941,-0.40268659591674805,6.030857086181641
1701904683345056300,12.62205615234375,1.772026538848877,-0.19634628295898438,4.505769729614258
1701904683362035000,12.639034912109375,1.8561315536499023,0.10260677337646484,2.949850082397461
1701904683379033000,12.656033203125,1.9575406312942505,0.18797683715820312,1.6878728866577148
1701904683396034300,12.673034423828126,1.947413682937622,0.024857521057128906,0.5927019119262695
1701904683413023200,12.690023193359375,2.0086166858673096,-0.2981405258178711,-0.3672332763671875
1701904683430009900,12.707009765625,2.0541422367095947,-0.8179082870483398,-1.1429133415222168
1701904683447010600,12.724010498046875,2.103365421295166,-1.387751579284668,-1.7556228637695312
1701904683463989500,12.740989501953125,2.1362929344177246,-1.859889030456543,-2.3903799057006836
1701904683480988700,12.75798876953125,2.225641965866089,-2.2500674724578857,-2.972710609436035
1701904683497985300,12.7749853515625,2.4299895763397217,-2.661543846130371,-3.442997455596924
1701904683514974200,12.79197412109375,2.7681515216827393,-3.1012673377990723,-3.779918670654297
1701904683531962000,12.808962158203125,2.97428297996521,-3.398197650909424,-4.105193614959717
1701904683548956700,12.825956787109375,3.373042345046997,-3.3818132877349854,-4.432181358337402
1701904683565954600,12.84295458984375,3.7529845237731934,-3.5313096046447754,-4.272488594055176
1701904683582943700,12.85994384765625,4.1129841804504395,-4.223606586456299,-3.6315598487854004
1701904683599939300,12.876939208984375,4.217773914337158,-5.202286243438721,-2.963501453399658
1701904683616934100,12.89393408203125,4.226892471313477,-5.967883586883545,-2.6938767433166504
1701904683633924400,12.91092431640625,4.328280448913574,-6.343505382537842,-2.7013864517211914
1701904683650913000,12.9279130859375,4.605699062347412,-6.6858391761779785,-2.4943346977233887
1701904683667909000,12.9449091796875,4.7786102294921875,-6.860713005065918,-2.1799211502075195
1701904683684890600,12.961890625,4.8238115310668945,-6.862259387969971,-1.6093993186950684
1701904683701894000,12.978893798828125,4.742790699005127,-6.779131889343262,-1.3143692016601562
1701904683718874400,12.995874267578126,4.245486259460449,-6.797626972198486,-1.6152491569519043
1701904683735879700,13.012879638671874,3.750661611557007,-6.389927864074707,-2.145059585571289
1701904683752870700,13.02987060546875,2.919032573699951,-5.643093585968018,-2.2198195457458496
1701904683769863700,13.04686376953125,1.478299856185913,-4.993246078491211,-1.7114224433898926
1701904683786855700,13.063855712890625,0.2869093418121338,-4.799086093902588,-0.5919923782348633
1701904683803838000,13.080837890625,-0.012227535247802734,-4.466864109039307,0.5490331649780273
1701904683820829400,13.097829345703126,-0.04994797706604004,-4.146867752075195,1.3498620986938477
1701904683837833200,13.114833251953126,0.011551260948181152,-3.666116714477539,1.3092060089111328
1701904683854823000,13.131822998046875,-0.11297416687011719,-2.9217464923858643,0.7633476257324219
1701904683871818200,13.148818359375,-0.29374536871910095,-1.7835729122161865,0.3212928771972656
1701904683888812300,13.165812255859375,-0.9754248261451721,-0.5833272933959961,0.4256124496459961
1701904683905802000,13.182802001953124,-1.4177889823913574,0.7637641429901123,0.5648994445800781
1701904683922795300,13.199795166015624,-1.7822864055633545,1.9225175380706787,0.7316608428955078
1701904683939787800,13.216787841796876,-1.7913907766342163,2.635546922683716,0.8632974624633789
1701904683956779500,13.233779541015625,-1.5006020069122314,2.908790111541748,0.6889472007751465
1701904683973769200,13.250769287109375,-1.0431907176971436,2.7112319469451904,0.8477082252502441
1701904683990764500,13.2677646484375,-0.5221037268638611,2.7111449241638184,1.3154997825622559
1701904684007756000,13.284756103515624,-0.34838470816612244,2.838291883468628,2.3149633407592773
1701904684024747000,13.3017470703125,-0.6129215359687805,3.2664294242858887,3.475381374359131
1701904684041741600,13.318741455078126,-0.9883649349212646,3.821058511734009,4.411558628082275
1701904684058734000,13.335734130859375,-1.5902947187423706,4.176983833312988,5.469092845916748
1701904684075726800,13.352726806640625,-1.9802346229553223,4.632209777832031,6.340673446655273
1701904684092718600,13.369718505859375,-2.851551055908203,4.751011848449707,7.34694766998291
1701904684109706000,13.3867060546875,-3.3551723957061768,4.625485420227051,8.912503242492676
1701904684126706400,13.40370654296875,-3.0873541831970215,4.810278415679932,10.624242782592773
1701904684143696600,13.420696533203126,-2.707648754119873,5.329778671264648,11.920448303222656
1701904684160700000,13.437699951171876,-2.3132455348968506,5.735856056213379,12.372079849243164
1701904684177681700,13.454681640625,-2.2110846042633057,5.134249687194824,12.511245727539062
1701904684194675000,13.471675048828125,-2.2085719108581543,4.416258335113525,12.097670555114746
1701904684211664600,13.48866455078125,-2.2105813026428223,3.3250179290771484,12.153671264648438
1701904684228657400,13.505657470703126,-2.2332892417907715,2.275683879852295,12.37435531616211
1701904684245644000,13.52264404296875,-2.0911755561828613,2.04746675491333,11.859548568725586
1701904684262643000,13.539642822265625,-1.8475162982940674,2.2191686630249023,10.730806350708008
1701904684279635500,13.556635498046875,-1.2971974611282349,1.9581847190856934,9.604680061340332
1701904684296615000,13.573614990234375,-0.37856656312942505,1.0048308372497559,8.799541473388672
1701904684313623300,13.590623291015625,0.5862362384796143,-0.4534320831298828,8.408771514892578
1701904684330603000,13.60760302734375,1.3864964246749878,-1.6659221649169922,7.903201580047607
1701904684347605800,13.624605712890625,1.6208486557006836,-2.252802848815918,6.982016086578369
1701904684364594200,13.64159423828125,1.726489782333374,-2.085890769958496,5.6035895347595215
1701904684381590500,13.658590576171875,1.930812954902649,-1.4124398231506348,3.787510395050049
1701904684398582300,13.675582275390624,2.1066501140594482,-0.8848137855529785,2.244790554046631
1701904684415575300,13.6925751953125,2.1643502712249756,-0.6951436996459961,1.0536088943481445
1701904684432567300,13.7095673828125,2.19697904586792,-0.8201322555541992,0.1750354766845703
1701904684449559800,13.726559814453125,2.1644675731658936,-1.1146631240844727,-0.6189975738525391
1701904684466551800,13.7435517578125,2.0334038734436035,-1.4754667282104492,-1.3265924453735352
1701904684483532800,13.76053271484375,1.9669065475463867,-1.7711358070373535,-2.1517066955566406
1701904684500528600,13.777528564453124,2.1232805252075195,-1.986741304397583,-3.0859923362731934
1701904684517517800,13.794517822265625,2.330195188522339,-2.1848702430725098,-3.8904576301574707
1701904684534514700,13.8115146484375,2.600728750228882,-2.3471720218658447,-4.622763156890869
1701904684551507200,13.828507080078126,2.8730826377868652,-2.602487564086914,-5.053323268890381
1701904684568499000,13.8454990234375,3.281635046005249,-2.922607183456421,-5.316147327423096
1701904684585494500,13.86249462890625,3.591557502746582,-3.315150499343872,-5.4622273445129395
1701904684602483000,13.87948291015625,3.8351309299468994,-3.7413291931152344,-5.54025936126709
1701904684619474000,13.896473876953126,4.122315883636475,-4.279627799987793,-5.5533447265625
1701904684636470800,13.913470703125,4.341181755065918,-4.9109625816345215,-5.387840270996094
1701904684653465600,13.930465576171875,4.438663482666016,-5.407930374145508,-5.119190692901611
1701904684670457300,13.947457275390626,4.349737644195557,-5.952376842498779,-4.4507293701171875
1701904684687448000,13.964447998046875,4.290779113769531,-6.415546894073486,-3.2610926628112793
1701904684704441600,13.981441650390625,4.3096513748168945,-6.495010852813721,-2.126333713531494
1701904684721435100,13.99843505859375,4.05148983001709,-6.118264198303223,-1.4726781845092773
1701904684738414300,14.015414306640626,3.552943468093872,-5.560001850128174,-1.4542617797851562
1701904684755411500,14.032411376953124,2.719748020172119,-5.613707542419434,-1.4801025390625
1701904684772412200,14.049412109375,1.6864897012710571,-5.690253257751465,-1.6706514358520508
1701904684789405000,14.066405029296876,0.8560246825218201,-5.724714756011963,-1.809068202972412
1701904684806392600,14.083392578125,0.8886760473251343,-5.542915344238281,-1.1010332107543945
1701904684823389400,14.100389404296875,0.7467407584190369,-5.193803787231445,-0.24517059326171875
1701904684840375000,14.117375,0.1921473741531372,-4.536464214324951,0.2490692138671875
1701904684857376000,14.1343759765625,-0.7223634719848633,-4.135081768035889,0.4924125671386719
1701904684874360300,14.1513603515625,-1.6758201122283936,-3.8532867431640625,0.545318603515625
1701904684891360500,14.168360595703126,-1.8820459842681885,-3.569460153579712,0.8742666244506836
1701904684908348200,14.18534814453125,-1.4374476671218872,-3.0372891426086426,1.3876638412475586
1701904684925348000,14.20234814453125,-0.6395758390426636,-2.068488836288452,1.7997303009033203
1701904684942339300,14.21933935546875,0.15482917428016663,-0.5763912200927734,1.8984708786010742
1701904684959321600,14.236321533203125,0.08041177690029144,0.8540630340576172,1.701359748840332
1701904684976329700,14.253329833984376,-0.4652077853679657,2.089153528213501,1.8524761199951172
1701904684993316900,14.27031689453125,-1.383707880973816,2.9584624767303467,2.1956071853637695
1701904685010308600,14.28730859375,-1.9440319538116455,3.6558048725128174,2.5201478004455566
1701904685027299300,14.30429931640625,-1.8081166744232178,3.9751226902008057,2.8990917205810547
1701904685044296200,14.321296142578126,-1.3337229490280151,3.9941694736480713,3.2622318267822266
1701904685061283300,14.338283447265624,-0.7804012298583984,3.9052531719207764,3.942324161529541
1701904685078279000,14.35527880859375,-0.9461203217506409,4.093385219573975,4.564531326293945
1701904685095271200,14.372271240234374,-1.761914849281311,4.336301803588867,4.98323917388916
1701904685112263200,14.38926318359375,-2.7955665588378906,4.657048225402832,5.405666828155518
1701904685129255200,14.406255126953125,-3.6693544387817383,4.930135726928711,5.807664394378662
1701904685146248700,14.423248779296875,-3.8745169639587402,5.020623207092285,6.298277854919434
1701904685163241000,14.440240966796875,-3.500039577484131,4.909486770629883,6.928822040557861
1701904685180232700,14.457232666015624,-2.816861152648926,4.823477745056152,7.59868860244751
1701904685197225700,14.474225830078124,-2.12170672416687,5.065003871917725,7.938917636871338
1701904685214217700,14.4912177734375,-1.6816651821136475,5.508941650390625,7.910395622253418
1701904685231210500,14.50821044921875,-1.5045896768569946,5.546255588531494,8.102405548095703
1701904685248202500,14.525202392578125,-1.282832384109497,4.80392599105835,8.520088195800781
1701904685265195000,14.542195068359375,-0.9313364624977112,4.168105125427246,8.431517601013184
1701904685282187300,14.559187255859374,-0.6615926027297974,3.4416961669921875,8.434179306030273
1701904685299175000,14.5761748046875,-0.48034030199050903,2.5295681953430176,8.676962852478027
1701904685316171800,14.593171875,-0.2083549052476883,1.9575395584106445,8.681194305419922
1701904685333165800,14.610165771484375,0.1970868557691574,1.8399810791015625,8.256723403930664
1701904685350156800,14.62715673828125,0.5955861210823059,1.8182401657104492,7.452587604522705
1701904685367149600,14.644149658203125,1.0984333753585815,1.6734185218811035,6.5733160972595215
1701904685384138500,14.661138427734375,1.6657465696334839,1.2572975158691406,5.881259441375732
1701904685401132500,14.678132568359375,2.0229203701019287,0.4943513870239258,5.46438455581665
1701904685418126000,14.6951259765625,2.126168966293335,-0.17644214630126953,4.945924282073975
1701904685435122200,14.7121220703125,2.07460355758667,-0.3341045379638672,3.930459499359131
1701904685452108300,14.7291083984375,1.9017775058746338,-0.03849220275878906,2.6777868270874023
1701904685469104400,14.7461044921875,1.6871817111968994,0.5973258018493652,1.3173937797546387
1701904685486096400,14.763096435546874,1.4297391176223755,1.1428637504577637,0.20057201385498047
1701904685503085600,14.78008544921875,1.083036184310913,1.4425246715545654,-0.7728443145751953
1701904685520079600,14.79707958984375,0.7542672753334045,1.4087870121002197,-1.5592517852783203
1701904685537088300,14.814088134765624,0.7143059968948364,1.1795716285705566,-2.2142257690429688
1701904685554065700,14.831065673828125,0.7989029884338379,0.8754677772521973,-2.726755142211914
1701904685571055400,14.848055419921875,0.9558326005935669,0.445237398147583,-3.176241397857666
1701904685588050200,14.86505029296875,1.3559315204620361,0.052466630935668945,-3.6942410469055176
1701904685605043200,14.882043212890625,1.9719972610473633,-0.19425415992736816,-3.96463680267334
1701904685622038500,14.89903857421875,2.4639554023742676,-0.5024154186248779,-4.139092922210693
1701904685639021600,14.916021484375,2.8102495670318604,-0.7224080562591553,-4.307623386383057
1701904685656022300,14.933022216796875,3.262887477874756,-0.7404279708862305,-4.4294538497924805
1701904685673013000,14.950012939453124,3.8719871044158936,-0.8926033973693848,-3.9184751510620117
1701904685690007800,14.9670078125,4.3789472579956055,-1.5880160331726074,-2.1121015548706055
1701904685706999000,14.9839990234375,4.1992645263671875,-2.4899141788482666,-0.22505855560302734
1701904685723988700,15.00098876953125,3.8185410499572754,-2.858985424041748,-0.013655662536621094
1701904685740971800,15.0179716796875,3.119612216949463,-3.0369279384613037,-0.7773637771606445
1701904685757965600,15.034965576171874,2.410250186920166,-3.294058322906494,-1.1684722900390625
1701904685774965000,15.051965087890625,2.026402235031128,-3.5698273181915283,-0.7584953308105469
1701904685791961600,15.068961669921874,1.9250068664550781,-3.6093859672546387,-0.030905723571777344
1701904685808952000,15.0859521484375,1.9308240413665771,-3.610621929168701,0.48308658599853516
1701904685825951700,15.10295166015625,1.9320244789123535,-3.4014382362365723,0.3328399658203125
1701904685842937900,15.119937744140625,2.117720603942871,-3.0785295963287354,-0.5627775192260742
1701904685859927800,15.136927734375,2.3141987323760986,-2.901212215423584,-1.2078704833984375
1701904685876920000,15.153920166015626,2.3367385864257812,-2.8674917221069336,-0.9572734832763672
1701904685893912800,15.170912841796875,1.6142436265945435,-2.870800018310547,0.0810394287109375
1701904685910906600,15.18790673828125,0.5035921931266785,-2.6802523136138916,0.6273336410522461
1701904685927899400,15.2048994140625,-0.890071451663971,-2.500119686126709,0.36404895782470703
1701904685944891400,15.221891357421875,-1.6592812538146973,-2.2783026695251465,-0.21893978118896484
1701904685961879800,15.2388798828125,-1.6211458444595337,-1.9128894805908203,-0.7256050109863281
1701904685978876200,15.255876220703126,-0.926068127155304,-1.224123477935791,-1.1712088584899902
1701904685995868200,15.2728681640625,0.1254504919052124,-0.3784008026123047,-0.867828369140625
1701904686012864000,15.289864013671876,0.753555953502655,0.8029448986053467,-0.24648475646972656
1701904686029849600,15.306849609375,0.39957261085510254,2.2156779766082764,-0.3131885528564453
1701904686046845400,15.323845458984374,-0.5273259878158569,3.172200918197632,-0.8740739822387695
1701904686063837700,15.340837646484376,-1.3354239463806152,3.6578421592712402,-1.365760326385498
1701904686080822800,15.35782275390625,-1.800795316696167,3.614393472671509,-1.2632193565368652
1701904686097822500,15.374822509765625,-1.8789783716201782,3.493102788925171,-0.4654693603515625
1701904686114814700,15.391814697265625,-1.7265279293060303,3.4785773754119873,0.6762599945068359
1701904686131807500,15.408807373046875,-1.7279671430587769,3.613414764404297,1.2643170356750488
1701904686148796700,15.425796630859375,-2.1391403675079346,3.441225290298462,1.5561776161193848
1701904686165791200,15.442791259765626,-2.7860989570617676,3.278407096862793,1.8793797492980957
1701904686182786800,15.459786865234374,-3.7303242683410645,3.1337203979492188,2.418590545654297
1701904686199776800,15.47677685546875,-4.495914459228516,3.139941930770874,3.1009554862976074
1701904686216769500,15.49376953125,-4.827017307281494,3.0974831581115723,4.140660762786865
1701904686233761500,15.510761474609374,-4.640932083129883,3.0156753063201904,5.101814270019531
1701904686250752000,15.527751953125,-4.407313823699951,2.8653435707092285,5.906267166137695
1701904686267749000,15.5447490234375,-4.244500160217285,2.8261961936950684,6.581506252288818
1701904686284739300,15.5617392578125,-4.477536678314209,2.8064770698547363,7.16758918762207
1701904686301731000,15.57873095703125,-4.476019859313965,2.524890422821045,7.823688507080078
1701904686318724000,15.59572412109375,-4.169167518615723,1.913693904876709,8.59115982055664
1701904686335716000,15.612716064453124,-3.332169771194458,1.4860496520996094,8.801311492919922
1701904686352702500,15.629702392578125,-2.4262471199035645,0.9093208312988281,8.667464256286621
1701904686369700900,15.646700927734376,-1.5813801288604736,0.5271291732788086,8.246554374694824
1701904686386693600,15.663693603515625,-0.5497032999992371,0.8584346771240234,7.329763412475586
1701904686403685600,15.680685546875,0.3095858097076416,1.1219286918640137,6.479581356048584
1701904686420667600,15.697667724609374,0.9317594766616821,0.9739341735839844,5.8154497146606445
1701904686437670100,15.714670166015624,1.451527714729309,0.37826108932495117,5.5341477394104
1701904686454659000,15.7316591796875,1.7276419401168823,-0.38875579833984375,5.369384288787842
1701904686471656200,15.74865625,1.8274459838867188,-0.9705243110656738,4.85543155670166
1701904686488648000,15.76564794921875,1.948229432106018,-0.882514476776123,3.8951683044433594
1701904686505640000,15.782639892578125,2.023555040359497,-0.30179500579833984,2.6362524032592773
1701904686522640100,15.79964013671875,1.981367588043213,0.5320639610290527,1.1887664794921875
1701904686539624700,15.816624755859374,1.7754600048065186,1.1812388896942139,0.020330429077148438
1701904686556614700,15.83361474609375,1.572434663772583,1.4602866172790527,-0.7318854331970215
1701904686573610500,15.850610595703126,1.336188793182373,1.4751334190368652,-1.4754767417907715
1701904686590602200,15.867602294921875,1.253361463546753,1.279970645904541,-2.1608357429504395
1701904686607594200,15.88459423828125,1.203310251235962,0.9011588096618652,-2.7913408279418945
1701904686624588800,15.9015888671875,1.256601333618164,0.5099291801452637,-3.395902156829834
1701904686641575200,15.9185751953125,1.3224804401397705,0.17375612258911133,-4.00385856628418
1701904686658573300,15.9355732421875,1.3167892694473267,-0.13652920722961426,-4.611947536468506
1701904686675564800,15.952564697265625,1.1862726211547852,-0.587594747543335,-4.593621253967285
1701904686692556500,15.969556640625,1.760797142982483,-0.8964388370513916,-4.503366947174072
1701904686709544400,15.98654443359375,2.5276899337768555,-1.0643658638000488,-4.6323933601379395
1701904686726529800,16.00352978515625,3.166127920150757,-1.2263824939727783,-4.676541805267334
1701904686743534800,16.020534912109376,3.632840633392334,-1.7873632907867432,-4.175848960876465
1701904686760526300,16.0375263671875,3.952481269836426,-2.6690614223480225,-3.109771251678467
1701904686777518000,16.05451806640625,4.121838569641113,-3.576633930206299,-1.8045549392700195
1701904686794508000,16.071508056640624,3.97397780418396,-4.129645347595215,-0.9122505187988281
1701904686811502800,16.0885029296875,3.8621537685394287,-4.675601959228516,-0.325286865234375
1701904686828483300,16.1054833984375,3.7673590183258057,-4.959188461303711,-0.2337808609008789
1701904686845487600,16.122487548828126,3.426746368408203,-4.929375648498535,-0.5903797149658203
1701904686862480600,16.139480712890624,2.973595142364502,-4.79356050491333,-0.8330287933349609
1701904686879472400,16.156472412109373,2.298701763153076,-4.788582801818848,-0.6574630737304688
1701904686896452000,16.1734521484375,1.60190749168396,-4.641548156738281,-0.6928281784057617
1701904686913460000,16.1904599609375,1.2157883644104004,-3.952669620513916,-1.224928855895996
1701904686930450200,16.2074501953125,1.3936117887496948,-3.101574659347534,-1.0904521942138672
1701904686947442000,16.22444189453125,1.2869961261749268,-2.5503413677215576,-0.14371585845947266
1701904686964434700,16.2414345703125,0.563136100769043,-2.318934440612793,1.0834484100341797
1701904686981423600,16.258423583984374,-0.603202760219574,-2.397024154663086,1.998626708984375
1701904686998419700,16.275419677734376,-1.6316556930541992,-2.296415328979492,2.044130325317383
1701904687015401500,16.2924013671875,-1.9688538312911987,-1.8248119354248047,1.2979021072387695
1701904687032405000,16.309405029296876,-1.6509491205215454,-1.1106138229370117,0.5144596099853516
1701904687049395500,16.3263955078125,-1.2724766731262207,-0.07179117202758789,0.055968284606933594
1701904687066390000,16.34339013671875,-1.6785351037979126,1.0653154850006104,0.25009632110595703
1701904687083381000,16.360381103515625,-2.459015130996704,2.242539882659912,0.260955810546875
1701904687100363500,16.377363525390624,-3.0243985652923584,3.2670397758483887,-0.10538101196289062
1701904687117363000,16.394363037109375,-3.465200901031494,3.708212375640869,-0.18829917907714844
1701904687134361300,16.411361328125,-3.232874870300293,3.9709300994873047,-0.17131900787353516
1701904687151350800,16.428350830078124,-2.6093103885650635,3.987995147705078,0.10187387466430664
1701904687168343000,16.445343017578125,-2.0979442596435547,3.8668408393859863,0.4419984817504883
1701904687185336300,16.46233642578125,-1.7745170593261719,3.722346067428589,0.8459129333496094
1701904687202328300,16.479328369140624,-1.766686201095581,3.5800418853759766,1.2513799667358398
1701904687219309800,16.496309814453124,-2.0514912605285645,3.476320266723633,1.5937480926513672
1701904687236312600,16.5133125,-2.57285213470459,3.2869679927825928,2.1912989616394043
1701904687253306000,16.53030615234375,-2.9760193824768066,3.185185670852661,2.695549488067627
1701904687270295600,16.547295654296875,-3.069188117980957,3.1096718311309814,3.233333110809326
1701904687287292400,16.56429248046875,-2.8797106742858887,3.0758931636810303,3.716480255126953
1701904687304279800,16.58127978515625,-2.625413417816162,2.8778178691864014,4.276187896728516
1701904687321274600,16.598274658203124,-2.29964017868042,2.789057731628418,4.718220233917236
1701904687338267600,16.615267578125,-2.347990036010742,2.7573466300964355,4.988283157348633
1701904687355259100,16.632259033203123,-2.579371929168701,2.783942222595215,5.258959770202637
1701904687372249000,16.6492490234375,-2.552037477493286,2.304837226867676,5.874646186828613
1701904687389244200,16.666244140625,-2.359658718109131,1.4956579208374023,6.366039276123047
1701904687406237200,16.6832373046875,-2.104391098022461,0.8912606239318848,6.305730819702148
1701904687423229000,16.70022900390625,-1.5391483306884766,0.09195566177368164,6.393301486968994
1701904687440220200,16.71722021484375,-0.9200800657272339,-0.374722957611084,6.380450248718262
1701904687457213000,16.734212890625,-0.25958120822906494,-0.1252593994140625,5.833069801330566
1701904687474209000,16.751208984375,0.25396114587783813,0.3078436851501465,5.170509338378906
1701904687491180300,16.76818017578125,0.4130033850669861,0.36676597595214844,4.611968994140625
1701904687508191500,16.78519140625,0.30053675174713135,0.05951547622680664,4.246898651123047
1701904687525183200,16.802183349609376,0.2725219130516052,-0.2862052917480469,3.963441848754883
1701904687542176300,16.81917626953125,0.3793080449104309,-0.4620194435119629,3.5370874404907227
1701904687559166500,16.83616650390625,0.5368431806564331,-0.3129234313964844,2.803524971008301
1701904687576161500,16.85316162109375,0.7084851264953613,0.17236328125,1.5356712341308594
1701904687593152500,16.870152587890626,0.8518837094306946,0.6771726608276367,0.2376260757446289
1701904687610145500,16.8871455078125,0.8379957675933838,1.0399949550628662,-0.8435287475585938
1701904687627137800,16.9041376953125,0.7786034345626831,1.2182743549346924,-1.6845030784606934
1701904687644130300,16.92113037109375,0.7450186610221863,1.1020183563232422,-2.1739659309387207
1701904687661122300,16.938122314453125,0.9063060283660889,0.7248094081878662,-2.485074996948242
1701904687678105300,16.955105224609376,1.1491979360580444,0.2079756259918213,-2.8219428062438965
1701904687695107300,16.972107421875,1.3001518249511719,-0.41445374488830566,-3.239570140838623
1701904687712099800,16.989099853515626,1.360447883605957,-0.9789447784423828,-3.7438549995422363
1701904687729089500,17.006089599609375,1.4727033376693726,-1.478163480758667,-4.350341320037842
1701904687746086700,17.023086669921874,1.755018949508667,-1.9546873569488525,-4.665890216827393
1701904687763077600,17.04007763671875,2.2203187942504883,-2.3454811573028564,-4.765552043914795
1701904687780067600,17.057067626953124,2.822207450866699,-2.4042296409606934,-4.935277938842773
1701904687797061400,17.074061279296874,3.4060583114624023,-2.5650687217712402,-4.594977378845215
1701904687814051000,17.091051025390627,3.793530225753784,-3.0187532901763916,-3.775655746459961
1701904687831046100,17.108046142578125,3.9781570434570312,-3.7186696529388428,-2.6476125717163086
1701904687848039200,17.1250390625,3.684730052947998,-4.4519476890563965,-1.7227354049682617
1701904687865028600,17.142028564453124,3.058490753173828,-4.92451286315918,-1.2968339920043945
1701904687882023000,17.15902294921875,2.8892595767974854,-5.251961708068848,-0.9559850692749023
1701904687899015700,17.176015625,2.9498400688171387,-5.557416915893555,-0.3672800064086914
1701904687916008700,17.1930087890625,2.704052448272705,-5.380745887756348,-0.2260284423828125
1701904687932998000,17.209997802734375,2.155034303665161,-5.041861534118652,-0.2219991683959961
1701904687949997300,17.226997314453126,1.410046100616455,-4.817338466644287,-0.3244972229003906
1701904687966973000,17.243972900390624,0.6995974779129028,-4.383951187133789,-0.7165031433105469
1701904687983970800,17.260970703125,0.2914086580276489,-3.7582712173461914,-1.2038602828979492
1701904688000961800,17.2779619140625,0.5303399562835693,-2.9365897178649902,-1.1608963012695312
1701904688017955000,17.294955078125,0.819634735584259,-2.3071460723876953,-0.04043865203857422
1701904688034944000,17.311944091796875,0.6053056120872498,-1.9121339321136475,1.394179344177246
1701904688051943700,17.328943603515626,-0.5245914459228516,-1.773031234741211,2.23946475982666
1701904688068935200,17.34593505859375,-1.9496291875839233,-1.4963974952697754,2.0731210708618164
1701904688085929000,17.362928955078125,-3.3610382080078125,-1.1184635162353516,1.534891128540039
1701904688102914600,17.37991455078125,-3.848302125930786,-0.5207157135009766,0.9129667282104492
1701904688119910700,17.39691064453125,-3.415114402770996,0.5419290065765381,0.40143585205078125
1701904688136896800,17.413896728515624,-2.704089879989624,1.5448780059814453,0.07275009155273438
1701904688153902600,17.430902587890625,-2.084533214569092,2.454400062561035,-0.03141593933105469
1701904688170890500,17.447890380859373,-1.7559607028961182,3.2772419452667236,-0.4386930465698242
1701904688187882200,17.46488232421875,-1.915346622467041,3.6978750228881836,-0.6416172981262207
1701904688204879400,17.48187939453125,-2.3066792488098145,3.6821861267089844,-0.689051628112793
1701904688221862400,17.4988623046875,-2.366881847381592,3.5316529273986816,-0.5031733512878418
1701904688238856200,17.515856201171875,-2.11907696723938,3.3936567306518555,-0.41387510299682617
1701904688255852800,17.532852783203126,-1.7935123443603516,3.262573719024658,-0.23527240753173828
1701904688272845800,17.549845703125,-1.690079927444458,3.152008056640625,0.11412620544433594
1701904688289837800,17.566837890625,-1.9378612041473389,3.186819553375244,0.7078208923339844
1701904688306827500,17.58382763671875,-2.5337932109832764,3.165360927581787,1.3719429969787598
1701904688323818500,17.600818603515624,-3.030120611190796,3.1223814487457275,2.0880355834960938
1701904688340816400,17.61781640625,-3.21923565864563,3.0291013717651367,2.929621696472168
1701904688357804800,17.6348046875,-3.126413345336914,2.7911689281463623,3.8812594413757324
1701904688374795000,17.651794921875,-2.925428867340088,2.6849606037139893,4.527890205383301
1701904688391787800,17.668787841796874,-2.751389503479004,2.826127767562866,4.954443454742432
1701904688408787200,17.685787109375,-2.768359661102295,2.8926775455474854,5.486440181732178
1701904688425779200,17.702779296875,-2.983323812484741,2.6492104530334473,6.132166862487793
1701904688442772700,17.719772705078125,-3.1502842903137207,1.675724983215332,6.963472366333008
1701904688459764200,17.73676416015625,-2.9134700298309326,0.7948551177978516,7.060309886932373
1701904688476757800,17.7537578125,-2.3062291145324707,-0.05969572067260742,7.085941314697266
1701904688493748500,17.77074853515625,-1.5709941387176514,-0.5597410202026367,7.23797607421875
1701904688510742500,17.787742431640623,-1.0833537578582764,-0.1450357437133789,6.715569496154785
1701904688527734300,17.804734375,-0.6723970174789429,0.2409076690673828,5.997783660888672
1701904688544726300,17.821726318359374,-0.32531923055648804,0.025355815887451172,5.469109535217285
1701904688561719300,17.83871923828125,-0.011800289154052734,-0.8498530387878418,5.238369941711426
1701904688578710500,17.85571044921875,0.18791186809539795,-1.7697815895080566,4.985152244567871
1701904688595707400,17.872707275390624,0.2478916049003601,-2.1884994506835938,4.270129203796387
1701904688612684500,17.8896845703125,0.13483482599258423,-2.1246447563171387,3.218447685241699
1701904688629688600,17.9066884765625,0.06312093138694763,-1.634183406829834,1.8869895935058594
1701904688646679800,17.9236796875,0.12098249793052673,-0.9921009540557861,0.49898433685302734
1701904688663674400,17.94067431640625,0.2494053989648819,-0.4437742233276367,-0.7215414047241211
1701904688680665300,17.957665283203124,0.3562988340854645,-0.07478904724121094,-1.7754344940185547
1701904688697658400,17.974658447265625,0.466217577457428,0.03129410743713379,-2.6387667655944824
1701904688714647300,17.991647216796874,0.5929222702980042,-0.09959530830383301,-3.240248203277588
1701904688731644000,18.008643798828125,0.844344973564148,-0.40938234329223633,-3.7421302795410156
1701904688748632000,18.025632080078125,1.04283607006073,-0.732144832611084,-4.365244388580322
1701904688765630200,18.042630126953124,1.7086414098739624,-0.956684947013855,-4.875276565551758
1701904688782619400,18.059619384765625,2.753516674041748,-1.034693956375122,-4.838237285614014
1701904688799612400,18.0766123046875,3.659986972808838,-1.1876131296157837,-3.9888815879821777
1701904688816601900,18.093601806640624,3.8162026405334473,-1.2222564220428467,-3.2021121978759766
1701904688833600000,18.11060009765625,3.208041191101074,-1.2000926733016968,-3.223330497741699
1701904688850589000,18.1275888671875,2.3141090869903564,-1.1693520545959473,-3.6890106201171875
1701904688867582200,18.144582275390626,1.6925444602966309,-1.395819067955017,-3.774470806121826
1701904688884574000,18.161573974609375,1.61674165725708,-2.299931764602661,-3.161832332611084
1701904688901563600,18.178563720703124,1.8849339485168457,-3.2271392345428467,-2.587967872619629
1701904688918564600,18.195564697265624,2.5864758491516113,-3.966398000717163,-2.325380802154541
1701904688935555600,18.2125556640625,3.2885749340057373,-4.701488018035889,-2.0919032096862793
1701904688952543200,18.229543212890626,3.5973973274230957,-5.474362850189209,-1.830620288848877
1701904688969535500,18.246535400390623,3.551464557647705,-5.914800643920898,-1.853775978088379
1701904688986529000,18.263529052734373,3.12310528755188,-6.047430038452148,-2.042079448699951
1701904689003521000,18.28052099609375,2.774415969848633,-6.235165119171143,-1.8818812370300293
1701904689020513000,18.297512939453124,2.107142925262451,-6.274139404296875,-1.5549449920654297
1701904689037495800,18.314495849609376,1.6679469347000122,-6.018775939941406,-1.1183843612670898
1701904689054497800,18.331497802734376,1.4560573101043701,-5.7280473709106445,-0.5856590270996094
1701904689071490600,18.348490478515625,1.224165916442871,-5.250512599945068,-0.004269599914550781
1701904689088481500,18.3654814453125,0.8390414118766785,-4.743497371673584,0.7995901107788086
1701904689105476400,18.382476318359377,-0.1910773515701294,-4.37921142578125,1.4418916702270508
1701904689122467300,18.39946728515625,-1.5380312204360962,-4.0727434158325195,1.7323312759399414
1701904689139460000,18.416460205078124,-2.302621841430664,-3.529663324356079,1.4484844207763672
1701904689156450800,18.433450927734373,-2.345841646194458,-2.567434072494507,0.7645254135131836
1701904689173435100,18.45043505859375,-2.026503324508667,-1.437685489654541,0.029313087463378906
1701904689190448000,18.4674482421875,-1.632470726966858,-0.17607426643371582,-0.4995155334472656
1701904689207429600,18.4844296875,-1.234928846359253,1.0106632709503174,-0.6525449752807617
1701904689224418300,18.501418212890623,-0.9209395051002502,2.0776710510253906,-0.8694095611572266
1701904689241414400,18.518414306640626,-0.9254834055900574,2.5498244762420654,-0.8058347702026367
1701904689258395600,18.535395751953125,-1.2409577369689941,2.644993782043457,-0.5117835998535156
1701904689275396600,18.552396728515625,-1.7554383277893066,2.5374574661254883,0.012752532958984375
1701904689292390400,18.569390380859375,-1.644162893295288,2.6916356086730957,0.4741249084472656
1701904689309382700,18.586382568359376,-1.3341188430786133,2.8823795318603516,0.8181114196777344
1701904689326376000,18.6033759765625,-0.9885247945785522,3.119469165802002,1.241194248199463
1701904689343368700,18.62036865234375,-1.0359306335449219,3.255704164505005,2.2066235542297363
1701904689360358000,18.63735791015625,-1.532666802406311,3.4862864017486572,3.0563035011291504
1701904689377356000,18.65435595703125,-2.0086748600006104,3.651776075363159,3.9271926879882812
1701904689394345000,18.671344970703124,-2.258763551712036,3.803611993789673,4.828811168670654
1701904689411327700,18.68832763671875,-2.341383457183838,3.755831718444824,5.898605823516846
1701904689428330000,18.705330078125,-2.357454776763916,3.87212872505188,6.6905670166015625
1701904689445323000,18.722322998046874,-2.6140213012695312,4.03192138671875,7.5408854484558105
1701904689462314800,18.739314697265623,-3.3122472763061523,4.103032112121582,8.39430046081543
1701904689479296300,18.756296142578126,-3.986578941345215,3.720675468444824,9.135150909423828
1701904689496300300,18.77330029296875,-4.234106063842773,2.812114715576172,9.514678955078125
1701904689513292500,18.79029248046875,-3.7713303565979004,1.8140082359313965,9.457218170166016
1701904689530284000,18.807283935546874,-2.804835796356201,0.7709684371948242,9.392274856567383
1701904689547277000,18.824277099609375,-1.6748619079589844,0.5470895767211914,8.973396301269531
1701904689564269800,18.841269775390625,-0.8720132112503052,1.0372042655944824,7.989517688751221
1701904689581259000,18.858259033203126,-0.34902024269104004,1.1128482818603516,7.0379109382629395
1701904689598255900,18.875255859375,0.20053362846374512,0.4752779006958008,6.315554618835449
1701904689615246800,18.892246826171874,0.8598188161849976,-0.5906620025634766,5.782495975494385
1701904689632236000,18.909236083984375,1.3642624616622925,-1.528104305267334,5.297104835510254
1701904689649234000,18.92623388671875,1.5140351057052612,-1.8359274864196777,4.479552268981934
1701904689666222300,18.943222412109375,1.4241454601287842,-1.5040812492370605,3.1436853408813477
1701904689683216600,18.960216552734376,1.2920103073120117,-0.8753433227539062,1.5279874801635742
1701904689700207900,18.977207763671874,1.2783355712890625,-0.38965892791748047,0.15852069854736328
1701904689717201000,18.994200927734376,1.2321033477783203,-0.17816400527954102,-0.8639793395996094
1701904689734189600,19.011189453125,1.1407990455627441,-0.25821614265441895,-1.60615873336792
1701904689751185700,19.028185546875,1.0834232568740845,-0.5407285690307617,-2.2488889694213867
1701904689768177700,19.045177734375,1.1275091171264648,-0.9025812149047852,-2.789638042449951
1701904689785170400,19.06217041015625,1.121874451637268,-1.2523910999298096,-3.4025797843933105
1701904689802159000,19.0791591796875,1.198445439338684,-1.5238432884216309,-4.100944995880127
1701904689819147300,19.096147216796876,1.3892370462417603,-1.7897889614105225,-4.758879661560059
1701904689836147200,19.113147216796875,1.62855064868927,-2.163062334060669,-5.198583602905273
1701904689853137400,19.130137451171876,2.2600595951080322,-2.6260435581207275,-5.168237686157227
1701904689870134300,19.14713427734375,3.220531702041626,-2.8326401710510254,-5.06862735748291
1701904689887124700,19.164124755859376,3.7347664833068848,-2.851795196533203,-5.202474117279053
1701904689904107500,19.181107421875,3.8507654666900635,-3.011838674545288,-4.8888163566589355
1701904689921097700,19.19809765625,3.9281089305877686,-3.3480286598205566,-4.33547306060791
1701904689938101000,19.21510107421875,3.9805777072906494,-4.128880977630615,-3.338237762451172
1701904689955091500,19.232091552734374,3.985776424407959,-4.670275688171387,-2.3769783973693848
1701904689972088600,19.249088623046877,4.171250820159912,-5.050144195556641,-1.5976719856262207
1701904689989078000,19.266078125,4.382266044616699,-5.514580726623535,-0.9058256149291992
1701904690006063400,19.2830634765625,4.400580406188965,-6.167917728424072,0.041545867919921875
1701904690023061000,19.30006103515625,4.201196670532227,-6.141199111938477,0.26640892028808594
1701904690040058000,19.31705810546875,3.4327688217163086,-6.357966423034668,0.032527923583984375
1701904690057046000,19.3340458984375,2.2898848056793213,-6.302105903625488,-1.012162208557129
1701904690074041300,19.351041259765626,1.361030101776123,-6.304370880126953,-1.956641674041748
1701904690091035000,19.368034912109376,1.098584771156311,-5.992623805999756,-2.120352268218994
1701904690108024800,19.38502490234375,1.502658724784851,-5.4071574211120605,-1.468062400817871
1701904690125018000,19.40201806640625,1.6226096153259277,-4.809390068054199,-0.11081504821777344
1701904690142023200,19.419023193359376,1.2256174087524414,-4.22602653503418,0.9227848052978516
1701904690159002600,19.436002685546875,0.34490689635276794,-3.6274936199188232,1.0777263641357422
1701904690175993900,19.452993896484376,-0.7769862413406372,-3.167881488800049,0.7849559783935547
1701904690192988000,19.46998779296875,-1.5164226293563843,-2.557344675064087,0.4201946258544922
1701904690209981700,19.486981689453124,-1.591427206993103,-1.4825587272644043,-0.024915695190429688
1701904690226961400,19.50396142578125,-1.4704862833023071,-0.20115971565246582,-0.5467710494995117
1701904690243964000,19.5209638671875,-1.3685895204544067,0.919374942779541,-0.8903303146362305
1701904690260942000,19.537942138671873,-1.2978723049163818,1.7509186267852783,-0.9805335998535156
1701904690277953000,19.554953125,-1.4212684631347656,2.242060661315918,-0.6489133834838867
1701904690294930200,19.57193017578125,-2.1702260971069336,2.2927024364471436,-0.0650625228881836
1701904690311931100,19.58893115234375,-2.9798171520233154,2.291541337966919,0.22954940795898438
1701904690328926200,19.60592626953125,-3.1861977577209473,2.3579635620117188,0.2362823486328125
1701904690345918000,19.62291796875,-2.7525405883789062,2.340402841567993,0.30133533477783203
1701904690362911200,19.6399111328125,-2.109816789627075,2.2819082736968994,0.8681778907775879
1701904690379902700,19.65690283203125,-1.7603168487548828,2.364847421646118,1.7508058547973633
1701904690396893400,19.6738935546875,-1.937751054763794,2.613872528076172,2.8510289192199707
1701904690413890000,19.69089013671875,-2.4934844970703125,2.883373737335205,4.12261438369751
1701904690430878200,19.707878173828124,-3.12247896194458,3.0984880924224854,5.232269763946533
1701904690447874800,19.724874755859375,-3.5610857009887695,3.3927109241485596,5.9918365478515625
1701904690464865000,19.741864990234376,-3.7220211029052734,3.636516809463501,6.788969039916992
1701904690481846300,19.75884619140625,-3.984818458557129,3.8850529193878174,7.52707052230835
1701904690498849300,19.775849365234375,-4.226682186126709,3.88385009765625,8.223487854003906
1701904690515842000,19.792842041015625,-4.320469856262207,3.333209276199341,9.049497604370117
1701904690532825000,19.8098251953125,-3.9874582290649414,2.4130187034606934,9.758861541748047
1701904690549826600,19.82682666015625,-3.546603202819824,1.5777816772460938,9.990735054016113
1701904690566818800,19.84381884765625,-3.056159019470215,0.7950572967529297,10.153963088989258
1701904690583811800,19.860811767578124,-2.6952903270721436,0.8304343223571777,9.714700698852539
1701904690600801500,19.877801513671876,-2.3144774436950684,1.181290626525879,8.91775131225586
1701904690617795800,19.8947958984375,-1.887159824371338,1.1022963523864746,7.998685359954834
1701904690634789000,19.9117890625,-0.8651212453842163,0.3569316864013672,7.206021785736084
1701904690651781000,19.928781005859374,0.13107681274414062,-0.8561339378356934,6.712666034698486
1701904690668773600,19.945773681640624,0.8002022504806519,-1.9851107597351074,6.277834892272949
1701904690685764900,19.962764892578125,0.7450517416000366,-2.532198429107666,5.461085319519043
1701904690702759000,19.979759033203123,0.39465051889419556,-2.4186015129089355,4.173941612243652
1701904690719737000,19.996737060546874,0.20511126518249512,-1.8177618980407715,2.609525680541992
1701904690736745000,20.013744873046875,0.3236514627933502,-1.1633358001708984,1.214829444885254
1701904690753725400,20.030725341796874,0.6584185361862183,-0.7180566787719727,-0.0019578933715820312
1701904690770728000,20.04772802734375,0.9663791656494141,-0.7380285263061523,-1.0124969482421875
1701904690787719700,20.0647197265625,1.445465326309204,-0.9207608699798584,-1.9132966995239258
1701904690804712700,20.081712646484377,1.8181729316711426,-1.411475419998169,-2.6138839721679688
1701904690821701400,20.098701416015626,2.0557687282562256,-2.0586318969726562,-3.1608009338378906
1701904690838697200,20.115697265625,2.1998233795166016,-2.414924144744873,-4.196325302124023
1701904690855689000,20.13268896484375,2.226200819015503,-2.7512686252593994,-5.1974101066589355
1701904690872673500,20.149673583984374,2.2897825241088867,-3.27105712890625,-5.778412818908691
1701904690889673200,20.166673095703125,2.352672815322876,-3.646157741546631,-6.141728401184082
1701904690906667800,20.183667724609375,2.4429731369018555,-3.9832611083984375,-6.3163628578186035
1701904690923658800,20.20065869140625,2.567920684814453,-4.1048688888549805,-6.450640678405762
1701904690940651500,20.217651611328126,2.7201292514801025,-4.144343852996826,-6.3236494064331055
1701904690957643500,20.2346435546875,2.6863975524902344,-4.676003456115723,-5.6990885734558105
1701904690974636000,20.251635986328125,2.5370497703552246,-5.4725775718688965,-4.971370220184326
1701904690991628000,20.2686279296875,2.360448122024536,-6.1395978927612305,-4.519412517547607
1701904691008620300,20.285620361328125,2.463737726211548,-6.536282062530518,-4.055311679840088
1701904691025613800,20.30261376953125,2.5526411533355713,-7.058355808258057,-3.177583694458008
1701904691042605800,20.319605712890624,2.527865409851074,-7.552690505981445,-2.1437807083129883
1701904691059597600,20.33659765625,2.3619725704193115,-7.617557525634766,-1.334193229675293
1701904691076588000,20.353588134765626,1.851309061050415,-7.479272842407227,-0.7580881118774414
1701904691093585000,20.3705849609375,0.9448145031929016,-7.3160834312438965,-0.50958251953125
1701904691110575000,20.3875751953125,0.4829718768596649,-6.767851829528809,-0.680694580078125
1701904691127567400,20.4045673828125,0.8856656551361084,-5.990530967712402,-0.35997676849365234
1701904691144557000,20.42155712890625,1.1492877006530762,-5.373730659484863,1.031240463256836
1701904691161552000,20.4385517578125,0.669238269329071,-4.8561882972717285,2.59613037109375
1701904691178545000,20.455544921875,-0.2344101518392563,-4.376965522766113,3.424252510070801
1701904691195536600,20.47253662109375,-1.1451239585876465,-3.755007266998291,3.2051868438720703
1701904691212526600,20.489526611328124,-1.6053889989852905,-3.146606922149658,2.4065170288085938
1701904691229521200,20.506521240234374,-1.4040179252624512,-2.3529462814331055,1.422037124633789
1701904691246514000,20.523513916015624,-0.6819605827331543,-1.2033705711364746,0.5533084869384766
1701904691263506000,20.540505859375,-0.1394830048084259,0.0821678638458252,0.2432403564453125
1701904691280499000,20.5574990234375,-0.32024720311164856,1.426086664199829,0.43903064727783203
1701904691297489400,20.574489501953124,-1.1006771326065063,2.4201159477233887,0.49347972869873047
1701904691314481700,20.591481689453126,-1.8193256855010986,3.090404510498047,0.12709808349609375
1701904691331474400,20.608474365234375,-2.4936788082122803,3.206024169921875,-0.1345348358154297
1701904691348468200,20.62546826171875,-2.662320137023926,3.1103639602661133,-0.28954505920410156
1701904691365450000,20.642449951171876,-2.2083892822265625,2.954972505569458,-0.07760810852050781
1701904691382453000,20.659452880859376,-1.4408677816390991,3.0607407093048096,0.4392738342285156
1701904691399442200,20.676442138671874,-0.7525315880775452,3.270616292953491,1.3088750839233398
1701904691416441300,20.69344140625,-0.6801164150238037,3.5216102600097656,2.0418996810913086
1701904691433419000,20.7104189453125,-0.9188687801361084,3.810154676437378,2.474821090698242
1701904691450424800,20.7274248046875,-1.152172565460205,3.9102847576141357,3.395242214202881
1701904691467403500,20.744403564453126,-1.462557315826416,3.8820879459381104,4.838696479797363
1701904691484409900,20.761409912109375,-1.7249884605407715,3.7869253158569336,6.466707229614258
1701904691501399300,20.7783994140625,-1.8197110891342163,4.035471439361572,7.5166120529174805
1701904691518379800,20.7953798828125,-2.115413188934326,4.305524826049805,8.370804786682129
1701904691535385900,20.8123857421875,-2.846479892730713,4.609079360961914,9.056406021118164
1701904691552376800,20.829376953125,-3.6359846591949463,4.139901161193848,9.90203857421875
1701904691569361000,20.84636083984375,-3.8353161811828613,3.3271169662475586,10.517927169799805
1701904691586356500,20.8633564453125,-3.4875712394714355,2.673696994781494,10.527059555053711
1701904691603348000,20.880347900390625,-3.0288844108581543,1.8233485221862793,10.270320892333984
1701904691620338400,20.89733837890625,-2.407864570617676,1.1480951309204102,9.828420639038086
1701904691637328600,20.91432861328125,-1.7621965408325195,1.1005325317382812,8.877161026000977
1701904691654329300,20.931329345703126,-1.1322225332260132,0.9326958656311035,7.9857025146484375
1701904691671321000,20.948321044921876,-0.3359823226928711,0.4807596206665039,7.111842632293701
1701904691688308700,20.965308837890625,0.5689235925674438,-0.2841668128967285,6.3100104331970215
1701904691705300700,20.98230078125,1.4240789413452148,-1.0916733741760254,5.485265731811523
1701904691722295300,20.99929541015625,2.046536445617676,-1.637096881866455,4.543311595916748
1701904691739283200,21.016283203125,2.3482580184936523,-1.7662091255187988,3.4269628524780273
1701904691756282000,21.0332822265625,2.2405736446380615,-1.4896087646484375,1.9781055450439453
1701904691773268700,21.050268798828125,1.9798433780670166,-1.0762076377868652,0.5152978897094727
1701904691790264300,21.067264404296875,1.5850296020507812,-0.7786660194396973,-0.7416267395019531
1701904691807257900,21.0842578125,1.2279691696166992,-0.6611647605895996,-1.7287158966064453
1701904691824242700,21.10124267578125,1.1011654138565063,-0.6688520908355713,-2.447403907775879
1701904691841237800,21.11823779296875,1.3111703395843506,-0.9001152515411377,-3.0772933959960938
1701904691858238200,21.13523828125,1.8460568189620972,-1.388784646987915,-3.413754463195801
1701904691875225600,21.1522255859375,2.313894748687744,-1.6570212841033936,-3.8300023078918457
1701904691892217000,21.169217041015624,2.525538921356201,-1.9293303489685059,-4.397383213043213
1701904691909206500,21.18620654296875,2.560598373413086,-2.315032482147217,-4.864226818084717
1701904691926209500,21.20320947265625,2.376495599746704,-2.5866870880126953,-5.341208457946777
1701904691943200800,21.22020068359375,2.2595713138580322,-2.816540241241455,-5.6048197746276855
1701904691960193500,21.237193603515625,2.3075366020202637,-3.005974292755127,-5.624278545379639
1701904691977183000,21.254182861328125,2.4128689765930176,-3.188155174255371,-5.268743515014648
1701904691994189600,21.271189453125,2.742687463760376,-3.319511890411377,-4.746193885803223
1701904692011169800,21.288169677734373,2.905214786529541,-3.794222831726074,-3.8649253845214844
1701904692028162800,21.305162841796875,2.96420955657959,-4.357565402984619,-2.991117477416992
1701904692045154800,21.32215478515625,3.102112054824829,-4.814925193786621,-2.2390284538269043
1701904692062139100,21.33913916015625,3.2641172409057617,-5.301880359649658,-1.354898452758789
1701904692079124200,21.356124267578124,3.2239954471588135,-5.603080749511719,-0.8064489364624023
1701904692096131300,21.37313134765625,2.790182590484619,-5.814183235168457,-0.650303840637207
1701904692113125000,21.390125,2.510667085647583,-6.114365100860596,-0.6881923675537109
1701904692130117000,21.4071171875,2.324873924255371,-6.421712875366211,-0.9155731201171875
1701904692147108900,21.42410888671875,1.9202381372451782,-6.569775104522705,-1.3923225402832031
1701904692164102000,21.441101806640624,2.0316238403320312,-5.979284763336182,-2.0033011436462402
1701904692181093600,21.45809375,2.7496678829193115,-5.185787677764893,-1.5659198760986328
1701904692198085000,21.475085205078123,3.2591915130615234,-4.351221561431885,-0.34100818634033203
1701904692215077400,21.492077392578125,2.676429033279419,-3.6973938941955566,1.0903301239013672
1701904692232071000,21.50907080078125,1.4087674617767334,-3.335451126098633,1.8962249755859375
1701904692249063200,21.526063232421876,0.06745188683271408,-2.829627513885498,1.6996612548828125
1701904692266056700,21.543056640625,-0.702818751335144,-2.1623141765594482,1.185673713684082
1701904692283047200,21.560047119140624,-0.8567782044410706,-1.2038381099700928,0.7554111480712891
1701904692300034800,21.577034912109376,-0.7267105579376221,-0.09674501419067383,0.5429859161376953
1701904692317032700,21.59403271484375,-0.6098767518997192,1.0410635471343994,0.5798702239990234
1701904692334025500,21.611025390625,-0.7862985730171204,2.180288791656494,0.6914567947387695
1701904692351017200,21.628017333984374,-1.4767831563949585,2.9689390659332275,0.8364067077636719
1701904692368010200,21.64501025390625,-2.1911604404449463,3.4728031158447266,0.6970672607421875
