time,seconds_elapsed,z,y,x
1701097302833298000,0.1212978515625,-1.573967456817627,0.3572349548339844,-0.7172175645828247
1701097302850292200,0.138292236328125,-1.6237339973449707,0.3217458724975586,-0.7502655982971191
1701097302867281200,0.15528125,-1.0652456283569336,0.22344446182250977,-0.9871952533721924
1701097302884274000,0.17227392578125,-0.25814247131347656,0.13857698440551758,-1.2551499605178833
1701097302901259500,0.189259521484375,-0.09563350677490234,-0.06553220748901367,-1.3998485803604126
1701097302918252500,0.20625244140625,-0.799041748046875,-0.1344308853149414,-1.2311797142028809
1701097302935233800,0.22323388671875,-1.158216953277588,-0.18944358825683594,-0.9162042140960693
1701097302952231000,0.24023095703125,-0.2275395393371582,-0.02970743179321289,-1.4315046072006226
1701097302969223200,0.25722314453125,0.5054569244384766,0.015638351440429688,-1.503212809562683
1701097302986215700,0.274215576171875,0.9172663688659668,-0.10921621322631836,-1.7709977626800537
1701097303003201500,0.291201416015625,0.6097497940063477,0.21160554885864258,-1.8169448375701904
1701097303020195800,0.30819580078125,-1.0655875205993652,0.2309408187866211,-1.6115937232971191
1701097303037175300,0.32517529296875,-1.656785488128662,0.52667236328125,-1.4543254375457764
1701097303054176500,0.342176513671875,-0.9017653465270996,0.7464261054992676,-1.5258269309997559
1701097303071163000,0.359162841796875,0.14605236053466797,0.5802388191223145,-1.6176362037658691
1701097303088146000,0.37614599609375,0.6211013793945312,0.2745223045349121,-1.7986817359924316
1701097303105137400,0.393137451171875,0.06778812408447266,0.2786087989807129,-2.123863458633423
1701097303122134500,0.410134521484375,-1.9502930641174316,0.23026180267333984,-2.177799701690674
1701097303139116500,0.427116455078125,-3.6772468090057373,-0.24323558807373047,-1.7926013469696045
1701097303156119300,0.444119384765625,-4.174374580383301,-0.44121551513671875,-1.9860451221466064
1701097303173105200,0.461105224609375,-3.3962576389312744,-1.1603894233703613,-2.3485052585601807
1701097303190099200,0.47809912109375,-2.238413095474243,-1.9786028861999512,-2.9201908111572266
1701097303207088000,0.495088134765625,-1.1392011642456055,-2.861577272415161,-3.3680951595306396
1701097303224080600,0.51208056640625,-0.607945442199707,-3.2380917072296143,-3.903261184692383
1701097303241066500,0.52906640625,-1.67086923122406,-3.2623722553253174,-3.804323434829712
1701097303258049500,0.546049560546875,-2.6573326587677,-3.5574686527252197,-2.9810619354248047
1701097303275044600,0.563044677734375,-2.1246519088745117,-3.632326602935791,-2.382284641265869
1701097303292043800,0.580043701171875,-0.9775496125221252,-4.030011177062988,-2.038719654083252
1701097303309020400,0.5970205078125,0.3909498453140259,-4.676825523376465,-0.9950385093688965
1701097303326019000,0.61401904296875,2.1439762115478516,-4.7641377449035645,-0.25388050079345703
1701097303343014400,0.631014404296875,3.4576311111450195,-4.671850681304932,0.18065547943115234
1701097303360008000,0.648008056640625,3.7907450199127197,-4.7538275718688965,1.1363372802734375
1701097303376980500,0.66498046875,3.4396109580993652,-4.696691036224365,1.820760726928711
1701097303393985500,0.681985595703125,2.2007181644439697,-5.070392608642578,2.6265087127685547
1701097303410970000,0.69897021484375,1.2638306617736816,-5.512121200561523,3.1329259872436523
1701097303427951600,0.71595166015625,0.5381351709365845,-5.846934795379639,3.3502864837646484
1701097303444956700,0.732956787109375,0.525309681892395,-5.73275089263916,3.3640689849853516
1701097303461941800,0.749941650390625,0.3019271492958069,-5.801145553588867,4.559345245361328
1701097303478920400,0.76692041015625,1.0893969535827637,-5.37410831451416,5.903043746948242
1701097303495926500,0.783926513671875,1.7644211053848267,-4.993688106536865,6.743368148803711
1701097303512912400,0.800912353515625,2.2912139892578125,-3.9724788665771484,6.312892913818359
1701097303529906400,0.817906494140625,1.9761884212493896,-3.5819835662841797,5.612188339233398
1701097303546895400,0.834895263671875,2.5277090072631836,-3.1976065635681152,5.127041816711426
1701097303563887900,0.851887939453125,3.064519166946411,-2.851494073867798,5.289923667907715
1701097303580869400,0.868869384765625,3.901205539703369,-2.0601322650909424,5.750994682312012
1701097303597868300,0.885868408203125,4.396942615509033,-0.7925105094909668,5.220148086547852
1701097303614854700,0.902854736328125,4.203481197357178,0.5129084587097168,4.195209503173828
1701097303631847700,0.91984765625,3.7091026306152344,1.766908884048462,3.0966482162475586
1701097303648837400,0.93683740234375,3.267817974090576,2.736987829208374,2.023406982421875
1701097303665827800,0.953827880859375,2.6655988693237305,3.4948830604553223,1.2050590515136719
1701097303682817800,0.97081787109375,1.624413013458252,3.0805583000183105,3.005873680114746
1701097303699810000,0.98781005859375,1.0057967901229858,3.764734983444214,5.24929666519165
1701097303716799000,1.004799072265625,0.8523455262184143,4.933644771575928,5.15558385848999
1701097303733792800,1.021792724609375,-0.9645630717277527,5.567759037017822,3.7758841514587402
1701097303750775800,1.03877587890625,-2.2821693420410156,5.516884803771973,2.7548365592956543
1701097303767773400,1.0557734375,-3.0204219818115234,5.727214336395264,2.0123414993286133
1701097303784761600,1.07276171875,-2.9894471168518066,5.641594886779785,2.5062499046325684
1701097303801746400,1.089746337890625,-2.3413333892822266,5.652624130249023,4.169473171234131
1701097303818738200,1.10673828125,-1.2237215042114258,6.008432388305664,5.390271186828613
1701097303835738400,1.12373828125,-0.57062828540802,6.326403617858887,5.605410099029541
1701097303852720400,1.140720458984375,-0.8622722625732422,6.274320602416992,5.479702949523926
1701097303869711400,1.15771142578125,-1.2214266061782837,6.066827774047852,5.571714401245117
1701097303886705200,1.174705078125,-1.4487104415893555,5.823092460632324,6.090333461761475
1701097303903693600,1.191693603515625,-1.5981087684631348,5.107331275939941,7.625722408294678
1701097303920685600,1.208685546875,-1.4941776990890503,4.8079681396484375,8.557731628417969
1701097303937673200,1.225673095703125,-1.963183045387268,4.291210174560547,8.796514511108398
1701097303954665500,1.24266552734375,-1.8818373680114746,3.5150578022003174,8.635821342468262
1701097303971654400,1.259654296875,-1.370434045791626,2.366602897644043,8.507014274597168
1701097303988644600,1.27664453125,-0.3208252191543579,1.2696466445922852,8.69036865234375
1701097304005637600,1.2936376953125,0.6980339884757996,0.4888429641723633,8.990880966186523
1701097304022623000,1.310623046875,1.4840288162231445,0.07785844802856445,8.845376014709473
1701097304039602000,1.327601806640625,1.805312991142273,-0.470430850982666,8.55677604675293
1701097304056606200,1.344606201171875,2.1929852962493896,-1.1346020698547363,8.263410568237305
1701097304073595400,1.361595458984375,2.508161783218384,-2.04514217376709,8.205820083618164
1701097304090587600,1.378587646484375,2.805227279663086,-2.929194927215576,7.930095672607422
1701097304107577900,1.395577880859375,3.307009220123291,-3.804964065551758,7.400897979736328
1701097304124569300,1.4125693359375,3.7171857357025146,-4.4194536209106445,6.39424991607666
1701097304141549000,1.429549072265625,4.169699192047119,-4.868599891662598,4.987032890319824
1701097304158548500,1.446548583984375,4.519448757171631,-5.020911693572998,3.3804502487182617
1701097304175540700,1.463540771484375,4.544185161590576,-4.986825942993164,1.7080726623535156
1701097304192526800,1.48052685546875,4.464833736419678,-4.885394096374512,0.27083873748779297
1701097304209523000,1.49752294921875,4.463083267211914,-4.80981969833374,-0.8412437438964844
1701097304226508800,1.5145087890625,4.373530387878418,-4.802267074584961,-1.5020208358764648
1701097304243499800,1.531499755859375,4.413017272949219,-4.927413463592529,-1.7589974403381348
1701097304260489500,1.548489501953125,4.64933967590332,-5.034979820251465,-2.119898796081543
1701097304277481500,1.5654814453125,4.755179405212402,-5.252806186676025,-2.5225653648376465
1701097304294472400,1.582472412109375,4.784505367279053,-5.510125637054443,-2.884389877319336
1701097304311459300,1.599459228515625,4.843055725097656,-5.833281517028809,-3.2107439041137695
1701097304328441300,1.61644140625,4.814533233642578,-6.179062843322754,-3.4534454345703125
1701097304345446100,1.633446044921875,4.994733810424805,-6.460197925567627,-3.538663864135742
1701097304362428700,1.6504287109375,5.366872787475586,-6.645097255706787,-3.874547004699707
1701097304379423700,1.667423828125,5.503366947174072,-6.899544715881348,-4.271884918212891
1701097304396415000,1.6844150390625,5.516883373260498,-7.164087295532227,-4.731295108795166
1701097304413399600,1.701399658203125,5.550612449645996,-7.417030334472656,-5.180088043212891
1701097304430397700,1.718397705078125,5.382857322692871,-7.905727386474609,-5.397003173828125
1701097304447385000,1.735385009765625,5.287271499633789,-8.600621223449707,-5.104804039001465
1701097304464372200,1.752372314453125,5.718055248260498,-8.73548698425293,-4.933917045593262
1701097304481362000,1.76936181640625,5.62725830078125,-8.698619842529297,-4.753339767456055
1701097304498355700,1.786355712890625,4.97396183013916,-8.669052124023438,-4.2861104011535645
1701097304515348200,1.80334814453125,4.905413627624512,-8.865035057067871,-2.759159564971924
1701097304532334300,1.820334228515625,4.464028358459473,-9.144588470458984,-1.27927827835083
1701097304549327400,1.837327392578125,3.6946287155151367,-9.371359825134277,0.24715709686279297
1701097304566318800,1.85431884765625,2.922220230102539,-9.09797477722168,1.423182487487793
1701097304583305500,1.871305419921875,2.23600697517395,-8.259000778198242,2.017786979675293
1701097304600298800,1.888298828125,1.6300725936889648,-7.311671257019043,2.7373294830322266
1701097304617287200,1.905287109375,1.3387329578399658,-6.552493572235107,4.013733863830566
1701097304634282000,1.922281982421875,1.1302580833435059,-6.103175163269043,5.692608833312988
1701097304651267300,1.939267333984375,1.2144089937210083,-5.601132869720459,6.494412422180176
1701097304668259300,1.95625927734375,1.9432047605514526,-4.770236015319824,6.140377998352051
1701097304685252000,1.973252197265625,2.6080784797668457,-3.8847060203552246,5.545785903930664
1701097304702237700,1.99023779296875,2.931826114654541,-2.4592137336730957,5.3071746826171875
1701097304719224300,2.007224365234375,2.3596229553222656,-0.8229265213012695,5.672603607177734
1701097304736223700,2.0242236328125,1.104507327079773,1.0794920921325684,5.605110168457031
1701097304753209300,2.041209228515625,-0.02229410409927368,2.749065399169922,5.064484596252441
1701097304770197000,2.058197021484375,-1.0124512910842896,3.6632981300354004,4.670442581176758
1701097304787189200,2.075189208984375,-1.7943072319030762,4.136194229125977,4.7464399337768555
1701097304804187100,2.092187255859375,-2.0323147773742676,4.352642059326172,5.265003204345703
1701097304821171000,2.1091708984375,-2.178382635116577,4.848725318908691,5.641398906707764
1701097304838163200,2.1261630859375,-2.5804808139801025,5.2991814613342285,5.830653190612793
1701097304855156000,2.143156005859375,-2.4543652534484863,5.853231430053711,5.369906425476074
1701097304872141000,2.16014111328125,-2.213681697845459,6.177513599395752,4.687013149261475
1701097304889134800,2.177134765625,-1.5804128646850586,6.284104347229004,4.560091972351074
1701097304906126000,2.1941259765625,-0.9859068393707275,6.457841873168945,5.305564880371094
1701097304923117800,2.211117919921875,-0.643099844455719,6.857327938079834,6.121888637542725
1701097304940107500,2.228107421875,-0.663791298866272,6.866844177246094,6.739200115203857
1701097304957094100,2.24509423828125,-1.0951725244522095,6.730119705200195,7.107204437255859
1701097304974089000,2.2620888671875,-1.422182321548462,6.427768707275391,7.5324931144714355
1701097304991074600,2.279074462890625,-1.6881405115127563,6.054298400878906,8.067220687866211
1701097305008065000,2.29606494140625,-1.6337343454360962,5.5483808517456055,8.592570304870605
1701097305025061400,2.313061279296875,-1.5247472524642944,4.803592681884766,9.196613311767578
1701097305042041300,2.330041259765625,-1.3530852794647217,4.071314334869385,9.10140323638916
1701097305059035100,2.34703515625,-0.661219596862793,3.3369131088256836,8.808603286743164
1701097305076021000,2.36402099609375,-0.0457158088684082,2.2197561264038086,9.009733200073242
1701097305093020200,2.381020263671875,0.6108056306838989,0.9978418350219727,9.568811416625977
1701097305110010600,2.3980107421875,0.9564876556396484,-0.024881839752197266,10.11157512664795
1701097305127005200,2.415005126953125,0.8129949569702148,-0.3498554229736328,10.060857772827148
1701097305144003000,2.432003173828125,0.6860056519508362,-0.31730222702026367,9.601268768310547
1701097305160982300,2.448982177734375,0.3715840280056,-0.8506178855895996,9.114055633544922
1701097305177970700,2.465970703125,0.6986069679260254,-2.0348381996154785,8.635673522949219
1701097305194963200,2.482963134765625,1.7341426610946655,-3.418147087097168,7.708146095275879
1701097305211948800,2.49994873046875,2.863037109375,-4.986412048339844,6.902228355407715
1701097305228942600,2.516942626953125,3.845487594604492,-5.4381103515625,5.24394416809082
1701097305245929200,2.53392919921875,4.352599143981934,-5.525786399841309,3.2537336349487305
1701097305262925000,2.550925048828125,4.421846866607666,-5.23034143447876,1.4887456893920898
1701097305279914000,2.5679140625,4.279163837432861,-4.921975135803223,0.042540550231933594
1701097305296903700,2.584903564453125,4.3019256591796875,-4.624578475952148,-1.0692415237426758
1701097305313899500,2.6018994140625,4.464250564575195,-4.40041971206665,-1.9808173179626465
1701097305330883000,2.618883056640625,4.592351913452148,-4.428190231323242,-2.520498752593994
1701097305347874300,2.635874267578125,4.717876434326172,-4.654540538787842,-2.584583282470703
1701097305364867000,2.6528671875,4.948558330535889,-4.943934440612793,-2.347914695739746
1701097305381853000,2.66985302734375,5.209044456481934,-5.25270414352417,-2.3337016105651855
1701097305398846200,2.68684619140625,5.35336971282959,-5.497656345367432,-2.6570935249328613
1701097305415837700,2.703837646484375,5.580985069274902,-5.708266258239746,-3.1657309532165527
1701097305432824800,2.720824951171875,5.794951438903809,-5.812973976135254,-3.5832314491271973
1701097305449815000,2.73781494140625,5.848325252532959,-5.971063613891602,-3.6712279319763184
1701097305466810000,2.75481005859375,6.117927551269531,-6.071873664855957,-3.614504337310791
1701097305483784000,2.771783935546875,6.487024784088135,-6.252819538116455,-3.516007900238037
1701097305500789200,2.788789306640625,6.7255167961120605,-6.601891040802002,-3.578836441040039
1701097305517774600,2.805774658203125,6.88045597076416,-7.045910835266113,-3.6442089080810547
1701097305534771200,2.822771240234375,7.014360427856445,-7.4311113357543945,-3.7267699241638184
1701097305551758000,2.839758056640625,7.117865562438965,-7.659999847412109,-3.3652586936950684
1701097305568739600,2.856739501953125,6.855582237243652,-7.956621170043945,-2.0455703735351562
1701097305585741300,2.8737412109375,6.166733741760254,-8.353818893432617,-0.22662734985351562
1701097305602728200,2.890728271484375,5.246527671813965,-8.059700012207031,0.7959566116333008
1701097305619715600,2.907715576171875,3.6378793716430664,-8.239051818847656,1.0156259536743164
1701097305636712400,2.92471240234375,1.809960126876831,-8.481444358825684,0.7712783813476562
1701097305653692700,2.941692626953125,0.518458366394043,-8.597135543823242,0.4033365249633789
1701097305670696400,2.958696533203125,0.558323860168457,-8.01192569732666,0.219390869140625
1701097305687682600,2.9756826171875,1.4825572967529297,-7.221843242645264,1.1952171325683594
1701097305704675000,2.992675048828125,2.422184705734253,-6.744765758514404,3.444546699523926
1701097305721660700,3.00966064453125,2.9120774269104004,-6.186005592346191,4.883136749267578
1701097305738654000,3.026654052734375,2.4868674278259277,-5.730024337768555,5.087347030639648
1701097305755642600,3.043642578125,1.8787741661071777,-5.008134841918945,4.29205322265625
1701097305772638000,3.060637939453125,1.5653743743896484,-3.842714786529541,3.1671934127807617
1701097305789625300,3.077625244140625,1.5221385955810547,-2.4093945026397705,2.6694021224975586
1701097305806616300,3.0946162109375,1.3614863157272339,-0.8187739849090576,2.8875303268432617
1701097305823595300,3.11159521484375,0.8497889041900635,0.7266640663146973,3.103414535522461
1701097305840598000,3.128597900390625,0.04207932949066162,1.8455486297607422,3.1540679931640625
1701097305857584400,3.14558447265625,-0.9809454679489136,2.734987735748291,3.020059585571289
1701097305874571300,3.1625712890625,-1.946366548538208,3.1950888633728027,3.0629711151123047
1701097305891567900,3.17956787109375,-2.5655198097229004,3.4242961406707764,3.089646339416504
1701097305908558300,3.196558349609375,-2.5891294479370117,3.6370184421539307,3.1811280250549316
1701097305925548500,3.213548583984375,-2.2172963619232178,3.8356704711914062,3.8154001235961914
1701097305942539500,3.23053955078125,-1.9802881479263306,4.340527534484863,4.2813720703125
1701097305959529500,3.247529541015625,-2.339590311050415,4.886305332183838,4.688292026519775
1701097305976507400,3.26450732421875,-2.835594892501831,5.394496917724609,5.105524063110352
1701097305993503700,3.281503662109375,-2.6724348068237305,5.949863433837891,5.5520806312561035
1701097306010502100,3.298502197265625,-1.9882491827011108,6.080832004547119,6.707572937011719
1701097306027490800,3.31549072265625,-1.3040107488632202,6.009984016418457,7.97748327255249
1701097306044481500,3.3324814453125,-1.0066401958465576,6.120111465454102,8.894123077392578
1701097306061465000,3.349465087890625,-1.195331335067749,6.422140121459961,9.122798919677734
1701097306078457600,3.36645751953125,-2.0014898777008057,6.351126194000244,9.286630630493164
1701097306095457000,3.38345703125,-2.4865610599517822,5.82016658782959,9.567110061645508
1701097306112443100,3.400443115234375,-2.3023927211761475,5.106769561767578,9.658134460449219
1701097306129433000,3.41743310546875,-1.8337442874908447,4.282878398895264,9.823873519897461
1701097306146424000,3.434424072265625,-1.3763047456741333,3.2581019401550293,9.722679138183594
1701097306163414000,3.4514140625,-0.6394219994544983,2.275722026824951,9.676815032958984
1701097306180404700,3.46840478515625,0.29974669218063354,1.6450438499450684,9.525840759277344
1701097306197394400,3.48539453125,0.8203226327896118,1.5334186553955078,9.108513832092285
1701097306214385400,3.502385498046875,0.9583443999290466,1.4493985176086426,8.394926071166992
1701097306231375400,3.519375244140625,1.1339253187179565,0.7065553665161133,8.043631553649902
1701097306248361000,3.53636083984375,1.3384509086608887,-0.659754753112793,7.819753170013428
1701097306265355500,3.55335546875,1.7707226276397705,-2.09810209274292,7.309869766235352
1701097306282334200,3.570334228515625,2.284341335296631,-3.2400755882263184,6.179400444030762
1701097306299329300,3.587329345703125,3.0176949501037598,-3.8918213844299316,4.592837333679199
1701097306316325000,3.6043251953125,3.673898696899414,-4.185856819152832,2.99685001373291
1701097306333308400,3.621308349609375,3.9773874282836914,-4.097599029541016,1.5677108764648438
1701097306350299600,3.638299560546875,3.8875532150268555,-3.9792370796203613,0.3478059768676758
1701097306367295700,3.655295654296875,3.539942979812622,-3.806368112564087,-0.6381320953369141
1701097306384285200,3.67228515625,3.401679515838623,-3.632798910140991,-1.55863618850708
1701097306401268000,3.68926806640625,3.2911667823791504,-3.5778536796569824,-2.2247085571289062
1701097306418268000,3.706267822265625,3.250758171081543,-3.60992693901062,-2.6627869606018066
1701097306435256800,3.7232568359375,3.4809982776641846,-3.6885175704956055,-2.899200916290283
1701097306452247800,3.740247802734375,3.778168201446533,-3.825345754623413,-2.9956207275390625
1701097306469230600,3.757230712890625,4.28083610534668,-3.958282947540283,-3.122039794921875
1701097306486228000,3.77422802734375,5.476229190826416,-4.322457790374756,-3.3631720542907715
1701097306503213800,3.7912138671875,6.441013336181641,-4.313844680786133,-3.631918430328369
1701097306520203800,3.808203857421875,5.981549263000488,-4.465165615081787,-3.456667423248291
1701097306537195800,3.82519580078125,5.311633110046387,-4.318318843841553,-3.087343692779541
1701097306554195200,3.8421953125,4.9271440505981445,-4.2851033210754395,-2.5760889053344727
1701097306571181600,3.859181640625,5.282346725463867,-4.555937767028809,-2.1698198318481445
1701097306588169700,3.876169677734375,6.214442729949951,-5.121809959411621,-2.230579376220703
1701097306605154300,3.893154296875,7.122371673583984,-5.940216064453125,-2.434614658355713
1701097306622145300,3.910145263671875,7.726432800292969,-6.741559028625488,-2.4623212814331055
1701097306639134500,3.927134521484375,7.905200481414795,-7.0642852783203125,-2.444070339202881
1701097306656136000,3.944135986328125,7.33270788192749,-7.162721157073975,-1.8242521286010742
1701097306673123000,3.961123046875,6.04430627822876,-7.627291202545166,-0.7844243049621582
1701097306690119200,3.978119140625,4.870082855224609,-7.682226657867432,-0.1074981689453125
1701097306707102000,3.99510205078125,3.5362167358398438,-7.892141819000244,-0.054587364196777344
1701097306724101600,4.0121015625,2.5441346168518066,-8.063742637634277,-0.5527477264404297
1701097306741073200,4.0290732421875,2.405163526535034,-7.6431708335876465,-0.9445943832397461
1701097306758079000,4.046078857421875,2.646639823913574,-7.099204063415527,-0.39633846282958984
1701097306775064300,4.063064208984375,2.9276015758514404,-6.729548931121826,1.2097759246826172
1701097306792061700,4.080061767578125,2.6645591259002686,-6.132688045501709,2.839590072631836
1701097306809049000,4.097049072265625,1.7999281883239746,-5.664127349853516,3.0372438430786133
1701097306826039800,4.114039794921875,1.0318301916122437,-5.227223873138428,2.1940183639526367
1701097306843029500,4.131029541015625,0.8029195666313171,-4.354795455932617,1.0160255432128906
1701097306860020500,4.1480205078125,1.009236216545105,-3.2050445079803467,0.5411262512207031
1701097306877010400,4.165010498046875,1.2700552940368652,-1.9746975898742676,0.9648504257202148
1701097306894001200,4.182001220703125,1.1065729856491089,-0.7582883834838867,1.9653596878051758
1701097306910991000,4.1989912109375,0.6233569979667664,0.5251150131225586,2.405515670776367
1701097306927982000,4.215982177734375,-0.2067127823829651,1.2736399173736572,2.458064079284668
1701097306944972000,4.232971923828125,-0.7818493247032166,1.7151310443878174,2.433086395263672
1701097306961962800,4.249962646484375,-0.6975510120391846,1.9773328304290771,2.9452080726623535
1701097306978962700,4.266962646484375,-0.325077086687088,2.4359540939331055,4.057293891906738
1701097306995943700,4.283943603515625,-0.10854414105415344,3.0319223403930664,5.556610107421875
1701097307012933600,4.30093359375,-0.44164684414863586,3.9340178966522217,7.290919303894043
1701097307029924600,4.317924560546875,-1.5155487060546875,5.032814979553223,8.92203140258789
1701097307046914300,4.334914306640625,-3.00968337059021,6.119274616241455,10.340668678283691
1701097307063905300,4.3519052734375,-4.539034843444824,7.10056734085083,11.483558654785156
1701097307080895200,4.368895263671875,-5.438365459442139,7.770968437194824,11.92190170288086
1701097307097886000,4.385885986328125,-5.47764253616333,7.510321617126465,11.867715835571289
1701097307114873300,4.402873291015625,-4.008272647857666,7.056123733520508,11.364422798156738
1701097307131858200,4.419858154296875,-1.8340927362442017,6.581202983856201,11.365581512451172
1701097307148857600,4.436857666015625,-0.7269399166107178,5.888053894042969,10.612226486206055
1701097307165847800,4.453847900390625,-0.4230993986129761,4.79168701171875,9.694610595703125
1701097307182837500,4.47083740234375,-0.37062740325927734,3.9216299057006836,8.656933784484863
1701097307199828500,4.487828369140625,0.05802975594997406,2.984428882598877,8.382143020629883
1701097307216807700,4.5048076171875,1.0052425861358643,1.8479785919189453,8.804466247558594
1701097307233809400,4.521809326171875,1.9117565155029297,0.8110918998718262,9.676767349243164
1701097307250799000,4.538799072265625,2.4278903007507324,0.17284011840820312,9.92778205871582
1701097307267790300,4.555790283203125,2.2649176120758057,0.14760875701904297,9.335872650146484
1701097307284780000,4.572780029296875,1.8607947826385498,-0.010424137115478516,8.598254203796387
1701097307301771000,4.58977099609375,1.6329799890518188,-0.6623482704162598,8.036569595336914
1701097307318767600,4.606767578125,1.8214528560638428,-1.8334484100341797,7.658474445343018
1701097307335751700,4.623751708984375,2.11832332611084,-3.1454577445983887,7.117401123046875
1701097307352741400,4.640741455078125,2.704664707183838,-4.083538055419922,6.235342025756836
1701097307369732400,4.657732421875,3.1350913047790527,-4.468565940856934,4.825004577636719
1701097307386722600,4.67472265625,3.132646083831787,-4.450127124786377,3.1715993881225586
1701097307403713300,4.69171337890625,3.1614880561828613,-4.254911422729492,1.6224184036254883
1701097307420703200,4.708703125,3.1322197914123535,-3.9270942211151123,0.43735694885253906
1701097307437694200,4.725694091796875,3.0301451683044434,-3.646157741546631,-0.3693580627441406
1701097307454680600,4.7426806640625,3.035024404525757,-3.4480948448181152,-0.611903190612793
1701097307471678000,4.759677978515625,3.0839576721191406,-3.424916982650757,-0.6961669921875
1701097307488664800,4.776664794921875,3.292095899581909,-3.6929612159729004,-1.0273761749267578
1701097307505655800,4.79365576171875,3.669041633605957,-4.086374759674072,-1.5093226432800293
1701097307522645800,4.810645751953125,4.168484210968018,-4.608200550079346,-2.0391650199890137
1701097307539636500,4.827636474609375,4.627400875091553,-5.286479949951172,-2.449984073638916
1701097307556626200,4.844626220703125,5.201519012451172,-5.922228813171387,-2.824497699737549
1701097307573617700,4.86161767578125,5.767215728759766,-6.428597927093506,-3.147982120513916
1701097307590607000,4.878607177734375,6.129538536071777,-6.941809177398682,-3.345210075378418
1701097307607597800,4.895597900390625,6.400189399719238,-7.342809677124023,-3.836514472961426
1701097307624588000,4.912588134765625,6.690691947937012,-7.630406379699707,-4.323698997497559
1701097307641568300,4.929568359375,6.955456733703613,-7.790319919586182,-4.99708890914917
1701097307658558200,4.94655810546875,7.065120697021484,-8.171466827392578,-5.202003479003906
1701097307675559700,4.9635595703125,7.2301836013793945,-8.7429780960083,-4.348498821258545
1701097307692549600,4.980549560546875,7.144515037536621,-8.977156639099121,-3.513347625732422
1701097307709537800,4.997537841796875,6.640446186065674,-9.079671859741211,-3.334197998046875
1701097307726533000,5.014533203125,5.93294620513916,-9.066415786743164,-2.6442313194274902
1701097307743521300,5.031521240234375,4.848472595214844,-8.979747772216797,-2.08748197555542
1701097307760511000,5.048510986328125,3.317495822906494,-9.114253044128418,-1.4378347396850586
1701097307777502000,5.065501953125,2.0507707595825195,-9.142623901367188,-1.013458251953125
1701097307794490400,5.082490478515625,1.218941569328308,-8.747570037841797,-1.2436027526855469
1701097307811484400,5.099484375,1.412527084350586,-7.972618103027344,-0.9864425659179688
1701097307828472800,5.116472900390625,1.9556881189346313,-7.3287835121154785,0.6899089813232422
1701097307845453000,5.133453125,2.2455928325653076,-6.918678283691406,2.863091468811035
1701097307862453500,5.15045361328125,2.0071163177490234,-6.743119716644287,5.109173774719238
1701097307879442000,5.16744189453125,1.6865620613098145,-6.211695671081543,6.664074897766113
1701097307896434200,5.18443408203125,1.0739953517913818,-5.167266368865967,6.748106002807617
1701097307913425400,5.20142529296875,0.31422847509384155,-3.6488680839538574,5.741394996643066
1701097307930415000,5.2184150390625,-0.17403453588485718,-2.063580274581909,4.879910469055176
1701097307947406300,5.23540625,-0.4096020460128784,-0.6292376518249512,4.787448883056641
1701097307964396300,5.252396240234375,-0.5301944017410278,0.7383570671081543,5.336536407470703
1701097307981390300,5.269390380859375,-1.0458687543869019,1.9587836265563965,5.571047782897949
1701097307998379500,5.286379638671875,-1.846741795539856,3.2041215896606445,5.102452754974365
1701097308015370200,5.303370361328125,-2.5543322563171387,3.6559255123138428,4.850095748901367
1701097308032358000,5.32035791015625,-2.453382968902588,3.8628504276275635,5.174090385437012
1701097308049348600,5.3373486328125,-1.5821155309677124,4.321255207061768,5.5091023445129395
1701097308066326000,5.354325927734375,-0.8194582462310791,5.052371025085449,5.574081897735596
1701097308083326700,5.37132666015625,-0.4882183074951172,5.7399821281433105,5.551274299621582
1701097308100319200,5.3883193359375,-0.7199457287788391,6.13543176651001,5.746123313903809
1701097308117307400,5.405307373046875,-0.8959197402000427,6.502292633056641,6.222388744354248
1701097308134302700,5.422302734375,-0.8242790102958679,6.7532854080200195,6.936121940612793
1701097308151291100,5.439291015625,-0.33517077565193176,6.909339904785156,7.699817657470703
1701097308168270000,5.45627001953125,-0.020381662994623184,6.938694477081299,8.531131744384766
1701097308185262300,5.473262451171875,0.17447665333747864,7.00811243057251,8.996404647827148
1701097308202261800,5.49026171875,0.03759152069687843,6.951297760009766,9.46358871459961
1701097308219252700,5.507252685546875,-0.09522637724876404,6.639354228973389,9.862953186035156
1701097308236242700,5.52424267578125,-0.41194379329681396,6.002442359924316,10.00436019897461
1701097308253231400,5.5412314453125,-0.5392330288887024,5.198676109313965,9.554702758789062
1701097308270225400,5.558225341796875,-0.13503113389015198,4.292349815368652,9.242776870727539
1701097308287214000,5.575214111328125,0.43004968762397766,3.1289682388305664,9.297943115234375
1701097308304204300,5.592204345703125,0.8467139005661011,2.1063365936279297,9.511302947998047
1701097308321194800,5.60919482421875,1.1730371713638306,1.4861993789672852,9.51131820678711
1701097308338185200,5.626185302734375,1.1495214700698853,1.3452248573303223,9.040985107421875
1701097308355173400,5.64317333984375,1.036852478981018,0.9547529220581055,8.652718544006348
1701097308372168200,5.660168212890625,0.9934013485908508,0.051633358001708984,8.410117149353027
1701097308389156900,5.677156982421875,1.193869709968567,-1.423363208770752,8.052206993103027
1701097308406146600,5.694146484375,1.7430710792541504,-2.79866886138916,7.285120964050293
1701097308423137800,5.7111376953125,2.351154327392578,-4.175815582275391,6.512001991271973
1701097308440127000,5.728126953125,3.2978081703186035,-4.586366653442383,4.990880012512207
1701097308457126700,5.745126708984375,3.692688465118408,-4.45578145980835,3.419729232788086
1701097308474108400,5.7621083984375,3.6775927543640137,-4.000237941741943,1.8995380401611328
1701097308491099400,5.779099365234375,3.1464180946350098,-3.588783025741577,0.6042299270629883
1701097308508091400,5.79609130859375,2.5144808292388916,-3.235532522201538,-0.4062185287475586
1701097308525080000,5.813080078125,2.210562229156494,-2.9648311138153076,-1.2219762802124023
1701097308542070000,5.830070068359375,2.2183854579925537,-2.8813536167144775,-1.8763236999511719
1701097308559050200,5.84705029296875,2.526028633117676,-2.9981164932250977,-2.238722801208496
1701097308576039400,5.864039306640625,2.9725077152252197,-3.264866352081299,-2.5678234100341797
1701097308593042000,5.8810419921875,3.4947824478149414,-3.5329718589782715,-2.931577682495117
1701097308610031600,5.898031494140625,3.788149833679199,-3.9568045139312744,-3.228489875793457
1701097308627021300,5.915021240234375,4.165637969970703,-4.338459014892578,-3.557281970977783
1701097308644003000,5.932003173828125,4.543066024780273,-4.790670394897461,-3.6816558837890625
1701097308661003300,5.949003173828125,4.869702339172363,-5.105700969696045,-3.7785868644714355
1701097308677994800,5.965994873046875,5.188790798187256,-5.318169593811035,-3.8905391693115234
1701097308694982100,5.982982177734375,5.351245880126953,-5.84174108505249,-3.618251323699951
1701097308711974000,5.999973876953125,5.606738090515137,-6.601370811462402,-3.266106605529785
1701097308728964900,6.01696484375,5.9952239990234375,-7.240485191345215,-3.277106285095215
1701097308745954600,6.03395458984375,6.275002479553223,-7.751765727996826,-3.680314540863037
1701097308762945800,6.05094580078125,6.571585655212402,-8.101597785949707,-3.7526559829711914
1701097308779935500,6.067935546875,6.716721534729004,-8.180712699890137,-3.5858240127563477
1701097308796926500,6.084926513671875,6.255245208740234,-8.326603889465332,-2.958704948425293
1701097308813916200,6.101916259765625,5.2245564460754395,-8.374053001403809,-2.0577869415283203
1701097308830905000,6.118905029296875,3.8808083534240723,-8.694808959960938,-0.9815092086791992
1701097308847899400,6.1358994140625,2.694472551345825,-8.86365032196045,-0.6907520294189453
1701097308864888000,6.15288818359375,1.7611814737319946,-8.734868049621582,-1.0547304153442383
1701097308881878000,6.1698779296875,1.9775978326797485,-7.848740577697754,-0.9365596771240234
1701097308898867200,6.1868671875,2.320342779159546,-6.884320259094238,0.27437782287597656
1701097308915860700,6.20386083984375,2.38385272026062,-6.1155195236206055,2.178529739379883
1701097308932850000,6.220849853515625,1.8066613674163818,-5.800968647003174,3.6364240646362305
1701097308949835800,6.237835693359375,1.2295445203781128,-5.383101463317871,3.8843679428100586
1701097308966825000,6.254824951171875,0.5764020681381226,-4.880901336669922,3.502653121948242
1701097308983820500,6.271820556640625,0.32178276777267456,-3.8454043865203857,2.9216232299804688
1701097309000811500,6.2888115234375,0.20782870054244995,-2.4221153259277344,2.8655223846435547
1701097309017801500,6.305801513671875,0.06218618154525757,-0.8886268138885498,3.315608024597168
1701097309034789600,6.32278955078125,-0.5182044506072998,0.4983556270599365,4.125107765197754
1701097309051784700,6.33978466796875,-1.1624200344085693,1.8978617191314697,4.285515785217285
1701097309068776700,6.356776611328125,-1.9597667455673218,3.0857887268066406,4.191734313964844
1701097309085760500,6.373760498046875,-2.6489288806915283,3.584319829940796,4.4563751220703125
1701097309102756600,6.390756591796875,-2.286154270172119,3.590207815170288,4.9331865310668945
1701097309119744000,6.407743896484375,-1.278689980506897,3.905748128890991,5.368046283721924
1701097309136734700,6.424734619140625,-0.12824121117591858,4.394664764404297,5.778477191925049
1701097309153724700,6.441724609375,0.25869208574295044,5.2169904708862305,6.26530122756958
1701097309170728400,6.458728515625,-0.5924652814865112,6.115312576293945,6.681124687194824
1701097309187702800,6.475702880859375,-1.949751615524292,6.726132869720459,7.474771499633789
1701097309204696600,6.492696533203125,-3.2391998767852783,7.1980509757995605,8.229658126831055
1701097309221686300,6.509686279296875,-3.6830029487609863,7.3864288330078125,8.92306137084961
1701097309238677500,6.526677490234375,-3.4367032051086426,7.343603610992432,9.56352424621582
1701097309255667500,6.54366748046875,-2.826627492904663,7.215775489807129,9.922687530517578
1701097309272655600,6.560655517578125,-2.319664716720581,6.821669578552246,10.513564109802246
1701097309289650400,6.577650390625,-2.0667686462402344,6.263517379760742,11.155158996582031
1701097309306638800,6.594638916015625,-2.190504312515259,5.48401403427124,11.12319564819336
1701097309323616000,6.611615966796875,-1.888505220413208,4.43480110168457,10.546642303466797
1701097309340615200,6.628615234375,-0.5542526245117188,3.291536808013916,10.10531234741211
1701097309357599200,6.64559912109375,0.8827693462371826,2.1734585762023926,9.853429794311523
1701097309374590700,6.6625908203125,2.0805139541625977,1.2428770065307617,9.848869323730469
1701097309391585800,6.679585693359375,2.974076747894287,0.8646941184997559,9.669736862182617
1701097309408574700,6.69657470703125,2.882674217224121,0.8502564430236816,9.165863037109375
1701097309425571300,6.7135712890625,2.1869916915893555,0.40424442291259766,8.444914817810059
1701097309442563300,6.730563232421875,1.6460922956466675,-0.7840776443481445,7.823755264282227
1701097309459552000,6.747552001953125,1.724381685256958,-2.245102882385254,7.030119895935059
1701097309476543200,6.764543212890625,2.1691699028015137,-3.4599432945251465,5.985612869262695
1701097309493525200,6.781525146484375,2.525190830230713,-4.0974626541137695,4.363234519958496
1701097309510524000,6.79852392578125,2.8720626831054688,-4.0100016593933105,2.427318572998047
1701097309527515100,6.81551513671875,2.950284004211426,-3.642251491546631,0.8450736999511719
1701097309544503300,6.83250341796875,2.673964023590088,-3.309973955154419,-0.2303028106689453
1701097309561484300,6.849484375,2.417436122894287,-2.977616310119629,-1.1721086502075195
1701097309578485200,6.8664853515625,2.1367294788360596,-2.8094403743743896,-2.0221047401428223
1701097309595475500,6.883475341796875,2.123401403427124,-2.711970090866089,-2.7953343391418457
1701097309612466400,6.900466552734375,2.2863857746124268,-2.7859907150268555,-3.3131661415100098
1701097309629456400,6.917456298828125,2.591870069503784,-3.0466766357421875,-3.5413665771484375
1701097309646447400,6.934447265625,3.0261173248291016,-3.2913055419921875,-3.5816078186035156
1701097309663437000,6.95143701171875,3.5115861892700195,-3.48361873626709,-3.6680188179016113
1701097309680428000,6.968427978515625,3.802639961242676,-3.7359766960144043,-3.7196998596191406
1701097309697418200,6.985418212890625,3.7613155841827393,-3.8600125312805176,-3.786648750305176
1701097309714409000,7.002408935546875,3.6340246200561523,-4.328024387359619,-3.253922939300537
1701097309731398700,7.019398681640625,3.98887300491333,-4.864441871643066,-3.0556230545043945
1701097309748390000,7.036389892578125,4.550271034240723,-5.530158996582031,-3.106914520263672
1701097309765368800,7.053368896484375,5.043680667877197,-6.329322338104248,-3.258542060852051
1701097309782362000,7.070362060546875,5.512759685516357,-7.048746109008789,-3.593465805053711
1701097309799351800,7.087351806640625,5.953649520874023,-7.520071506500244,-3.8958802223205566
1701097309816343800,7.10434375,6.241046905517578,-7.911208629608154,-3.733640670776367
1701097309833331500,7.12133154296875,6.363853454589844,-8.354236602783203,-2.8330740928649902
1701097309850321400,7.1383212890625,5.751252174377441,-8.330827713012695,-1.9086766242980957
1701097309867319600,7.155319580078125,4.357692718505859,-8.164593696594238,-1.3264169692993164
1701097309884309200,7.172309326171875,2.602609872817993,-8.225430488586426,-0.8761520385742188
1701097309901292800,7.189292724609375,1.390684723854065,-8.278327941894531,-1.1133089065551758
1701097309918290400,7.20629052734375,0.9843014478683472,-7.856714725494385,-1.5399055480957031
1701097309935273000,7.22327294921875,1.4196256399154663,-6.991372585296631,-1.442215919494629
1701097309952265200,7.24026513671875,1.516363501548767,-6.335680961608887,-0.26683616638183594
1701097309969258200,7.25725830078125,1.3194835186004639,-5.899825096130371,1.459275245666504
1701097309986247700,7.27424755859375,0.9614831209182739,-5.490293025970459,2.87252140045166
1701097310003245300,7.291245361328125,0.494644433259964,-5.054147720336914,3.4711456298828125
1701097310020226800,7.308226806640625,0.04508081078529358,-4.271045684814453,3.0818004608154297
1701097310037218300,7.32521826171875,-0.07905444502830505,-3.1920008659362793,2.357386589050293
1701097310054212900,7.342212890625,0.017927080392837524,-1.9710171222686768,2.0989179611206055
1701097310071201000,7.359200927734375,0.21357721090316772,-0.6860785484313965,2.4456214904785156
1701097310088193800,7.37619384765625,0.1497241109609604,0.5699443817138672,2.997814178466797
1701097310105180400,7.393180419921875,-0.15288880467414856,1.691636085510254,3.416323661804199
1701097310122173700,7.410173583984375,-0.8001389503479004,2.473266839981079,3.437163829803467
1701097310139157200,7.4271572265625,-1.5744065046310425,2.8374123573303223,3.571155548095703
1701097310156159700,7.44415966796875,-1.781716227531433,3.1675634384155273,3.9407429695129395
1701097310173147400,7.4611474609375,-1.7044882774353027,3.65057373046875,4.535186767578125
1701097310190143500,7.4781435546875,-1.696266770362854,4.217702865600586,5.3867573738098145
1701097310207130400,7.49513037109375,-1.4802241325378418,4.733366012573242,6.307716369628906
1701097310224115200,7.512115234375,-1.1569081544876099,5.398550033569336,6.874017238616943
1701097310241111600,7.529111572265625,-1.0783413648605347,6.075540542602539,7.521465301513672
1701097310258102300,7.546102294921875,-1.2155122756958008,6.851337432861328,8.156669616699219
1701097310275091700,7.563091796875,-1.4377118349075317,7.407711029052734,8.874561309814453
1701097310292083200,7.580083251953125,-1.433316707611084,7.533511161804199,10.30000114440918
1701097310309069600,7.597069580078125,-1.3346678018569946,7.75331449508667,10.987520217895508
1701097310326067700,7.614067626953125,-1.4019769430160522,7.563908576965332,10.98753547668457
1701097310343053800,7.6310537109375,-1.8736677169799805,6.639039039611816,11.070070266723633
1701097310360044800,7.648044921875,-2.166706085205078,5.328432083129883,11.336133003234863
1701097310377033200,7.665033203125,-1.9787770509719849,4.272251129150391,11.513696670532227
1701097310394025700,7.682025634765625,-1.0922532081604004,3.119141101837158,11.608110427856445
1701097310411012400,7.699012451171875,0.07694175839424133,2.06357479095459,11.742816925048828
1701097310428009700,7.716009765625,1.269291639328003,1.4263267517089844,11.656494140625
1701097310444986000,7.732986083984375,1.9656665325164795,1.410738468170166,10.77074146270752
1701097310461987300,7.7499873046875,2.1680490970611572,1.035534381866455,9.956070899963379
1701097310478962400,7.76696240234375,2.1303675174713135,0.03664731979370117,9.411859512329102
1701097310495968000,7.783968017578125,2.3119699954986572,-1.4858269691467285,9.003254890441895
1701097310512958200,7.800958251953125,2.720810651779175,-2.8636317253112793,8.168371200561523
1701097310529949200,7.81794921875,3.372711420059204,-4.049092769622803,6.906017780303955
1701097310546939000,7.83493896484375,4.074105262756348,-4.448998928070068,5.307312965393066
1701097310563929900,7.851929931640625,4.242621421813965,-4.47762393951416,3.6529178619384766
1701097310580919800,7.868919921875,3.7904117107391357,-4.094335079193115,1.9571666717529297
1701097310597910800,7.885910888671875,2.9890952110290527,-3.797427177429199,0.714259147644043
1701097310614898000,7.90289794921875,2.3050525188446045,-3.580320119857788,-0.2414417266845703
1701097310631894000,7.91989404296875,2.18790602684021,-3.502506732940674,-0.9109840393066406
1701097310648881700,7.936881591796875,2.3592240810394287,-3.586521863937378,-1.440481185913086
1701097310665872100,7.9538720703125,2.7963461875915527,-3.756147861480713,-1.8481111526489258
1701097310682862300,7.9708623046875,3.3264353275299072,-3.9967126846313477,-2.3135814666748047
1701097310699853300,7.987853271484375,3.825057029724121,-4.293565273284912,-2.808739185333252
1701097310716843300,8.00484326171875,4.269652366638184,-4.628486633300781,-3.2151522636413574
1701097310733824300,8.02182421875,4.689589500427246,-5.035824298858643,-3.534106731414795
1701097310750823700,8.03882373046875,5.023665428161621,-5.477695941925049,-3.7224273681640625
1701097310767808000,8.05580810546875,5.300282001495361,-5.7548508644104,-3.974330425262451
1701097310784804900,8.072804931640626,5.511753082275391,-5.967456340789795,-4.313880920410156
1701097310801795800,8.0897958984375,5.595855712890625,-6.266872406005859,-4.668556213378906
1701097310818775000,8.106775146484376,5.72401237487793,-6.698711395263672,-4.857614517211914
1701097310835776500,8.123776611328125,5.862055778503418,-7.172601699829102,-5.069899559020996
1701097310852769800,8.140769775390625,6.0526323318481445,-7.785696983337402,-5.141324996948242
1701097310869754000,8.157754150390625,6.392404556274414,-7.991018295288086,-5.2591376304626465
1701097310886746000,8.17474609375,6.361860275268555,-7.933070182800293,-4.829568386077881
1701097310903738400,8.19173828125,5.393940448760986,-7.8400115966796875,-4.0795722007751465
1701097310920728000,8.20872802734375,4.121058464050293,-7.842382907867432,-3.1698079109191895
1701097310937719300,8.22571923828125,2.8317041397094727,-7.989838600158691,-2.3958444595336914
1701097310954709200,8.242709228515626,1.6766009330749512,-8.196813583374023,-2.075904369354248
1701097310971700000,8.259699951171875,1.089155912399292,-8.065556526184082,-2.3207178115844727
1701097310988690000,8.27668994140625,1.4034045934677124,-7.528748035430908,-2.041987895965576
1701097311005681200,8.29368115234375,2.1893961429595947,-7.053446292877197,-0.5169010162353516
1701097311022670800,8.3106708984375,2.754193067550659,-6.7206830978393555,1.888718605041504
1701097311039658500,8.327658447265625,2.9908251762390137,-6.442599296569824,3.9778213500976562
1701097311056651500,8.344651611328125,2.9597153663635254,-5.825584411621094,4.779431343078613
1701097311073631500,8.361631591796876,2.5072224140167236,-5.021902561187744,4.683423042297363
1701097311090632700,8.3786328125,1.9748437404632568,-3.7915568351745605,4.401043891906738
1701097311107624400,8.39562451171875,1.3400402069091797,-2.3593575954437256,4.526983261108398
1701097311124612600,8.412612548828125,0.6941283941268921,-0.8676977157592773,5.377147674560547
1701097311141593600,8.429593505859375,-0.26679328083992004,0.614861011505127,6.350507736206055
1701097311158595000,8.446594970703124,-1.3734053373336792,1.9055626392364502,6.837953090667725
1701097311175584300,8.463584228515625,-2.5467135906219482,2.9425861835479736,6.695217609405518
1701097311192575000,8.480574951171874,-3.763669967651367,3.748263359069824,6.066534519195557
1701097311209566000,8.49756591796875,-4.505495071411133,4.222458839416504,5.311491966247559
1701097311226556000,8.514555908203125,-4.444310665130615,4.188110828399658,5.411506175994873
1701097311243544300,8.53154443359375,-3.8078413009643555,4.260690689086914,6.772942066192627
1701097311260539400,8.548539306640626,-2.703969955444336,4.678585052490234,7.889201641082764
1701097311277527600,8.565527587890625,-2.1825761795043945,5.5953369140625,7.742542266845703
1701097311294518000,8.58251806640625,-2.450528621673584,6.173210620880127,6.741970062255859
1701097311311508200,8.59950830078125,-2.5145344734191895,6.374530792236328,6.039080619812012
1701097311328498400,8.61649853515625,-1.6674875020980835,6.132775783538818,6.438974380493164
1701097311345489200,8.6334892578125,-0.40555617213249207,5.809481620788574,7.791348934173584
1701097311362479400,8.650479248046874,0.38043102622032166,5.8680620193481445,8.991504669189453
1701097311379470300,8.66747021484375,0.506746768951416,5.828065872192383,9.917581558227539
1701097311396457500,8.68445751953125,-0.1540653109550476,5.477822780609131,10.786750793457031
1701097311413455600,8.70145556640625,-1.00834059715271,5.020200729370117,11.042362213134766
1701097311430441200,8.718441162109375,-1.20552659034729,4.124505996704102,11.48965072631836
1701097311447432000,8.735431884765624,-0.6013016700744629,2.992969512939453,11.851140022277832
1701097311464422000,8.752421875,0.7881817817687988,2.3025922775268555,11.628826141357422
1701097311481401000,8.769401123046874,1.792503833770752,2.0280284881591797,10.916515350341797
1701097311498402600,8.786402587890626,2.249521017074585,2.131540298461914,9.72785758972168
1701097311515393800,8.803393798828125,2.2236814498901367,1.8579745292663574,8.588016510009766
1701097311532383700,8.8203837890625,2.125068426132202,0.8118410110473633,8.017364501953125
1701097311549374700,8.837374755859376,2.1431009769439697,-0.6453738212585449,7.661405086517334
1701097311566364200,8.8543642578125,2.4265029430389404,-2.023132801055908,7.101295471191406
1701097311583354400,8.871354248046876,2.779912233352661,-2.9417948722839355,6.037795066833496
1701097311600345300,8.888345458984375,3.1028618812561035,-3.2706966400146484,4.5090460777282715
1701097311617333800,8.905333740234376,3.2091031074523926,-2.997647285461426,2.7474536895751953
1701097311634328800,8.922328857421874,2.7766001224517822,-2.5837411880493164,1.0710163116455078
1701097311651315000,8.93931494140625,2.20633864402771,-2.2269577980041504,-0.33121585845947266
1701097311668309000,8.95630908203125,1.7387847900390625,-1.9703116416931152,-1.473562240600586
1701097311685295600,8.973295654296875,1.5878101587295532,-1.906099557876587,-2.2646102905273438
1701097311702290400,8.99029052734375,1.5913636684417725,-2.0048978328704834,-2.907378673553467
1701097311719278800,9.00727880859375,1.8577184677124023,-2.1359338760375977,-3.5185904502868652
1701097311736259800,9.024259765625,2.042482852935791,-2.387526750564575,-4.070622444152832
1701097311753262300,9.041262451171875,2.3680238723754883,-2.6364364624023438,-4.451949119567871
1701097311770249500,9.05824951171875,2.7364377975463867,-2.9434127807617188,-4.565781593322754
1701097311787240700,9.07524072265625,3.0764777660369873,-3.256840705871582,-4.561254501342773
1701097311804230400,9.09223046875,3.3611927032470703,-3.633427143096924,-4.544081211090088
1701097311821221600,9.1092216796875,3.5771212577819824,-3.9263486862182617,-4.556267738342285
1701097311838211000,9.126211181640626,3.865860939025879,-4.275383949279785,-4.425530910491943
1701097311855202300,9.143202392578125,4.307012557983398,-4.841477394104004,-4.006180763244629
1701097311872192000,9.16019189453125,4.948665618896484,-5.358896255493164,-3.6348958015441895
1701097311889183200,9.177183349609376,5.5405426025390625,-6.030448913574219,-2.923605442047119
1701097311906173000,9.1941728515625,5.926643371582031,-6.753955364227295,-2.186455249786377
1701097311923164000,9.211163818359376,6.25263786315918,-7.324871063232422,-1.400937557220459
1701097311940153900,9.22815380859375,6.167514324188232,-7.608123779296875,-0.7550468444824219
1701097311957142300,9.245142333984376,5.341080188751221,-7.836138725280762,-0.5193862915039062
1701097311974137300,9.262137451171874,4.244327068328857,-7.859725475311279,-0.6895904541015625
1701097311991125800,9.279125732421875,3.2333121299743652,-7.64923620223999,-1.1403160095214844
1701097312008115700,9.29611572265625,2.888638973236084,-6.930574417114258,-1.619189739227295
1701097312025106700,9.313106689453125,2.97713565826416,-5.995297431945801,-1.2099781036376953
1701097312042096400,9.330096435546874,3.021519184112549,-5.2261834144592285,0.27997589111328125
1701097312059076900,9.347076904296875,2.5403170585632324,-4.728471279144287,1.7775154113769531
1701097312076077300,9.364077392578125,1.7984979152679443,-4.172205448150635,2.5295886993408203
1701097312093074200,9.38107421875,0.6125480532646179,-3.672830820083618,2.338003158569336
1701097312110058000,9.39805810546875,-0.38822734355926514,-2.8951711654663086,1.401900291442871
1701097312127046700,9.415046630859376,-0.81548011302948,-1.8782024383544922,0.5236663818359375
1701097312144042200,9.432042236328124,-0.7134159207344055,-0.5628061294555664,0.2186870574951172
1701097312161019000,9.449018798828124,-0.5631413459777832,0.7236747741699219,0.4998655319213867
1701097312178019800,9.466019775390626,-0.7779195308685303,1.821556806564331,0.9732198715209961
1701097312195010800,9.4830107421875,-1.2541766166687012,2.4191298484802246,1.395827293395996
1701097312212000800,9.500000732421874,-1.8253443241119385,2.76945424079895,1.7169718742370605
1701097312228992000,9.516991943359375,-2.1360456943511963,2.839520215988159,1.9468464851379395
1701097312245981700,9.533981689453125,-2.266106605529785,3.0238306522369385,2.297973155975342
1701097312262972700,9.55097265625,-2.2556638717651367,3.136410713195801,3.2845301628112793
1701097312279952000,9.567951904296875,-1.9655325412750244,3.562746286392212,4.278014659881592
1701097312296953300,9.584953369140624,-1.8615117073059082,4.035852432250977,4.943541049957275
1701097312313943300,9.601943359375,-1.705847978591919,4.2764787673950195,5.599204063415527
1701097312330931700,9.618931640625,-1.4512782096862793,4.565239906311035,6.345587253570557
1701097312347914800,9.635914794921876,-1.4080145359039307,4.785637378692627,7.312378883361816
1701097312364909000,9.652908935546876,-1.6774835586547852,4.907598972320557,8.217277526855469
1701097312381905000,9.66990478515625,-1.8868186473846436,4.969505310058594,8.994892120361328
1701097312398893300,9.686893310546875,-1.895474910736084,5.253859043121338,9.567574501037598
1701097312415888400,9.703888427734375,-1.9570298194885254,5.329529285430908,10.099905014038086
1701097312432877000,9.720876953125,-2.401411533355713,5.008024215698242,10.551576614379883
1701097312449867000,9.737866943359375,-3.0486204624176025,4.494272708892822,10.438432693481445
1701097312466857700,9.754857666015624,-3.176528215408325,3.7797112464904785,10.439115524291992
1701097312483847700,9.77184765625,-2.5046963691711426,2.9365005493164062,10.478971481323242
1701097312500828000,9.788827880859374,-1.147079586982727,2.3249740600585938,10.585810661315918
1701097312517828600,9.80582861328125,0.018890678882598877,2.0012545585632324,10.706375122070312
1701097312534816800,9.822816650390624,0.6499431729316711,2.181715965270996,10.120931625366211
1701097312551797200,9.83979736328125,0.6251401901245117,2.155327796936035,9.18087387084961
1701097312568804400,9.856804443359374,0.6910160779953003,1.555671215057373,8.387815475463867
1701097312585790200,9.873790283203125,1.075556755065918,0.46286725997924805,7.869080543518066
1701097312602781200,9.89078125,1.6779600381851196,-0.6534829139709473,7.286405086517334
1701097312619767600,9.907767578125,2.2368199825286865,-1.338484287261963,6.388188362121582
1701097312636765700,9.924765625,2.6517293453216553,-1.4376864433288574,5.053151607513428
1701097312653752000,9.941751953125,2.562572479248047,-1.2344918251037598,3.592679023742676
1701097312670743000,9.958742919921875,2.0860939025878906,-0.9471926689147949,2.3027162551879883
1701097312687722200,9.97572216796875,1.6191388368606567,-0.7395362854003906,1.2849750518798828
1701097312704724000,9.992723876953125,1.457230567932129,-0.7269964218139648,0.31195068359375
1701097312721714000,10.0097138671875,1.7209270000457764,-1.049260139465332,-0.47289466857910156
1701097312738705000,10.026704833984375,2.2749645709991455,-1.5263304710388184,-1.2307538986206055
1701097312755694600,10.043694580078125,2.836179256439209,-2.032397747039795,-1.7067375183105469
1701097312772683000,10.06068310546875,3.2344658374786377,-2.5455992221832275,-1.9621472358703613
1701097312789685800,10.077685791015625,3.348984956741333,-3.0493323802948,-2.1416311264038086
1701097312806666500,10.09466650390625,3.452291488647461,-3.7323546409606934,-2.394134521484375
1701097312823652400,10.11165234375,3.9268620014190674,-4.478025436401367,-2.728529453277588
1701097312840638700,10.128638671875,4.597800254821777,-5.013640403747559,-3.206739902496338
1701097312857627000,10.145626953125,5.2378315925598145,-5.400173187255859,-3.6033754348754883
1701097312874620000,10.162619873046875,5.653182506561279,-5.861105442047119,-3.6751279830932617
1701097312891611100,10.179611083984375,6.110932350158691,-6.245668411254883,-3.512920379638672
1701097312908611800,10.19661181640625,6.304754734039307,-6.672802925109863,-3.2879018783569336
1701097312925599200,10.21359912109375,6.220981597900391,-6.949349880218506,-3.4038310050964355
1701097312942589700,10.230589599609376,6.307287693023682,-7.328516006469727,-3.4050660133361816
1701097312959580000,10.247579833984375,6.56252384185791,-7.905516147613525,-3.160496711730957
1701097312976571000,10.26457080078125,7.110006809234619,-7.601534843444824,-3.085115432739258
1701097312993560600,10.281560546875,6.316752910614014,-7.454652309417725,-2.427670955657959
1701097313010549800,10.2985498046875,4.419000148773193,-7.668427467346191,-1.5985851287841797
1701097313027541800,10.315541748046876,2.3337461948394775,-7.717491149902344,-1.2123537063598633
1701097313044530000,10.332530029296874,0.6637290716171265,-7.543616771697998,-1.719712734222412
1701097313061514500,10.349514404296874,-0.30103349685668945,-7.044851303100586,-2.8263115882873535
1701097313078521900,10.36652197265625,0.11329638957977295,-6.270808219909668,-2.827974796295166
1701097313095500800,10.383500732421876,0.7007859945297241,-5.809800148010254,-1.2452659606933594
1701097313112496600,10.40049658203125,1.0039758682250977,-5.5778422355651855,0.5532398223876953
1701097313129484300,10.417484375,0.7532026767730713,-5.540326118469238,1.794896125793457
1701097313146475000,10.43447509765625,0.44142961502075195,-5.293291091918945,1.8423118591308594
1701097313163465200,10.45146533203125,0.5393110513687134,-4.477795600891113,1.4327659606933594
1701097313180456200,10.468456298828125,0.9508712291717529,-3.1817455291748047,1.2238941192626953
1701097313197446000,10.48544580078125,1.2625902891159058,-1.6781554222106934,1.792257308959961
1701097313214433500,10.50243359375,1.1447277069091797,-0.24017095565795898,2.860701560974121
1701097313231420000,10.519419921875,0.5224117040634155,1.048546314239502,3.818722724914551
1701097313248431600,10.536431640625,-0.5711801648139954,1.7819852828979492,4.598653793334961
1701097313265397800,10.553397705078124,-1.742936134338379,2.2717294692993164,5.133632659912109
1701097313282388500,10.570388427734375,-2.6054468154907227,2.6179308891296387,5.834680557250977
1701097313299378200,10.587378173828125,-3.05256724357605,3.0860347747802734,6.520979881286621
1701097313316371500,10.604371337890624,-3.0808942317962646,3.840909957885742,7.444012641906738
1701097313333362200,10.621362060546875,-3.2384448051452637,4.578356742858887,8.711214065551758
1701097313350351400,10.638351318359375,-3.7600879669189453,5.320611476898193,9.563570976257324
1701097313367341800,10.655341796875,-4.539303302764893,5.97769832611084,9.64614486694336
1701097313384335400,10.67233544921875,-4.957948684692383,6.300797462463379,9.657785415649414
1701097313401335300,10.689335205078125,-4.732818126678467,6.497413635253906,9.858306884765625
1701097313418314800,10.706314697265626,-3.8288421630859375,6.486660003662109,9.852226257324219
1701097313435302100,10.72330224609375,-2.455883502960205,6.518084526062012,9.592796325683594
1701097313452296000,10.7402958984375,-1.5067341327667236,6.354701995849609,9.372812271118164
1701097313469283600,10.75728369140625,-1.247099757194519,5.691032409667969,9.518963813781738
1701097313486273300,10.774273193359376,-1.4959831237792969,4.9992780685424805,9.703742980957031
1701097313503268600,10.7912685546875,-1.702352523803711,4.489138126373291,9.78724479675293
1701097313520254000,10.80825390625,-1.5018413066864014,3.942507266998291,10.0015287399292
1701097313537246500,10.82524658203125,-0.9244167804718018,3.1899619102478027,10.431666374206543
1701097313554239000,10.842239013671875,-0.3124677538871765,2.347221851348877,10.96195125579834
1701097313571228200,10.859228271484374,0.18204909563064575,1.879404067993164,10.95344066619873
1701097313588226600,10.8762265625,0.3340243101119995,1.8072595596313477,10.261383056640625
1701097313605216500,10.893216552734375,0.05395650863647461,1.4201412200927734,9.392417907714844
1701097313622207500,10.91020751953125,-0.007578074932098389,0.46164846420288086,8.913442611694336
1701097313639197400,10.927197509765625,0.5024694800376892,-0.9395151138305664,8.609350204467773
1701097313656186400,10.944186279296876,1.0244100093841553,-2.325161933898926,7.984932899475098
1701097313673180200,10.96118017578125,1.5561755895614624,-3.104921340942383,6.6129045486450195
1701097313690169000,10.978169189453125,1.8077750205993652,-3.175107479095459,4.719536781311035
1701097313707159000,10.995158935546876,2.0912935733795166,-2.872246742248535,2.960139274597168
1701097313724147500,11.0121474609375,2.2143242359161377,-2.5356249809265137,1.5399246215820312
1701097313741142500,11.029142578125,2.3438894748687744,-2.380995273590088,0.48711109161376953
1701097313758131000,11.046130859375,2.5330214500427246,-2.3938636779785156,-0.31252098083496094
1701097313775121000,11.063120849609374,2.807607650756836,-2.57926344871521,-0.9362249374389648
1701097313792111600,11.080111572265626,3.219033718109131,-2.9273149967193604,-1.5175819396972656
1701097313809101800,11.097101806640625,3.680917263031006,-3.2997097969055176,-2.094417095184326
1701097313826092800,11.1140927734375,4.142334938049316,-3.4889070987701416,-2.6615095138549805
1701097313843082800,11.131082763671875,4.426663398742676,-3.7143800258636475,-2.9238877296447754
1701097313860073700,11.14807373046875,4.77746057510376,-3.8871989250183105,-3.024167060852051
1701097313877063000,11.16506298828125,5.08769416809082,-4.424586296081543,-2.947373390197754
1701097313894055000,11.182054931640625,5.399751663208008,-4.797966957092285,-3.2779898643493652
1701097313911044600,11.199044677734374,5.723180770874023,-5.231767654418945,-3.7762227058410645
1701097313928038000,11.216037841796876,5.994958877563477,-5.585808753967285,-4.24578332901001
1701097313945023200,11.233023193359376,6.210694313049316,-6.0348052978515625,-4.570104598999023
1701097313962017500,11.250017578125,6.297843933105469,-6.528316497802734,-4.791622161865234
1701097313979003600,11.267003662109374,6.331487655639648,-7.000216960906982,-4.978572845458984
1701097313995994600,11.28399462890625,6.316390037536621,-7.451530456542969,-4.798748970031738
1701097314012979000,11.30097900390625,6.097410202026367,-7.63728141784668,-4.500178337097168
1701097314029978000,11.31797802734375,5.484682559967041,-7.676729202270508,-3.932187557220459
1701097314046968000,11.334968017578126,4.440245628356934,-7.805263519287109,-2.7230043411254883
1701097314063959000,11.351958984375,2.846261739730835,-7.756206512451172,-2.4241418838500977
1701097314080948700,11.36894873046875,1.2835893630981445,-7.6839399337768555,-2.8046116828918457
1701097314097940000,11.38593994140625,0.8633722066879272,-7.194894313812256,-3.2679591178894043
1701097314114931700,11.402931640625,1.2106351852416992,-6.596460342407227,-2.5254855155944824
1701097314131918600,11.419918701171875,1.837168574333191,-6.141687870025635,-0.46225929260253906
1701097314148910800,11.436910888671875,2.1762335300445557,-5.869565010070801,1.7580862045288086
1701097314165901600,11.453901611328124,2.0849428176879883,-5.51281213760376,3.105160713195801
1701097314182889000,11.470888916015625,1.5448507070541382,-5.001955032348633,3.578160285949707
1701097314199885000,11.487885009765625,1.0491814613342285,-4.139589309692383,3.5662097930908203
1701097314216872400,11.50487255859375,0.7230465412139893,-2.83142352104187,3.460803985595703
1701097314233863200,11.52186328125,0.36850088834762573,-1.3425259590148926,3.6925315856933594
1701097314250853000,11.53885302734375,-0.3148634433746338,0.17487573623657227,4.073195457458496
1701097314267844000,11.555843994140625,-1.1006180047988892,1.4001731872558594,4.843017578125
1701097314284834300,11.572834228515624,-1.7276830673217773,2.376502275466919,5.481438159942627
1701097314301825000,11.589824951171876,-2.250812530517578,3.1041579246520996,5.670822620391846
1701097314318804500,11.606804443359374,-2.7742202281951904,3.5650875568389893,5.509119987487793
1701097314335806000,11.623805908203124,-3.1547207832336426,3.952526807785034,5.347435474395752
1701097314352788500,11.64078857421875,-3.3344926834106445,4.066511154174805,5.5812835693359375
1701097314369780000,11.657780029296875,-3.227163314819336,4.436539649963379,6.306107997894287
1701097314386776800,11.67477685546875,-3.360076427459717,4.828861236572266,6.833929061889648
1701097314403768000,11.69176806640625,-3.5720627307891846,5.399967193603516,6.851682186126709
1701097314420764400,11.708764404296875,-3.8248767852783203,5.601790428161621,7.01011848449707
1701097314437744000,11.725744140625,-3.711656093597412,5.612751007080078,7.509008884429932
1701097314454741200,11.7427412109375,-3.5863969326019287,5.660429954528809,8.207454681396484
1701097314471731700,11.759731689453124,-3.410430669784546,5.71157169342041,8.80197525024414
1701097314488719600,11.7767197265625,-3.048372268676758,5.845808029174805,9.282978057861328
1701097314505710300,11.79371044921875,-2.678130626678467,5.580662727355957,10.08896541595459
1701097314522700500,11.810700439453125,-2.736074924468994,4.90891170501709,10.822649955749512
1701097314539691500,11.82769140625,-2.913099765777588,4.2046589851379395,10.968559265136719
1701097314556681200,11.84468115234375,-2.3696842193603516,3.2351794242858887,11.184324264526367
1701097314573672200,11.861672119140625,-1.089565634727478,2.242891788482666,11.6201171875
1701097314590659600,11.87865966796875,0.2339838147163391,1.5962867736816406,12.121463775634766
1701097314607653400,11.8956533203125,0.8680497407913208,1.7432727813720703,11.820856094360352
1701097314624645600,11.912645751953125,0.8265662789344788,1.9712562561035156,10.711536407470703
1701097314641623600,11.92962353515625,0.654183030128479,1.578183650970459,9.616116523742676
1701097314658624000,11.9466240234375,0.7713568806648254,0.35007572174072266,8.802671432495117
1701097314675614700,11.96361474609375,1.2725253105163574,-1.16453218460083,7.884670257568359
1701097314692605000,11.98060498046875,1.962233543395996,-2.3581485748291016,6.549686431884766
1701097314709596000,11.997595947265625,2.7673189640045166,-2.829680919647217,4.853667736053467
1701097314726585600,12.014585693359376,3.1594462394714355,-2.5779738426208496,2.8501968383789062
1701097314743576800,12.031576904296875,3.136537790298462,-2.061461925506592,1.1837730407714844
1701097314760566800,12.04856689453125,2.724438190460205,-1.6539239883422852,0.00032806396484375
1701097314777557500,12.0655576171875,2.2377519607543945,-1.5482196807861328,-0.6854076385498047
1701097314794545200,12.082545166015626,2.146256685256958,-1.6233396530151367,-1.3313379287719727
1701097314811537000,12.099536865234375,2.296112060546875,-1.9457480907440186,-2.0664472579956055
1701097314828533000,12.116532958984376,2.6408262252807617,-2.179905652999878,-2.8841381072998047
1701097314845519000,12.13351904296875,3.027017116546631,-2.56449556350708,-3.3686318397521973
1701097314862506800,12.1505068359375,3.429387092590332,-3.083204746246338,-3.5041732788085938
1701097314879502800,12.1675029296875,3.9063916206359863,-3.4807324409484863,-3.786884307861328
1701097314896490500,12.184490478515626,4.137337684631348,-3.9254941940307617,-4.059291362762451
1701097314913481000,12.20148095703125,4.461461067199707,-4.59962797164917,-4.178532600402832
1701097314930471200,12.21847119140625,4.778402805328369,-5.094660758972168,-4.405938148498535
1701097314947460900,12.2354609375,4.956718444824219,-5.538501262664795,-4.561509132385254
1701097314964452000,12.2524521484375,5.116686820983887,-6.042834281921387,-4.382928371429443
1701097314981446100,12.269446044921875,5.289460182189941,-6.5168914794921875,-4.369600296020508
1701097314998432800,12.286432861328125,5.394086837768555,-6.956799507141113,-4.586885929107666
1701097315015423700,12.303423828125,5.566053867340088,-7.263430595397949,-4.680447101593018
1701097315032400400,12.320400390625,5.319910049438477,-7.675149917602539,-4.160120487213135
1701097315049396700,12.337396728515625,4.561827182769775,-7.722018718719482,-3.537930965423584
1701097315066394600,12.35439453125,3.431305408477783,-7.769854545593262,-2.9263925552368164
1701097315083385900,12.3713857421875,2.2056829929351807,-8.00832748413086,-1.883620262145996
1701097315100375600,12.38837548828125,1.1053630113601685,-8.089271545410156,-0.9602689743041992
1701097315117364000,12.405364013671875,0.6368396878242493,-7.534665107727051,-0.5419759750366211
1701097315134359300,12.422359375,0.7097451686859131,-6.761558532714844,-0.1406087875366211
1701097315151347500,12.439347412109376,1.0867955684661865,-6.048051834106445,1.0813846588134766
1701097315168337200,12.456337158203125,1.1902410984039307,-5.545825958251953,2.584395408630371
1701097315185331500,12.47333154296875,0.9391188621520996,-5.054679870605469,3.5862245559692383
1701097315202315500,12.4903154296875,0.2871438264846802,-4.451194763183594,3.914828300476074
1701097315219309300,12.507309326171875,-0.28306522965431213,-3.391469717025757,3.6006650924682617
1701097315236299300,12.52429931640625,-0.800104558467865,-1.8458061218261719,2.8339672088623047
1701097315253287700,12.54128759765625,-1.334136724472046,-0.21450519561767578,2.486598014831543
1701097315270282800,12.55828271484375,-2.081019878387451,1.2998895645141602,2.5347065925598145
1701097315287273200,12.575273193359376,-2.971942901611328,2.605907440185547,2.799222946166992
1701097315304260900,12.5922607421875,-3.8492555618286133,3.3730549812316895,3.1173739433288574
1701097315321252000,12.609252197265626,-4.387500762939453,3.7165427207946777,3.395139217376709
1701097315338242000,12.626241943359375,-4.526241302490234,3.7892630100250244,4.026943683624268
1701097315355233000,12.64323291015625,-4.630331039428711,3.948913335800171,4.86688756942749
1701097315372212000,12.6602119140625,-4.413717746734619,4.368309020996094,5.580898284912109
1701097315389210600,12.677210693359376,-4.122349739074707,4.48438835144043,6.294305801391602
1701097315406201300,12.694201416015625,-3.968111038208008,4.559655666351318,6.785179138183594
1701097315423194600,12.711194580078125,-3.7722342014312744,4.711099624633789,7.233087539672852
1701097315440184600,12.7281845703125,-3.516463279724121,5.023496627807617,7.582940578460693
1701097315457173500,12.745173583984375,-3.003196954727173,5.387995719909668,8.20804214477539
1701097315474168300,12.762168212890625,-2.459914207458496,5.715435028076172,8.99609375
1701097315491156000,12.779156005859376,-2.220134735107422,5.73577880859375,9.518925666809082
1701097315508136400,12.796136474609375,-1.9020543098449707,5.33254861831665,9.799426078796387
1701097315525137400,12.813137451171874,-1.7009491920471191,4.485406875610352,10.31658935546875
1701097315542119000,12.830118896484375,-1.7109129428863525,3.5566749572753906,10.85848617553711
1701097315559106800,12.84710693359375,-1.7143830060958862,2.955648422241211,11.072315216064453
1701097315576107500,12.864107421875,-1.2435214519500732,1.9636993408203125,11.683717727661133
1701097315593100000,12.88110009765625,-0.08231472969055176,1.3231897354125977,11.733626365661621
1701097315610089200,12.898089111328124,1.3038125038146973,1.2524738311767578,11.246559143066406
1701097315627080000,12.915079833984375,2.214527130126953,1.6110186576843262,10.458414077758789
1701097315644070100,12.932070068359375,2.483626365661621,1.6778182983398438,9.743823051452637
1701097315661061000,12.94906103515625,2.3132896423339844,0.8882856369018555,9.241846084594727
1701097315678050800,12.96605078125,2.155395030975342,-0.45142412185668945,8.917558670043945
1701097315695041800,12.983041748046874,2.06459903717041,-1.8665785789489746,8.682401657104492
1701097315712022300,13.000022216796875,2.003352165222168,-2.7706265449523926,8.020544052124023
1701097315729023000,13.01702294921875,1.6555752754211426,-3.133608341217041,6.9015727043151855
1701097315746013000,13.034012939453126,1.1489229202270508,-3.141955852508545,5.542874813079834
1701097315763003000,13.0510029296875,0.9504051208496094,-3.3990039825439453,4.452853202819824
1701097315779994600,13.06799462890625,1.2800195217132568,-3.7554445266723633,3.312997817993164
1701097315796984600,13.084984619140625,1.5191984176635742,-4.35910177230835,2.118877410888672
1701097315813974500,13.101974609375,1.9950826168060303,-4.888100624084473,0.5715675354003906
1701097315830971400,13.118971435546875,2.5964174270629883,-5.371123790740967,-0.8315877914428711
1701097315847955700,13.135955810546875,3.2438769340515137,-5.839188098907471,-2.099731922149658
1701097315864946700,13.15294677734375,3.757504463195801,-6.232852458953857,-3.303860664367676
1701097315881936400,13.169936279296875,4.411711692810059,-6.666407108306885,-4.197763919830322
1701097315898920400,13.18692041015625,4.952685356140137,-6.7898664474487305,-5.075311183929443
1701097315915917300,13.203917236328126,5.063094139099121,-7.037984371185303,-5.608771800994873
1701097315932908300,13.220908203125,5.014341354370117,-7.108899116516113,-6.0871076583862305
1701097315949898200,13.237898193359374,4.8612446784973145,-7.152312278747559,-6.549406051635742
1701097315966887000,13.254886962890625,4.6654887199401855,-7.150791168212891,-6.896416187286377
1701097315983881700,13.2718818359375,4.524721145629883,-7.237942695617676,-7.007046699523926
1701097316000870100,13.2888701171875,4.509826183319092,-7.307035446166992,-6.8579301834106445
1701097316017860400,13.3058603515625,4.286862850189209,-7.630481719970703,-6.405118942260742
1701097316034848500,13.3228486328125,4.1102142333984375,-8.099733352661133,-5.972961902618408
1701097316051843600,13.339843505859376,3.8843231201171875,-8.482584953308105,-5.508195877075195
1701097316068832000,13.35683203125,3.6581993103027344,-8.556468963623047,-4.999271392822266
1701097316085822000,13.373822021484376,3.232142925262451,-8.697349548339844,-4.112202167510986
1701097316102813000,13.39081298828125,2.256807565689087,-9.062268257141113,-2.5804710388183594
1701097316119803000,13.407802978515624,0.9471015930175781,-9.244179725646973,-1.1797122955322266
1701097316136794000,13.424794189453126,-0.0035102367401123047,-9.150819778442383,-0.2689247131347656
1701097316153782300,13.4417822265625,-0.1418386697769165,-8.898088455200195,0.45464229583740234
1701097316170776000,13.458776123046874,0.4342139959335327,-8.486055374145508,1.8063640594482422
1701097316187764500,13.475764404296875,1.1604548692703247,-7.9480204582214355,3.341732978820801
1701097316204755700,13.492755615234374,1.614969253540039,-7.592249870300293,4.92982292175293
1701097316221745700,13.50974560546875,1.365767240524292,-7.091607093811035,5.935824394226074
1701097316238735600,13.526735595703125,1.0208086967468262,-6.181755542755127,6.090215682983398
1701097316255726300,13.543726318359376,0.5941108465194702,-4.780964374542236,5.6383209228515625
1701097316272713700,13.560713623046874,0.14726153016090393,-2.89499568939209,4.867820739746094
1701097316289711000,13.577711181640625,-0.3607746660709381,-1.0881094932556152,4.535822868347168
1701097316306698200,13.5946982421875,-0.9351522922515869,0.4114346504211426,4.871601104736328
1701097316323688200,13.611688232421875,-1.2680115699768066,1.6111226081848145,5.456844329833984
1701097316340679400,13.628679443359376,-1.6244953870773315,2.414994716644287,5.995301723480225
1701097316357661200,13.6456611328125,-1.976646900177002,2.7798962593078613,6.036926746368408
1701097316374645000,13.66264501953125,-1.835970163345337,2.8487191200256348,5.9143595695495605
1701097316391645400,13.6796455078125,-1.4552732706069946,2.9023637771606445,6.537550449371338
1701097316408634000,13.696634033203125,-0.7163988351821899,3.850782871246338,7.684421062469482
1701097316425633500,13.713633544921874,-0.6926011443138123,4.769288063049316,8.985034942626953
1701097316442622200,13.730622314453125,-0.30672311782836914,5.873328685760498,9.809837341308594
1701097316459612000,13.74761181640625,0.24346357583999634,7.003308296203613,10.038013458251953
1701097316476603000,13.764602783203125,0.7555912733078003,7.659727573394775,10.253870010375977
1701097316493593000,13.781593017578125,1.3488976955413818,8.047440528869629,10.742393493652344
1701097316510584000,13.798583984375,1.978590965270996,8.372421264648438,11.10794448852539
1701097316527571500,13.815571533203125,2.44144868850708,8.349848747253418,11.341999053955078
1701097316544569900,13.83256982421875,2.7735395431518555,7.982060432434082,11.416772842407227
1701097316561542400,13.84954248046875,2.6701531410217285,7.0274786949157715,11.418927192687988
1701097316578545700,13.866545654296875,2.191120147705078,6.197824478149414,10.598548889160156
1701097316595536000,13.883535888671876,2.16862154006958,5.77597713470459,9.64431381225586
1701097316612526800,13.90052685546875,2.3548502922058105,4.919189453125,9.78721809387207
1701097316629516500,13.9175166015625,2.8549344539642334,4.13817834854126,10.095291137695312
1701097316646507500,13.934507568359376,3.4105162620544434,3.6532821655273438,10.27249526977539
1701097316663497700,13.951497802734375,3.5337533950805664,3.4618172645568848,9.852377891540527
1701097316680488400,13.968488525390624,2.9963598251342773,2.817474842071533,9.599224090576172
1701097316697478700,13.985478759765625,2.2599925994873047,1.4238591194152832,10.087602615356445
1701097316714469400,14.002469482421875,1.697121262550354,-0.4672980308532715,10.79232120513916
1701097316731456800,14.019456787109375,1.3397181034088135,-2.380619525909424,11.354655265808105
1701097316748440300,14.0364404296875,0.6858493685722351,-3.7483367919921875,11.254405975341797
1701097316765439000,14.05343896484375,-0.01866970956325531,-4.3497490882873535,10.021541595458984
1701097316782418200,14.070418212890624,-0.04847477376461029,-4.368144512176514,7.68174934387207
1701097316799410700,14.08741064453125,0.6647517681121826,-4.359663486480713,5.14326286315918
1701097316816410400,14.104410400390625,1.5494303703308105,-4.579487323760986,2.792276382446289
1701097316833398500,14.1213984375,2.424208164215088,-4.903919219970703,0.8523378372192383
1701097316850385000,14.138385009765624,2.9102535247802734,-5.102530002593994,-0.8552970886230469
1701097316867379000,14.15537890625,3.1121017932891846,-5.127917289733887,-2.404756546020508
1701097316884365300,14.172365234375,3.0833170413970947,-5.106205463409424,-3.675262451171875
1701097316901353000,14.18935302734375,3.1101911067962646,-5.151689529418945,-4.586616516113281
1701097316918351400,14.206351318359374,3.273513078689575,-5.1885457038879395,-5.348574161529541
1701097316935342600,14.223342529296875,3.4400992393493652,-5.119030952453613,-5.858589172363281
1701097316952337200,14.240337158203126,3.4191856384277344,-5.200901985168457,-5.963099002838135
1701097316969321700,14.25732177734375,3.3257992267608643,-5.184090614318848,-6.095473289489746
1701097316986306300,14.274306396484375,3.1452670097351074,-5.1768107414245605,-6.200038433074951
1701097317003302100,14.29130224609375,3.1522727012634277,-5.158009052276611,-6.432954788208008
1701097317020291600,14.30829150390625,3.1413655281066895,-5.259474277496338,-6.529119491577148
1701097317037279200,14.325279296875,3.243572950363159,-5.565447807312012,-6.289207458496094
1701097317054277000,14.342277099609374,3.318765163421631,-5.954760551452637,-5.736572742462158
1701097317071266600,14.3592666015625,3.702536106109619,-6.274865627288818,-4.953939914703369
1701097317088256500,14.376256591796874,4.104898452758789,-6.830414295196533,-3.744332790374756
1701097317105251300,14.393251220703124,4.528610706329346,-7.287136077880859,-2.7217259407043457
1701097317122240800,14.41024072265625,4.461346626281738,-7.881840705871582,-1.8011384010314941
1701097317139220000,14.427219970703124,4.197965621948242,-8.092401504516602,-0.9424753189086914
1701097317156221700,14.4442216796875,3.4455008506774902,-8.210884094238281,-0.3429841995239258
1701097317173207300,14.461207275390626,2.9782371520996094,-7.982698440551758,-0.004958152770996094
1701097317190200300,14.478200439453126,2.9855570793151855,-7.319022178649902,0.2796049118041992
1701097317207194600,14.495194580078126,2.8246424198150635,-6.578413963317871,0.5973567962646484
1701097317224183600,14.51218359375,2.5256285667419434,-6.036519527435303,1.136800765991211
1701097317241174000,14.529174072265626,2.2038280963897705,-5.866687774658203,1.6729345321655273
1701097317258168800,14.5461689453125,1.786106824874878,-5.873126029968262,2.2069101333618164
1701097317275154200,14.563154296875,1.4014214277267456,-5.488218307495117,2.3581323623657227
1701097317292145400,14.5801455078125,1.1505907773971558,-4.656350612640381,2.454026222229004
1701097317309135400,14.59713525390625,0.8431763648986816,-3.3940374851226807,2.6506052017211914
1701097317326126300,14.614126220703126,0.732015073299408,-1.8971428871154785,2.8775787353515625
1701097317343114500,14.631114501953125,0.6227849721908569,-0.48201513290405273,3.327670097351074
1701097317360109000,14.648109130859375,0.2996200919151306,0.8275294303894043,3.9131455421447754
1701097317377096200,14.66509619140625,-0.2730233669281006,1.846395492553711,4.517080783843994
1701097317394078200,14.682078125,-1.0866788625717163,2.611361026763916,4.865444660186768
1701097317411077600,14.69907763671875,-1.8289320468902588,3.094623565673828,4.743691921234131
1701097317428069000,14.716069091796875,-2.3550620079040527,3.506800651550293,4.666409015655518
1701097317445059000,14.73305908203125,-2.4422433376312256,3.7778878211975098,5.2414045333862305
1701097317462050000,14.750050048828125,-2.356712818145752,4.2104997634887695,6.099063396453857
1701097317479029500,14.767029541015624,-2.3505358695983887,4.555997848510742,6.989574909210205
1701097317496030700,14.78403076171875,-2.64719820022583,5.057623386383057,7.932239532470703
1701097317513021200,14.801021240234375,-3.0193607807159424,5.375090599060059,8.883805274963379
1701097317530012000,14.818011962890624,-3.3627519607543945,5.643641471862793,9.551637649536133
1701097317547001600,14.835001708984375,-3.5807812213897705,5.611942291259766,10.188688278198242
1701097317563992800,14.851992919921875,-3.270084857940674,5.619880199432373,10.931305885314941
1701097317580982800,14.868982666015626,-2.751521587371826,5.921631336212158,11.429962158203125
1701097317597973800,14.885973876953125,-2.351856231689453,6.001985549926758,11.824374198913574
1701097317614963500,14.90296337890625,-1.8882131576538086,5.705120086669922,11.840513229370117
1701097317631954700,14.91995458984375,-1.3344769477844238,5.174442291259766,11.081721305847168
1701097317648943400,14.936943359375,-0.7834641933441162,4.425772190093994,10.18235969543457
1701097317665935600,14.953935546875,-0.06432127952575684,3.5117039680480957,9.848798751831055
1701097317682923300,14.97092333984375,0.76678866147995,2.6819381713867188,10.024208068847656
1701097317699919000,14.987919189453125,1.146040916442871,2.1442337036132812,10.344204902648926
1701097317716906500,15.004906494140625,0.6118082404136658,2.4123311042785645,9.87415885925293
1701097317733897500,15.0218974609375,-0.3262915015220642,2.6084208488464355,9.231767654418945
1701097317750887200,15.03888720703125,-0.813334047794342,2.0740771293640137,8.913336753845215
1701097317767878400,15.05587841796875,-0.5953571796417236,0.7555179595947266,8.810342788696289
1701097317784868400,15.072868408203124,0.1442868709564209,-0.7957525253295898,8.362289428710938
1701097317801859300,15.089859375,1.0372847318649292,-1.9614648818969727,7.296075820922852
1701097317818849300,15.106849365234375,2.148554801940918,-2.533743381500244,5.837940692901611
1701097317835840000,15.123840087890626,2.87465763092041,-2.648021697998047,4.23687219619751
1701097317852830200,15.140830322265625,3.0553078651428223,-2.397207260131836,2.6865854263305664
1701097317869821400,15.157821533203125,2.694708824157715,-2.0955653190612793,1.411818504333496
1701097317886811000,15.174810791015625,2.270321846008301,-1.8447561264038086,0.3246917724609375
1701097317903802000,15.191802001953125,2.044025421142578,-1.790351390838623,-0.6079444885253906
1701097317920792000,15.2087919921875,2.121077537536621,-1.98683762550354,-1.2644901275634766
1701097317937783300,15.225783203125,2.421205759048462,-2.3407814502716064,-1.8012409210205078
1701097317954769400,15.242769287109375,2.9143571853637695,-2.712174415588379,-2.382505416870117
1701097317971767800,15.259767822265625,3.404233455657959,-3.1361277103424072,-2.916656970977783
1701097317988754000,15.27675390625,3.868978500366211,-3.450608968734741,-3.429466724395752
1701097318005734400,15.293734375,4.215756416320801,-3.710374355316162,-3.902276039123535
1701097318022735000,15.310735107421875,4.601016044616699,-3.9162564277648926,-4.203614234924316
1701097318039725800,15.327725830078125,4.940774917602539,-4.149960517883301,-4.54239559173584
1701097318056715800,15.3447158203125,5.303051948547363,-4.354800224304199,-4.8065948486328125
1701097318073703400,15.361703369140624,5.392112731933594,-5.022253036499023,-4.628992557525635
1701097318090696700,15.37869677734375,5.456850051879883,-5.676632881164551,-4.522307395935059
1701097318107680500,15.395680419921876,5.42436408996582,-6.327057838439941,-4.421506404876709
1701097318124678000,15.412677978515624,5.520483016967773,-6.632420063018799,-4.4051008224487305
1701097318141668600,15.429668701171876,5.4548139572143555,-7.084076881408691,-3.897970676422119
1701097318158658600,15.446658447265625,5.124672889709473,-7.277860641479492,-3.2075281143188477
1701097318175649500,15.4636494140625,4.061927318572998,-7.277242660522461,-2.9508676528930664
1701097318192639500,15.480639404296875,2.6655502319335938,-7.4385528564453125,-2.988412380218506
1701097318209631000,15.497630859375,1.5751640796661377,-7.707622528076172,-2.782167434692383
1701097318226620700,15.51462060546875,0.9180300235748291,-7.909842014312744,-2.234118938446045
1701097318243611600,15.531611572265625,1.0349390506744385,-7.371469497680664,-1.5838861465454102
1701097318260603400,15.548603271484374,1.1555958986282349,-6.7530670166015625,-0.4500751495361328
1701097318277590300,15.56559033203125,1.217280387878418,-6.152698040008545,0.9888992309570312
1701097318294573800,15.58257373046875,1.0439170598983765,-5.85687780380249,2.1188974380493164
1701097318311574000,15.599573974609376,0.7413187623023987,-5.541879653930664,2.8530683517456055
1701097318328561000,15.616560791015624,0.4734589755535126,-4.957630634307861,2.8194808959960938
1701097318345557200,15.63355712890625,0.3855152130126953,-3.910912036895752,2.49477481842041
1701097318362546700,15.650546630859376,0.3893468379974365,-2.4504456520080566,2.356801986694336
1701097318379535400,15.667535400390625,0.2689198851585388,-0.9637494087219238,2.7078142166137695
1701097318396525300,15.684525390625,-0.11415505409240723,0.518643856048584,3.3787899017333984
1701097318413516300,15.701516357421875,-0.9409192800521851,1.6794004440307617,4.11300802230835
1701097318430505200,15.718505126953126,-2.0366766452789307,2.5018882751464844,4.44888162612915
1701097318447498200,15.735498291015626,-2.8465676307678223,2.970750331878662,4.779488563537598
1701097318464487200,15.752487060546875,-3.337709426879883,3.3328676223754883,5.15439510345459
1701097318481467400,15.76946728515625,-3.4770524501800537,3.786062002182007,5.731949806213379
1701097318498468400,15.78646826171875,-3.5833263397216797,4.275869369506836,6.429244041442871
1701097318515459300,15.803459228515624,-3.4588170051574707,4.804825782775879,7.215521812438965
1701097318532449300,15.82044921875,-3.182318687438965,5.28696870803833,8.064077377319336
1701097318549440300,15.837440185546875,-2.923151969909668,5.673562049865723,8.70315170288086
1701097318566430200,15.85443017578125,-2.5913655757904053,5.97259521484375,8.955434799194336
1701097318583418400,15.87141845703125,-2.0147693157196045,6.029529571533203,9.58498764038086
1701097318600413700,15.88841357421875,-1.3100438117980957,6.071507453918457,9.91489028930664
1701097318617389600,15.9053896484375,-0.42096254229545593,6.123605251312256,10.18387508392334
1701097318634394600,15.92239453125,0.4355977177619934,6.120148658752441,10.514060020446777
1701097318651383000,15.939383056640626,1.0100982189178467,5.888554573059082,11.278369903564453
1701097318668372700,15.956372802734375,0.7154833078384399,5.311885356903076,11.788553237915039
1701097318685364000,15.973364013671874,-0.14662626385688782,4.817927360534668,11.534547805786133
1701097318702354000,15.99035400390625,-0.7296237945556641,4.052906036376953,11.274556159973145
1701097318719332000,16.00733203125,-0.5921332240104675,2.685053825378418,11.487190246582031
1701097318736331500,16.02433154296875,0.22433620691299438,1.6257247924804688,11.593576431274414
1701097318753326000,16.041326171875,0.9222329258918762,1.241642951965332,11.20802116394043
1701097318770315500,16.0583154296875,1.0281453132629395,1.3704876899719238,10.44736385345459
1701097318787306800,16.075306640625,0.667412519454956,1.0718350410461426,9.845399856567383
1701097318804297000,16.092296875,0.38537895679473877,0.06640863418579102,9.51425838470459
1701097318821285000,16.10928515625,0.5106168985366821,-1.453066349029541,9.116289138793945
1701097318838280200,16.1262802734375,1.1413159370422363,-3.090399742126465,8.36747932434082
1701097318855268400,16.143268310546876,1.6731853485107422,-3.8978776931762695,6.810490131378174
1701097318872258600,16.160258544921874,2.431910753250122,-4.073164463043213,5.0197038650512695
1701097318889249800,16.177249755859375,2.8070390224456787,-3.667724609375,3.0241966247558594
1701097318906239700,16.19423974609375,2.777742385864258,-3.152859687805176,1.4503002166748047
1701097318923232300,16.211232177734374,2.4723737239837646,-2.7956604957580566,0.3414287567138672
1701097318940218600,16.228218505859374,2.191061019897461,-2.6223645210266113,-0.6468353271484375
1701097318957207600,16.24520751953125,2.0105037689208984,-2.661679744720459,-1.5773735046386719
1701097318974205700,16.262205810546874,2.0925660133361816,-2.7937397956848145,-2.40480375289917
1701097318991192600,16.279192626953126,2.273566722869873,-2.962106227874756,-3.144777297973633
1701097319008182500,16.2961826171875,2.6036643981933594,-3.0957319736480713,-3.8331732749938965
1701097319025173800,16.313173828125,2.914421558380127,-3.3351199626922607,-4.376929759979248
1701097319042163500,16.33016357421875,3.2661142349243164,-3.5771288871765137,-4.698436260223389
1701097319059144000,16.34714404296875,3.5137205123901367,-3.9389421939849854,-4.89115571975708
1701097319076133600,16.364133544921874,3.7724251747131348,-4.211775302886963,-5.1627607345581055
1701097319093135400,16.38113525390625,3.911372423171997,-4.483852386474609,-5.469072341918945
1701097319110125300,16.398125244140626,4.019163131713867,-4.698360443115234,-5.640341281890869
1701097319127116300,16.4151162109375,4.23794412612915,-4.814558029174805,-5.72902774810791
1701097319144098600,16.4320986328125,4.358459949493408,-5.0529866218566895,-5.450031757354736
1701097319161107200,16.449107177734376,4.383803367614746,-5.538691520690918,-5.040828704833984
1701097319178087200,16.466087158203123,4.513814926147461,-6.339178085327148,-4.58323335647583
1701097319195078100,16.483078125,4.946964740753174,-6.957129001617432,-4.27335262298584
1701097319212068000,16.500068115234374,5.144072532653809,-7.009292125701904,-4.281759738922119
1701097319229059300,16.517059326171875,4.738499164581299,-7.208845615386963,-3.660684585571289
1701097319246049300,16.53404931640625,3.7569382190704346,-7.382691383361816,-2.9056921005249023
1701097319263037400,16.551037353515625,2.507808208465576,-7.6993608474731445,-1.7241301536560059
1701097319280032800,16.56803271484375,1.2064855098724365,-8.1671142578125,-0.9807395935058594
1701097319297021200,16.585021240234376,0.9216355681419373,-8.00059700012207,-0.8384170532226562
1701097319314011000,16.602010986328125,1.3074464797973633,-7.29095458984375,-0.3068399429321289
1701097319331001900,16.619001953125,1.6392611265182495,-6.526467800140381,1.0766229629516602
1701097319347992000,16.635991943359375,1.637944221496582,-6.026079177856445,3.0771331787109375
1701097319364983000,16.652983154296876,1.424426555633545,-5.628127098083496,4.608099937438965
1701097319381973000,16.669972900390626,0.6984678506851196,-5.263188362121582,4.777429580688477
1701097319398969300,16.68696923828125,-0.250000536441803,-4.610750198364258,3.709414482116699
1701097319415954000,16.703953857421876,-0.6438945531845093,-3.3988466262817383,2.8789196014404297
1701097319432945000,16.72094482421875,-0.5435831546783447,-1.8093581199645996,2.8157453536987305
1701097319449934800,16.737934814453126,-0.6972492933273315,-0.2337045669555664,3.5639824867248535
1701097319466925800,16.75492578125,-1.3734627962112427,1.2041945457458496,4.6047258377075195
1701097319483908600,16.77190869140625,-2.0791015625,2.4723286628723145,5.073282718658447
1701097319500906800,16.78890673828125,-2.640960693359375,3.131547451019287,5.371947288513184
1701097319517897000,16.80589697265625,-2.7619552612304688,3.4723095893859863,5.722062587738037
1701097319534885400,16.822885498046876,-2.476848602294922,3.769303798675537,5.947769641876221
1701097319551880400,16.83988037109375,-2.076063632965088,4.051375865936279,6.266200065612793
1701097319568868600,16.85686865234375,-1.7810900211334229,4.465142250061035,6.578640937805176
1701097319585858600,16.873858642578124,-1.8690578937530518,5.074406623840332,6.716728687286377
1701097319602849500,16.890849609375,-1.847503900527954,5.456977844238281,6.951396465301514
1701097319619839500,16.907839599609375,-1.629987359046936,5.591717720031738,7.471653938293457
1701097319636830500,16.92483056640625,-1.6226348876953125,5.545615196228027,8.071557998657227
1701097319653823700,16.94182373046875,-1.1216994524002075,5.313485145568848,8.953187942504883
1701097319670805800,16.9588056640625,-0.13955286145210266,5.572932243347168,9.758763313293457
1701097319687801600,16.975801513671875,0.3854667544364929,5.840790271759033,10.454879760742188
1701097319704792600,16.99279248046875,0.48870304226875305,6.097439765930176,10.860151290893555
1701097319721772000,17.00977197265625,-0.008451223373413086,5.668488502502441,11.495019912719727
1701097319738765600,17.026765625,-0.8148210048675537,5.116201400756836,11.580245018005371
1701097319755766300,17.043766357421877,-0.8928065299987793,4.484476566314697,11.440505981445312
1701097319772754700,17.060754638671874,-0.33404091000556946,3.624331474304199,11.305490493774414
1701097319789744600,17.07774462890625,0.583538293838501,2.5763063430786133,11.292028427124023
1701097319806733600,17.094733642578124,1.201732873916626,1.699042797088623,11.182136535644531
1701097319823727400,17.111727294921874,1.4474880695343018,1.530080795288086,10.607551574707031
1701097319840716500,17.128716552734375,1.3845505714416504,1.500351905822754,9.990886688232422
1701097319857704000,17.145703857421875,1.3326231241226196,1.1018924713134766,9.452152252197266
1701097319874687000,17.16268701171875,1.5925860404968262,-0.028646469116210938,8.959741592407227
1701097319891681500,17.179681640625,2.146768808364868,-1.3533782958984375,8.38005542755127
1701097319908671200,17.196671142578126,2.5621955394744873,-2.323472499847412,7.200467586517334
1701097319925666600,17.21366650390625,2.7817623615264893,-2.6858153343200684,5.727702617645264
1701097319942660900,17.230660888671874,2.8390378952026367,-2.692565441131592,4.250125885009766
1701097319959649300,17.247649169921875,2.562131404876709,-2.5123085975646973,2.8727316856384277
1701097319976640300,17.26464013671875,1.9485197067260742,-2.375263214111328,1.6444683074951172
1701097319993630500,17.28163037109375,1.5291733741760254,-2.245255947113037,0.4568748474121094
1701097320010621200,17.29862109375,1.417248249053955,-2.2411675453186035,-0.513427734375
1701097320027611100,17.315611083984376,1.9236948490142822,-2.438347339630127,-1.296922206878662
1701097320044602400,17.332602294921877,2.464693546295166,-2.624011754989624,-2.0264430046081543
1701097320061581800,17.349581787109376,2.6200554370880127,-2.7809109687805176,-2.6340041160583496
1701097320078583300,17.366583251953124,2.6073784828186035,-2.910874128341675,-3.0160956382751465
1701097320095573000,17.383572998046876,2.902965545654297,-3.1654365062713623,-3.245884895324707
1701097320112555500,17.400555419921876,3.2545790672302246,-3.502614736557007,-3.4451723098754883
1701097320129554000,17.417553955078127,3.638826370239258,-3.9655282497406006,-3.7163796424865723
1701097320146545200,17.434545166015624,3.9716925621032715,-4.444856643676758,-4.162714958190918
1701097320163535000,17.45153515625,4.263153553009033,-4.914979457855225,-4.740540981292725
1701097320180526000,17.468526123046875,4.649758815765381,-5.232702255249023,-5.362103462219238
1701097320197516300,17.485516357421876,4.972123622894287,-5.552586555480957,-5.7566070556640625
1701097320214510000,17.502510009765626,5.1400957107543945,-5.846508979797363,-5.751416206359863
1701097320231494000,17.519493896484374,5.049142837524414,-6.350196838378906,-5.334733963012695
1701097320248486700,17.536486572265623,4.986494064331055,-6.867295265197754,-4.941601753234863
1701097320265472000,17.553471923828123,4.9452619552612305,-7.367178916931152,-4.249664306640625
1701097320282459600,17.570459716796876,4.785573959350586,-7.5521745681762695,-3.3799352645874023
1701097320299447300,17.587447265625,4.2109198570251465,-7.483557224273682,-2.105323314666748
1701097320316450000,17.604449951171876,2.791823387145996,-7.712080478668213,-0.46465587615966797
1701097320333434000,17.62143408203125,1.2520328760147095,-7.87232780456543,0.719146728515625
1701097320350424600,17.638424560546873,-0.1766057014465332,-7.664674758911133,0.5417079925537109
1701097320367412500,17.65541259765625,-0.9214801788330078,-6.757888317108154,-0.32500362396240234
1701097320384402200,17.672402099609375,-0.9067409038543701,-5.980184078216553,-0.4174795150756836
1701097320401383000,17.6893828125,-0.17006361484527588,-5.6076154708862305,0.5322380065917969
1701097320418387500,17.706387451171874,0.8555591106414795,-5.495370864868164,1.6584415435791016
1701097320435378700,17.723378662109376,1.3663747310638428,-5.464027404785156,2.582803726196289
1701097320452371700,17.740371826171874,1.2863715887069702,-4.992420673370361,2.420686721801758
1701097320469353700,17.757353759765625,0.9605772495269775,-3.9543063640594482,1.6703901290893555
1701097320486347800,17.77434765625,0.7822859287261963,-2.6184511184692383,1.5203828811645508
1701097320503334100,17.791334228515623,0.6140198111534119,-1.0874433517456055,1.8589420318603516
1701097320520330800,17.808330810546874,0.2572079300880432,0.32631731033325195,2.4709067344665527
1701097320537319200,17.825319091796874,-0.2673013508319855,1.4161357879638672,3.47525691986084
1701097320554311200,17.842311279296876,-0.716839075088501,2.1976752281188965,4.473174095153809
1701097320571304400,17.859304443359374,-1.0367892980575562,2.7168288230895996,5.112982749938965
1701097320588294000,17.8762939453125,-1.2248152494430542,3.2028675079345703,5.294857025146484
1701097320605288700,17.893288818359373,-1.2896461486816406,3.377786159515381,5.70543909072876
1701097320622278700,17.910278564453126,-0.8465657234191895,3.59665584564209,6.5501885414123535
1701097320639268600,17.9272685546875,-0.2443559765815735,3.931016445159912,7.826264381408691
1701097320656259800,17.944259765625,0.007895171642303467,4.658669948577881,8.57468032836914
1701097320673247000,17.9612470703125,-0.33881813287734985,5.392402648925781,8.752792358398438
1701097320690243300,17.978243408203124,-0.5760309100151062,5.940637588500977,8.929612159729004
1701097320707230700,17.995230712890624,-0.38457947969436646,6.269589424133301,9.152145385742188
1701097320724221700,18.0122216796875,0.2978666126728058,6.412297248840332,9.525683403015137
1701097320741211600,18.029211669921875,1.185999870300293,6.456965446472168,10.152482032775879
1701097320758189600,18.046189453125,2.1120569705963135,6.626064300537109,10.901140213012695
1701097320775195400,18.0631953125,2.1935431957244873,6.432648658752441,11.71474838256836
1701097320792183800,18.080183837890626,1.457041621208191,6.050177574157715,12.294092178344727
1701097320809173500,18.097173583984375,0.3313472867012024,5.587197303771973,12.620782852172852
1701097320826164700,18.114164794921876,-0.4472128748893738,4.845965385437012,13.107681274414062
1701097320843154700,18.13115478515625,-0.6029484272003174,3.5947723388671875,13.73995590209961
1701097320860145400,18.1481455078125,-0.03961670398712158,2.5854806900024414,14.01134204864502
1701097320877137700,18.1651376953125,0.6929824352264404,2.094080924987793,13.682700157165527
1701097320894111000,18.182111083984374,0.9406049847602844,2.2928452491760254,12.41556167602539
1701097320911121000,18.199120849609375,0.817506730556488,1.723426342010498,11.256345748901367
1701097320928106000,18.21610595703125,1.167274832725525,0.26314735412597656,10.549150466918945
1701097320945097200,18.23309716796875,1.6010239124298096,-1.8611512184143066,10.342474937438965
1701097320962088400,18.25008837890625,1.9821209907531738,-3.6320648193359375,9.840328216552734
1701097320979068000,18.26706787109375,1.924221158027649,-4.481377124786377,8.457386016845703
1701097320996069400,18.2840693359375,1.9612696170806885,-4.479285717010498,6.295407295227051
1701097321013058600,18.30105859375,2.1007652282714844,-4.231245040893555,4.228847503662109
1701097321030053400,18.318053466796876,2.1414523124694824,-3.987900733947754,2.509899139404297
1701097321047037400,18.335037353515624,2.191699504852295,-3.864962577819824,0.9615621566772461
1701097321064029400,18.352029541015625,2.3368465900421143,-3.923004627227783,-0.25347328186035156
1701097321081023500,18.3690234375,2.571927070617676,-4.071598529815674,-1.2802534103393555
1701097321098012400,18.386012451171876,2.8529837131500244,-4.250858306884766,-2.2052183151245117
1701097321115002400,18.40300244140625,2.938534736633301,-4.43147087097168,-3.0747761726379395
1701097321131993900,18.419993896484375,3.0318384170532227,-4.467950820922852,-3.9810900688171387
1701097321148982800,18.436982666015624,3.293821096420288,-4.5868239402771,-4.524377822875977
1701097321165974500,18.453974609375,3.5818941593170166,-4.753259181976318,-4.84720516204834
1701097321182964200,18.470964111328126,3.935551881790161,-4.952723503112793,-4.980555534362793
1701097321199955200,18.487955078125,4.187071800231934,-5.1965556144714355,-5.030220985412598
1701097321216945200,18.504945068359376,4.352240085601807,-5.3196330070495605,-5.170867919921875
1701097321233936400,18.521936279296874,4.612135887145996,-5.504256725311279,-5.103841781616211
1701097321250926000,18.538926025390627,4.706811904907227,-5.937369346618652,-4.882193565368652
1701097321267920000,18.555919921875,4.970561981201172,-6.345185279846191,-4.5746331214904785
1701097321284904700,18.57290478515625,5.2271270751953125,-6.704198360443115,-4.448685646057129
1701097321301898200,18.589898193359375,5.569735527038574,-7.077724456787109,-4.14538049697876
1701097321318888200,18.60688818359375,5.877631187438965,-7.4493727684021,-3.546088695526123
1701097321335879400,18.62387939453125,5.707193374633789,-7.389997482299805,-3.2248363494873047
1701097321352869400,18.640869384765626,4.782769203186035,-7.413116931915283,-2.8690223693847656
1701097321369860000,18.657860107421875,3.498932361602783,-7.7158050537109375,-2.600280284881592
1701097321386850000,18.67485009765625,2.3477442264556885,-7.997060775756836,-2.419724464416504
1701097321403832600,18.69183251953125,1.669766902923584,-8.165424346923828,-2.085742950439453
1701097321420820700,18.70882080078125,1.791256308555603,-7.898078918457031,-0.8845682144165039
1701097321437831400,18.72583154296875,2.246565580368042,-7.1772565841674805,0.6559610366821289
1701097321454809600,18.7428095703125,2.080474615097046,-6.418018341064453,1.7943782806396484
1701097321471807500,18.759807373046876,1.4726793766021729,-5.829221725463867,2.3383750915527344
1701097321488791600,18.77679150390625,0.552056610584259,-5.526037216186523,2.649441719055176
1701097321505773600,18.793773681640626,0.07160532474517822,-5.185474395751953,2.6326236724853516
1701097321522774300,18.810774169921874,0.30396315455436707,-4.358451843261719,2.521407127380371
1701097321539765200,18.82776513671875,0.5622630715370178,-3.1067566871643066,2.717167854309082
1701097321556755200,18.844755126953125,0.5637452602386475,-1.5741300582885742,3.3057003021240234
1701097321573747200,18.861747314453126,-0.039821185171604156,-0.1405487060546875,3.8834195137023926
1701097321590734800,18.87873486328125,-0.8926611542701721,0.7958111763000488,4.451915740966797
1701097321607724800,18.895724853515624,-1.1943883895874023,1.5427470207214355,4.854824542999268
1701097321624719400,18.91271923828125,-1.1778466701507568,2.0604867935180664,5.1661834716796875
1701097321641708000,18.9297080078125,-1.089515209197998,2.4707908630371094,5.703689098358154
1701097321658698000,18.946697998046876,-1.1140180826187134,2.973783016204834,6.905442714691162
1701097321675689200,18.963689208984373,-1.3955832719802856,3.778702735900879,8.410497665405273
1701097321692679000,18.980678955078126,-2.4310922622680664,4.663338661193848,10.091259002685547
1701097321709671400,18.99767138671875,-3.6051604747772217,5.741741180419922,11.155999183654785
1701097321726658600,19.014658447265624,-4.672092437744141,6.695849895477295,11.789366722106934
1701097321743651300,19.0316513671875,-5.0888991355896,7.3165154457092285,12.177175521850586
1701097321760641000,19.04864111328125,-4.603116035461426,7.501031398773193,12.321390151977539
1701097321777632000,19.065632080078124,-3.0734660625457764,7.1402387619018555,12.59831428527832
1701097321794619100,19.082619140625,-1.256119966506958,6.988027572631836,12.556653022766113
1701097321811615700,19.09961572265625,-0.3193666338920593,6.938163757324219,11.99156379699707
1701097321828603100,19.11660302734375,-0.46862858533859253,6.422767639160156,11.267948150634766
1701097321845594000,19.133593994140625,-1.0226664543151855,5.310530185699463,11.17899227142334
1701097321862584000,19.150583984375,-1.3632408380508423,4.226709365844727,11.604625701904297
1701097321879575000,19.167574951171876,-0.9794168472290039,2.973198413848877,12.488201141357422
1701097321896564700,19.184564697265625,-0.25027620792388916,2.0527162551879883,13.316030502319336
1701097321913563400,19.2015634765625,0.15069085359573364,1.5003843307495117,13.3460693359375
1701097321930533400,19.218533447265624,0.32762908935546875,1.392134189605713,12.60334587097168
1701097321947537000,19.235536865234376,0.6288015842437744,0.9757981300354004,11.875555038452148
1701097321964526800,19.25252685546875,1.212672472000122,-0.2292003631591797,11.701396942138672
1701097321981507300,19.26950732421875,1.759686827659607,-2.0066967010498047,11.40793228149414
1701097321998507800,19.2865078125,2.085550308227539,-3.8397812843322754,10.84753704071045
1701097322015491600,19.30349169921875,2.1708931922912598,-5.10243034362793,9.671116828918457
1701097322032486400,19.320486328125,2.4905171394348145,-5.5014753341674805,7.965361595153809
1701097322049479700,19.337479736328124,2.4884846210479736,-5.232952117919922,5.835320472717285
1701097322066471000,19.354470947265625,2.536993980407715,-4.9700469970703125,3.693606376647949
1701097322083460900,19.3714609375,2.777559995651245,-4.495636463165283,1.7706718444824219
1701097322100450800,19.388450927734375,2.7905220985412598,-4.403472900390625,0.711522102355957
1701097322117441800,19.40544189453125,2.8417370319366455,-4.354169845581055,-0.18145275115966797
1701097322134431700,19.422431640625,2.6951143741607666,-4.526020050048828,-1.0179710388183594
1701097322151423000,19.439423095703123,2.6442532539367676,-4.902839183807373,-1.7970247268676758
1701097322168412700,19.45641259765625,2.8858699798583984,-5.261825084686279,-2.5843448638916016
1701097322185404000,19.47340380859375,3.0881035327911377,-5.793984889984131,-3.633275032043457
1701097322202393900,19.490393798828126,3.4418838024139404,-6.142529487609863,-4.618795871734619
1701097322219384800,19.507384765625,3.7489020824432373,-6.4641265869140625,-5.306404113769531
1701097322236374800,19.524374755859377,3.9026803970336914,-6.801255226135254,-5.643252372741699
1701097322253359900,19.54135986328125,3.8936312198638916,-7.210911750793457,-5.624859809875488
1701097322270358300,19.558358154296876,3.7940449714660645,-7.521678924560547,-5.771302223205566
1701097322287348200,19.57534814453125,3.66264009475708,-7.898320198059082,-5.9782209396362305
1701097322304335000,19.592335205078125,3.9229564666748047,-8.16392707824707,-6.41778564453125
1701097322321310500,19.609310546875,4.209715843200684,-8.543886184692383,-6.269899368286133
1701097322338317600,19.626317626953124,4.5841965675354,-8.941934585571289,-5.734787940979004
1701097322355308800,19.643308837890626,4.862887382507324,-9.247099876403809,-5.206229209899902
1701097322372298800,19.660298828125,4.616161346435547,-9.433956146240234,-4.991809844970703
1701097322389289700,19.677289794921876,4.029577255249023,-9.286344528198242,-4.92174768447876
1701097322406279700,19.69427978515625,3.390425443649292,-9.518277168273926,-4.227619171142578
1701097322423270700,19.711270751953126,2.7284555435180664,-10.188806533813477,-1.7817249298095703
1701097322440262000,19.728261962890624,2.3350164890289307,-10.376248359680176,0.5203704833984375
1701097322457249000,19.7452490234375,2.2936112880706787,-9.94510555267334,1.5073862075805664
1701097322474242000,19.762241943359374,2.34621000289917,-9.150765419006348,1.9405364990234375
1701097322491235600,19.779235595703124,2.2043256759643555,-8.448359489440918,2.82611083984375
1701097322508222700,19.79622265625,1.843212604522705,-7.935333251953125,4.736100196838379
1701097322525214000,19.8132138671875,1.2904343605041504,-7.682662010192871,7.236435890197754
1701097322542200600,19.83020068359375,0.5339502096176147,-6.899954319000244,8.145519256591797
1701097322559197700,19.84719775390625,-0.29994678497314453,-5.808701515197754,8.12450122833252
1701097322576184600,19.8641845703125,-0.9527015686035156,-4.09509801864624,7.5067138671875
1701097322593175800,19.88117578125,-1.3641698360443115,-2.014148235321045,7.187220573425293
1701097322610165800,19.898165771484376,-1.3609331846237183,-0.09561967849731445,7.593677520751953
1701097322627156500,19.915156494140625,-1.341526746749878,1.6463093757629395,8.356119155883789
1701097322644146700,19.932146728515626,-1.928207516670227,3.1689014434814453,8.400214195251465
1701097322661137700,19.9491376953125,-3.4368457794189453,3.996018886566162,8.105691909790039
1701097322678127600,19.966127685546876,-4.768917560577393,4.6022748947143555,7.562735080718994
1701097322695118600,19.98311865234375,-5.355339050292969,5.116458892822266,7.184767246246338
1701097322712105700,20.000105712890626,-5.009027004241943,5.2877607345581055,7.476227283477783
1701097322729099500,20.017099609375,-4.090705394744873,5.6673431396484375,8.395772933959961
1701097322746089700,20.03408984375,-3.642787218093872,6.214041233062744,8.503849029541016
1701097322763081000,20.0510810546875,-3.6918869018554688,6.741034984588623,7.7588653564453125
1701097322780070700,20.068070556640624,-3.509136199951172,6.963831901550293,7.562313556671143
1701097322797061600,20.0850615234375,-2.7811219692230225,7.135955810546875,8.09454345703125
1701097322814051600,20.102051513671874,-2.0667951107025146,7.186522483825684,8.938996315002441
1701097322831039700,20.119039794921875,-1.5839686393737793,7.201574802398682,9.944467544555664
1701097322848032800,20.13603271484375,-1.6150972843170166,7.388011932373047,10.360196113586426
1701097322865023700,20.153023681640626,-1.6270830631256104,7.357243061065674,10.55922794342041
1701097322882013700,20.170013671875,-1.6891968250274658,6.893598556518555,11.23326587677002
1701097322899007200,20.18700732421875,-2.067230463027954,6.075997352600098,12.348134994506836
1701097322915984400,20.203984375,-2.4896490573883057,5.022593975067139,12.850449562072754
1701097322932985300,20.2209853515625,-2.0047354698181152,3.7063889503479004,12.979103088378906
1701097322949975600,20.2379755859375,-0.912898600101471,2.691316604614258,12.499488830566406
1701097322966966500,20.254966552734373,0.23245537281036377,2.042968273162842,12.193931579589844
1701097322983956500,20.27195654296875,0.9299750328063965,1.8614015579223633,12.08305549621582
1701097323000947500,20.288947509765624,0.6217877864837646,1.5193872451782227,11.402321815490723
1701097323017934000,20.30593408203125,0.4386974573135376,0.5817127227783203,10.341438293457031
1701097323034930000,20.322929931640626,0.7570033073425293,-1.0015220642089844,9.211729049682617
1701097323051921000,20.3399208984375,1.329857349395752,-2.955963611602783,8.904455184936523
1701097323068911900,20.356911865234373,1.685867190361023,-3.7164220809936523,7.61011266708374
1701097323085899500,20.3738994140625,1.7171251773834229,-3.847290515899658,5.829520225524902
1701097323102890800,20.390890869140627,1.8882172107696533,-3.662935733795166,3.9365787506103516
1701097323119882500,20.407882568359376,1.9966895580291748,-3.582016944885254,2.4319705963134766
1701097323136868900,20.424868896484377,2.2368197441101074,-3.4510278701782227,1.2193527221679688
1701097323153862700,20.441862548828126,2.326887845993042,-3.481825351715088,0.3198118209838867
1701097323170834000,20.458833984375,2.331707000732422,-3.5292720794677734,-0.4895286560058594
1701097323187842800,20.4758427734375,2.387056350708008,-3.6055495738983154,-1.4045028686523438
1701097323204833800,20.492833740234374,2.4614193439483643,-3.743471145629883,-2.2247066497802734
1701097323221813000,20.50981298828125,2.6364545822143555,-3.9054505825042725,-3.000326156616211
1701097323238804000,20.526803955078126,3.007092237472534,-3.9220709800720215,-3.5406370162963867
1701097323255804700,20.5438046875,3.5948779582977295,-4.103302478790283,-3.6312642097473145
1701097323272795600,20.560795654296875,4.170600891113281,-4.301553249359131,-3.6613292694091797
1701097323289784000,20.5777841796875,4.534460067749023,-4.596592426300049,-3.736515998840332
1701097323306778600,20.594778564453126,4.794036865234375,-4.739781379699707,-4.022523880004883
1701097323323766800,20.611766845703126,4.96040153503418,-4.924966812133789,-4.204741477966309
1701097323340757500,20.628757568359376,5.223849296569824,-5.232031345367432,-4.3617987632751465
1701097323357747700,20.645747802734373,5.522741317749023,-5.624243259429932,-4.228396415710449
1701097323374725600,20.6627255859375,5.727440357208252,-6.050538063049316,-4.059441089630127
1701097323391718000,20.6797177734375,5.977961540222168,-6.595473289489746,-3.692103862762451
1701097323408715500,20.696715576171876,6.224630355834961,-6.88895320892334,-3.3345680236816406
1701097323425708300,20.713708251953125,5.878725051879883,-7.207095146179199,-3.018958568572998
1701097323442701600,20.73070166015625,5.209230899810791,-7.278650283813477,-2.811586380004883
1701097323459689700,20.747689697265624,4.112701416015625,-7.5039753913879395,-2.3645505905151367
1701097323476682200,20.76468212890625,2.7871289253234863,-7.900222301483154,-1.7619199752807617
1701097323493671700,20.781671630859375,2.0149013996124268,-7.73234224319458,-1.4642672538757324
1701097323510662700,20.79866259765625,1.975789189338684,-7.174442768096924,-1.3883399963378906
1701097323527652400,20.81565234375,2.480966567993164,-6.308568477630615,-0.8576974868774414
1701097323544643800,20.832643798828126,2.7445642948150635,-5.7157087326049805,0.2940406799316406
1701097323561631200,20.84963134765625,2.4237098693847656,-5.314485549926758,1.4339160919189453
1701097323578624800,20.866624755859377,1.7811858654022217,-5.228487968444824,2.271916389465332
1701097323595614500,20.883614501953126,1.416612982749939,-4.939155578613281,2.7677688598632812
1701097323612605700,20.900605712890624,1.2217326164245605,-4.058276176452637,3.0915632247924805
1701097323629595600,20.917595703125,0.8861817121505737,-2.6986374855041504,3.3228044509887695
1701097323646586600,20.934586669921874,0.35175925493240356,-1.1623210906982422,3.5684595108032227
1701097323663574000,20.951573974609374,-0.29407474398612976,0.29946041107177734,4.095384120941162
1701097323680570000,20.968570068359377,-1.1623737812042236,1.4768590927124023,5.048602104187012
1701097323697558800,20.985558837890625,-2.0559515953063965,2.2116384506225586,6.1366353034973145
1701097323714546200,21.002546142578126,-3.10953426361084,2.845386028289795,6.667696475982666
1701097323731530000,21.019530029296874,-4.320262908935547,3.5666425228118896,6.378848552703857
1701097323748518400,21.036518310546874,-4.774212837219238,4.081390857696533,6.2126851081848145
1701097323765512000,21.053511962890624,-4.225154399871826,4.067545413970947,6.882841110229492
1701097323782500000,21.0705,-3.0556588172912598,4.154240131378174,7.71706485748291
1701097323799488500,21.087488525390626,-2.2120070457458496,4.472639560699463,8.251127243041992
1701097323816489000,21.104489013671873,-2.043248414993286,5.1001296043396,8.00175666809082
1701097323833479700,21.121479736328126,-2.3041532039642334,5.873073101043701,7.48560094833374
1701097323850470400,21.138470458984376,-2.944932460784912,6.251193046569824,7.349621772766113
1701097323867454700,21.155454833984376,-2.8118724822998047,6.355743408203125,7.761124610900879
1701097323884448000,21.172447998046874,-2.2003798484802246,6.2282891273498535,8.490453720092773
1701097323901439000,21.18943896484375,-1.3950355052947998,6.060150623321533,9.295409202575684
1701097323918430700,21.2064306640625,-0.9454339742660522,5.895636081695557,10.117661476135254
1701097323935417600,21.22341748046875,-1.0237421989440918,5.5673909187316895,10.656749725341797
1701097323952415000,21.2404150390625,-1.0121558904647827,5.377674102783203,10.667744636535645
1701097323969401300,21.2574013671875,-0.45896562933921814,4.795799732208252,11.06511402130127
1701097323986393000,21.27439306640625,0.6267890930175781,3.893515110015869,11.849650382995605
1701097324003377200,21.291377197265625,1.5618709325790405,3.1508402824401855,12.466341018676758
1701097324020371200,21.30837109375,1.6806116104125977,2.764604091644287,12.6340970993042
1701097324037362400,21.325362548828124,1.0530884265899658,2.6926608085632324,11.876737594604492
1701097324054352400,21.342352294921874,0.13866788148880005,2.1642494201660156,11.14750862121582
1701097324071347500,21.359347412109376,-0.09841156005859375,0.9350290298461914,10.851451873779297
1701097324088334000,21.376333984375,0.12175381183624268,-0.5802316665649414,10.310186386108398
1701097324105320000,21.39331982421875,1.0222949981689453,-1.8379392623901367,9.012361526489258
1701097324122321000,21.41032080078125,2.2965009212493896,-2.7362313270568848,7.526711940765381
1701097324139310600,21.427310546875,3.4030754566192627,-3.4345555305480957,6.508765697479248
1701097324156301800,21.4443017578125,3.514486074447632,-2.964524745941162,4.576817989349365
1701097324173291800,21.461291748046875,2.906198740005493,-2.5790867805480957,2.924727439880371
1701097324190283000,21.478282958984376,2.4069435596466064,-2.231448173522949,1.5386981964111328
1701097324207273000,21.49527294921875,2.3234424591064453,-2.176189422607422,0.5353021621704102
1701097324224265500,21.512265380859375,2.464081048965454,-2.4704031944274902,-0.30146217346191406
1701097324241243000,21.529242919921874,2.779299259185791,-2.794593095779419,-1.422196388244629
1701097324258244600,21.54624462890625,3.1071150302886963,-3.0402815341949463,-2.58889102935791
1701097324275230200,21.563230224609374,3.302570104598999,-3.2408390045166016,-3.527021884918213
1701097324292225500,21.5802255859375,3.5141382217407227,-3.4246606826782227,-4.219943046569824
1701097324309215700,21.5972158203125,3.5531840324401855,-3.757986545562744,-4.46344518661499
1701097324326206700,21.614206787109374,3.583167552947998,-4.022101402282715,-4.66525411605835
1701097324343186200,21.631186279296877,3.6199333667755127,-4.195377826690674,-4.781817436218262
1701097324360188000,21.64818798828125,3.679645538330078,-4.383614540100098,-4.748645305633545
1701097324377175300,21.66517529296875,3.771418571472168,-4.677755832672119,-4.581853866577148
1701097324394171400,21.68217138671875,4.047489166259766,-5.167977809906006,-4.121682167053223
1701097324411158800,21.69915869140625,4.041265487670898,-5.69166898727417,-3.6533942222595215
1701097324428150000,21.71614990234375,3.999831438064575,-6.325178146362305,-3.435887336730957
1701097324445140000,21.733139892578127,4.136340141296387,-7.078255653381348,-3.4997081756591797
1701097324462130400,21.75013037109375,4.383570194244385,-7.4847917556762695,-3.9457554817199707
1701097324479111000,21.76711083984375,4.661145210266113,-7.593299865722656,-4.311141490936279
