time,seconds_elapsed,z,y,x
1701905258222346200,0.11134619140625,-2.3940978050231934,-2.4553260803222656,-0.9283508062362671
1701905258239340000,0.128340087890625,-3.4381017684936523,-2.923612594604492,-0.2047116756439209
1701905258256332500,0.14533251953125,-3.94848895072937,-3.1657745838165283,0.6049213409423828
1701905258273320400,0.162320556640625,-3.871307849884033,-3.5417206287384033,0.17244982719421387
1701905258290314500,0.179314453125,-2.5911614894866943,-3.948620557785034,-0.7803440093994141
1701905258307305500,0.196305419921875,-1.6116690635681152,-4.113280296325684,-1.1838047504425049
1701905258324297700,0.213297607421875,-2.7786238193511963,-4.788688659667969,-0.7261581420898438
1701905258341283000,0.230282958984375,-3.220906972885132,-5.243226051330566,0.6676936149597168
1701905258358275300,0.247275390625,-2.3132271766662598,-5.547187805175781,1.0276312828063965
1701905258375272200,0.264272216796875,-0.6045541763305664,-5.82974910736084,0.29317235946655273
1701905258392258800,0.2812587890625,0.5083150863647461,-5.748441219329834,-0.280667781829834
1701905258409253000,0.298253173828125,-1.537768840789795,-5.901960849761963,0.19256830215454102
1701905258426245400,0.315245361328125,-2.9863779544830322,-5.882741928100586,1.4628400802612305
1701905258443233300,0.3322333984375,-2.6371958255767822,-6.111187934875488,3.0531373023986816
1701905258460227000,0.34922705078125,0.21892023086547852,-6.063141822814941,3.5937376022338867
1701905258477218000,0.366218017578125,3.1757447719573975,-5.615190505981445,2.9288196563720703
1701905258494207700,0.383207763671875,2.949298620223999,-5.426084041595459,2.3504858016967773
1701905258511200500,0.400200439453125,1.4038740396499634,-5.3677544593811035,2.3236513137817383
1701905258528194000,0.417194091796875,0.45038390159606934,-5.120028972625732,2.7553091049194336
1701905258545181400,0.434181396484375,0.8165978193283081,-4.826781272888184,3.299954414367676
1701905258562174000,0.451174072265625,2.401573657989502,-4.318995475769043,3.564889907836914
1701905258579168300,0.468168212890625,3.6653566360473633,-3.8908257484436035,3.61038875579834
1701905258596153000,0.485153076171875,3.6896872520446777,-3.388786792755127,3.329681396484375
1701905258613148700,0.502148681640625,2.6058614253997803,-2.8152894973754883,2.791860580444336
1701905258630134000,0.519134033203125,1.5987650156021118,-2.515315055847168,2.5468263626098633
1701905258647131600,0.536131591796875,1.5770447254180908,-2.272190570831299,3.1233978271484375
1701905258664113000,0.55311279296875,2.1665561199188232,-1.6459031105041504,3.686863899230957
1701905258681110000,0.570110107421875,2.6063730716705322,-1.0568784475326538,3.6104183197021484
1701905258698109400,0.587109375,2.693523406982422,-0.546210765838623,3.252284049987793
1701905258715098600,0.6040986328125,2.4475231170654297,0.03643393516540527,2.894449234008789
1701905258732084200,0.621084228515625,1.7578094005584717,0.4095001220703125,2.9434690475463867
1701905258749078500,0.63807861328125,1.107100009918213,0.6409754753112793,3.6339588165283203
1701905258766077700,0.65507763671875,0.9222928285598755,0.9855976104736328,4.319536209106445
1701905258783056100,0.67205615234375,1.2723894119262695,1.6325035095214844,3.917454719543457
1701905258800052700,0.689052734375,1.5832808017730713,2.034637451171875,2.9803333282470703
1701905258817040000,0.706039794921875,2.0372018814086914,2.3778600692749023,2.2099761962890625
1701905258834032000,0.7230322265625,1.6421139240264893,2.6515889167785645,2.1280078887939453
1701905258851026700,0.740026611328125,0.6920863389968872,2.6942458152770996,2.5955772399902344
1701905258868016400,0.757016357421875,-0.0660395622253418,2.796996593475342,3.583765983581543
1701905258885007600,0.774007568359375,-0.288047730922699,3.1109626293182373,3.6175880432128906
1701905258901999600,0.79099951171875,-0.19726073741912842,3.385418653488159,3.0808277130126953
1701905258918991000,0.8079912109375,0.03560648486018181,3.314497947692871,2.9074792861938477
1701905258935983600,0.824983642578125,-0.10690859705209732,2.8728039264678955,3.254648208618164
1701905258952971300,0.84197119140625,-0.17828388512134552,2.6694459915161133,3.7437143325805664
1701905258969965300,0.85896533203125,-0.1717355102300644,2.5013139247894287,4.516797065734863
1701905258986956800,0.875956787109375,0.021543055772781372,2.391819477081299,5.380353927612305
1701905259003943400,0.892943359375,0.2602085769176483,2.3453385829925537,5.681221961975098
1701905259020938500,0.9099384765625,0.3387076258659363,2.0746328830718994,5.473389625549316
1701905259037930800,0.9269306640625,0.34235474467277527,1.57724928855896,5.247727394104004
1701905259054912300,0.943912353515625,0.6739916801452637,1.0359807014465332,5.1255340576171875
1701905259071909600,0.96090966796875,0.9039888381958008,0.7432923316955566,5.172624588012695
1701905259088903700,0.977903564453125,0.4033757746219635,0.2249603271484375,5.858642578125
1701905259105898200,0.994898193359375,0.060150861740112305,-0.2992892265319824,5.964862823486328
1701905259122881800,1.0118818359375,0.13842549920082092,-0.9540166854858398,5.314854621887207
1701905259139876000,1.0288759765625,0.6449881196022034,-1.8661127090454102,4.465451240539551
1701905259156871400,1.045871337890625,1.461646318435669,-2.848768472671509,3.565275192260742
1701905259173857800,1.06285791015625,2.182527542114258,-3.75567626953125,2.691202163696289
1701905259190853000,1.07985302734375,2.7153995037078857,-4.3028788566589355,2.0197362899780273
1701905259207839500,1.096839599609375,3.108346462249756,-4.506410598754883,1.4610109329223633
1701905259224838000,1.113837890625,3.194188117980957,-4.386096954345703,0.7740926742553711
1701905259241823200,1.1308232421875,3.1985697746276855,-4.02391242980957,0.011250495910644531
1701905259258816500,1.14781640625,3.176237106323242,-3.653346538543701,-0.6069564819335938
1701905259275808500,1.16480859375,3.056417465209961,-3.396730899810791,-1.1818313598632812
1701905259292790000,1.1817900390625,2.9952187538146973,-3.192580223083496,-1.638023853302002
1701905259309790000,1.1987900390625,3.09596586227417,-3.016225814819336,-2.024991512298584
1701905259326782500,1.215782470703125,3.2040252685546875,-3.017944097518921,-2.1645960807800293
1701905259343770600,1.2327705078125,3.53721022605896,-2.9716320037841797,-2.1599292755126953
1701905259360765200,1.24976513671875,4.0424370765686035,-2.9337332248687744,-2.180995464324951
1701905259377753300,1.26675341796875,4.492130279541016,-2.9902658462524414,-2.408036231994629
1701905259394750200,1.283750244140625,4.771442890167236,-3.151111125946045,-2.685453414916992
1701905259411735300,1.3007353515625,4.860620021820068,-3.4902336597442627,-2.8448352813720703
1701905259428731000,1.31773095703125,5.24216365814209,-3.7823286056518555,-3.096406936645508
1701905259445720300,1.33472021484375,5.667351722717285,-4.21690034866333,-3.190723419189453
1701905259462709500,1.35170947265625,5.951192855834961,-4.854322910308838,-2.946012496948242
1701905259479701200,1.368701171875,6.252396583557129,-5.10911750793457,-2.817641258239746
1701905259496697300,1.385697265625,6.332352638244629,-5.383238792419434,-2.672804355621338
1701905259513682400,1.402682373046875,6.246491432189941,-5.778477668762207,-2.512157917022705
1701905259530673700,1.419673583984375,5.98045539855957,-6.327516555786133,-2.2706031799316406
1701905259547668500,1.43666845703125,5.744156837463379,-6.8878912925720215,-1.999333381652832
1701905259564651800,1.45365185546875,5.475464344024658,-7.332630157470703,-2.0529613494873047
1701905259581648000,1.47064794921875,5.355277061462402,-7.543018341064453,-2.208822250366211
1701905259598640600,1.487640625,5.293422698974609,-7.500602722167969,-2.029283046722412
1701905259615635700,1.5046357421875,4.589828014373779,-7.378355503082275,-1.9086427688598633
1701905259632622300,1.521622314453125,3.87484073638916,-7.341262340545654,-1.8987116813659668
1701905259649615400,1.538615478515625,3.148099660873413,-7.607927322387695,-1.3340458869934082
1701905259666609000,1.55560888671875,2.1214632987976074,-7.914510250091553,-1.0929622650146484
1701905259683591400,1.57259130859375,1.225024938583374,-7.900694847106934,-1.6556181907653809
1701905259700580000,1.589580078125,1.32956862449646,-7.364239692687988,-2.0094170570373535
1701905259717580300,1.606580322265625,2.0705623626708984,-6.4714460372924805,-1.2859992980957031
1701905259734574000,1.623573974609375,2.578902006149292,-5.630620956420898,-0.00487518310546875
1701905259751560700,1.640560791015625,2.7293901443481445,-5.155898571014404,1.3719053268432617
1701905259768555000,1.657554931640625,2.1771278381347656,-4.944016933441162,2.2721052169799805
1701905259785530400,1.6745302734375,1.7390520572662354,-4.557223796844482,2.2523269653320312
1701905259802535000,1.691534912109375,1.8197216987609863,-3.9907047748565674,1.9638338088989258
1701905259819528000,1.70852783203125,2.243910551071167,-3.1380670070648193,2.138789176940918
1701905259836511200,1.72551123046875,2.338374376296997,-1.8313357830047607,2.8888072967529297
1701905259853508400,1.74250830078125,1.5236530303955078,-0.30805516242980957,3.9685449600219727
1701905259870503400,1.75950341796875,0.1490808129310608,1.4369914531707764,4.449136734008789
1701905259887493000,1.7764931640625,-1.2828540802001953,2.744615077972412,4.202062606811523
1701905259904476400,1.793476318359375,-1.8666378259658813,3.4568233489990234,3.7865352630615234
1701905259921473500,1.8104736328125,-1.342090368270874,3.555448532104492,3.2294750213623047
1701905259938467300,1.82746728515625,-0.4486169219017029,3.3253440856933594,3.028331756591797
1701905259955459800,1.8444599609375,0.17353221774101257,3.272995948791504,2.7714414596557617
1701905259972447700,1.86144775390625,-0.3961016535758972,3.200195550918579,2.0572595596313477
1701905259989444000,1.878444091796875,-0.6186171770095825,3.1703860759735107,1.5248422622680664
1701905260006432300,1.895432373046875,-0.6145176887512207,3.28847336769104,1.4891023635864258
1701905260023419100,1.912419189453125,-0.6559793949127197,3.26849365234375,2.2063040733337402
1701905260040415500,1.92941552734375,-0.5367788076400757,3.3084487915039062,2.8065500259399414
1701905260057407500,1.946407470703125,-0.39087745547294617,3.2000603675842285,3.444741725921631
1701905260074399500,1.9633994140625,-0.002196982502937317,3.062135934829712,3.7393975257873535
1701905260091377000,1.980376953125,0.20370125770568848,3.0504539012908936,3.9206366539001465
1701905260108371000,1.997370849609375,-0.04487070441246033,3.0446455478668213,4.407913684844971
1701905260125362700,2.01436279296875,-0.3755760192871094,2.812474012374878,5.052738189697266
1701905260142365200,2.031365234375,-0.5041205883026123,2.172312021255493,5.6152143478393555
1701905260159351000,2.04835107421875,-0.5077938437461853,1.3831744194030762,5.700031280517578
1701905260176340700,2.0653408203125,-0.30569806694984436,0.40732765197753906,5.9842681884765625
1701905260193336000,2.082336181640625,-0.04285934567451477,-0.8767962455749512,6.607812881469727
1701905260210323000,2.099322998046875,0.5781514048576355,-1.544297695159912,6.746769905090332
1701905260227317000,2.11631689453125,1.0319806337356567,-1.776893138885498,6.665639877319336
1701905260244312300,2.133312255859375,1.2684764862060547,-1.5736026763916016,5.9894819259643555
1701905260261298000,2.1502978515625,1.5243451595306396,-1.4184041023254395,4.970614433288574
1701905260278295800,2.1672958984375,1.7445192337036133,-1.7943453788757324,4.227313995361328
1701905260295281400,2.184281494140625,1.804148554801941,-2.673095226287842,4.041757583618164
1701905260312274200,2.201274169921875,1.510218620300293,-3.57741117477417,3.7362966537475586
1701905260329266400,2.218266357421875,1.4579163789749146,-4.202437400817871,2.9723052978515625
1701905260346260200,2.23526025390625,2.008345603942871,-4.259369850158691,1.7451295852661133
1701905260363246600,2.25224658203125,2.8052475452423096,-4.015318393707275,0.4418954849243164
1701905260380241700,2.26924169921875,3.018641233444214,-3.715125799179077,-0.5542163848876953
1701905260397231400,2.2862314453125,3.1562836170196533,-3.4315454959869385,-1.4248895645141602
1701905260414225200,2.30322509765625,3.2608118057250977,-3.2060837745666504,-2.237471103668213
1701905260431204400,2.320204345703125,3.52878999710083,-3.0767934322357178,-2.8400402069091797
1701905260448206000,2.3372060546875,3.864851474761963,-3.1712231636047363,-3.0716490745544434
1701905260465185500,2.354185546875,3.954401969909668,-3.4250550270080566,-3.117043972015381
1701905260482188000,2.37118798828125,3.862818956375122,-3.7174935340881348,-3.220000743865967
1701905260499176000,2.388176025390625,3.7919936180114746,-3.9913218021392822,-3.429318904876709
1701905260516174800,2.4051748046875,3.7247579097747803,-4.309025287628174,-3.7298526763916016
1701905260533160000,2.422159912109375,3.838848114013672,-4.529310703277588,-3.9948225021362305
1701905260550150100,2.439150146484375,4.150124549865723,-4.651729106903076,-4.074895858764648
1701905260567150300,2.456150390625,4.675889015197754,-4.658167839050293,-4.0755720138549805
1701905260584128000,2.4731279296875,5.036813735961914,-4.759088039398193,-3.8970909118652344
1701905260601115000,2.490114990234375,5.292544364929199,-4.914971828460693,-3.7498698234558105
1701905260618119000,2.507118896484375,5.4297075271606445,-5.125092506408691,-3.654137134552002
1701905260635108900,2.52410888671875,5.623023509979248,-5.418921947479248,-3.4381794929504395
1701905260652100400,2.541100341796875,5.695547103881836,-5.79047155380249,-3.208859920501709
1701905260669093000,2.558093017578125,5.61164665222168,-6.348210334777832,-2.684298038482666
1701905260686083000,2.5750830078125,5.3369245529174805,-6.770509243011475,-2.372718334197998
1701905260703074800,2.59207470703125,5.050508975982666,-7.100820541381836,-2.2589097023010254
1701905260720064800,2.609064697265625,4.754930019378662,-7.340429306030273,-2.1543760299682617
1701905260737057300,2.626057373046875,4.331223487854004,-7.43677282333374,-1.7027497291564941
1701905260754040000,2.6430400390625,3.282744884490967,-7.453561782836914,-1.222306251525879
1701905260771040500,2.66004052734375,1.8827970027923584,-7.797272682189941,-0.9538078308105469
1701905260788031500,2.677031494140625,0.7786163091659546,-8.337675094604492,-1.060744285583496
1701905260805023200,2.694023193359375,0.25948166847229004,-8.250762939453125,-1.7974505424499512
1701905260822012200,2.71101220703125,0.4906885623931885,-7.698549747467041,-2.3680405616760254
1701905260839004700,2.728004638671875,1.3405741453170776,-6.796178817749023,-1.851247787475586
1701905260855998200,2.744998291015625,2.212078809738159,-5.778087615966797,-0.4514455795288086
1701905260872985300,2.7619853515625,2.3983654975891113,-5.2868828773498535,0.7465658187866211
1701905260889981000,2.77898095703125,2.106579065322876,-5.161660671234131,1.520547866821289
1701905260906970000,2.79597021484375,1.7786401510238647,-4.982903480529785,1.562485694885254
1701905260923944700,2.81294482421875,1.7626609802246094,-4.509299278259277,1.2108697891235352
1701905260940949000,2.829948974609375,2.0539989471435547,-3.6159305572509766,0.9664154052734375
1701905260957948700,2.84694873046875,2.1572604179382324,-2.363981246948242,1.134840965270996
1701905260974936800,2.863936767578125,1.7032233476638794,-0.9042840003967285,1.438979148864746
1701905260991924200,2.88092431640625,0.7212586402893066,0.3579719066619873,1.8126115798950195
1701905261008917800,2.897917724609375,-0.4643385410308838,1.3488588333129883,2.106281280517578
1701905261025911000,2.9149111328125,-1.4948182106018066,1.9179069995880127,2.0158042907714844
1701905261042897700,2.931897705078125,-1.65623140335083,2.0279271602630615,1.7017021179199219
1701905261059890200,2.94889013671875,-1.071302056312561,1.8218424320220947,1.3366050720214844
1701905261076885200,2.96588525390625,-0.12528592348098755,1.609386682510376,1.0349035263061523
1701905261093871900,2.982871826171875,0.5271722078323364,1.4706177711486816,1.0600824356079102
1701905261110866000,2.999865966796875,0.3462928533554077,1.5469577312469482,1.440908432006836
1701905261127857700,3.016857666015625,-0.5176548361778259,1.7582626342773438,1.579697608947754
1701905261144849700,3.033849609375,-1.3833497762680054,2.0288712978363037,1.7826213836669922
1701905261161837300,3.05083740234375,-1.5287777185440063,2.4463846683502197,2.229762077331543
1701905261178830000,3.067830078125,-1.3667922019958496,2.7088019847869873,3.028064727783203
1701905261195823000,3.084822998046875,-1.2198774814605713,2.7931313514709473,3.8803367614746094
1701905261212804000,3.10180419921875,-1.0669316053390503,2.701493501663208,4.31776237487793
1701905261229803000,3.118802978515625,-0.96018385887146,2.3873488903045654,4.588851451873779
1701905261246798000,3.135798095703125,-0.7630088329315186,2.250114917755127,4.95551872253418
1701905261263772400,3.1527724609375,-0.7469877004623413,2.2102787494659424,5.537837505340576
1701905261280779300,3.169779296875,-1.061828851699829,2.160536289215088,5.96443510055542
1701905261297771000,3.18677099609375,-1.2578134536743164,2.030113697052002,5.830981731414795
1701905261314762200,3.20376220703125,-1.2716734409332275,1.1675162315368652,5.859248638153076
1701905261331753500,3.22075341796875,-0.9821722507476807,0.034384727478027344,6.01534366607666
1701905261348744400,3.237744384765625,-0.496049165725708,-0.5548548698425293,5.900202751159668
1701905261365725200,3.25472509765625,0.05788061022758484,-0.49382638931274414,5.593070983886719
1701905261382713900,3.2717138671875,0.3697075843811035,-0.03801155090332031,4.832475662231445
1701905261399716400,3.28871630859375,0.5071666836738586,-0.13431262969970703,4.251487731933594
1701905261416705300,3.305705322265625,0.9129242300987244,-0.7206206321716309,3.8908042907714844
1701905261433701000,3.322701171875,1.2287161350250244,-1.750403881072998,3.6539831161499023
1701905261450688800,3.339688720703125,1.5831109285354614,-2.838026523590088,3.3996572494506836
1701905261467683600,3.35668359375,2.0146212577819824,-3.419433355331421,2.6337127685546875
1701905261484674300,3.37367431640625,2.534653663635254,-3.4313623905181885,1.5457935333251953
1701905261501662200,3.390662109375,2.984466075897217,-3.133202314376831,0.5095300674438477
1701905261518656800,3.40765673828125,3.2669930458068848,-2.7468810081481934,-0.35023975372314453
1701905261535649000,3.42464892578125,3.3151955604553223,-2.371269941329956,-0.8391170501708984
1701905261552639500,3.441639404296875,3.274822235107422,-2.008512020111084,-1.2380504608154297
1701905261569630700,3.458630615234375,3.0451624393463135,-1.811131238937378,-1.5178723335266113
1701905261586622200,3.475622314453125,2.878328323364258,-1.6417174339294434,-1.771131992340088
1701905261603614200,3.4926142578125,2.8037140369415283,-1.5425066947937012,-2.114716053009033
1701905261620604400,3.5096044921875,2.8652219772338867,-1.522303819656372,-2.418301582336426
1701905261637595400,3.526595458984375,2.9833085536956787,-1.699620246887207,-2.3506579399108887
1701905261654588000,3.543587890625,3.53550124168396,-1.6818878650665283,-2.412668228149414
1701905261671567400,3.5605673828125,4.2453203201293945,-1.7674658298492432,-2.6745290756225586
1701905261688566300,3.577566162109375,4.869056224822998,-1.98115873336792,-2.8082351684570312
1701905261705550300,3.59455029296875,5.195298194885254,-2.2326653003692627,-3.0347700119018555
1701905261722543900,3.6115439453125,5.496994495391846,-2.4712936878204346,-3.3998608589172363
1701905261739544000,3.6285439453125,5.651834011077881,-2.8364715576171875,-3.5943541526794434
1701905261756525800,3.64552587890625,5.902050495147705,-3.2905101776123047,-3.5777344703674316
1701905261773516800,3.662516845703125,6.155508041381836,-3.9526638984680176,-3.1959939002990723
1701905261790512000,3.67951220703125,6.3950395584106445,-4.591578006744385,-2.829904079437256
1701905261807504400,3.69650439453125,6.393148422241211,-5.350410461425781,-2.498027801513672
1701905261824491500,3.713491455078125,6.47114372253418,-5.64930534362793,-2.473630905151367
1701905261841485600,3.730485595703125,6.661399841308594,-5.8457722663879395,-2.2121353149414062
1701905261858479600,3.747479736328125,6.377361297607422,-5.92315149307251,-1.7312202453613281
1701905261875465000,3.76446484375,5.861262798309326,-5.993606090545654,-0.9022541046142578
1701905261892456700,3.781456787109375,4.751214027404785,-5.767485618591309,-0.5435733795166016
1701905261909454300,3.798454345703125,3.0041825771331787,-6.146187782287598,-0.6553764343261719
1701905261926450400,3.815450439453125,1.5270946025848389,-6.587616443634033,-0.9437084197998047
1701905261943439600,3.832439697265625,1.0638959407806396,-6.532759189605713,-1.273040771484375
1701905261960427300,3.84942724609375,1.372658610343933,-5.861586570739746,-1.3097600936889648
1701905261977419800,3.866419677734375,1.6681134700775146,-4.858577728271484,-1.1835737228393555
1701905261994415000,3.8834150390625,1.5345368385314941,-4.007726192474365,-1.166616439819336
1701905262011404800,3.90040478515625,1.3186043500900269,-3.6673338413238525,-1.0685186386108398
1701905262028395500,3.9173955078125,1.1189486980438232,-3.878260612487793,-0.9352302551269531
1701905262045376800,3.934376708984375,1.128387689590454,-4.229908466339111,-0.926447868347168
1701905262062379800,3.9513798828125,1.4385653734207153,-4.217776775360107,-1.090346336364746
1701905262079368200,3.9683681640625,1.8333020210266113,-3.6626269817352295,-1.138127326965332
1701905262096363800,3.98536376953125,1.7330844402313232,-2.721134662628174,-0.9185562133789062
1701905262113354800,4.002354736328125,1.1141892671585083,-1.746626615524292,-0.4964895248413086
1701905262130343000,4.019343017578125,0.2915838360786438,-0.658024787902832,-0.18171310424804688
1701905262147342600,4.036342529296875,-0.44151097536087036,0.07350778579711914,0.12840938568115234
1701905262164323800,4.05332373046875,-0.779806911945343,0.6003811359405518,0.43273067474365234
1701905262181317400,4.0703173828125,-0.7330210208892822,0.8929052352905273,0.7623405456542969
1701905262198311000,4.087310791015625,-0.2501954436302185,0.9990482330322266,1.0187568664550781
1701905262215300400,4.10430029296875,0.37829381227493286,0.9926199913024902,1.4288721084594727
1701905262232290600,4.12129052734375,0.7630682587623596,1.034125566482544,1.7960538864135742
1701905262249282800,4.13828271484375,0.6556832194328308,1.2736761569976807,1.963271141052246
1701905262266273500,4.1552734375,0.09791797399520874,1.5426084995269775,2.2455692291259766
1701905262283262000,4.172261962890625,-0.7669575810432434,1.8539388179779053,2.6624155044555664
1701905262300245500,4.18924560546875,-1.3232777118682861,2.1638429164886475,3.269435405731201
1701905262317247700,4.206247802734375,-1.5488039255142212,2.2980473041534424,4.056687831878662
1701905262334234400,4.223234375,-1.5043355226516724,2.1851959228515625,4.6829423904418945
1701905262351234800,4.24023486328125,-1.5446699857711792,1.8909859657287598,5.105930328369141
1701905262368221000,4.257220947265625,-1.6106281280517578,1.9305462837219238,5.357981204986572
1701905262385215700,4.2742158203125,-2.0397281646728516,2.1938118934631348,5.5867815017700195
1701905262402206200,4.291206298828125,-2.4388275146484375,2.3092494010925293,5.8959784507751465
1701905262419195400,4.3081953125,-2.590071678161621,1.9320812225341797,6.380589008331299
1701905262436186000,4.32518603515625,-2.434648275375366,1.1668200492858887,6.889461994171143
1701905262453178000,4.34217822265625,-2.1443357467651367,-0.056731224060058594,7.4698686599731445
1701905262470165000,4.3591650390625,-1.6281471252441406,-0.7306985855102539,7.625799179077148
1701905262487161300,4.376161376953125,-1.1230212450027466,-0.4462909698486328,7.247593402862549
1701905262504142600,4.393142578125,-0.7733936309814453,0.45998620986938477,6.1167378425598145
1701905262521139000,4.410138916015625,-0.3885978162288666,0.7684011459350586,5.098442077636719
1701905262538133500,4.427133544921875,0.26444801688194275,0.2745475769042969,4.450046062469482
1701905262555125800,4.444125732421875,0.929265022277832,-0.8398280143737793,4.147885322570801
1701905262572116500,4.461116455078125,1.4564608335494995,-2.1161789894104004,3.784653663635254
1701905262589108200,4.478108154296875,1.8315547704696655,-2.895134925842285,3.1069793701171875
1701905262606099000,4.495098876953125,2.238586664199829,-2.890533447265625,1.9725666046142578
1701905262623091000,4.512091064453125,2.6157121658325195,-2.4090147018432617,0.8833522796630859
1701905262640087000,4.529087158203125,2.666289806365967,-1.7327775955200195,-0.08620643615722656
1701905262657072600,4.54607275390625,2.5188512802124023,-1.0989928245544434,-0.8593673706054688
1701905262674065000,4.56306494140625,2.2870306968688965,-0.6923084259033203,-1.2955498695373535
1701905262691054600,4.5800546875,2.1505775451660156,-0.5934412479400635,-1.5003304481506348
1701905262708048100,4.597048095703125,2.4329452514648438,-0.7497787475585938,-1.9063329696655273
1701905262725036300,4.614036376953125,3.1576056480407715,-0.8222026824951172,-2.480034351348877
1701905262742032000,4.631031982421875,3.4889304637908936,-0.9875454902648926,-2.9153671264648438
1701905262759017200,4.648017333984375,3.789783239364624,-1.126598596572876,-3.1757450103759766
1701905262776012000,4.665011962890625,4.0637593269348145,-1.2633249759674072,-3.1570286750793457
1701905262793000400,4.68200048828125,4.290948390960693,-1.4952077865600586,-2.769942283630371
1701905262809994800,4.698994873046875,4.595487594604492,-1.7012269496917725,-2.3973474502563477
1701905262826986200,4.715986328125,5.018019676208496,-1.8465628623962402,-2.2500476837158203
1701905262843963400,4.73296337890625,5.653561115264893,-2.0200161933898926,-2.46707820892334
1701905262860953300,4.749953369140625,6.05690860748291,-2.488786220550537,-2.5850133895874023
1701905262877959700,4.766959716796875,6.223711967468262,-3.2256240844726562,-2.5308399200439453
1701905262894951700,4.78395166015625,6.283722877502441,-3.9447057247161865,-2.3969669342041016
1701905262911942100,4.800942138671875,6.311829566955566,-4.59067440032959,-2.033871650695801
1701905262928934000,4.817933837890625,6.265207290649414,-4.942473411560059,-1.8902435302734375
1701905262945924900,4.8349248046875,6.2425127029418945,-5.183080196380615,-1.9749746322631836
1701905262962916600,4.85191650390625,6.192070007324219,-5.283845901489258,-2.133880615234375
1701905262979904500,4.868904541015625,6.031980514526367,-5.5704240798950195,-1.9780011177062988
1701905262996902000,4.88590185546875,5.557517051696777,-6.071839809417725,-1.656156063079834
1701905263013889500,4.9028896484375,4.8528032302856445,-6.954673767089844,-1.2813920974731445
1701905263030881800,4.9198818359375,4.225716590881348,-7.495166778564453,-1.2581791877746582
1701905263047871700,4.936871826171875,3.8028738498687744,-7.203876495361328,-2.1204071044921875
1701905263064865000,4.953864990234375,3.584196090698242,-6.34480619430542,-3.0308055877685547
1701905263081855000,4.97085498046875,3.2723891735076904,-5.361673355102539,-2.928630828857422
1701905263098846700,4.9878466796875,2.805323362350464,-4.4485931396484375,-1.944204330444336
1701905263115835400,5.00483544921875,1.8108916282653809,-3.9881043434143066,-1.115300178527832
1701905263132831700,5.021831787109375,1.0908706188201904,-4.091311454772949,-0.6810426712036133
1701905263149820400,5.0388203125,0.9263586401939392,-4.184803485870361,-0.7154912948608398
1701905263166811100,5.05581103515625,1.3401820659637451,-3.947500705718994,-1.0967741012573242
1701905263183815200,5.072815185546875,1.8820958137512207,-3.1898043155670166,-1.1575288772583008
1701905263200797200,5.089797119140625,1.9130841493606567,-2.157256603240967,-0.9962396621704102
1701905263217785300,5.106785400390625,1.6677970886230469,-1.0383293628692627,-0.7271757125854492
1701905263234774500,5.1237744140625,1.0369582176208496,-0.21555328369140625,-0.4449787139892578
1701905263251770400,5.140770263671875,0.3366391062736511,0.2665672302246094,-0.07664299011230469
1701905263268755700,5.157755615234375,-0.022540807723999023,0.5343437194824219,0.41430091857910156
1701905263285754000,5.174754150390625,-0.12401729822158813,0.7501778602600098,1.1168794631958008
1701905263302739500,5.191739501953125,-0.20720624923706055,1.0186281204223633,1.9554595947265625
1701905263319729000,5.20872900390625,-0.39725667238235474,1.3863487243652344,2.540951728820801
1701905263336728600,5.225728515625,-0.691959023475647,1.8221445083618164,3.026160717010498
1701905263353715700,5.2427158203125,-1.0350394248962402,2.223788261413574,3.4437055587768555
1701905263370704400,5.259704345703125,-1.4993497133255005,2.403916358947754,4.037576675415039
1701905263387698200,5.2766982421875,-1.7971765995025635,2.5106282234191895,4.53340482711792
1701905263404690000,5.29368994140625,-1.8530193567276,2.5013294219970703,5.022115707397461
1701905263421681000,5.310680908203125,-1.7521926164627075,2.3306264877319336,5.488194942474365
1701905263438672600,5.327672607421875,-1.6426684856414795,2.166320323944092,5.894970893859863
1701905263455663000,5.3446630859375,-1.9320939779281616,2.0724964141845703,6.144596099853516
1701905263472644600,5.36164453125,-2.6054301261901855,2.282083511352539,6.0375542640686035
1701905263489645000,5.37864501953125,-3.4330711364746094,2.517719268798828,5.752315044403076
1701905263506638600,5.395638671875,-3.9634552001953125,2.343554973602295,5.67664098739624
1701905263523628500,5.412628662109375,-4.187893390655518,1.8691763877868652,5.761689186096191
1701905263540620300,5.429620361328125,-4.196651935577393,1.5876541137695312,5.55718469619751
1701905263557610200,5.4466103515625,-4.018801689147949,0.7741966247558594,5.7559003829956055
1701905263574602800,5.463602783203125,-3.366300106048584,-0.21408700942993164,6.137338638305664
1701905263591581700,5.480581787109375,-2.369503974914551,-0.6317629814147949,6.031696319580078
1701905263608588000,5.497588134765625,-1.4508929252624512,-0.40547609329223633,5.57427978515625
1701905263625563400,5.5145634765625,-0.6894490122795105,-0.02953624725341797,4.830692768096924
1701905263642559700,5.531559814453125,0.22100085020065308,-0.12752723693847656,4.383658409118652
1701905263659551200,5.54855126953125,1.0508368015289307,-0.9379477500915527,4.357845306396484
1701905263676540400,5.56554052734375,1.6874995231628418,-1.9746952056884766,4.213712692260742
1701905263693533400,5.582533447265625,2.145831346511841,-2.749943733215332,3.7480125427246094
1701905263710526000,5.59952587890625,2.448406934738159,-2.9464964866638184,2.9639930725097656
1701905263727513300,5.616513427734375,2.746913433074951,-2.6744537353515625,2.051854133605957
1701905263744505900,5.633505859375,3.01033353805542,-2.0817465782165527,1.0954132080078125
1701905263761508600,5.650508544921875,3.002927303314209,-1.4817838668823242,0.23870086669921875
1701905263778498300,5.667498291015625,2.7706174850463867,-0.9486346244812012,-0.5111799240112305
1701905263795486500,5.684486572265625,2.615330696105957,-0.5858891010284424,-1.068039894104004
1701905263812480500,5.70148046875,2.618875503540039,-0.4300961494445801,-1.567248821258545
1701905263829471500,5.718471435546875,2.8729615211486816,-0.5215499401092529,-1.9523415565490723
1701905263846452700,5.73545263671875,3.2267327308654785,-0.8066625595092773,-2.275053024291992
1701905263863454000,5.752453857421875,3.6206717491149902,-1.2051451206207275,-2.6459670066833496
1701905263880443000,5.76944287109375,4.006684303283691,-1.6288847923278809,-3.0244312286376953
1701905263897422600,5.786422607421875,4.440296649932861,-1.9918456077575684,-3.286843776702881
1701905263914426000,5.803426025390625,4.7524003982543945,-2.2764763832092285,-3.422971248626709
1701905263931422000,5.820421875,5.0705413818359375,-2.296450138092041,-3.614839553833008
1701905263948422700,5.837422607421875,5.234297275543213,-2.4758267402648926,-3.609029769897461
1701905263965391400,5.854391357421875,5.291616439819336,-2.683553695678711,-3.524272918701172
1701905263982393600,5.8713935546875,5.3631062507629395,-3.253885269165039,-3.1363024711608887
1701905263999384600,5.888384521484375,5.377400875091553,-4.076447486877441,-2.627923011779785
1701905264016376600,5.90537646484375,5.4293107986450195,-4.928322792053223,-2.403135299682617
1701905264033367000,5.922366943359375,5.478821754455566,-5.4707841873168945,-2.4049978256225586
1701905264050358800,5.93935888671875,5.467120170593262,-5.8787736892700195,-2.3548359870910645
1701905264067348700,5.9563486328125,5.4833269119262695,-5.985702991485596,-1.9864859580993652
1701905264084331500,5.97333154296875,5.2151007652282715,-5.96207332611084,-1.363379955291748
1701905264101332200,5.990332275390625,4.590493679046631,-6.270549774169922,-0.6970224380493164
1701905264118324000,6.007323974609375,3.876767158508301,-6.902545928955078,-0.4464445114135742
1701905264135315000,6.02431494140625,3.473940134048462,-7.5292863845825195,-0.6713523864746094
1701905264152306700,6.041306640625,3.8729240894317627,-7.4146575927734375,-1.2064990997314453
1701905264169297400,6.05829736328125,4.699735641479492,-6.576756477355957,-0.7711763381958008
1701905264186289200,6.0752890625,4.823705196380615,-5.367509841918945,-0.09690666198730469
1701905264203276800,6.09227685546875,3.8411216735839844,-4.468623161315918,0.1673583984375
1701905264220271600,6.109271728515625,2.150453805923462,-4.1103034019470215,-0.022443771362304688
1701905264237262600,6.1262626953125,0.7511420249938965,-3.9972028732299805,-0.5098333358764648
1701905264254243800,6.143243896484375,0.23199844360351562,-3.8954529762268066,-0.6914396286010742
1701905264271234600,6.160234619140625,0.48480045795440674,-3.510218620300293,-0.672215461730957
1701905264288237000,6.177237060546875,1.1109209060668945,-2.7523937225341797,-0.812373161315918
1701905264305217800,6.1942177734375,1.3652770519256592,-1.8160700798034668,-0.9820423126220703
1701905264322219500,6.211219482421875,1.2035748958587646,-0.9559736251831055,-0.9758424758911133
1701905264339210200,6.228210205078125,0.9867984056472778,-0.22661852836608887,-0.9000740051269531
1701905264356202000,6.245201904296875,0.6537262201309204,0.16685104370117188,-0.6923084259033203
1701905264373192700,6.262192626953125,0.3977944850921631,0.3846771717071533,-0.3661508560180664
1701905264390180900,6.279180908203125,0.1777721643447876,0.41863036155700684,0.013016700744628906
1701905264407176200,6.29617626953125,0.15330642461776733,0.535081148147583,0.41625213623046875
1701905264424157000,6.313156982421875,0.11279404163360596,0.690516471862793,1.0457172393798828
1701905264441155300,6.3301552734375,0.14933988451957703,1.0746510028839111,1.7129745483398438
1701905264458152700,6.347152587890625,0.035499781370162964,1.413696527481079,2.445187568664551
1701905264475140400,6.364140380859375,-0.2830379009246826,1.691354513168335,3.3811020851135254
1701905264492132400,6.38113232421875,-0.5470061898231506,2.115518093109131,4.361274719238281
1701905264509123000,6.398123046875,-0.8915174007415771,2.5371949672698975,5.414122104644775
1701905264526114800,6.41511474609375,-1.2185289859771729,2.915955066680908,6.28001070022583
1701905264543105800,6.432105712890625,-1.44539213180542,3.2782974243164062,6.753714084625244
1701905264560102400,6.449102294921875,-1.5903786420822144,3.412055492401123,7.038779258728027
1701905264577090000,6.466090087890625,-1.6600868701934814,3.652463674545288,7.165616989135742
1701905264594080800,6.483080810546875,-1.9201414585113525,3.8656694889068604,7.230167865753174
1701905264611072000,6.500072021484375,-2.306082010269165,3.8184289932250977,7.211205005645752
1701905264628062500,6.5170625,-2.4867055416107178,3.7360076904296875,7.064726829528809
1701905264645053400,6.534053466796875,-2.7054221630096436,3.355942487716675,7.038446426391602
1701905264662045400,6.55104541015625,-2.7279820442199707,2.537900924682617,7.492913722991943
1701905264679036000,6.568035888671875,-2.597738027572632,1.8959355354309082,8.029939651489258
1701905264696028000,6.58502783203125,-2.6660947799682617,1.926569938659668,7.9589033126831055
1701905264713015300,6.602015380859375,-2.7987239360809326,2.477694034576416,7.137032508850098
1701905264730007000,6.619007080078125,-2.4840126037597656,2.400667667388916,6.408411502838135
1701905264746995200,6.6359951171875,-1.5251401662826538,1.6280360221862793,6.079750061035156
1701905264763982300,6.652982421875,-0.44026994705200195,0.11892175674438477,6.184287071228027
1701905264780981200,6.669981201171875,0.2665393650531769,-1.337571144104004,6.079629421234131
1701905264797978000,6.68697802734375,0.681159496307373,-2.2341675758361816,5.471860885620117
1701905264814966300,6.70396630859375,0.9535250067710876,-2.429250717163086,4.477336883544922
1701905264831958300,6.720958251953125,1.4210008382797241,-2.241121768951416,3.3897953033447266
1701905264848949000,6.737948974609375,1.7909480333328247,-1.9359965324401855,2.471268653869629
1701905264865940700,6.754940673828125,1.9262138605117798,-1.5795588493347168,1.4409370422363281
1701905264882931500,6.771931396484375,1.7240281105041504,-1.3701887130737305,0.3345527648925781
1701905264899920400,6.78892041015625,1.6533725261688232,-1.2906684875488281,-0.5795717239379883
1701905264916916700,6.805916748046875,1.846207857131958,-1.4464068412780762,-1.2834010124206543
1701905264933906000,6.822906005859375,2.2564215660095215,-1.7764391899108887,-1.8340582847595215
1701905264950894000,6.83989404296875,2.822911024093628,-2.153028964996338,-2.2946815490722656
1701905264967888600,6.856888671875,3.382744789123535,-2.5910141468048096,-2.622107982635498
1701905264984881700,6.873881591796875,3.8316144943237305,-2.8942885398864746,-2.8873443603515625
1701905265001870800,6.890870849609375,4.163275241851807,-3.050166368484497,-3.029090404510498
1701905265018861600,6.907861572265625,4.36708927154541,-3.1662750244140625,-3.088906764984131
1701905265035853600,6.924853515625,4.42060661315918,-3.314365863800049,-3.064910888671875
1701905265052844300,6.94184423828125,4.448144435882568,-3.56776762008667,-2.9526376724243164
1701905265069836300,6.958836181640625,4.466484546661377,-3.8646347522735596,-2.946925640106201
1701905265086826000,6.975825927734375,4.489326000213623,-4.38518762588501,-2.986675262451172
1701905265103816000,6.99281591796875,4.852907180786133,-4.9585089683532715,-3.1287012100219727
1701905265120809200,7.009809326171875,5.301137924194336,-5.554911136627197,-3.1022658348083496
1701905265137801500,7.026801513671875,5.826888561248779,-6.163254737854004,-2.7147178649902344
1701905265154792200,7.043792236328125,6.39145040512085,-6.673892498016357,-1.920766830444336
1701905265171776800,7.06077685546875,6.223211288452148,-6.9286603927612305,-1.4455432891845703
1701905265188766200,7.07776611328125,5.346062660217285,-7.217782974243164,-1.3024439811706543
1701905265205754600,7.094754638671875,4.20310115814209,-7.686668872833252,-1.2801122665405273
1701905265222756400,7.11175634765625,3.214141368865967,-8.312131881713867,-1.4710016250610352
1701905265239748400,7.128748291015625,2.6830945014953613,-8.808391571044922,-1.9549074172973633
1701905265256737300,7.1457373046875,2.8398523330688477,-8.575593948364258,-2.699868679046631
1701905265273721600,7.1627216796875,3.2711496353149414,-7.805610656738281,-2.9170236587524414
1701905265290712000,7.179712158203125,3.0589675903320312,-6.886497974395752,-2.3470206260681152
1701905265307712000,7.1967119140625,2.196063756942749,-6.181907653808594,-1.7124385833740234
1701905265324695300,7.2136953125,1.0595566034317017,-5.827796459197998,-1.3830385208129883
1701905265341689900,7.23068994140625,0.04203760623931885,-5.667752265930176,-1.3895397186279297
1701905265358685000,7.247684814453125,-0.2343968152999878,-5.418211936950684,-1.4596710205078125
1701905265375669800,7.264669677734375,-0.21894657611846924,-4.734574794769287,-1.3369379043579102
1701905265392664600,7.28166455078125,-0.14624786376953125,-3.627203941345215,-1.2106170654296875
1701905265409653200,7.2986533203125,0.0726778507232666,-2.4511373043060303,-0.9714994430541992
1701905265426649000,7.315649169921875,0.4081770181655884,-1.315584659576416,-0.6607608795166016
1701905265443639600,7.3326396484375,0.5749256610870361,-0.5020384788513184,0.06788349151611328
1701905265460649200,7.349649169921875,0.23248589038848877,0.15611743927001953,0.6358470916748047
1701905265477626400,7.36662646484375,-0.57394939661026,0.491119384765625,1.2380552291870117
1701905265494619000,7.383618896484375,-1.0844851732254028,0.7052416801452637,1.645310401916504
1701905265511609900,7.40060986328125,-0.9269932508468628,0.7495369911193848,2.0722455978393555
1701905265528600300,7.417600341796875,-0.24744907021522522,0.8317270278930664,2.846621513366699
1701905265545590000,7.434590087890625,0.82778000831604,1.0878839492797852,3.8533992767333984
1701905265562572300,7.451572265625,1.2515417337417603,1.503972053527832,4.4943413734436035
1701905265579572500,7.468572509765625,0.915103018283844,1.748124122619629,4.7115912437438965
1701905265596565500,7.4855654296875,0.3231312930583954,1.7063074111938477,4.777745246887207
1701905265613556700,7.502556640625,0.16854919493198395,1.364844799041748,5.123144149780273
1701905265630537500,7.519537353515625,0.4638151526451111,1.3703627586364746,5.6502156257629395
1701905265647540000,7.5365400390625,0.6027128100395203,1.733846664428711,6.391833305358887
1701905265664530700,7.55353076171875,0.16686320304870605,2.5446524620056152,6.86527681350708
1701905265681509400,7.57050927734375,-0.987288773059845,3.2068872451782227,7.153717041015625
1701905265698516000,7.587515869140625,-2.2344865798950195,3.473123073577881,7.446303367614746
1701905265715505200,7.604505126953125,-3.227261543273926,3.5357728004455566,7.594081401824951
1701905265732492800,7.621492919921875,-3.6870791912078857,3.4965271949768066,7.800203800201416
1701905265749487600,7.638487548828125,-3.219132900238037,2.9926929473876953,8.491271018981934
1701905265766478600,7.655478515625,-2.386753797531128,2.62418794631958,8.834833145141602
1701905265783470000,7.672469970703125,-1.6713871955871582,2.6581954956054688,8.836273193359375
1701905265800458000,7.6894580078125,-1.1188130378723145,3.085120677947998,8.447513580322266
1701905265817452800,7.706452880859375,-0.7125474810600281,3.2095813751220703,8.057981491088867
1701905265834443500,7.723443603515625,-0.20783182978630066,2.6312313079833984,7.79097318649292
1701905265851435500,7.740435546875,0.23896890878677368,1.296522617340088,7.731110095977783
1701905265868426000,7.757426025390625,0.5676722526550293,-0.041983604431152344,7.570016860961914
1701905265885407500,7.774407470703125,0.7613760828971863,-0.9124469757080078,7.209102153778076
1701905265902408700,7.79140869140625,0.8591576218605042,-1.089231014251709,6.5242838859558105
1701905265919400400,7.808400390625,0.9275445938110352,-0.8743510246276855,5.563589096069336
1701905265936391200,7.82539111328125,1.0112582445144653,-0.6354012489318848,4.566818714141846
1701905265953375700,7.842375732421875,1.2384278774261475,-0.5245809555053711,3.5577688217163086
1701905265970374000,7.859373779296875,1.4717862606048584,-0.6781840324401855,2.7400012016296387
1701905265987365000,7.876365234375,1.8694254159927368,-0.9836010932922363,1.9461030960083008
1701905266004354600,7.8933544921875,2.250016212463379,-1.4339003562927246,1.246312141418457
1701905266021351000,7.910350830078125,2.7537569999694824,-1.9414677619934082,0.5698165893554688
1701905266038336300,7.927336181640625,3.358475685119629,-2.5003252029418945,-0.0028142929077148438
1701905266055333600,7.944333740234375,3.9523582458496094,-3.0216689109802246,-0.5414094924926758
1701905266072304000,7.96130419921875,4.411797523498535,-3.5321085453033447,-1.1118998527526855
1701905266089309000,7.978308837890625,4.851205348968506,-3.991668701171875,-1.6529431343078613
1701905266106304300,7.99530419921875,5.131707191467285,-4.374495506286621,-2.151012420654297
1701905266123293000,8.01229296875,5.33430290222168,-4.722995281219482,-2.476247787475586
1701905266140286700,8.02928662109375,5.525491237640381,-5.104503631591797,-2.7115306854248047
1701905266157278700,8.04627880859375,5.659680366516113,-5.491715908050537,-2.786005973815918
1701905266174252500,8.06325244140625,5.673209190368652,-5.837951183319092,-2.9534616470336914
1701905266191254000,8.08025390625,5.672698974609375,-6.13995885848999,-3.1725215911865234
1701905266208254000,8.09725390625,5.671031951904297,-6.365321159362793,-3.2816452980041504
1701905266225233200,8.114233154296874,5.590715408325195,-6.72294282913208,-3.3455581665039062
1701905266242235000,8.13123486328125,5.695104598999023,-6.836438179016113,-3.4694533348083496
1701905266259223800,8.148223876953125,5.67979621887207,-6.773282527923584,-3.5832667350769043
1701905266276219600,8.1652197265625,5.346855163574219,-6.805540084838867,-3.3870716094970703
1701905266293208800,8.182208740234374,4.854172706604004,-7.18137264251709,-2.7781925201416016
1701905266310195500,8.199195556640625,4.02678108215332,-7.766830921173096,-2.4950146675109863
1701905266327192000,8.216192138671875,3.2016804218292236,-8.193429946899414,-2.8528995513916016
1701905266344172000,8.233172119140624,2.703442096710205,-7.8842010498046875,-3.476929187774658
1701905266361171700,8.250171630859375,2.378157377243042,-6.9360551834106445,-3.5811710357666016
1701905266378167600,8.26716748046875,1.8123807907104492,-5.869488716125488,-3.1175312995910645
1701905266395156700,8.28415673828125,0.8402125835418701,-5.068994998931885,-2.260660171508789
1701905266412132400,8.30113232421875,-0.09522223472595215,-4.7749786376953125,-1.4652442932128906
1701905266429128400,8.31812841796875,-0.5709412097930908,-4.932612895965576,-0.9291048049926758
1701905266446130000,8.3351298828125,-0.2915928363800049,-5.2292304039001465,-0.729863166809082
1701905266463111200,8.352111083984376,0.6458311080932617,-5.221831321716309,-1.019841194152832
1701905266480112600,8.369112548828125,1.5069926977157593,-4.737649440765381,-1.3775758743286133
1701905266497103600,8.386103515625,1.7678258419036865,-3.8842592239379883,-1.496330738067627
1701905266514098200,8.40309814453125,1.7682565450668335,-2.8152618408203125,-1.1687345504760742
1701905266531084500,8.42008447265625,1.5344517230987549,-1.6972289085388184,-0.6332874298095703
1701905266548077800,8.437077880859375,1.1533364057540894,-0.8696703910827637,-0.1826152801513672
1701905266565069600,8.454069580078125,0.8623260855674744,-0.4275031089782715,0.21985816955566406
1701905266582060300,8.471060302734376,0.8108636140823364,-0.37493228912353516,0.9154977798461914
1701905266599054800,8.488054931640624,0.7231582403182983,-0.44397592544555664,1.630366325378418
1701905266616040400,8.50504052734375,0.5290123224258423,-0.37819576263427734,2.1881985664367676
1701905266633034200,8.5220341796875,0.329376757144928,-0.1858234405517578,2.9865851402282715
1701905266650022100,8.539022216796875,0.13622692227363586,0.23475885391235352,3.951732635498047
1701905266667023600,8.556023681640625,-0.20963874459266663,0.6643691062927246,5.19342565536499
1701905266684010000,8.573010009765625,-0.6969285011291504,1.0118322372436523,6.694192409515381
1701905266700997600,8.58999755859375,-1.44302499294281,1.461047649383545,8.086329460144043
1701905266717992400,8.606992431640625,-2.229321241378784,1.9516773223876953,8.991022109985352
1701905266734982100,8.623982177734375,-2.907288074493408,2.4452743530273438,9.700033187866211
1701905266751973400,8.640973388671876,-3.154595136642456,2.9977002143859863,10.44005012512207
1701905266768960800,8.657960693359374,-3.3972244262695312,3.852415084838867,10.956649780273438
1701905266785972000,8.674971923828124,-3.9379520416259766,4.835969924926758,10.942119598388672
1701905266802947600,8.691947509765624,-4.618893623352051,5.3502702713012695,10.48808479309082
1701905266819935500,8.708935546875,-4.974020957946777,5.042818546295166,9.760839462280273
1701905266836932600,8.7259326171875,-4.712501525878906,4.15263032913208,9.15949821472168
1701905266853920800,8.742920654296874,-3.840310573577881,3.209841251373291,8.782905578613281
1701905266870913000,8.7599130859375,-2.860053539276123,2.057584762573242,8.905438423156738
1701905266887902700,8.77690283203125,-1.869231939315796,1.5078587532043457,8.943929672241211
1701905266904894200,8.793894287109374,-1.3095715045928955,1.648747444152832,8.559389114379883
1701905266921877200,8.810877197265626,-1.061938762664795,2.1915531158447266,7.770854949951172
1701905266938878000,8.8278779296875,-0.6554145216941833,2.222860813140869,7.286064624786377
1701905266955868700,8.84486865234375,0.1501581072807312,1.5691094398498535,7.1912760734558105
1701905266972860400,8.8618603515625,1.1635346412658691,0.21939420700073242,7.406216144561768
1701905266989851100,8.87885107421875,2.1418421268463135,-1.2330069541931152,7.392819881439209
1701905267006842400,8.89584228515625,3.0069029331207275,-2.226269245147705,6.9507832527160645
1701905267023824400,8.912824462890624,3.8805041313171387,-2.4500350952148438,6.068745136260986
1701905267040827400,8.929827392578124,4.598947525024414,-2.1133627891540527,4.84050989151001
1701905267057814800,8.946814697265625,5.074985504150391,-1.6809520721435547,3.6690683364868164
1701905267074808300,8.963808349609375,5.30142068862915,-1.4193024635314941,2.640878677368164
1701905267091786800,8.980786865234375,5.30364990234375,-1.3548564910888672,1.6387996673583984
1701905267108782800,8.997782958984375,5.250151634216309,-1.3638639450073242,0.6121082305908203
1701905267125768700,9.014768798828126,5.003372669219971,-1.4961261749267578,-0.2237110137939453
1701905267142765800,9.031765869140624,4.74711275100708,-1.6976423263549805,-0.9786386489868164
1701905267159755300,9.04875537109375,4.518538475036621,-1.9388489723205566,-1.6904568672180176
1701905267176748800,9.065748779296875,4.494906902313232,-2.242825984954834,-2.2930383682250977
1701905267193739500,9.082739501953125,4.949355602264404,-2.4469892978668213,-2.720244884490967
1701905267210731300,9.099731201171876,5.583039283752441,-2.543180465698242,-2.8417229652404785
1701905267227719700,9.1167197265625,6.070340156555176,-2.7512125968933105,-2.626598358154297
1701905267244711200,9.133711181640624,6.287458896636963,-2.9220032691955566,-2.5104141235351562
1701905267261703000,9.150702880859376,6.42432975769043,-3.1598856449127197,-2.467533588409424
1701905267278695700,9.16769580078125,6.5627522468566895,-3.417090892791748,-2.5598788261413574
1701905267295694600,9.184694580078125,6.84507942199707,-3.7879350185394287,-2.567775249481201
1701905267312686600,9.2016865234375,6.961766242980957,-4.263469696044922,-2.510382652282715
1701905267329676300,9.21867626953125,6.847321510314941,-4.863303184509277,-2.5795254707336426
1701905267346669800,9.235669921875,6.52761173248291,-5.572712421417236,-2.620060920715332
1701905267363659500,9.252659423828124,6.314727783203125,-6.0785417556762695,-2.766169548034668
1701905267380651800,9.26965185546875,6.210226058959961,-6.194231033325195,-2.716714382171631
1701905267397641500,9.286641357421875,5.955002784729004,-5.8761444091796875,-2.716158390045166
1701905267414634800,9.303634765625,5.106123924255371,-5.982594966888428,-2.6564440727233887
1701905267431621400,9.320621337890625,3.8879756927490234,-6.114536285400391,-2.9752116203308105
1701905267448619800,9.337619873046876,2.831685781478882,-6.092804908752441,-3.5235085487365723
1701905267465607400,9.354607421875,2.277111768722534,-5.608261585235596,-3.8627238273620605
1701905267482599000,9.371598876953126,1.7492042779922485,-5.058034420013428,-3.4192848205566406
1701905267499587000,9.388587158203125,0.8858746290206909,-4.523487091064453,-2.4545440673828125
1701905267516584200,9.405584228515625,-0.17852258682250977,-4.278163909912109,-1.386383056640625
1701905267533569300,9.4225693359375,-1.0751559734344482,-4.1144208908081055,-0.7061958312988281
1701905267550564400,9.439564453125,-1.456606149673462,-4.182404518127441,-0.35815906524658203
1701905267567553300,9.45655322265625,-1.1013020277023315,-4.021376609802246,-0.31703758239746094
1701905267584548600,9.473548583984375,-0.4534238576889038,-3.422083854675293,-0.40608978271484375
1701905267601537500,9.49053759765625,-0.09773194789886475,-2.450256586074829,-0.627690315246582
1701905267618529500,9.507529541015625,-0.19021528959274292,-1.4385435581207275,-0.5757675170898438
1701905267635520300,9.524520263671874,-0.5437413454055786,-0.41605567932128906,-0.32773494720458984
1701905267652509200,9.54150927734375,-0.9718925952911377,0.33414554595947266,-0.12253189086914062
1701905267669503000,9.5585029296875,-1.114003300666809,0.7603235244750977,0.1792764663696289
1701905267686495000,9.575494873046875,-0.8407179117202759,0.8125815391540527,0.7234859466552734
1701905267703492600,9.59249267578125,-0.6940597295761108,0.7351670265197754,1.582982063293457
1701905267720474000,9.60947412109375,-0.9466856122016907,0.8128275871276855,2.386322498321533
1701905267737460700,9.626460693359375,-1.6301249265670776,1.1559486389160156,3.0656652450561523
1701905267754446300,9.6434462890625,-2.526366949081421,1.5921483039855957,3.853416919708252
1701905267771450600,9.66045068359375,-3.1809117794036865,2.010786533355713,4.915414333343506
1701905267788442400,9.6774423828125,-3.575043201446533,2.4134840965270996,6.053269863128662
1701905267805422600,9.694422607421876,-3.834209442138672,2.620185375213623,7.285101413726807
1701905267822425000,9.711425048828126,-4.046230316162109,2.9717745780944824,7.962300777435303
1701905267839415800,9.728415771484375,-4.171920299530029,3.2826623916625977,8.30330753326416
1701905267856407600,9.745407470703125,-4.069998741149902,3.507387161254883,8.535223007202148
1701905267873398300,9.762398193359376,-3.7818965911865234,3.713500499725342,8.701213836669922
1701905267890382300,9.77938232421875,-3.5924222469329834,4.020634651184082,8.300439834594727
1701905267907380200,9.796380126953125,-3.4650421142578125,3.9454808235168457,7.699833869934082
1701905267924373500,9.81337353515625,-3.086575508117676,3.2019643783569336,7.420600891113281
1701905267941359900,9.83035986328125,-2.328594446182251,2.247037410736084,7.3015265464782715
1701905267958358800,9.84735888671875,-1.3862159252166748,1.1152105331420898,7.581636905670166
1701905267975346200,9.86434619140625,-0.4539574682712555,0.3517603874206543,7.695599555969238
1701905267992337700,9.881337646484376,0.24149388074874878,0.08290815353393555,7.528614521026611
1701905268009328600,9.89832861328125,0.7042849063873291,0.3826265335083008,6.973023891448975
1701905268026320600,9.915320556640625,0.9928978085517883,0.974973201751709,6.077038764953613
1701905268043308000,9.93230810546875,1.1825439929962158,1.1021080017089844,5.292690753936768
1701905268060302800,9.949302734375,1.547437310218811,0.7134914398193359,4.729814529418945
1701905268077293800,9.9662939453125,2.0503106117248535,-0.1814565658569336,4.327834129333496
1701905268094285800,9.983285888671874,2.6220295429229736,-1.0018224716186523,3.959562301635742
1701905268111276500,10.000276611328125,2.9059927463531494,-1.3310108184814453,3.2331418991088867
1701905268128265500,10.017265380859374,2.8898158073425293,-1.146799087524414,2.053877830505371
1701905268145270500,10.0342705078125,2.9344868659973145,-0.683527946472168,0.7711901664733887
1701905268162250500,10.05125048828125,3.068511724472046,-0.19467878341674805,-0.3076963424682617
1701905268179249400,10.06824951171875,3.225015640258789,0.05893421173095703,-1.1603236198425293
1701905268196233500,10.0852333984375,3.4459939002990723,0.2060394287109375,-1.7798652648925781
1701905268213221600,10.1022216796875,3.570094108581543,0.1672968864440918,-2.1075286865234375
1701905268230214700,10.119214599609375,3.5768237113952637,0.028172969818115234,-2.317409038543701
1701905268247207400,10.13620751953125,3.4593710899353027,-0.36526918411254883,-2.1796274185180664
1701905268264188200,10.153188232421876,3.287632942199707,-0.7827572822570801,-1.8187837600708008
1701905268281186600,10.1701865234375,3.026834487915039,-1.0938963890075684,-1.5104703903198242
1701905268298183400,10.187183349609375,2.8800690174102783,-1.295166015625,-1.28084135055542
1701905268315171800,10.204171875,2.9557809829711914,-1.4580693244934082,-1.1718173027038574
1701905268332163800,10.221163818359376,3.381284236907959,-1.6623382568359375,-1.0625982284545898
1701905268349154600,10.238154541015625,3.991755485534668,-1.9993810653686523,-0.8535523414611816
1701905268366146300,10.255146240234374,4.53235387802124,-2.4993929862976074,-0.6738696098327637
1701905268383133200,10.27213330078125,4.953085422515869,-3.1121463775634766,-0.49491405487060547
1701905268400132400,10.28913232421875,5.204023838043213,-3.58503794670105,-0.5578193664550781
1701905268417119000,10.306118896484374,5.066826343536377,-4.0515594482421875,-1.0003910064697266
1701905268434112300,10.3231123046875,4.922268867492676,-4.35629940032959,-1.5580344200134277
1701905268451102200,10.340102294921875,5.010610580444336,-4.433538436889648,-2.0799036026000977
1701905268468094200,10.35709423828125,5.0094895362854,-4.4313249588012695,-2.208878993988037
1701905268485085000,10.3740849609375,4.67405891418457,-4.615353584289551,-1.9774327278137207
1701905268502076400,10.391076416015625,4.18599271774292,-4.667327404022217,-2.027756690979004
1701905268519067100,10.408067138671875,3.4517102241516113,-5.04437780380249,-2.29971981048584
1701905268536059100,10.42505908203125,2.7992117404937744,-5.693144798278809,-2.5905089378356934
1701905268553046500,10.442046630859375,2.3273425102233887,-6.029812812805176,-3.121042251586914
1701905268570031900,10.459031982421875,2.261098623275757,-5.633754730224609,-3.6377205848693848
1701905268587032600,10.476032470703124,2.296112537384033,-4.8688812255859375,-3.6972265243530273
1701905268604010200,10.49301025390625,2.1716055870056152,-4.0553998947143555,-3.3869194984436035
1701905268621016300,10.510016357421875,1.5689951181411743,-3.84755277633667,-2.704042434692383
1701905268638005800,10.527005859375,1.0250933170318604,-3.9052677154541016,-2.1741113662719727
1701905268654985200,10.543985107421875,0.7257258892059326,-4.105269908905029,-1.8723564147949219
1701905268671979300,10.560979248046875,0.8367632627487183,-3.9837963581085205,-1.739285945892334
1701905268688970200,10.57797021484375,1.0524158477783203,-3.4378018379211426,-1.607168197631836
1701905268705961500,10.59496142578125,1.2216193675994873,-2.447967290878296,-1.1375179290771484
1701905268722955500,10.61195556640625,0.5519771575927734,-1.299208402633667,-0.5605010986328125
1701905268739945500,10.628945556640625,-0.7047428488731384,-0.2512083053588867,-0.2427511215209961
1701905268756940500,10.6459404296875,-1.9724960327148438,0.5818195343017578,-0.19967174530029297
1701905268773930000,10.662929931640624,-2.459834337234497,1.0457022190093994,0.0676889419555664
1701905268790917600,10.679917724609375,-2.097489356994629,1.1252212524414062,0.8016414642333984
1701905268807911700,10.69691162109375,-1.22953462600708,1.1157536506652832,1.7086176872253418
1701905268824901000,10.713901123046876,-0.6315692663192749,1.1965980529785156,2.7097067832946777
1701905268841891300,10.730891357421875,-0.9457512497901917,1.5183768272399902,3.686936378479004
1701905268858896000,10.747895751953125,-2.280211925506592,2.025364875793457,4.147877216339111
1701905268875885300,10.76488525390625,-3.5585014820098877,2.483393669128418,4.5941081047058105
1701905268892875500,10.78187548828125,-4.059420108795166,2.8988828659057617,5.346823215484619
1701905268909867300,10.7988671875,-4.02972412109375,3.037766456604004,6.403780460357666
1701905268926857700,10.815857666015624,-3.7393627166748047,3.1874003410339355,7.056516647338867
1701905268943840300,10.83284033203125,-3.4562149047851562,3.119894504547119,7.520757675170898
1701905268960841000,10.849841064453125,-3.3505306243896484,3.010385513305664,8.067255020141602
1701905268977831000,10.866830810546874,-3.4150538444519043,3.150449275970459,8.45272445678711
1701905268994825000,10.883824951171874,-3.7875945568084717,3.455601692199707,8.385826110839844
1701905269011811600,10.9008115234375,-4.243558406829834,3.5359606742858887,8.336402893066406
1701905269028806100,10.91780615234375,-4.593573570251465,3.1815357208251953,8.175500869750977
1701905269045795600,10.934795654296876,-4.553831100463867,2.6934151649475098,7.560218334197998
1701905269062787800,10.951787841796875,-4.164176940917969,1.9431147575378418,7.027676105499268
1701905269079779600,10.968779541015625,-3.4018096923828125,0.8191003799438477,6.989547252655029
1701905269096772400,10.9857724609375,-2.444368362426758,-0.27620553970336914,7.304620265960693
1701905269113763000,11.00276318359375,-1.6547495126724243,-0.6939101219177246,7.3450140953063965
1701905269130750500,11.01975048828125,-1.381277084350586,-0.231170654296875,6.709397315979004
1701905269147726600,11.0367265625,-1.2736083269119263,0.44043970108032227,5.875012397766113
1701905269164736500,11.053736572265626,-1.004357933998108,0.2672085762023926,5.464153289794922
1701905269181728000,11.07072802734375,-0.5090463757514954,-0.7475199699401855,5.439549446105957
1701905269198719000,11.087718994140625,0.03166830539703369,-2.240661144256592,5.569611549377441
1701905269215710700,11.104710693359374,0.4517819881439209,-3.2694778442382812,4.883820533752441
1701905269232701700,11.12170166015625,0.9044180512428284,-3.56028413772583,3.546422004699707
1701905269249692700,11.138692626953125,1.3496586084365845,-3.2922658920288086,2.034379005432129
1701905269266685000,11.155684814453124,1.815544843673706,-2.919121742248535,0.6804513931274414
1701905269283676200,11.17267626953125,2.229837417602539,-2.5106911659240723,-0.47266101837158203
1701905269300666600,11.18966650390625,2.419895887374878,-2.408285617828369,-1.3930888175964355
1701905269317657900,11.206657958984374,2.457153797149658,-2.3666768074035645,-2.2721734046936035
1701905269334649900,11.22364990234375,2.5278563499450684,-2.331876277923584,-3.143923759460449
1701905269351641000,11.24064111328125,2.6272425651550293,-2.2794365882873535,-3.838162899017334
1701905269368631800,11.2576318359375,2.699403762817383,-2.1657967567443848,-4.312105178833008
1701905269385613300,11.27461328125,2.672337532043457,-2.1078994274139404,-4.606498718261719
1701905269402614300,11.2916142578125,2.7088613510131836,-2.0862584114074707,-4.687379360198975
1701905269419603700,11.308603759765624,2.8409504890441895,-2.195040702819824,-4.6642985343933105
1701905269436599600,11.325599609375,3.07724666595459,-2.3230700492858887,-4.755612850189209
1701905269453585700,11.342585693359375,3.245558261871338,-2.5312891006469727,-4.873742580413818
1701905269470579500,11.359579345703125,3.4806089401245117,-2.7787795066833496,-5.01214599609375
1701905269487571500,11.376571533203125,3.692596435546875,-3.077207088470459,-5.024364471435547
1701905269504562200,11.393562255859376,3.9116389751434326,-3.2485218048095703,-5.063975811004639
1701905269521554200,11.41055419921875,4.063020706176758,-3.4925522804260254,-5.043457508087158
1701905269538545000,11.427544921875,4.015971660614014,-3.8178632259368896,-4.864343166351318
1701905269555526000,11.44452587890625,3.924776554107666,-4.187221050262451,-4.604463577270508
1701905269572524000,11.46152392578125,3.750089645385742,-4.714870452880859,-4.135313510894775
1701905269589519000,11.47851904296875,3.6596789360046387,-5.145074844360352,-3.9032793045043945
1701905269606509800,11.495509765625,3.6285064220428467,-5.5829620361328125,-3.607731342315674
1701905269623501800,11.512501708984376,3.559957504272461,-5.772018909454346,-3.146726608276367
1701905269640479500,11.5294794921875,2.998974323272705,-5.715274810791016,-2.6581859588623047
1701905269657487000,11.546487060546875,2.1437063217163086,-5.697397232055664,-2.3248791694641113
1701905269674476500,11.5634765625,1.4823715686798096,-6.076437473297119,-1.7405900955200195
1701905269691467000,11.580467041015625,1.5582047700881958,-6.177219390869141,-0.9962129592895508
1701905269708457500,11.59745751953125,1.911970853805542,-5.674578666687012,-0.13859176635742188
1701905269725439000,11.61443896484375,1.8570648431777954,-4.987791061401367,0.7999448776245117
1701905269742440400,11.6314404296875,1.3060497045516968,-4.035590171813965,1.8484859466552734
1701905269759432200,11.64843212890625,0.2902183532714844,-3.0424020290374756,2.6034202575683594
1701905269776423200,11.665423095703124,-0.7101244330406189,-2.4608492851257324,3.399972915649414
1701905269793414700,11.68241455078125,-0.8116666078567505,-2.1270527839660645,4.213334083557129
1701905269810405000,11.699405029296875,-0.18785357475280762,-1.9803128242492676,4.742720603942871
1701905269827396600,11.716396728515624,0.6074615120887756,-1.4995384216308594,4.865588188171387
1701905269844378400,11.73337841796875,1.0425951480865479,-0.4023470878601074,4.525381088256836
1701905269861379600,11.750379638671875,1.055120825767517,1.0311250686645508,3.9069995880126953
1701905269878370600,11.76737060546875,0.7279345989227295,2.45882248878479,3.306600570678711
1701905269895360000,11.784360107421875,0.12255960702896118,3.5267138481140137,2.9378304481506348
1701905269912355600,11.80135546875,-0.5179700255393982,4.070481300354004,2.8765206336975098
1701905269929345000,11.818344970703125,-1.0632333755493164,4.246437072753906,2.9367499351501465
1701905269946335700,11.835335693359376,-1.2833763360977173,4.305265426635742,2.9640655517578125
1701905269963324200,11.85232421875,-1.4351009130477905,4.281853675842285,2.8126220703125
1701905269980318200,11.869318115234375,-1.51619291305542,4.20433235168457,2.756610870361328
1701905269997313500,11.8863134765625,-1.507885456085205,4.240983486175537,2.6229844093322754
1701905270014297600,11.903297607421875,-1.554161787033081,4.180635929107666,2.580245018005371
1701905270031293000,11.92029296875,-1.5879004001617432,4.034057140350342,2.8482303619384766
1701905270048283600,11.93728369140625,-1.5919506549835205,3.9785847663879395,3.377610206604004
1701905270065275600,11.954275634765626,-1.6744831800460815,3.756221294403076,4.312071800231934
1701905270082265900,11.971265869140625,-1.8825039863586426,3.668771982192993,5.003457546234131
1701905270099254500,11.988254638671876,-2.105577230453491,3.3485870361328125,5.830285549163818
1701905270116248300,12.005248291015626,-2.5095880031585693,3.199751377105713,6.787443161010742
1701905270133230000,12.02222998046875,-3.3957784175872803,3.2734217643737793,7.484011173248291
1701905270150227200,12.039227294921876,-4.412813186645508,3.4193530082702637,7.997019290924072
1701905270167223800,12.056223876953124,-5.098374843597412,3.155703067779541,8.240360260009766
1701905270184203300,12.073203369140625,-5.330387115478516,2.5908522605895996,7.9659037590026855
1701905270201203000,12.090202880859374,-5.142762184143066,1.5138230323791504,7.810035228729248
1701905270218199000,12.107198974609375,-4.91911506652832,0.22976922988891602,7.908551216125488
1701905270235188000,12.12418798828125,-4.549530982971191,-0.9286031723022461,7.9152655601501465
1701905270252179000,12.141178955078125,-3.952934503555298,-1.4422173500061035,7.72684383392334
1701905270269170200,12.158170166015625,-3.68642520904541,-1.0598363876342773,6.998803615570068
1701905270286162200,12.175162109375,-3.1854259967803955,-0.5681705474853516,6.0916314125061035
1701905270303153200,12.192153076171875,-2.2087552547454834,-0.6695466041564941,5.3474507331848145
1701905270320134000,12.2091337890625,-0.9014301300048828,-1.5229368209838867,4.8144001960754395
1701905270337135000,12.226135009765626,0.30458247661590576,-2.98516845703125,4.504134178161621
1701905270354130000,12.2431298828125,1.0260884761810303,-3.997237205505371,3.7804508209228516
1701905270371110400,12.2601103515625,1.2181198596954346,-4.07263708114624,2.449993133544922
1701905270388109000,12.277109130859374,1.1658090353012085,-3.533888339996338,0.9486789703369141
1701905270405101000,12.29410107421875,0.8021039962768555,-2.8226819038391113,-0.4073038101196289
1701905270422089700,12.31108984375,0.5674389600753784,-2.1579089164733887,-1.4829788208007812
1701905270439085600,12.32808544921875,0.7262295484542847,-1.6856718063354492,-2.126255989074707
1701905270456074200,12.34507421875,1.1653101444244385,-1.4863126277923584,-2.606177806854248
1701905270473063000,12.36206298828125,1.6973927021026611,-1.4279868602752686,-3.162881851196289
1701905270490055400,12.379055419921874,2.196139335632324,-1.4190514087677002,-3.7534894943237305
1701905270507048700,12.396048583984374,2.6187448501586914,-1.52266263961792,-4.165937900543213
1701905270524028700,12.413028564453125,2.893693447113037,-1.738074541091919,-4.357765197753906
1701905270541030100,12.430030029296875,3.144497871398926,-1.9836560487747192,-4.436909198760986
1701905270558013000,12.447012939453124,3.342576026916504,-2.246206045150757,-4.531026363372803
1701905270575014100,12.46401416015625,3.6452999114990234,-2.3512330055236816,-4.716140270233154
1701905270591992000,12.480991943359374,3.756401538848877,-2.3955492973327637,-4.788763523101807
1701905270608986400,12.497986328125,3.8731324672698975,-2.3118629455566406,-4.928316593170166
1701905270625973200,12.51497314453125,3.978285312652588,-2.2348480224609375,-4.936151027679443
1701905270642976000,12.53197607421875,4.093480110168457,-2.2721667289733887,-4.752872467041016
1701905270659964200,12.548964111328125,4.197724342346191,-2.4145750999450684,-4.431134223937988
1701905270676955600,12.56595556640625,4.301322937011719,-2.7329084873199463,-4.0015387535095215
1701905270693947400,12.582947509765624,4.302277565002441,-3.297478675842285,-3.344562530517578
1701905270710935300,12.599935302734375,4.291221618652344,-3.8771562576293945,-2.943782329559326
1701905270727925200,12.61692529296875,4.127817630767822,-4.499216079711914,-2.3307881355285645
1701905270744918000,12.63391796875,3.7219576835632324,-4.8789544105529785,-1.373487949371338
1701905270761905700,12.65090576171875,2.6572530269622803,-4.800324440002441,-0.7805261611938477
1701905270778905300,12.6679052734375,1.370069146156311,-4.711104393005371,-0.8328857421875
1701905270795901700,12.684901611328126,0.6456018686294556,-5.23381233215332,-0.5482110977172852
1701905270812892200,12.70189208984375,0.877605676651001,-6.113309860229492,0.29331493377685547
1701905270829883000,12.7188828125,1.7281711101531982,-6.469855308532715,0.6862869262695312
1701905270846874000,12.7358740234375,2.834853172302246,-5.830217361450195,0.4876976013183594
1701905270863876400,12.75287646484375,3.2093515396118164,-4.538912773132324,0.21025562286376953
1701905270880846600,12.7698466796875,2.837108612060547,-3.7244338989257812,0.5796222686767578
1701905270897848000,12.78684814453125,2.1458446979522705,-3.131016969680786,1.2247648239135742
1701905270914839800,12.80383984375,1.4141929149627686,-2.760521650314331,1.617685317993164
1701905270931823000,12.820822998046875,0.7910606861114502,-2.4969840049743652,1.5379762649536133
1701905270948824800,12.837824951171875,0.032089341431856155,-2.0020551681518555,1.3085041046142578
1701905270965811200,12.854811279296875,-1.0172505378723145,-1.109375,1.0773887634277344
1701905270982803500,12.871803466796875,-2.1027560234069824,0.16637134552001953,1.0796079635620117
1701905270999787500,12.88878759765625,-3.2610936164855957,1.625068187713623,1.1509599685668945
1701905271016785200,12.90578515625,-4.12391996383667,2.6408979892730713,1.4171357154846191
1701905271033778400,12.9227783203125,-4.234157562255859,3.136106491088867,1.6114082336425781
1701905271050766800,12.939766845703126,-3.638557195663452,3.0163826942443848,1.8753352165222168
1701905271067761000,12.956760986328124,-2.530015468597412,2.7089314460754395,2.0053858757019043
1701905271084752600,12.973752685546875,-1.5477614402770996,2.3640828132629395,2.212254047393799
1701905271101743600,12.99074365234375,-0.7713883519172668,2.322394847869873,2.4946560859680176
1701905271118735400,13.0077353515625,-0.2723115086555481,2.5083508491516113,3.102118492126465
1701905271135708400,13.02470849609375,-0.041966259479522705,2.8671631813049316,3.903815269470215
1701905271152717800,13.0417177734375,-0.2745134234428406,3.2066469192504883,4.821209907531738
1701905271169707300,13.058707275390624,-0.7167458534240723,3.431497097015381,5.725155353546143
1701905271186704100,13.0757041015625,-0.9056792259216309,3.6577792167663574,6.387476444244385
1701905271203688700,13.092688720703125,-0.7810765504837036,3.74613094329834,7.112396717071533
1701905271220672300,13.10967236328125,-0.8929969072341919,3.9681506156921387,7.749824047088623
1701905271237673000,13.1266728515625,-1.4721424579620361,4.432873725891113,8.010623931884766
1701905271254666200,13.143666259765626,-2.228896379470825,4.5425944328308105,8.403848648071289
1701905271271656200,13.16065625,-2.8350586891174316,4.119720458984375,8.918159484863281
1701905271288648200,13.177648193359374,-3.0039398670196533,3.4235119819641113,9.314249038696289
1701905271305639000,13.194638916015625,-3.022459030151367,2.572862148284912,9.455849647521973
1701905271322631200,13.211631103515625,-2.787562370300293,1.5546245574951172,9.498666763305664
1701905271339623000,13.228622802734375,-2.1608428955078125,1.0500445365905762,9.240899085998535
1701905271356609500,13.245609619140625,-1.5506973266601562,1.0771026611328125,8.747401237487793
1701905271373601000,13.26260107421875,-1.209404468536377,1.299074649810791,8.06942367553711
1701905271390598700,13.2795986328125,-0.8620615601539612,1.2240424156188965,7.3280792236328125
1701905271407586800,13.2965869140625,-0.2655192017555237,0.39025402069091797,6.951865196228027
1701905271424578300,13.313578369140625,0.4632503390312195,-0.8318953514099121,6.578016757965088
1701905271441569300,13.3305693359375,1.1758962869644165,-2.033707618713379,6.039904594421387
1701905271458561000,13.34756103515625,1.66651451587677,-2.602436065673828,5.197265625
1701905271475551500,13.364551513671875,1.9483041763305664,-2.4796524047851562,3.80440616607666
1701905271492540400,13.38154052734375,2.023207187652588,-2.0435328483581543,2.340445041656494
1701905271509534500,13.398534423828124,2.0358457565307617,-1.597447395324707,1.072606086730957
1701905271526526200,13.415526123046876,1.9971232414245605,-1.2898163795471191,0.020391464233398438
1701905271543517000,13.432516845703125,1.8426175117492676,-1.1693801879882812,-0.7482194900512695
1701905271560499000,13.4494990234375,1.6768336296081543,-1.1573667526245117,-1.4265556335449219
1701905271577499600,13.466499755859376,1.7761365175247192,-1.1984057426452637,-1.9632234573364258
1701905271594491400,13.483491455078125,1.9915950298309326,-1.3238961696624756,-2.495192050933838
1701905271611482000,13.500482177734375,2.1179490089416504,-1.5215559005737305,-3.0924763679504395
1701905271628473900,13.517473876953124,2.470062494277954,-1.7811429500579834,-3.51408052444458
1701905271645454000,13.5344541015625,3.032489776611328,-2.081287384033203,-3.6854634284973145
1701905271662456600,13.55145654296875,3.444044589996338,-2.2530736923217773,-4.033837795257568
1701905271679447300,13.568447265625,3.5989067554473877,-2.2947568893432617,-4.5319085121154785
1701905271696439600,13.585439453125,3.716419219970703,-2.3254716396331787,-5.004793167114258
1701905271713430000,13.602429931640625,3.8098530769348145,-2.482912302017212,-5.101084232330322
1701905271730421800,13.619421875,3.8921756744384766,-2.757307291030884,-4.913234233856201
1701905271747411700,13.63641162109375,4.079418659210205,-3.1272292137145996,-4.530393600463867
1701905271764405000,13.653405029296875,4.195287704467773,-3.4787044525146484,-4.139737606048584
1701905271781384400,13.670384521484374,4.245055675506592,-3.745053291320801,-3.8407793045043945
1701905271798387000,13.687386962890624,4.385413646697998,-4.218428134918213,-3.366720676422119
1701905271815375400,13.704375244140625,4.824313163757324,-4.759640693664551,-2.5967397689819336
1701905271832372200,13.721372314453125,5.305855751037598,-4.757164001464844,-2.1565141677856445
1701905271849358800,13.73835888671875,5.043496608734131,-4.793637752532959,-1.59263277053833
1701905271866353400,13.755353515625,4.250068664550781,-5.027083396911621,-1.2338714599609375
1701905271883338200,13.772338134765626,3.2687153816223145,-5.481784820556641,-1.1754684448242188
1701905271900334800,13.7893349609375,2.6044583320617676,-5.944070816040039,-1.2556343078613281
1701905271917325600,13.80632568359375,2.2732527256011963,-6.164274215698242,-1.0887184143066406
1701905271934317000,13.823317138671875,2.1960175037384033,-5.605283737182617,-1.0950422286987305
1701905271951308000,13.84030810546875,1.9447126388549805,-4.470351219177246,-1.036179542541504
1701905271968299800,13.8572998046875,1.1705243587493896,-3.476827621459961,-0.7100801467895508
1701905271985275600,13.874275634765626,0.1548277735710144,-2.915327787399292,-0.30332374572753906
1701905272002280000,13.891280029296874,-0.2839787006378174,-2.7124743461608887,0.2606973648071289
1701905272019271700,13.908271728515626,-0.2589763402938843,-2.634136915206909,0.7702932357788086
1701905272036268800,13.925268798828125,-0.07156771421432495,-2.5098788738250732,0.9474000930786133
1701905272053242400,13.942242431640626,0.30126094818115234,-2.0294737815856934,0.5697965621948242
1701905272070246100,13.95924609375,0.6382014751434326,-1.1602859497070312,-0.03525543212890625
1701905272087239200,13.9762392578125,0.6978204846382141,-0.31731748580932617,-0.2519035339355469
1701905272104234000,13.99323388671875,0.9263885021209717,0.5516676902770996,0.04181194305419922
1701905272121218300,14.01021826171875,0.9677773714065552,1.2138023376464844,0.5528297424316406
1701905272138215400,14.02721533203125,0.6954584121704102,1.53224515914917,1.0394749641418457
1701905272155200300,14.0442001953125,0.22154855728149414,1.6455135345458984,1.2402253150939941
1701905272172186000,14.06118603515625,-0.14817160367965698,1.57981538772583,1.4908204078674316
1701905272189181000,14.078180908203125,-0.03153112530708313,1.5557985305786133,1.8842530250549316
1701905272206169300,14.09516943359375,0.43772515654563904,1.688066005706787,2.530026435852051
1701905272223161600,14.11216162109375,0.8024903535842896,2.0755481719970703,3.4491591453552246
1701905272240154400,14.129154296875,0.49976396560668945,2.5534610748291016,4.27087926864624
1701905272257153000,14.146153076171874,-0.25786906480789185,2.940420627593994,5.137037754058838
1701905272274140000,14.163139892578124,-0.9255801439285278,3.3718390464782715,5.827695369720459
1701905272291129300,14.18012939453125,-1.254863977432251,3.537980079650879,6.514980792999268
1701905272308116700,14.19711669921875,-1.0034661293029785,3.548234462738037,7.327216148376465
1701905272325105000,14.21410498046875,-0.6820117235183716,3.5960869789123535,8.222624778747559
1701905272342105900,14.23110595703125,-0.6376404762268066,4.185093402862549,8.753029823303223
1701905272359089200,14.248089111328126,-1.2965999841690063,4.526520252227783,9.288774490356445
1701905272376087300,14.26508740234375,-2.095426082611084,4.559850692749023,9.898414611816406
1701905272393079300,14.282079345703124,-2.7452821731567383,4.21165132522583,10.237669944763184
1701905272410071300,14.2990712890625,-2.8848562240600586,3.4165616035461426,10.360969543457031
1701905272427064000,14.31606396484375,-2.505563735961914,2.343466281890869,10.621854782104492
1701905272444054500,14.333054443359375,-1.8813374042510986,1.8045248985290527,10.614372253417969
1701905272461045500,14.35004541015625,-1.5459930896759033,2.107015609741211,9.913318634033203
1701905272478040000,14.3670400390625,-1.3523433208465576,2.5771751403808594,8.844568252563477
1701905272495029200,14.384029296875,-0.9301816821098328,2.3638577461242676,8.011900901794434
1701905272512021000,14.40102099609375,-0.17578041553497314,1.4101624488830566,7.5378804206848145
1701905272529009400,14.418009521484375,0.6726516485214233,0.023476600646972656,7.281373500823975
1701905272546006300,14.43500634765625,1.3367393016815186,-1.0766382217407227,6.849152565002441
1701905272562994200,14.451994140625,1.679222822189331,-1.5055208206176758,5.9552507400512695
1701905272579988000,14.468988037109375,1.8447643518447876,-1.3898100852966309,4.765333652496338
1701905272596977700,14.485977783203126,1.878282904624939,-0.9922351837158203,3.4417123794555664
1701905272613969000,14.502968994140625,1.7826074361801147,-0.692779541015625,2.275218963623047
1701905272630958300,14.519958251953126,1.6048120260238647,-0.506411075592041,1.192357063293457
1701905272647951600,14.53695166015625,1.541604995727539,-0.4158797264099121,0.3636636734008789
1701905272664942600,14.553942626953125,1.7094032764434814,-0.5642266273498535,-0.28870582580566406
1701905272681933800,14.570933837890625,1.9954750537872314,-0.8320498466491699,-0.8553028106689453
1701905272698924500,14.587924560546876,2.379415512084961,-1.1606950759887695,-1.3744959831237793
1701905272715916300,14.604916259765625,2.6703851222991943,-1.4667577743530273,-1.857520580291748
1701905272732901000,14.621901123046875,3.019688129425049,-1.755340576171875,-2.3211255073547363
1701905272749899000,14.63889892578125,3.339449882507324,-2.003842353820801,-2.7613778114318848
1701905272766878500,14.65587841796875,3.733351469039917,-2.0871775150299072,-3.188361167907715
1701905272783878400,14.67287841796875,4.0941362380981445,-2.088097333908081,-3.4441356658935547
1701905272800872200,14.6898720703125,4.4625959396362305,-2.1543242931365967,-3.4586668014526367
1701905272817864200,14.7068642578125,4.786222457885742,-2.3230953216552734,-3.375107765197754
1701905272834855200,14.723855224609375,5.111479759216309,-2.659355878829956,-3.209951877593994
1701905272851847000,14.740846923828125,5.398154258728027,-3.2532005310058594,-3.0222182273864746
1701905272868836000,14.757836181640625,5.607662200927734,-3.8384552001953125,-3.1077232360839844
1701905272885830400,14.774830322265625,5.893712997436523,-4.366993427276611,-3.2301340103149414
1701905272902810000,14.79181005859375,6.354343414306641,-4.864996433258057,-2.919952392578125
1701905272919809800,14.808809814453125,6.75277853012085,-5.165755271911621,-2.6640853881835938
1701905272936801800,14.8258017578125,6.552647590637207,-5.3721089363098145,-2.3900279998779297
1701905272953797000,14.842797119140625,5.51116943359375,-5.534944534301758,-2.250027656555176
1701905272970782200,14.8597822265625,4.215425491333008,-5.799842357635498,-2.2306432723999023
1701905272987777300,14.87677734375,3.079815626144409,-5.964651107788086,-2.434894561767578
1701905273004768000,14.89376806640625,2.8024275302886963,-5.8749918937683105,-2.6817355155944824
1701905273021759700,14.910759765625,3.1018316745758057,-5.555793285369873,-2.652496814727783
1701905273038750200,14.927750244140626,3.4223520755767822,-4.902077674865723,-2.0616164207458496
1701905273055742700,14.94474267578125,3.2003257274627686,-4.227198600769043,-0.9280529022216797
1701905273072732200,14.961732177734374,1.8647109270095825,-3.845928907394409,-0.39010143280029297
1701905273089713000,14.978712890625,0.2622652053833008,-3.6805739402770996,-0.5847930908203125
1701905273106717000,14.995717041015626,-0.7462055683135986,-3.653217315673828,-0.8738918304443359
1701905273123707400,15.012707275390625,-0.5586833953857422,-3.5549747943878174,-0.8479499816894531
1701905273140711000,15.0297109375,0.3198171854019165,-3.1334540843963623,-0.8677396774291992
1701905273157688600,15.0466884765625,1.3443241119384766,-2.395498275756836,-0.8636045455932617
1701905273174682400,15.063682373046875,1.7855846881866455,-1.4954099655151367,-0.4838438034057617
1701905273191672600,15.080672607421874,1.4195544719696045,-0.5597395896911621,-0.1701793670654297
1701905273208663300,15.097663330078126,0.4557746946811676,0.08242177963256836,-0.005452156066894531
1701905273225655300,15.1146552734375,-0.4528178870677948,0.546755313873291,0.2000713348388672
1701905273242645800,15.131645751953124,-0.9622360467910767,0.6778969764709473,0.6719999313354492
1701905273259637800,15.1486376953125,-0.8538669943809509,0.6395516395568848,1.2674331665039062
1701905273276628500,15.16562841796875,-0.6647959351539612,0.6243362426757812,1.9882941246032715
1701905273293617200,15.1826171875,-0.8262829184532166,0.8095479011535645,2.5168018341064453
1701905273310611000,15.19961083984375,-1.2983944416046143,1.2012701034545898,3.088313579559326
1701905273327602700,15.216602783203125,-1.8566195964813232,1.6635146141052246,3.760240077972412
1701905273344593700,15.23359375,-2.3687005043029785,2.220397472381592,4.4587836265563965
1701905273361585700,15.250585693359374,-2.694949150085449,2.6145334243774414,5.347412586212158
1701905273378576400,15.267576416015626,-2.7081716060638428,2.7841625213623047,6.368800640106201
1701905273395568400,15.284568359375,-2.605344772338867,2.822518825531006,7.434757709503174
1701905273412555800,15.3015556640625,-2.637651205062866,2.8679046630859375,8.255303382873535
1701905273429550800,15.31855078125,-3.0523130893707275,3.1470718383789062,8.8970947265625
1701905273446531000,15.335531005859375,-3.8785533905029297,3.6360011100769043,9.487919807434082
1701905273463533300,15.352533203125,-4.7634758949279785,4.089104652404785,9.963347434997559
1701905273480520700,15.369520751953125,-5.086359977722168,3.9881162643432617,10.312803268432617
1701905273497515800,15.386515869140625,-4.826982021331787,3.533367156982422,10.273709297180176
1701905273514506500,15.403506591796875,-4.187705993652344,2.4825925827026367,10.302694320678711
1701905273531498500,15.42049853515625,-3.3553996086120605,1.6430330276489258,10.271913528442383
1701905273548475600,15.4374755859375,-2.684983491897583,1.4324188232421875,9.909884452819824
1701905273565470500,15.454470458984375,-2.3561010360717773,2.0417189598083496,8.853515625
1701905273582471700,15.4714716796875,-1.9697513580322266,2.4871110916137695,7.675617218017578
1701905273599463400,15.48846337890625,-1.2037121057510376,2.2158193588256836,6.937899589538574
1701905273616453400,15.505453369140625,-0.16426324844360352,1.1428232192993164,6.759896278381348
1701905273633446100,15.522446044921875,0.8341047763824463,-0.26871252059936523,6.688446044921875
1701905273650436900,15.539436767578126,1.4204338788986206,-1.3222451210021973,6.336495399475098
1701905273667428400,15.556428466796875,1.6644185781478882,-1.7385015487670898,5.524820804595947
1701905273684423700,15.573423583984376,1.851920485496521,-1.617917537689209,4.418539047241211
1701905273701411000,15.5904111328125,1.9762424230575562,-1.329892635345459,3.3684167861938477
1701905273718402300,15.60740234375,1.9464603662490845,-1.0585532188415527,2.308321952819824
1701905273735393800,15.624393798828125,1.8126072883605957,-0.8399868011474609,1.3351001739501953
1701905273752380400,15.64138037109375,1.5759254693984985,-0.6786866188049316,0.39922237396240234
1701905273769380400,15.65838037109375,1.4081215858459473,-0.6170940399169922,-0.4552783966064453
1701905273786357000,15.67535693359375,1.5495667457580566,-0.7481322288513184,-1.1218152046203613
1701905273803356000,15.69235595703125,1.9492027759552002,-1.0471582412719727,-1.7033944129943848
1701905273820350000,15.709349853515626,2.442558526992798,-1.3916442394256592,-2.3390393257141113
1701905273837341400,15.726341552734375,2.837285280227661,-1.7968461513519287,-2.922938823699951
1701905273854332200,15.743332275390625,3.2264411449432373,-2.082218647003174,-3.5799202919006348
1701905273871324000,15.760323974609374,3.570814371109009,-2.213780403137207,-4.1538262367248535
1701905273888315000,15.77731494140625,3.8159422874450684,-2.248783588409424,-4.5390305519104
1701905273905320200,15.7943203125,3.9825172424316406,-2.3151533603668213,-4.691452503204346
1701905273922297600,15.811297607421874,4.106288433074951,-2.4464666843414307,-4.700504779815674
1701905273939289300,15.828289306640626,4.2498779296875,-2.6799285411834717,-4.670331954956055
1701905273956280300,15.8452802734375,4.508746147155762,-3.0725812911987305,-4.421549320220947
1701905273973271800,15.862271728515625,4.603687286376953,-3.6328487396240234,-4.171852111816406
1701905273990258400,15.879258544921875,4.729132652282715,-4.094668388366699,-3.8727917671203613
1701905274007245000,15.8962451171875,4.922941207885742,-4.549716472625732,-3.4281067848205566
1701905274024245200,15.913245361328125,5.219457626342773,-4.767712593078613,-3.3158249855041504
1701905274041234400,15.930234375,5.421395301818848,-4.9887614250183105,-3.083761692047119
1701905274058230000,15.94722998046875,5.093125343322754,-5.006661415100098,-2.6241703033447266
1701905274075219700,15.9642197265625,4.078386306762695,-4.837775707244873,-2.3755908012390137
1701905274092210400,15.98121044921875,2.3343753814697266,-4.977423667907715,-2.332341194152832
1701905274109190000,15.99818994140625,0.3780522346496582,-5.719607830047607,-2.331453323364258
1701905274126182100,16.01518212890625,-0.9499808549880981,-6.544600486755371,-2.905325412750244
1701905274143174000,16.032173828125,-0.6638001203536987,-6.785590171813965,-3.5513978004455566
1701905274160164900,16.049164794921875,0.8839766979217529,-6.218494415283203,-3.1769790649414062
1701905274177161200,16.0661611328125,1.9893215894699097,-4.886428356170654,-1.721975326538086
1701905274194150400,16.083150390625,1.5143654346466064,-3.628157377243042,0.01659107208251953
1701905274211143200,16.10014306640625,0.4268108010292053,-2.9838881492614746,1.4423389434814453
1701905274228131600,16.117131591796873,-0.6559442281723022,-2.7550454139709473,2.149571418762207
1701905274245123800,16.134123779296875,-1.0478999614715576,-2.7950150966644287,2.460662841796875
1701905274262114000,16.151114013671876,-0.8882388472557068,-2.5719194412231445,2.2739992141723633
1701905274279107600,16.168107666015626,-0.3180525600910187,-1.7766623497009277,1.8265142440795898
1701905274296095700,16.185095703125,0.1099313497543335,-0.5843496322631836,1.7123546600341797
1701905274313097000,16.202096923828126,0.024186909198760986,0.6579465866088867,1.8565540313720703
1701905274330088400,16.21908837890625,-0.3308022618293762,1.7496047019958496,2.282172203063965
1701905274347081700,16.236081787109374,-0.5763397216796875,2.4209249019622803,2.8514575958251953
1701905274364049700,16.253049560546874,-0.6463276147842407,2.770773410797119,3.3131184577941895
1701905274381067300,16.2700673828125,-0.563737154006958,2.9378976821899414,3.4133810997009277
1701905274398051800,16.2870517578125,-0.3907763957977295,2.9209141731262207,3.1282758712768555
1701905274415045400,16.30404541015625,-0.01515178382396698,2.9127397537231445,3.1549582481384277
1701905274432033500,16.321033447265624,0.25211381912231445,3.0955259799957275,3.5260133743286133
1701905274449031000,16.338031005859374,0.44390279054641724,3.4742348194122314,4.141395092010498
1701905274466018600,16.3550185546875,0.3621023893356323,3.9374847412109375,4.726937294006348
1701905274483010300,16.37201025390625,0.1251472681760788,4.3310394287109375,5.258053779602051
1701905274499998200,16.388998291015625,-0.023361623287200928,4.777629852294922,5.763599872589111
1701905274516977200,16.40597705078125,-0.13084891438484192,5.071582794189453,6.293508052825928
1701905274533983700,16.422983642578124,0.02311033010482788,5.385834693908691,6.957450866699219
1701905274550976000,16.43997607421875,-0.10284475237131119,5.646612167358398,7.81726598739624
1701905274567965700,16.456965576171875,-0.5909166932106018,5.849438667297363,8.502190589904785
1701905274584959000,16.473958984375,-1.3288516998291016,5.428398609161377,9.340862274169922
1701905274601949000,16.490948974609374,-1.931611180305481,4.827159881591797,9.778453826904297
1701905274618940700,16.507940673828124,-2.0919063091278076,3.719061851501465,10.449134826660156
1701905274635931400,16.524931396484376,-1.7937833070755005,2.8359217643737793,10.886754989624023
1701905274652913000,16.541912841796876,-1.3550446033477783,2.5547609329223633,10.91514778137207
1701905274669914400,16.558914306640624,-0.9951345324516296,2.7739148139953613,10.51562786102295
1701905274686905300,16.5759052734375,-0.7603651881217957,3.0261192321777344,9.558103561401367
1701905274703897600,16.592897705078126,-0.46860790252685547,2.8178348541259766,8.489433288574219
1701905274720888600,16.609888671875,-0.03999292850494385,2.044567108154297,7.536160469055176
1701905274737880000,16.626880126953125,0.6574467420578003,0.9016008377075195,6.806473731994629
1701905274754870300,16.643870361328126,1.3682841062545776,-0.30788278579711914,6.074635028839111
1701905274771861800,16.66086181640625,1.7928985357284546,-1.2434663772583008,5.16816520690918
1701905274788853800,16.677853759765625,1.9049792289733887,-1.4629969596862793,3.9927868843078613
1701905274805844500,16.694844482421875,1.7687323093414307,-1.2627058029174805,2.787637233734131
1701905274822833200,16.711833251953124,1.5889497995376587,-0.9198870658874512,1.5438289642333984
1701905274839829200,16.728829345703126,1.4620081186294556,-0.6663131713867188,0.4417381286621094
1701905274856816600,16.745816650390626,1.3499629497528076,-0.5619611740112305,-0.4474296569824219
1701905274873809400,16.762809326171876,1.4538626670837402,-0.6125264167785645,-1.1155705451965332
1701905274890793500,16.77979345703125,1.593997597694397,-0.8780012130737305,-1.491440773010254
1701905274907797000,16.796796875,1.9777100086212158,-1.2217555046081543,-1.7256712913513184
1701905274924784000,16.8137841796875,2.4608263969421387,-1.6026604175567627,-1.888383388519287
1701905274941774800,16.83077490234375,2.8713808059692383,-1.8604986667633057,-2.2250094413757324
1701905274958766600,16.8477666015625,3.1245498657226562,-2.0163018703460693,-2.620715618133545
1701905274975756500,16.864756591796876,3.450282573699951,-2.1108474731445312,-2.943235397338867
1701905274992749800,16.881749755859374,3.847492218017578,-2.1562252044677734,-3.2509193420410156
1701905275009739000,16.898739013671875,4.2941389083862305,-2.2763278484344482,-3.3450794219970703
1701905275026732300,16.915732177734377,4.821112632751465,-2.491365909576416,-3.2161850929260254
1701905275043718000,16.9327177734375,5.319632530212402,-2.8178012371063232,-2.9606542587280273
1701905275060720400,16.949720458984373,5.786445617675781,-3.2754416465759277,-2.7074432373046875
1701905275077700900,16.966700927734376,5.809274196624756,-3.744109869003296,-2.661177158355713
1701905275094689000,16.98368896484375,5.733501434326172,-4.068631172180176,-2.751458168029785
1701905275111687700,17.000687744140624,5.694976806640625,-4.42771053314209,-2.678403377532959
1701905275128679700,17.0176796875,5.7166266441345215,-5.083514213562012,-2.2949795722961426
1701905275145670400,17.03467041015625,5.603415012359619,-5.421307563781738,-1.6807904243469238
1701905275162662000,17.051661865234376,4.871501922607422,-5.738075256347656,-1.2401494979858398
1701905275179652900,17.06865283203125,3.6099023818969727,-6.092615127563477,-1.2854280471801758
1701905275196644600,17.08564453125,2.512007236480713,-6.176445484161377,-2.0571823120117188
1701905275213632300,17.10263232421875,1.9413986206054688,-6.066987991333008,-3.027796745300293
1701905275230627300,17.11962744140625,1.9209365844726562,-5.351885795593262,-3.431429862976074
1701905275247617800,17.13661767578125,1.474100947380066,-4.554864406585693,-2.7857308387756348
1701905275264609800,17.15360986328125,0.18045127391815186,-4.031569480895996,-1.6343460083007812
1701905275281597700,17.17059765625,-1.1792962551116943,-3.936985492706299,-0.606297492980957
1701905275298584000,17.187583984375,-1.7529996633529663,-4.065854072570801,-0.044506072998046875
1701905275315583200,17.204583251953125,-1.4520803689956665,-4.028558731079102,0.01091766357421875
1701905275332572000,17.221572021484373,-0.6799136996269226,-3.5988070964813232,-0.3571748733520508
1701905275349565700,17.238565673828123,0.22711274027824402,-2.703139066696167,-0.8076410293579102
1701905275366546700,17.255546630859374,0.5745861530303955,-1.6690177917480469,-0.8936777114868164
1701905275383548400,17.27254833984375,0.5615313053131104,-0.5797061920166016,-0.6584320068359375
1701905275400536800,17.289536865234375,0.25048381090164185,0.2904348373413086,-0.30716514587402344
1701905275417530600,17.306530517578125,-0.3040435314178467,0.8037638664245605,0.09969711303710938
1701905275434522600,17.323522705078126,-0.8250899910926819,1.030590534210205,0.46489715576171875
1701905275451513600,17.340513671875,-1.1222723722457886,1.0979747772216797,0.8693370819091797
1701905275468505300,17.35750537109375,-1.2733885049819946,1.140181541442871,1.2519493103027344
1701905275485505800,17.374505859375,-1.078615427017212,1.2652697563171387,1.7943458557128906
1701905275502487600,17.391487548828124,-0.6677014827728271,1.5757217407226562,2.647862434387207
1701905275519478800,17.408478759765625,-0.42909249663352966,2.0925498008728027,3.432948589324951
1701905275536470300,17.42547021484375,-0.44066718220710754,2.5577096939086914,4.377453804016113
1701905275553461000,17.4424609375,-0.5814488530158997,3.033632755279541,5.52822208404541
1701905275570453000,17.459452880859374,-0.7348979711532593,3.5285696983337402,6.857789993286133
1701905275587443000,17.47644287109375,-0.9044216871261597,3.902888298034668,8.535905838012695
1701905275604436200,17.493436279296876,-1.0409188270568848,4.293346405029297,9.93106460571289
1701905275621426200,17.51042626953125,-1.2862598896026611,4.781688213348389,10.803476333618164
1701905275638405000,17.527405029296876,-1.6914944648742676,5.3219451904296875,11.193418502807617
1701905275655404800,17.54440478515625,-2.258315086364746,5.204702377319336,11.499927520751953
1701905275672397300,17.561397216796873,-2.8597395420074463,4.682076454162598,11.336249351501465
1701905275689385000,17.578385009765626,-2.816009998321533,3.7902631759643555,10.994146347045898
1701905275706374400,17.59537451171875,-2.43546724319458,2.7197928428649902,10.912443161010742
1701905275723369200,17.612369140625,-2.010477066040039,2.3557138442993164,10.664640426635742
1701905275740362200,17.6293623046875,-1.7730441093444824,2.5929579734802246,10.2435884475708
1701905275757349000,17.64634912109375,-1.845411777496338,3.0009355545043945,9.23440170288086
1701905275774342700,17.6633427734375,-1.61122727394104,2.9766159057617188,8.098005294799805
1701905275791335400,17.68033544921875,-0.9246706962585449,2.3792881965637207,7.2719268798828125
1701905275808317400,17.6973173828125,-0.05761861801147461,1.2711329460144043,6.762192249298096
1701905275825317600,17.714317626953125,0.7151258587837219,-0.003973960876464844,6.373902320861816
1701905275842304300,17.73130419921875,1.279502034187317,-0.9921412467956543,5.730207920074463
1701905275859299800,17.7482998046875,1.6336092948913574,-1.4545612335205078,4.744111061096191
1701905275876290600,17.76529052734375,1.810223937034607,-1.5376873016357422,3.5921144485473633
1701905275893292300,17.782292236328125,1.996035099029541,-1.35188627243042,2.331766128540039
1701905275910274600,17.799274658203124,2.0086545944213867,-1.1026692390441895,1.0827827453613281
1701905275927270400,17.8162705078125,1.862095832824707,-0.807405948638916,-0.0261993408203125
1701905275944264000,17.833263916015625,1.6517423391342163,-0.6402735710144043,-0.7898287773132324
1701905275961246500,17.85024658203125,1.4842000007629395,-0.6662921905517578,-1.2988624572753906
1701905275978256400,17.86725634765625,1.5855600833892822,-0.8732881546020508,-1.6562438011169434
1701905275995234600,17.884234619140624,1.7912001609802246,-1.1481473445892334,-2.010523796081543
1701905276012226300,17.901226318359374,1.8900606632232666,-1.4599177837371826,-2.5035877227783203
1701905276029217000,17.918217041015627,2.1986420154571533,-1.6441259384155273,-3.108968734741211
1701905276046209000,17.935208984375,2.5742342472076416,-1.8066504001617432,-3.55141544342041
1701905276063199500,17.952199462890626,2.9617881774902344,-1.92460036277771,-3.8366966247558594
1701905276080191000,17.96919091796875,3.3353018760681152,-2.0281615257263184,-3.9600744247436523
1701905276097182200,17.98618212890625,3.6842408180236816,-2.1024880409240723,-4.007562160491943
1701905276114174700,18.0031748046875,4.005345344543457,-2.1828603744506836,-4.070411682128906
1701905276131164700,18.02016455078125,4.392708778381348,-2.488783597946167,-3.9676012992858887
1701905276148156700,18.03715673828125,4.855896472930908,-3.0197887420654297,-3.706568717956543
1701905276165147400,18.0541474609375,5.13897705078125,-3.7638583183288574,-3.1864280700683594
1701905276182139100,18.07113916015625,5.434347629547119,-4.364487648010254,-2.82208251953125
1701905276199129900,18.0881298828125,5.727608680725098,-4.887945175170898,-2.5449776649475098
1701905276216121900,18.105121826171874,6.039539813995361,-5.1319780349731445,-2.552220344543457
1701905276233109200,18.122109130859375,6.399333477020264,-5.1634321212768555,-2.1238179206848145
1701905276250104300,18.139104248046873,6.089203834533691,-5.005667686462402,-1.821174144744873
1701905276267095300,18.15609521484375,5.001319885253906,-5.140588283538818,-1.623365879058838
1701905276284076800,18.173076904296874,3.8369078636169434,-5.489353656768799,-1.2819032669067383
1701905276301075700,18.19007568359375,2.3350014686584473,-5.848367691040039,-1.4789624214172363
1701905276318071000,18.207071044921875,1.1052989959716797,-5.774398326873779,-2.303926944732666
1701905276335060000,18.22406005859375,0.8142174482345581,-5.054479598999023,-2.972118377685547
1701905276352052200,18.24105224609375,1.032080888748169,-4.112533092498779,-2.5133376121520996
1701905276369043000,18.25804296875,1.1705540418624878,-3.373863458633423,-1.4398956298828125
1701905276386034700,18.27503466796875,0.9832935333251953,-3.036726236343384,-0.37418460845947266
1701905276403025400,18.292025390625,0.5258527994155884,-3.0160372257232666,0.26267337799072266
1701905276420013600,18.309013671875,0.18245574831962585,-3.086475133895874,0.4714469909667969
1701905276437008600,18.326008544921876,0.027618974447250366,-2.9580674171447754,0.40863800048828125
1701905276453999900,18.342999755859374,0.316066175699234,-2.372652530670166,0.344146728515625
1701905276470985000,18.35998486328125,0.5972745418548584,-1.585813045501709,1.012160301208496
1701905276487981600,18.376981689453125,0.48064088821411133,-0.5486240386962891,1.8157835006713867
1701905276504973800,18.393973876953126,-0.2833985984325409,0.4832329750061035,2.5442328453063965
1701905276521965000,18.410965087890624,-1.2176387310028076,1.318727970123291,3.2359986305236816
1701905276538955500,18.42795556640625,-2.0541205406188965,1.9183101654052734,3.8501858711242676
1701905276555947300,18.444947265625,-2.6654980182647705,2.2337918281555176,4.401203632354736
1701905276572927700,18.461927734375,-2.6472907066345215,2.485189914703369,4.9859113693237305
1701905276589930200,18.47893017578125,-2.4045042991638184,2.717316150665283,5.457101345062256
1701905276606920200,18.495920166015626,-2.1182456016540527,3.0109267234802246,5.682880401611328
1701905276623913200,18.512913330078124,-1.9199954271316528,3.3441357612609863,6.088392734527588
1701905276640903400,18.5299033203125,-2.0098605155944824,3.7991766929626465,6.475852012634277
1701905276657891000,18.54689111328125,-2.35379695892334,4.16860294342041,6.95502233505249
1701905276674890000,18.563889892578125,-2.5488481521606445,4.544569969177246,7.2554097175598145
1701905276691877600,18.580877685546874,-2.6663475036621094,4.548089981079102,7.620203018188477
1701905276708868400,18.597868408203126,-2.702059268951416,4.435146331787109,7.845890998840332
1701905276725849900,18.614849853515626,-2.790269613265991,4.159434795379639,7.998165130615234
1701905276742848000,18.631847900390625,-3.013960361480713,3.973947048187256,8.17912483215332
1701905276759839200,18.648839111328126,-3.3474884033203125,4.013960361480713,8.369732856750488
1701905276776837400,18.66583740234375,-3.7441821098327637,3.9611611366271973,8.503113746643066
1701905276793825300,18.6828251953125,-4.0633931159973145,3.647761821746826,8.45018482208252
1701905276810813200,18.699813232421874,-3.8661279678344727,3.040431022644043,8.502809524536133
1701905276827808000,18.71680810546875,-3.285386323928833,1.8927216529846191,8.902716636657715
1701905276844802600,18.733802490234375,-2.3407411575317383,0.75299072265625,9.315364837646484
1701905276861790500,18.75079052734375,-1.254636526107788,0.18099594116210938,9.380586624145508
1701905276878781400,18.767781494140625,-0.5405433177947998,0.32625484466552734,8.834192276000977
1701905276895772400,18.7847724609375,-0.10507059097290039,1.1293296813964844,7.615087509155273
1701905276912765000,18.801764892578124,0.06046342849731445,1.5306510925292969,6.651678562164307
1701905276929755100,18.818755126953125,0.13684463500976562,1.0976238250732422,6.194461345672607
1701905276946747600,18.83574755859375,0.33382177352905273,0.03725290298461914,5.998129367828369
1701905276963738000,18.852738037109376,0.5189183950424194,-1.1404623985290527,5.507811069488525
1701905276980728800,18.869728759765625,0.8103531002998352,-1.9292707443237305,4.551454544067383
1701905276997719800,18.8867197265625,1.2363471984863281,-2.0119237899780273,3.2716927528381348
1701905277014712600,18.903712646484376,1.5475108623504639,-1.7280454635620117,2.0417356491088867
1701905277031703600,18.92070361328125,1.704115390777588,-1.1789922714233398,0.9299225807189941
1701905277048694300,18.9376943359375,1.6415750980377197,-0.6232943534851074,-0.06010723114013672
1701905277065686300,18.954686279296876,1.6261322498321533,-0.21968698501586914,-0.7215557098388672
1701905277082676700,18.9716767578125,1.6942503452301025,-0.021689414978027344,-1.083937168121338
1701905277099651800,18.98865185546875,1.632971167564392,-0.2079010009765625,-1.1452207565307617
1701905277116659500,19.005659423828124,1.7754415273666382,-0.46547460556030273,-1.247053623199463
1701905277133648100,19.022648193359377,2.030332326889038,-0.6863851547241211,-1.4818549156188965
1701905277150642200,19.03964208984375,2.3955070972442627,-0.8767457008361816,-1.7514595985412598
1701905277167633700,19.056633544921876,2.8387348651885986,-0.9907879829406738,-1.9987831115722656
1701905277184624600,19.073624755859374,3.4847354888916016,-1.1831183433532715,-2.2315282821655273
1701905277201616600,19.09061669921875,4.455269813537598,-1.3690614700317383,-2.476658344268799
1701905277218606800,19.10760693359375,5.535553455352783,-1.5861272811889648,-2.6022019386291504
1701905277235599000,19.12459912109375,6.462745666503906,-1.8934543132781982,-2.4795117378234863
1701905277252586500,19.14158642578125,7.055375099182129,-2.1400482654571533,-2.485583782196045
1701905277269581600,19.15858154296875,7.170154571533203,-2.5763235092163086,-2.5677342414855957
1701905277286572300,19.175572265625,7.096384048461914,-3.050570487976074,-2.6618995666503906
1701905277303564000,19.19256396484375,6.996644020080566,-3.676706552505493,-2.651160717010498
1701905277320562200,19.209562255859375,6.952757358551025,-4.46392297744751,-2.5046987533569336
1701905277337549000,19.226549072265627,7.171565055847168,-4.914567470550537,-2.583681583404541
1701905277354537200,19.243537109375,7.252215385437012,-5.095882415771484,-2.5077319145202637
1701905277371529000,19.260529052734373,7.057342052459717,-5.157377243041992,-1.9244794845581055
1701905277388520200,19.277520263671875,5.823825359344482,-5.424668312072754,-1.4477438926696777
1701905277405507600,19.294507568359375,3.990779399871826,-5.710730075836182,-1.8700041770935059
1701905277422502400,19.31150244140625,2.0865509510040283,-5.626080513000488,-3.0418806076049805
1701905277439490800,19.32849072265625,0.6165506839752197,-5.093576908111572,-4.094288349151611
1701905277456486100,19.345486083984376,-0.11702704429626465,-4.391727447509766,-4.23338508605957
1701905277473479400,19.3624794921875,-0.3363872766494751,-3.8970983028411865,-3.1544275283813477
1701905277490467600,19.379467529296875,-0.2829079031944275,-3.680788516998291,-1.5193767547607422
1701905277507450600,19.39645068359375,-0.5800685882568359,-3.6281323432922363,-0.3910360336303711
1701905277524451000,19.413451171875,-0.9759894609451294,-3.8087239265441895,0.05918312072753906
1701905277541441800,19.43044189453125,-1.2665632963180542,-3.7970244884490967,0.1976337432861328
1701905277558432800,19.447432861328124,-1.2087194919586182,-3.344259262084961,0.030356407165527344
1701905277575425000,19.464425048828126,-0.9157880544662476,-2.5103225708007812,0.13075923919677734
1701905277592415200,19.481415283203123,-0.6603642702102661,-1.4502243995666504,0.7392091751098633
1701905277609404400,19.498404296875,-0.8140086531639099,-0.3165736198425293,1.2850370407104492
1701905277626388000,19.515387939453124,-1.1952201128005981,0.5172629356384277,1.7710933685302734
1701905277643386000,19.53238623046875,-1.6399543285369873,0.9490141868591309,2.486668109893799
1701905277660373500,19.54937353515625,-2.4275097846984863,1.158022403717041,3.1231064796447754
1701905277677362400,19.566362548828124,-3.0874242782592773,1.28831148147583,3.5144925117492676
1701905277694358500,19.583358642578126,-3.3021187782287598,1.4630951881408691,4.004040241241455
1701905277711351000,19.60035107421875,-3.0707311630249023,1.7704424858093262,4.471545696258545
1701905277728339000,19.6173388671875,-2.5540013313293457,2.2202301025390625,5.1983723640441895
1701905277745336300,19.63433642578125,-2.2282357215881348,2.5786843299865723,5.981808185577393
1701905277762316500,19.651316650390626,-2.2352380752563477,2.7822322845458984,6.983441352844238
1701905277779320000,19.668320068359375,-2.6227657794952393,3.023548126220703,7.916594505310059
1701905277796302600,19.685302490234374,-2.900315284729004,3.3711442947387695,8.608673095703125
1701905277813305300,19.702305419921874,-3.3619298934936523,3.5125112533569336,9.414804458618164
1701905277830289700,19.71928955078125,-3.9776599407196045,3.671302318572998,10.107362747192383
1701905277847286000,19.7362861328125,-4.669383525848389,4.127476692199707,10.268829345703125
1701905277864276000,19.75327587890625,-5.214941501617432,4.554123878479004,10.098773956298828
1701905277881267500,19.770267333984375,-5.495545387268066,4.374417304992676,10.022141456604004
1701905277898247700,19.78724755859375,-5.273157596588135,3.7861013412475586,9.918596267700195
1701905277915250200,19.804250244140626,-4.696063041687012,3.053103446960449,9.707189559936523
1701905277932241000,19.821240966796875,-3.9188461303710938,1.8967480659484863,9.89665699005127
1701905277949233000,19.83823291015625,-2.887321710586548,0.6495161056518555,10.344889640808105
1701905277966213400,19.85521337890625,-1.888115406036377,0.10455608367919922,10.118948936462402
1701905277983215600,19.872215576171875,-1.2352886199951172,0.4268007278442383,9.121866226196289
1701905278000206300,19.889206298828125,-0.7029505968093872,1.1075596809387207,7.874523639678955
1701905278017197000,19.906197021484374,0.10358500480651855,1.3072495460510254,6.872165679931641
1701905278034189600,19.923189453125,0.8783149719238281,0.7469749450683594,6.409442901611328
1701905278051180300,19.94018017578125,1.449349045753479,-0.37456369400024414,6.186516761779785
1701905278068161300,19.957161376953124,1.7655112743377686,-1.453052043914795,5.8599853515625
1701905278085166300,19.974166259765624,1.9378890991210938,-1.9141554832458496,5.280107498168945
1701905278102150700,19.991150634765624,1.9734690189361572,-1.635385513305664,4.326944351196289
1701905278119145500,20.0081455078125,2.1534838676452637,-0.9111294746398926,3.198073387145996
1701905278136136700,20.02513671875,2.3445849418640137,-0.20053958892822266,2.228466033935547
1701905278153124900,20.042124755859376,2.4980626106262207,0.15937042236328125,1.535428524017334
1701905278170119000,20.059118896484375,2.6493544578552246,0.09619569778442383,0.9748191833496094
1701905278187111000,20.07611083984375,2.8471763134002686,-0.25699901580810547,0.5655112266540527
1701905278204091000,20.0930908203125,3.155890941619873,-0.6073851585388184,0.14845657348632812
1701905278221093400,20.11009326171875,3.468919038772583,-0.9857840538024902,-0.31165361404418945
1701905278238084600,20.127084716796876,3.9158711433410645,-1.2434654235839844,-0.8903875350952148
1701905278255075800,20.144075927734374,4.382512092590332,-1.571275234222412,-1.3051929473876953
1701905278272066600,20.161066650390627,4.821075439453125,-1.9331693649291992,-1.6544456481933594
1701905278289058600,20.17805859375,5.152803421020508,-2.2712762355804443,-1.991417407989502
1701905278306046700,20.195046630859373,5.6512451171875,-2.437741994857788,-2.328296184539795
1701905278323033300,20.212033447265625,5.987704753875732,-2.6158156394958496,-2.477200508117676
1701905278340026000,20.229026123046875,6.261214256286621,-2.886775016784668,-2.445070743560791
1701905278357026600,20.246026611328126,6.393002986907959,-3.365464210510254,-2.2626142501831055
1701905278374014500,20.263014404296875,6.453997611999512,-3.944631576538086,-2.1717896461486816
1701905278391006000,20.280005859375,6.565573692321777,-4.40014123916626,-2.3760409355163574
1701905278407996200,20.29699609375,6.700010299682617,-4.882349967956543,-2.5721640586853027
1701905278424989700,20.31398974609375,6.7824811935424805,-5.332145690917969,-2.6899285316467285
1701905278441979600,20.330979736328125,6.582736968994141,-5.496941566467285,-2.8772454261779785
1701905278458971400,20.347971435546874,5.70730447769165,-5.562312602996826,-3.0286998748779297
1701905278475962000,20.364962158203124,4.403079509735107,-5.954296112060547,-3.202035903930664
1701905278492953600,20.38195361328125,3.233963966369629,-6.303771018981934,-3.7307305335998535
1701905278509944600,20.398944580078126,2.4024195671081543,-6.526520729064941,-4.328132152557373
1701905278526935800,20.415935791015624,2.151085376739502,-6.148294925689697,-4.672380447387695
1701905278543917300,20.432917236328127,1.9502174854278564,-5.487581729888916,-4.345026016235352
1701905278560919000,20.4499189453125,1.1929237842559814,-4.730798721313477,-3.463080406188965
1701905278577910000,20.466909912109376,-0.1564251184463501,-4.108992099761963,-2.6072463989257812
1701905278594901800,20.48390185546875,-1.5797488689422607,-3.9775822162628174,-1.992720127105713
1701905278611892500,20.500892578125,-2.3201849460601807,-4.022171974182129,-1.6886382102966309
1701905278628884500,20.517884521484376,-2.093804359436035,-4.138978958129883,-0.9674444198608398
1701905278645864400,20.534864501953123,-1.4966824054718018,-3.811922073364258,-0.35752010345458984
1701905278662863400,20.55186328125,-1.3630518913269043,-3.0874922275543213,0.20416641235351562
1701905278679854800,20.568854736328124,-1.719193696975708,-2.0861849784851074,0.7669458389282227
1701905278696846600,20.5858466796875,-2.4440970420837402,-1.0460810661315918,1.1912078857421875
1701905278713840000,20.602840087890623,-3.1579232215881348,-0.1560506820678711,1.3432998657226562
1701905278730828800,20.619828857421876,-3.448298215866089,0.4162406921386719,1.5698604583740234
1701905278747822600,20.636822509765626,-3.1365718841552734,0.5262203216552734,2.1936588287353516
1701905278764814300,20.653814453125,-2.6530117988586426,0.6123433113098145,3.065505027770996
1701905278781802800,20.670802734375,-2.725033760070801,0.7554388046264648,3.7342400550842285
1701905278798799600,20.687799560546875,-3.0922226905822754,1.1675848960876465,3.9986519813537598
1701905278815787000,20.704787109375,-3.5304527282714844,1.5694093704223633,4.320454120635986
1701905278832780300,20.7217802734375,-3.5903563499450684,1.9046645164489746,4.859126567840576
1701905278849769700,20.738769775390626,-3.385112762451172,2.1392431259155273,5.572996616363525
1701905278866763000,20.755762939453124,-2.978297233581543,2.4556002616882324,6.379158020019531
1701905278883750400,20.77275048828125,-2.9873645305633545,2.9114770889282227,7.073918342590332
1701905278900747300,20.789747314453123,-3.394061803817749,3.3118739128112793,7.3679399490356445
1701905278917727500,20.8067275390625,-3.8972504138946533,3.4364852905273438,7.618106365203857
1701905278934720500,20.823720458984376,-4.009702682495117,3.504415512084961,7.775882244110107
1701905278951718100,20.84071826171875,-4.009922981262207,3.4660258293151855,8.09567928314209
1701905278968710000,20.8577099609375,-4.078420639038086,3.563042640686035,8.289641380310059
1701905278985700600,20.87470068359375,-4.081210136413574,3.4038281440734863,8.41972541809082
1701905279002692600,20.891692626953127,-3.9257452487945557,2.9102697372436523,8.646151542663574
1701905279019683300,20.908683349609376,-3.4737017154693604,2.1973977088928223,8.99488353729248
1701905279036674800,20.9256748046875,-2.8713908195495605,1.1650390625,9.73744010925293
1701905279053662500,20.942662353515626,-2.136660575866699,0.39446353912353516,10.377347946166992
1701905279070657500,20.959657470703124,-1.1951647996902466,0.5029740333557129,10.179529190063477
1701905279087648500,20.9766484375,-0.07060098648071289,1.437276840209961,9.076396942138672
1701905279104640000,20.993639892578123,1.314788579940796,2.1978979110717773,7.979642391204834
1701905279121631000,21.010630859375,2.7699508666992188,2.1002941131591797,7.177155017852783
1701905279138612000,21.027612060546875,4.280574321746826,1.0024166107177734,7.280523777008057
1701905279155605200,21.044605224609374,5.472721576690674,-0.6807212829589844,8.018913269042969
1701905279172598300,21.061598388671875,6.156940460205078,-2.603508472442627,8.69277572631836
1701905279189585400,21.07858544921875,6.518929481506348,-3.703587532043457,7.8062639236450195
1701905279206580200,21.095580322265626,6.666578769683838,-4.183560848236084,6.277756690979004
1701905279223573500,21.112573486328124,6.6126909255981445,-4.075503826141357,5.446433067321777
1701905279240562200,21.129562255859376,6.400082588195801,-4.429880142211914,5.567673683166504
1701905279257554400,21.146554443359374,6.036729335784912,-5.445908546447754,5.816216468811035
1701905279274540800,21.163540771484374,5.31081485748291,-6.537147045135498,4.994417190551758
1701905279291536400,21.180536376953125,3.311025619506836,-7.632447242736816,3.3543930053710938
1701905279308526300,21.1975263671875,1.0086405277252197,-8.31797981262207,1.5155305862426758
1701905279325526000,21.214526123046873,-0.29858922958374023,-8.656258583068848,-0.31516170501708984
1701905279342522000,21.231522216796876,-0.9531059265136719,-8.645076751708984,-1.599881649017334
1701905279359508700,21.2485087890625,-1.4908556938171387,-8.248016357421875,-1.8600144386291504
1701905279376501000,21.2655009765625,-2.6389594078063965,-7.824670791625977,-1.5450544357299805
1701905279393491500,21.282491455078127,-4.035900115966797,-7.495267868041992,-0.9374165534973145
1701905279410483200,21.299483154296876,-5.179601669311523,-7.1377644538879395,-0.7226150035858154
1701905279427473200,21.31647314453125,-6.359279155731201,-6.69264030456543,-1.0927176475524902
1701905279444466400,21.333466552734375,-7.194548606872559,-6.1863484382629395,-1.0740184783935547
1701905279461456400,21.350456298828124,-7.233150482177734,-5.522029876708984,-0.861379861831665
1701905279478448000,21.3674482421875,-7.250025749206543,-3.169517755508423,2.030005931854248
1701905279495439400,21.384439453125,-5.734819412231445,-4.1711602210998535,2.3600168228149414
1701905279512429800,21.401429931640624,-4.880416393280029,-3.3546206951141357,0.3917679786682129
1701905279529421800,21.418421875,-4.170690059661865,-3.3446669578552246,-0.5320249795913696
1701905279546413600,21.43541357421875,-3.3306899070739746,-3.2755746841430664,-0.2135988473892212
1701905279563401000,21.45240087890625,-3.0039844512939453,-2.8563308715820312,0.40291571617126465
1701905279580395800,21.469395751953126,-2.5010199546813965,-2.470964193344116,1.4943149089813232
1701905279597387000,21.486386962890624,-2.3718862533569336,-1.8392157554626465,1.3624460697174072
1701905279614378800,21.503378662109377,-1.309847354888916,-1.371016263961792,0.6346635818481445
1701905279631369500,21.520369384765626,-0.28053760528564453,-0.9039506912231445,0.3608490228652954
1701905279648361200,21.537361328125,0.17762374877929688,-0.4288146495819092,0.9097651243209839
1701905279665341200,21.554341064453126,-0.16507816314697266,-0.14703845977783203,1.3043891191482544
1701905279682344000,21.571343994140626,-0.03551959991455078,-0.03872179985046387,1.301181435585022
1701905279699334100,21.588334228515624,0.3061046600341797,0.02406144142150879,1.1958562135696411
