time,seconds_elapsed,z,y,x
1701904785111042800,0.111042724609375,-0.014920234680175781,-0.2234635353088379,0.058290064334869385
1701904785128038100,0.1280380859375,-0.061013221740722656,0.07498788833618164,0.3585984706878662
1701904785145020200,0.145020263671875,-0.4221973419189453,-0.05252408981323242,0.7682744860649109
1701904785162015500,0.162015380859375,-0.8722610473632812,-0.023649215698242188,0.9032388925552368
1701904785179012900,0.179012939453125,-0.8669757843017578,0.14673519134521484,0.7411774396896362
1701904785195998700,0.195998779296875,-0.758918285369873,-0.056243896484375,0.5124036073684692
1701904785212993500,0.21299365234375,-0.6880745887756348,0.03108501434326172,0.7707977890968323
1701904785229989400,0.2299892578125,-0.9841251373291016,-0.10108518600463867,0.676264762878418
1701904785246980900,0.24698095703125,-1.7186264991760254,-0.22023248672485352,0.3838595151901245
1701904785263970000,0.263969970703125,-2.066157817840576,-0.22341394424438477,0.14068400859832764
1701904785280961500,0.28096142578125,-2.2572689056396484,-0.35192060470581055,-0.19851887226104736
1701904785297958100,0.297958251953125,-2.9750123023986816,-0.3259873390197754,-0.4155466556549072
1701904785314944500,0.314944580078125,-3.0720229148864746,-0.09945249557495117,-0.840804934501648
1701904785331938300,0.331938232421875,-3.027033805847168,-0.17719602584838867,-0.1378331184387207
1701904785348931600,0.348931640625,-3.1753334999084473,-0.44947004318237305,0.42931246757507324
1701904785365920500,0.36592041015625,-3.134972095489502,-2.590264320373535,1.6955187320709229
1701904785382913800,0.382913818359375,-2.7196545600891113,-2.1322367191314697,0.9956827163696289
1701904785399908400,0.399908447265625,-1.80338716506958,-0.5767226219177246,-0.5153918266296387
1701904785416898000,0.41689794921875,-1.9727973937988281,-0.47705864906311035,-0.6662619113922119
1701904785433887700,0.4338876953125,-2.88401460647583,-1.7581274509429932,0.3807201385498047
1701904785450882600,0.450882568359375,-2.461423397064209,-1.9800951480865479,0.16291046142578125
1701904785467875300,0.467875244140625,-1.6916537284851074,-1.3910250663757324,-0.9504389762878418
1701904785484861400,0.484861328125,-2.4704370498657227,-1.0195534229278564,-0.6720485687255859
1701904785501860000,0.501860107421875,-4.523586750030518,-0.7781014442443848,0.15801095962524414
1701904785518852000,0.51885205078125,-5.132684230804443,-1.0788686275482178,1.1821060180664062
1701904785535838500,0.53583837890625,-2.680617332458496,-1.3195137977600098,2.061880588531494
1701904785552836400,0.55283642578125,0.8405876159667969,-0.04149365425109863,0.44268798828125
1701904785569824800,0.56982470703125,2.002840042114258,-0.4995691776275635,0.24911022186279297
1701904785586819600,0.586819580078125,0.9543783664703369,-0.1454017162322998,-0.17838191986083984
1701904785603803000,0.603802978515625,-1.6181540489196777,-0.08744573593139648,-0.35233306884765625
1701904785620805400,0.620805419921875,-2.695035696029663,-0.05594491958618164,0.5699605941772461
1701904785637782300,0.6377822265625,-1.3131637573242188,0.2068803310394287,1.4368209838867188
1701904785654783200,0.654783203125,1.2721726894378662,0.5092836618423462,1.8264961242675781
1701904785671773700,0.671773681640625,3.2501182556152344,0.9221432209014893,2.090517997741699
1701904785688771000,0.68877099609375,2.9748270511627197,1.403843879699707,2.6460323333740234
1701904785705759200,0.70575927734375,1.4969464540481567,1.353452444076538,3.3474302291870117
1701904785722753800,0.72275390625,0.9967920184135437,1.6390297412872314,3.766214370727539
1701904785739743000,0.739742919921875,1.6790815591812134,2.181981325149536,3.9608936309814453
1701904785756740900,0.756740966796875,2.4972281455993652,2.63724946975708,4.655230522155762
1701904785773726500,0.7737265625,2.4056990146636963,3.2359652519226074,5.716900825500488
1701904785790721300,0.79072119140625,1.4468028545379639,3.3477110862731934,5.8445892333984375
1701904785807714600,0.807714599609375,0.9069912433624268,3.6278815269470215,6.305535316467285
1701904785824703000,0.824702880859375,1.0142042636871338,4.129119396209717,7.245914459228516
1701904785841696000,0.841696044921875,1.0192052125930786,3.6837282180786133,6.5711212158203125
1701904785858689800,0.858689697265625,1.0425626039505005,3.6680352687835693,4.2521467208862305
1701904785875678700,0.8756787109375,1.0160821676254272,3.3348445892333984,2.7536115646362305
1701904785892673800,0.892673828125,1.363739013671875,3.115320920944214,1.8005685806274414
1701904785909664300,0.909664306640625,1.4189738035202026,2.8295347690582275,1.3545217514038086
1701904785926657500,0.926657470703125,0.8684515357017517,2.421052932739258,1.251479148864746
1701904785943646500,0.943646484375,0.4736879765987396,2.0582642555236816,1.4797077178955078
1701904785960640800,0.960640869140625,0.11719781160354614,1.7762973308563232,1.359318733215332
1701904785977631700,0.9776318359375,0.2755456566810608,1.4637455940246582,0.4649505615234375
1701904785994624800,0.994624755859375,0.3540065288543701,1.1370279788970947,-0.4569425582885742
1701904786011626000,1.0116259765625,0.5498202443122864,0.7557913064956665,-1.1053123474121094
1701904786028601300,1.028601318359375,0.689826488494873,0.31020426750183105,-1.4347801208496094
1701904786045595600,1.045595703125,0.7856202125549316,-0.0835866928100586,-1.6316556930541992
1701904786062585000,1.062585205078125,0.88689786195755,-0.49332571029663086,-1.9735770225524902
1701904786079577900,1.079577880859375,1.053568720817566,-0.9001063108444214,-2.5042672157287598
1701904786096568000,1.096568115234375,1.2392796277999878,-1.28802490234375,-2.9541711807250977
1701904786113558800,1.113558837890625,1.2404125928878784,-1.7059162855148315,-3.1507415771484375
1701904786130554000,1.13055419921875,1.2342488765716553,-2.1513686180114746,-3.054457187652588
1701904786147544600,1.147544677734375,1.4558724164962769,-2.281242847442627,-3.015124797821045
1701904786164534000,1.164533935546875,1.6993451118469238,-2.385220766067505,-2.9357099533081055
1701904786181525500,1.181525390625,1.9190435409545898,-2.78468656539917,-2.5474748611450195
1701904786198521900,1.19852197265625,1.895512580871582,-3.5240166187286377,-2.128323554992676
1701904786215510500,1.215510498046875,1.5879616737365723,-4.462618350982666,-1.9321742057800293
1701904786232502000,1.232501953125,1.3589882850646973,-5.476324081420898,-1.497187614440918
1701904786249496000,1.24949609375,1.4540187120437622,-5.870450019836426,-0.9475116729736328
1701904786266486500,1.266486572265625,2.2260539531707764,-6.048227310180664,-0.5906333923339844
1701904786283480800,1.283480712890625,2.457279920578003,-6.356322288513184,0.16855812072753906
1701904786300469800,1.3004697265625,1.8952289819717407,-6.812208652496338,0.821507453918457
1701904786317465000,1.317465087890625,1.121525526046753,-7.436846733093262,0.6256303787231445
1701904786334453200,1.334453369140625,0.11080935597419739,-7.824784755706787,-0.45096302032470703
1701904786351454500,1.351454345703125,-0.07150989770889282,-7.3372883796691895,-1.6178851127624512
1701904786368449500,1.368449462890625,0.12222681939601898,-6.146124839782715,-1.7285265922546387
1701904786385437200,1.385437255859375,0.7712332010269165,-5.042453289031982,-0.4397239685058594
1701904786402431700,1.402431640625,1.13335120677948,-4.039999961853027,1.1502199172973633
1701904786419420000,1.419419921875,1.0553603172302246,-3.4399611949920654,1.9728918075561523
1701904786436407800,1.43640771484375,1.1468663215637207,-2.9225809574127197,1.8169260025024414
1701904786453405000,1.453405029296875,1.2678695917129517,-2.255399465560913,1.1511344909667969
1701904786470398700,1.470398681640625,1.336679458618164,-1.1710336208343506,0.3386411666870117
1701904786487392000,1.48739208984375,1.1491153240203857,0.17013263702392578,-0.02672290802001953
1701904786504373000,1.504373046875,0.6538785099983215,1.5106594562530518,0.2886009216308594
1701904786521373200,1.521373291015625,0.21709103882312775,2.8919854164123535,0.6620006561279297
1701904786538371300,1.538371337890625,-0.22157511115074158,3.911684989929199,0.33056163787841797
1701904786555351000,1.55535107421875,-0.7639622688293457,4.341935157775879,-0.22407007217407227
1701904786572352500,1.5723525390625,-1.046771764755249,4.472754001617432,-0.7876935005187988
1701904786589343200,1.58934326171875,-1.198111653327942,4.3712568283081055,-0.8346676826477051
1701904786606370600,1.60637060546875,-1.1038120985031128,4.141448020935059,0.04353666305541992
1701904786623323400,1.623323486328125,-0.4888836443424225,4.299524784088135,0.709589958190918
1701904786640322800,1.64032275390625,-0.5805426239967346,4.335846900939941,0.8525829315185547
1701904786657310500,1.657310546875,-0.7217608094215393,4.255665302276611,0.887141227722168
1701904786674292700,1.674292724609375,-0.8430863618850708,4.130153656005859,1.3203988075256348
1701904786691290400,1.691290283203125,-0.7791256308555603,4.1245222091674805,2.235177516937256
1701904786708285700,1.70828564453125,-0.398003488779068,4.1038055419921875,3.355989456176758
1701904786725268700,1.725268798828125,-0.5224276781082153,4.006428241729736,4.428920269012451
1701904786742271200,1.742271240234375,-0.4629134237766266,3.7859840393066406,5.129517555236816
1701904786759274800,1.759274658203125,-0.5862830877304077,3.639249801635742,5.805996894836426
1701904786776255000,1.7762548828125,-1.357001781463623,3.489759922027588,6.558460712432861
1701904786793246000,1.793245849609375,-1.9555079936981201,3.1812760829925537,6.94683313369751
1701904786810237400,1.810237548828125,-1.6751827001571655,2.3160667419433594,7.426608085632324
1701904786827230500,1.82723046875,-1.0385446548461914,1.2190642356872559,7.461360454559326
1701904786844211700,1.844211669921875,-0.3322044312953949,0.5207881927490234,6.8693623542785645
1701904786861213000,1.861212890625,-0.01963120698928833,-0.3847012519836426,6.845190048217773
1701904786878203000,1.878202880859375,-0.12283939123153687,-0.9973483085632324,6.8342108726501465
1701904786895191300,1.89519140625,-0.05347287654876709,-1.1186466217041016,6.43140172958374
1701904786912190000,1.91218994140625,0.04971008002758026,-0.8963851928710938,5.809669494628906
1701904786929179600,1.9291796875,0.052339836955070496,-1.0720672607421875,5.7041521072387695
1701904786946171600,1.946171630859375,0.4711954593658447,-1.602292537689209,5.216438293457031
1701904786963163400,1.963163330078125,1.309307336807251,-2.7040319442749023,4.572788238525391
1701904786980157200,1.9801572265625,2.261706829071045,-3.696561336517334,3.849362373352051
1701904786997150000,1.99714990234375,2.5603389739990234,-4.3483357429504395,2.9053125381469727
1701904787014135300,2.01413525390625,2.1309566497802734,-4.506424427032471,1.6420984268188477
1701904787031132400,2.03113232421875,1.7617928981781006,-4.048648834228516,0.09730815887451172
1701904787048126200,2.048126220703125,1.4655827283859253,-3.41024112701416,-1.4697237014770508
1701904787065109800,2.06510986328125,1.2791208028793335,-2.86187744140625,-2.612016201019287
1701904787082111500,2.082111572265625,1.112194538116455,-2.441200017929077,-3.479783058166504
1701904787099100700,2.0991005859375,0.9953712224960327,-2.162001371383667,-4.144472122192383
1701904787116089900,2.11608984375,0.7068111896514893,-1.870633602142334,-4.485225200653076
1701904787133084700,2.133084716796875,0.1568894386291504,-1.9776580333709717,-4.447740077972412
1701904787150072800,2.15007275390625,0.09842777252197266,-2.1515283584594727,-4.521393775939941
1701904787167073000,2.167072998046875,0.6639535427093506,-2.2612504959106445,-4.99176549911499
1701904787184054500,2.184054443359375,1.4331756830215454,-2.6004066467285156,-5.613470077514648
1701904787201055000,2.201054931640625,2.265585422515869,-2.8821029663085938,-6.135648727416992
1701904787218041900,2.218041748046875,3.1030707359313965,-3.062877655029297,-6.540332794189453
1701904787235032800,2.23503271484375,3.630497455596924,-3.2883548736572266,-6.768868923187256
1701904787252029200,2.252029296875,3.9137115478515625,-3.5247385501861572,-6.7292680740356445
1701904787269019600,2.26901953125,4.026540279388428,-3.6702120304107666,-6.330083847045898
1701904787286010400,2.28601025390625,3.9382076263427734,-4.030209541320801,-5.190199375152588
1701904787303016400,2.303016357421875,3.721229076385498,-4.835166931152344,-3.438182830810547
1701904787319995000,2.319994873046875,3.4380922317504883,-5.475518226623535,-1.6429872512817383
1701904787336992300,2.3369921875,3.100090742111206,-5.760828495025635,-0.7056646347045898
1701904787353968400,2.353968505859375,2.698880672454834,-6.282398223876953,-0.3686809539794922
1701904787370958800,2.370958740234375,2.1738643646240234,-6.809650421142578,-0.08394908905029297
1701904787387967000,2.387967041015625,1.5921642780303955,-7.0902886390686035,0.07547760009765625
1701904787404952600,2.40495263671875,1.260098934173584,-7.3658857345581055,0.5974750518798828
1701904787421947400,2.421947509765625,1.0375531911849976,-7.473971366882324,0.7464351654052734
1701904787438940400,2.4389404296875,1.1690839529037476,-7.325965404510498,0.2091684341430664
1701904787455928000,2.455927978515625,1.9022618532180786,-6.577783107757568,-0.43143463134765625
1701904787472924400,2.47292431640625,2.5423779487609863,-5.279661655426025,-0.8128671646118164
1701904787489914600,2.48991455078125,2.326394557952881,-4.280113220214844,-0.4357109069824219
1701904787506909000,2.506908935546875,1.7304906845092773,-3.906895875930786,0.3673982620239258
1701904787523896600,2.523896484375,0.7771549224853516,-3.632169485092163,0.8205652236938477
1701904787540890400,2.540890380859375,-0.022724151611328125,-3.281024932861328,0.4659566879272461
1701904787557885000,2.557885009765625,-0.286998987197876,-2.6750688552856445,-0.06250858306884766
1701904787574869200,2.574869140625,0.04647362232208252,-1.733828067779541,-0.47803592681884766
1701904787591865900,2.591865966796875,0.44850659370422363,-0.7031207084655762,-0.41307544708251953
1701904787608860200,2.608860107421875,0.6001698970794678,0.4893357753753662,0.02508831024169922
1701904787625849600,2.625849609375,0.2986430525779724,1.537888526916504,0.5599098205566406
1701904787642841600,2.642841552734375,-0.4427794814109802,2.3280739784240723,1.0486717224121094
1701904787659834600,2.659834716796875,-1.0960379838943481,2.734022617340088,1.4683637619018555
1701904787676827600,2.67682763671875,-1.0415706634521484,3.0270490646362305,1.6006460189819336
1701904787693816000,2.693816162109375,-0.32857728004455566,3.1546106338500977,1.5588641166687012
1701904787710809600,2.7108095703125,0.43434587121009827,3.217676877975464,1.549055576324463
1701904787727801900,2.7278017578125,0.7794565558433533,3.4578709602355957,1.6665377616882324
1701904787744792800,2.744792724609375,0.5362097024917603,3.5983383655548096,2.3152823448181152
1701904787761786400,2.761786376953125,0.06313073635101318,3.8702356815338135,2.8474512100219727
1701904787778777000,2.778777099609375,-0.368194043636322,4.177264213562012,3.308168411254883
1701904787795769300,2.795769287109375,-0.5264213681221008,4.396846771240234,3.8744101524353027
1701904787812751400,2.81275146484375,-0.38668325543403625,4.448184967041016,4.527968883514404
1701904787829752000,2.829751953125,-0.46404561400413513,4.395461559295654,5.22822904586792
1701904787846748000,2.846747802734375,-0.6803934574127197,4.114354133605957,5.8163676261901855
1701904787863736000,2.863736083984375,-0.7447783946990967,3.882389783859253,6.097232818603516
1701904787880727600,2.8807275390625,-0.7773059010505676,3.4953503608703613,6.626852512359619
1701904787897738500,2.897738525390625,-1.0155471563339233,2.664638042449951,7.198055744171143
1701904787914710800,2.914710693359375,-1.293182611465454,1.902803897857666,7.103366374969482
1701904787931704300,2.931704345703125,-1.4328007698059082,1.274014949798584,6.614620685577393
1701904787948701400,2.948701416015625,-1.225402593612671,0.4845399856567383,6.3845086097717285
1701904787965685500,2.965685546875,-0.8614971041679382,-0.18851327896118164,6.368879318237305
1701904787982681600,2.982681640625,-0.5971460938453674,-0.49934864044189453,6.280669689178467
1701904787999673600,2.999673583984375,-0.4792918562889099,-0.47431516647338867,5.944455623626709
1701904788016656100,3.01665625,-0.3494422733783722,-0.5961742401123047,5.717822551727295
1701904788033654800,3.03365478515625,0.16459938883781433,-1.0095367431640625,5.3331708908081055
1701904788050648800,3.05064892578125,0.8228851556777954,-1.818143367767334,4.804163932800293
1701904788067628300,3.067628173828125,1.4386656284332275,-2.7487711906433105,4.285656929016113
1701904788084630300,3.08463037109375,1.6335636377334595,-3.2222490310668945,3.434269905090332
1701904788101622800,3.101622802734375,1.4689645767211914,-3.1614766120910645,2.2019433975219727
1701904788118617300,3.118617431640625,1.369430661201477,-2.7944793701171875,0.9891605377197266
1701904788135607300,3.135607177734375,1.453463077545166,-2.398057460784912,0.04120826721191406
1701904788152604000,3.15260400390625,1.4796977043151855,-2.0664255619049072,-0.757136344909668
1701904788169599700,3.169599853515625,1.4260106086730957,-1.8696110248565674,-1.3146038055419922
1701904788186587100,3.186587158203125,1.40327787399292,-1.7747654914855957,-1.9026460647583008
1701904788203577900,3.203577880859375,1.3624123334884644,-1.8261303901672363,-2.544837474822998
1701904788220571100,3.220571044921875,1.4113702774047852,-1.950416088104248,-3.2160120010375977
1701904788237559600,3.2375595703125,1.6203420162200928,-2.1366374492645264,-3.8804211616516113
1701904788254540300,3.254540283203125,1.8095526695251465,-2.375938892364502,-4.481149673461914
1701904788271548000,3.2715478515625,1.9998512268066406,-2.611321449279785,-5.022191047668457
1701904788288534500,3.288534423828125,2.233698606491089,-2.752016305923462,-5.490597724914551
1701904788305532000,3.305531982421875,2.582352638244629,-2.9151554107666016,-5.6611328125
1701904788322520600,3.3225205078125,2.945458173751831,-3.0979208946228027,-5.595099449157715
1701904788339513300,3.339513427734375,3.218064546585083,-3.261215925216675,-5.681879997253418
1701904788356503800,3.35650390625,3.337646484375,-3.595677137374878,-5.644463062286377
1701904788373497900,3.373497802734375,3.476768732070923,-3.858241558074951,-5.494562149047852
1701904788390478800,3.390478759765625,3.567473888397217,-4.457131862640381,-4.755091190338135
1701904788407481000,3.407481201171875,3.6433792114257812,-4.952155113220215,-3.7136759757995605
1701904788424469500,3.424469482421875,3.830078601837158,-5.56942081451416,-2.4167909622192383
1701904788441465000,3.441465087890625,3.949202299118042,-5.951833724975586,-1.4810271263122559
1701904788458456300,3.458456298828125,4.177861213684082,-5.988195419311523,-0.7594757080078125
1701904788475448800,3.47544873046875,4.128175258636475,-5.930184364318848,-0.16532135009765625
1701904788492434400,3.492434326171875,3.5374581813812256,-5.689358711242676,0.2904376983642578
1701904788509435100,3.50943505859375,2.197803497314453,-5.841827392578125,0.6865987777709961
1701904788526424000,3.526424072265625,1.1810470819473267,-5.968807220458984,0.487640380859375
1701904788543416600,3.54341650390625,0.9056363105773926,-5.894560813903809,-0.16831588745117188
1701904788560395500,3.5603955078125,1.0342507362365723,-5.330300807952881,-0.9046716690063477
1701904788577397500,3.5773974609375,1.2900135517120361,-4.489201545715332,-1.0346088409423828
1701904788594383600,3.594383544921875,1.0273454189300537,-3.6401562690734863,-0.3707895278930664
1701904788611376600,3.611376708984375,0.5405815243721008,-3.1806070804595947,0.2656068801879883
1701904788628371700,3.628371826171875,-0.12472367286682129,-3.104926109313965,0.5318403244018555
1701904788645357800,3.64535791015625,-0.6011621952056885,-2.9930458068847656,0.3164796829223633
1701904788662354000,3.66235400390625,-0.5093412399291992,-2.713657855987549,-0.15531158447265625
1701904788679346400,3.679346435546875,-0.09685009717941284,-2.149569511413574,-0.5147104263305664
1701904788696334300,3.696334228515625,0.3302817940711975,-1.2966313362121582,-0.5467653274536133
1701904788713333200,3.713333251953125,0.4410036504268646,-0.2635936737060547,-0.27727413177490234
1701904788730330000,3.730330078125,0.0114365816116333,0.7010617256164551,0.17526817321777344
1701904788747320000,3.747320068359375,-0.45472824573516846,1.6293106079101562,0.3416280746459961
1701904788764301000,3.764301025390625,-0.9144374132156372,2.153139352798462,0.4976921081542969
1701904788781303800,3.7813037109375,-1.0630724430084229,2.4189164638519287,0.6492471694946289
1701904788798295300,3.79829541015625,-0.7542740106582642,2.5356364250183105,0.7365083694458008
1701904788815294000,3.8152939453125,-0.23013368248939514,2.553738594055176,1.109194278717041
1701904788832279000,3.832279052734375,0.18477950990200043,2.6730353832244873,1.5117521286010742
1701904788849271800,3.849271728515625,0.11696264147758484,2.9079999923706055,1.927454948425293
1701904788866262300,3.86626220703125,-0.019544273614883423,3.06579327583313,2.6444716453552246
1701904788883251500,3.88325146484375,-0.014541536569595337,3.280520439147949,3.409937858581543
1701904788900246800,3.900246826171875,-0.011230073869228363,3.688377618789673,3.9862189292907715
1701904788917239300,3.9172392578125,-0.10527584701776505,3.846874237060547,4.666722774505615
1701904788934231600,3.9342314453125,-0.4441976249217987,3.986586332321167,5.622533798217773
1701904788951223300,3.951223388671875,-1.0637211799621582,3.985163450241089,6.785874843597412
1701904788968214800,3.96821484375,-1.5020840167999268,4.127717018127441,7.564805507659912
1701904788985196800,3.98519677734375,-1.892749309539795,4.176201343536377,7.910377502441406
1701904789002195700,4.00219580078125,-2.1244161128997803,3.969156503677368,7.881843566894531
1701904789019190800,4.019190673828125,-2.407810926437378,3.3382530212402344,7.756826400756836
1701904789036182500,4.0361826171875,-2.522421360015869,2.630983829498291,7.410172939300537
1701904789053175000,4.053175048828125,-2.4673614501953125,1.8649344444274902,7.390902519226074
1701904789070166300,4.070166259765625,-2.2379117012023926,0.9124236106872559,7.495948791503906
1701904789087158800,4.08715869140625,-1.8278608322143555,0.29510974884033203,7.334731578826904
1701904789104141600,4.1041416015625,-1.2367560863494873,0.12796974182128906,6.920106410980225
1701904789121141500,4.1211416015625,-0.7993285059928894,0.20617198944091797,6.350550651550293
1701904789138134300,4.13813427734375,-0.3787369430065155,0.04876279830932617,5.783924579620361
1701904789155119600,4.15511962890625,0.25347572565078735,-0.5842628479003906,5.288784980773926
1701904789172118000,4.172117919921875,1.0637551546096802,-1.5404253005981445,4.797107696533203
1701904789189109800,4.18910986328125,1.7222466468811035,-2.3717169761657715,4.092535018920898
1701904789206102800,4.206102783203125,2.1486740112304688,-2.825775623321533,3.2187957763671875
1701904789223094500,4.223094482421875,2.27173113822937,-2.823202133178711,2.0175418853759766
1701904789240081200,4.2400810546875,2.1378402709960938,-2.5109968185424805,0.7262945175170898
1701904789257080300,4.257080322265625,1.8677213191986084,-2.162776470184326,-0.35352420806884766
1701904789274069500,4.274069580078125,1.799574613571167,-1.7673799991607666,-1.2078533172607422
1701904789291062000,4.29106201171875,1.7503018379211426,-1.638350248336792,-1.728909969329834
1701904789308051000,4.308051025390625,1.827383041381836,-1.6241765022277832,-2.0306248664855957
1701904789325037800,4.325037841796875,1.858959674835205,-1.7369661331176758,-2.217503070831299
1701904789342037200,4.342037353515625,1.925398588180542,-1.9206323623657227,-2.5655927658081055
1701904789359030500,4.359030517578125,2.019462823867798,-2.1395251750946045,-3.0139975547790527
1701904789376010500,4.376010498046875,2.197326183319092,-2.287301540374756,-3.4780330657958984
1701904789393014500,4.3930146484375,2.1003572940826416,-2.508925199508667,-3.704263687133789
1701904789410005200,4.410005126953125,2.318666458129883,-2.6502444744110107,-3.86594295501709
1701904789427000300,4.427000244140625,2.7723388671875,-2.8104705810546875,-4.044059753417969
1701904789443978800,4.443978759765625,3.3649439811706543,-3.0998549461364746,-4.113574504852295
1701904789460979000,4.46097900390625,3.941577672958374,-3.464951276779175,-4.1201653480529785
1701904789477975800,4.477975830078125,4.496504306793213,-3.8996074199676514,-4.114171981811523
1701904789494965500,4.494965576171875,4.8914666175842285,-4.4879021644592285,-3.9246091842651367
1701904789511953000,4.511952880859375,5.117570877075195,-5.188998222351074,-3.5136947631835938
1701904789528950000,4.528949951171875,5.3506364822387695,-5.700305938720703,-2.986772060394287
1701904789545932500,4.5459326171875,5.4135565757751465,-6.141373157501221,-2.777489185333252
1701904789562922000,4.562921875,5.310674667358398,-6.737389087677002,-2.642259120941162
1701904789579910400,4.579910400390625,5.220441818237305,-7.063589572906494,-2.307631492614746
1701904789596908300,4.596908203125,4.756909370422363,-6.693109035491943,-1.8073205947875977
1701904789613898800,4.613898681640625,3.6418721675872803,-6.384493827819824,-1.128082275390625
1701904789630893000,4.63089306640625,2.541633367538452,-6.245169639587402,-0.8749485015869141
1701904789647885800,4.6478857421875,1.904274821281433,-6.287891864776611,-0.7185659408569336
1701904789664874000,4.6648740234375,1.6852805614471436,-5.934467315673828,-0.9489622116088867
1701904789681866200,4.6818662109375,1.6116106510162354,-5.534389019012451,-0.9978818893432617
1701904789698862300,4.6988623046875,1.385601282119751,-4.873648166656494,-0.5039587020874023
1701904789715853800,4.715853759765625,0.8841503858566284,-4.338413238525391,0.42224693298339844
1701904789732846000,4.73284619140625,0.19325780868530273,-3.973045825958252,1.3676042556762695
1701904789749839400,4.74983935546875,-0.36992907524108887,-3.5431346893310547,1.6622180938720703
1701904789766827000,4.766826904296875,-0.732751727104187,-3.0787124633789062,1.278325080871582
1701904789783820800,4.78382080078125,-0.7315520644187927,-2.422694683074951,0.7211313247680664
1701904789800812300,4.800812255859375,-0.4809245467185974,-1.458493947982788,0.3942375183105469
1701904789817801500,4.817801513671875,-0.3414497375488281,-0.32863712310791016,0.4399986267089844
1701904789834794200,4.834794189453125,-0.3937550187110901,0.839165449142456,0.5749797821044922
1701904789851788300,4.851788330078125,-0.7468775510787964,1.791736125946045,0.8080101013183594
1701904789868788200,4.868788330078125,-1.1567453145980835,2.401871919631958,1.091482162475586
1701904789885779000,4.885779052734375,-1.4630833864212036,2.7788217067718506,1.1398162841796875
1701904789902773200,4.902773193359375,-1.6053180694580078,2.8882992267608643,1.0285749435424805
1701904789919761000,4.919760986328125,-1.6156766414642334,2.7830822467803955,1.0747056007385254
1701904789936758500,4.936758544921875,-1.2580089569091797,2.745992422103882,1.6112189292907715
1701904789953746200,4.95374609375,-0.8570437431335449,2.823654890060425,2.63950777053833
1701904789970735400,4.9707353515625,-0.8394577503204346,3.0559098720550537,3.770392417907715
1701904789987735600,4.987735595703125,-1.187239646911621,3.326188087463379,4.794990539550781
1701904790004723700,5.0047236328125,-1.3996520042419434,3.790828227996826,5.438749313354492
1701904790021712100,5.021712158203125,-1.4536505937576294,4.1114115715026855,6.073345184326172
1701904790038707700,5.038707763671875,-1.4763939380645752,4.183247089385986,6.767595291137695
1701904790055699000,5.055698974609375,-1.2023707628250122,4.093255043029785,7.456968784332275
1701904790072691500,5.07269140625,-0.8280644416809082,4.029486656188965,8.018022537231445
1701904790089682200,5.08968212890625,-0.723701000213623,4.063595771789551,8.272640228271484
1701904790106676200,5.10667626953125,-0.9148558974266052,3.852599620819092,8.129098892211914
1701904790123667000,5.1236669921875,-1.3035320043563843,3.147064208984375,7.728433609008789
1701904790140659200,5.1406591796875,-1.369065284729004,2.341386318206787,7.3687968254089355
1701904790157650700,5.157650634765625,-1.2332490682601929,1.3957643508911133,7.289887428283691
1701904790174643200,5.174643310546875,-1.0411994457244873,0.5305991172790527,7.520557880401611
1701904790191637200,5.19163720703125,-0.7708640098571777,0.33929014205932617,7.4654035568237305
1701904790208623400,5.208623291015625,-0.5358078479766846,0.7911124229431152,6.830136299133301
1701904790225595100,5.22559521484375,-0.2736709713935852,0.9869318008422852,6.067131042480469
1701904790242606000,5.242606201171875,0.18433019518852234,0.5104842185974121,5.513411521911621
1701904790259605000,5.25960498046875,0.8493638038635254,-0.6289377212524414,5.231962203979492
1701904790276594200,5.27659423828125,1.4673097133636475,-1.8796639442443848,4.930176258087158
1701904790293587200,5.293587158203125,1.913529634475708,-2.646275520324707,4.236822128295898
1701904790310575400,5.310575439453125,2.1383614540100098,-2.7212085723876953,3.166985511779785
1701904790327573800,5.32757373046875,2.219176769256592,-2.439098358154297,1.9536676406860352
1701904790344557600,5.3445576171875,2.2327709197998047,-2.0602850914001465,0.8418598175048828
1701904790361556200,5.36155615234375,2.081184148788452,-1.708078384399414,-0.15673065185546875
1701904790378546400,5.37854638671875,1.9119393825531006,-1.4438557624816895,-1.1339502334594727
1701904790395538000,5.395537841796875,1.774073839187622,-1.318176031112671,-1.9457740783691406
1701904790412527400,5.41252734375,1.54488205909729,-1.376833438873291,-2.669135093688965
1701904790429511000,5.429510986328125,1.5941674709320068,-1.4777553081512451,-3.2442679405212402
1701904790446512400,5.446512451171875,1.757652997970581,-1.7154688835144043,-3.650334358215332
1701904790463507500,5.463507568359375,1.9214504957199097,-1.9402799606323242,-3.9888381958007812
1701904790480498400,5.48049853515625,2.0974979400634766,-2.103813409805298,-4.388574123382568
1701904790497489400,5.497489501953125,2.2673187255859375,-2.210508346557617,-4.821962356567383
1701904790514482200,5.514482177734375,2.5842461585998535,-2.3357622623443604,-5.091340065002441
1701904790531467800,5.5314677734375,2.839240550994873,-2.5416300296783447,-5.157986640930176
1701904790548468700,5.54846875,3.1487374305725098,-2.7056827545166016,-5.145920276641846
1701904790565457400,5.56545751953125,3.387355089187622,-2.803774833679199,-5.052665710449219
1701904790582449700,5.58244970703125,3.7617244720458984,-2.996692180633545,-4.40509033203125
1701904790599440400,5.5994404296875,4.039831161499023,-3.561746120452881,-3.441403388977051
1701904790616434400,5.616434326171875,4.115569591522217,-4.350700855255127,-2.6030397415161133
1701904790633422600,5.633422607421875,3.889479160308838,-5.108449935913086,-2.1541762351989746
1701904790650420500,5.65042041015625,3.802204132080078,-5.618862628936768,-1.9837312698364258
1701904790667409400,5.667409423828125,3.9220244884490967,-5.965481758117676,-1.7336854934692383
1701904790684401400,5.6844013671875,3.7702083587646484,-6.090895175933838,-1.1327667236328125
1701904790701393200,5.70139306640625,3.7552530765533447,-5.85159158706665,-0.5331144332885742
1701904790718385200,5.71838525390625,2.9651360511779785,-5.809684753417969,-0.3075599670410156
1701904790735376600,5.735376708984375,1.7416901588439941,-5.826562881469727,-0.6858158111572266
1701904790752369400,5.752369384765625,1.466794729232788,-5.31948709487915,-1.747859001159668
1701904790769360600,5.769360595703125,2.1325016021728516,-4.690841197967529,-1.9215083122253418
1701904790786352600,5.7863525390625,2.6836705207824707,-3.9553818702697754,-1.4033842086791992
1701904790803345200,5.80334521484375,2.5656771659851074,-3.613964557647705,-0.44524574279785156
1701904790820337000,5.8203369140625,1.8563828468322754,-3.4125139713287354,0.37886619567871094
1701904790837328400,5.837328369140625,0.9830013513565063,-3.2256205081939697,0.5045995712280273
1701904790854316300,5.85431640625,0.3643583059310913,-3.0375359058380127,0.022243499755859375
1701904790871311400,5.871311279296875,0.4217580258846283,-2.4583940505981445,-0.4533214569091797
1701904790888307500,5.888307373046875,0.7258826494216919,-1.5539934635162354,-0.7401199340820312
1701904790905285600,5.90528564453125,0.9004083871841431,-0.4858121871948242,-0.5834283828735352
1701904790922285600,5.92228564453125,0.4967535436153412,0.6601440906524658,-0.27228641510009766
1701904790939280100,5.939280029296875,-0.4908713698387146,1.532674789428711,0.21628379821777344
1701904790956272600,5.956272705078125,-1.568921685218811,2.2356274127960205,0.5033111572265625
1701904790973264000,5.973263916015625,-2.371148109436035,2.6622753143310547,0.568659782409668
1701904790990246000,5.990245849609375,-2.5820579528808594,2.678938865661621,0.7128734588623047
1701904791007248100,6.007248046875,-1.9538447856903076,2.563086748123169,0.9451055526733398
1701904791024240400,6.024240478515625,-1.0657974481582642,2.527967929840088,1.2499456405639648
1701904791041231600,6.041231689453125,-0.557238757610321,2.5301432609558105,1.6273369789123535
1701904791058224000,6.05822412109375,-0.5751864314079285,2.5421040058135986,2.272426128387451
1701904791075206400,6.075206298828125,-1.2499115467071533,2.616283416748047,3.0168442726135254
1701904791092208000,6.0922080078125,-1.7244203090667725,2.7471346855163574,3.768815040588379
1701904791109190700,6.109190673828125,-1.978283166885376,2.816649913787842,4.666864395141602
1701904791126193200,6.126193115234375,-1.8947564363479614,2.5684404373168945,5.4966630935668945
1701904791143183400,6.143183349609375,-1.3432433605194092,2.4124207496643066,6.239607334136963
1701904791160176000,6.160176025390625,-0.9888138771057129,2.4640417098999023,7.145497798919678
1701904791177168000,6.17716796875,-1.4964492321014404,2.6947340965270996,7.984408378601074
1701904791194159600,6.19415966796875,-2.4878029823303223,2.748723030090332,8.667034149169922
1701904791211151400,6.2111513671875,-3.327958822250366,2.50459623336792,8.997947692871094
1701904791228143900,6.228143798828125,-3.746194362640381,2.18338680267334,8.695571899414062
1701904791245135000,6.245135009765625,-3.750971794128418,1.4565930366516113,8.525774002075195
1701904791262127600,6.262127685546875,-3.111929178237915,1.0465936660766602,8.013286590576172
1701904791279118800,6.279118896484375,-2.1989879608154297,1.1481943130493164,7.241296768188477
1701904791296110800,6.29611083984375,-1.3511786460876465,1.509955883026123,6.417205810546875
1701904791313104000,6.313103759765625,-0.6984666585922241,1.3936553001403809,5.909543037414551
1701904791330093300,6.33009326171875,-0.06149059534072876,0.7536683082580566,5.590620994567871
1701904791347086800,6.3470869140625,0.3327011466026306,-0.4943408966064453,5.514740467071533
1701904791364076500,6.36407666015625,0.6565045118331909,-1.5734305381774902,5.166095733642578
1701904791381069800,6.38106982421875,0.9845132827758789,-2.2067131996154785,4.3967790603637695
1701904791398063000,6.39806298828125,1.3863024711608887,-2.160384178161621,3.2185516357421875
1701904791415054800,6.415054931640625,1.8055599927902222,-1.7567124366760254,1.7501983642578125
1701904791432034600,6.43203466796875,2.203460454940796,-1.2348060607910156,0.3872394561767578
1701904791449023700,6.449023681640625,2.474398136138916,-0.8597021102905273,-0.6408705711364746
1701904791466033700,6.46603369140625,2.5395612716674805,-0.591616153717041,-1.3880748748779297
1701904791483022000,6.48302197265625,2.3942975997924805,-0.4375648498535156,-1.9033794403076172
1701904791500013000,6.500012939453125,2.1566221714019775,-0.42669105529785156,-2.26517915725708
1701904791517009200,6.517009033203125,2.0304980278015137,-0.5044703483581543,-2.569714069366455
1701904791533995800,6.533995849609375,1.9478093385696411,-0.6650521755218506,-3.03409481048584
1701904791550984200,6.550984130859375,1.919268250465393,-0.8778150081634521,-3.5188770294189453
1701904791567971800,6.567971923828125,1.98910653591156,-1.0940771102905273,-4.037830829620361
1701904791584971500,6.584971435546875,2.213073253631592,-1.3671443462371826,-4.41156530380249
1701904791601969200,6.60196923828125,2.6193501949310303,-1.7087392807006836,-4.589846134185791
1701904791618956800,6.618956787109375,3.123155117034912,-2.0556182861328125,-4.74489688873291
1701904791635951000,6.635951171875,3.491283416748047,-2.387866735458374,-4.969542980194092
1701904791652941800,6.65294189453125,3.826695680618286,-2.681136131286621,-5.139718055725098
1701904791669921000,6.669921142578125,4.080352783203125,-3.2021474838256836,-4.915435314178467
1701904791686927600,6.686927734375,4.026353359222412,-4.090677261352539,-4.430362224578857
1701904791703916000,6.703916015625,4.032756328582764,-4.9691362380981445,-3.7991490364074707
1701904791720912000,6.720911865234375,3.910649538040161,-5.816708564758301,-3.1231155395507812
1701904791737891600,6.7378916015625,4.034556865692139,-6.215216159820557,-2.618337631225586
1701904791754893600,6.7548935546875,3.982395648956299,-6.379024982452393,-1.9478511810302734
1701904791771885800,6.7718857421875,3.360088348388672,-6.067349433898926,-1.381978988647461
1701904791788866800,6.78886669921875,1.9953017234802246,-6.23223876953125,-1.0388727188110352
1701904791805869000,6.805869140625,0.8694487810134888,-6.638378143310547,-1.0610418319702148
1701904791822861800,6.82286181640625,1.127587080001831,-6.629838466644287,-1.348036766052246
1701904791839853800,6.839853759765625,2.1395678520202637,-6.026104927062988,-1.5014705657958984
1701904791856845000,6.856844970703125,3.0061960220336914,-5.112270832061768,-0.8897085189819336
1701904791873837300,6.87383740234375,2.9518589973449707,-4.070708274841309,0.34922313690185547
1701904791890828800,6.890828857421875,1.4589455127716064,-3.4670188426971436,1.398036003112793
1701904791907821300,6.9078212890625,-0.34453463554382324,-3.1126253604888916,1.7587718963623047
1701904791924793900,6.9247939453125,-1.543823480606079,-2.952458143234253,1.5639543533325195
1701904791941804800,6.9418046875,-1.800398826599121,-2.525667190551758,0.9736785888671875
1701904791958796500,6.958796630859375,-1.3698863983154297,-1.6859657764434814,0.40850162506103516
1701904791975788500,6.97578857421875,-0.6948881149291992,-0.5919899940490723,0.12697315216064453
1701904791992781300,6.99278125,-0.23391610383987427,0.6213150024414062,-0.13024616241455078
1701904792009776400,7.0097763671875,-0.05679309368133545,1.7503836154937744,-0.07942008972167969
1701904792026765000,7.02676513671875,-0.4579925537109375,2.555882215499878,-0.1758136749267578
1701904792043745300,7.043745361328125,-1.2897611856460571,2.9310190677642822,-0.15241336822509766
1701904792060746000,7.06074609375,-1.9057704210281372,2.978774070739746,0.034618377685546875
1701904792077737000,7.077737060546875,-1.9525954723358154,2.8582754135131836,0.3053150177001953
1701904792094728000,7.09472802734375,-1.4653207063674927,2.7384040355682373,0.6436119079589844
1701904792111715000,7.111715087890625,-1.031460165977478,2.746400833129883,1.0398106575012207
1701904792128714200,7.12871435546875,-1.0167195796966553,2.9153501987457275,1.4471068382263184
1701904792145697500,7.145697509765625,-1.4082555770874023,3.1130435466766357,2.025908946990967
1701904792162692000,7.162692138671875,-1.512647271156311,3.294165849685669,2.7814817428588867
1701904792179692500,7.179692626953125,-1.247610330581665,3.3007469177246094,3.977701187133789
1701904792196683000,7.19668310546875,-0.8301942348480225,3.2286593914031982,5.299245834350586
1701904792213677300,7.21367724609375,-0.5873298645019531,3.2790088653564453,6.2980122566223145
1701904792230668000,7.23066796875,-0.8996813893318176,3.588575839996338,6.85875129699707
1701904792247660500,7.24766064453125,-1.7202831506729126,4.035228729248047,7.430844306945801
1701904792264651000,7.264651123046875,-2.284029960632324,4.093067169189453,8.090681076049805
1701904792281644800,7.281644775390625,-2.1968226432800293,3.585587739944458,8.35420036315918
1701904792298635500,7.298635498046875,-1.7835705280303955,2.799811363220215,7.9828948974609375
1701904792315628000,7.3156279296875,-1.3653967380523682,1.89117431640625,7.811046600341797
1701904792332616400,7.332616455078125,-1.14479660987854,1.2418584823608398,7.931315898895264
1701904792349611800,7.34961181640625,-1.209756851196289,0.949303150177002,8.266359329223633
1701904792366603300,7.366603271484375,-1.1930041313171387,1.2319793701171875,8.04703426361084
1701904792383595800,7.383595703125,-0.9371523857116699,1.419328212738037,7.564855098724365
1701904792400587000,7.4005869140625,-0.3446741998195648,1.1338906288146973,6.906581878662109
1701904792417579500,7.41757958984375,0.33808690309524536,0.1878046989440918,6.570470333099365
1701904792434571300,7.4345712890625,0.8898695707321167,-0.8256092071533203,6.1253180503845215
1701904792451560400,7.451560546875,1.199389934539795,-1.4529953002929688,5.307704448699951
1701904792468555000,7.468554931640625,1.3929855823516846,-1.5453252792358398,4.001906394958496
1701904792485545000,7.485544921875,1.6050946712493896,-1.3105401992797852,2.476161003112793
1701904792502541600,7.50254150390625,1.7814735174179077,-0.9595575332641602,1.0574073791503906
1701904792519530200,7.5195302734375,1.9224214553833008,-0.634864330291748,-0.2004709243774414
1701904792536521200,7.536521240234375,1.761085867881775,-0.4536304473876953,-1.2177739143371582
1701904792553504300,7.553504150390625,1.1090247631072998,-0.26975297927856445,-1.9251680374145508
1701904792570506800,7.5705068359375,0.2834855914115906,-0.44457006454467773,-2.1413702964782715
1701904792587499000,7.5874990234375,-0.024713516235351562,-0.8512084484100342,-2.1832680702209473
1701904792604482000,7.60448193359375,0.5720477104187012,-1.1844432353973389,-2.599085807800293
1701904792621482800,7.621482666015625,1.407503604888916,-1.5825068950653076,-3.393662452697754
1701904792638474200,7.63847412109375,2.0355424880981445,-1.9668583869934082,-4.143216609954834
1701904792655466800,7.655466796875,2.3958263397216797,-2.378483533859253,-4.713168621063232
1701904792672458000,7.6724580078125,2.698227643966675,-2.7507588863372803,-5.056506633758545
1701904792689450800,7.68945068359375,2.790783643722534,-3.0693633556365967,-5.2417707443237305
1701904792706441200,7.706441162109375,3.1741442680358887,-3.2683258056640625,-5.259396076202393
1701904792723435000,7.72343505859375,3.480642318725586,-3.2914812564849854,-5.108731746673584
1701904792740426000,7.740426025390625,3.6032824516296387,-3.4731178283691406,-4.6331915855407715
1701904792757418500,7.75741845703125,3.7376842498779297,-3.9298603534698486,-3.8816347122192383
1701904792774399200,7.774399169921875,3.77247953414917,-4.598286151885986,-2.965053081512451
1701904792791402200,7.79140234375,3.563998222351074,-5.225076675415039,-2.278359889984131
1701904792808393700,7.808393798828125,3.3361430168151855,-5.4649152755737305,-2.081963062286377
1701904792825383700,7.8253837890625,3.0794713497161865,-5.57118558883667,-1.8990888595581055
1701904792842377200,7.842377197265625,2.5636343955993652,-5.764653205871582,-1.2147455215454102
1701904792859370000,7.859369873046875,2.0284972190856934,-5.995099067687988,-0.8105506896972656
1701904792876361500,7.876361572265625,1.8347928524017334,-6.345575332641602,-0.8913803100585938
1701904792893354000,7.89335400390625,1.8988720178604126,-6.777341842651367,-1.2472991943359375
1701904792910345500,7.910345458984375,2.06419038772583,-6.665611267089844,-1.7553062438964844
1701904792927338000,7.927337890625,2.248939275741577,-6.034992218017578,-1.850182056427002
1701904792944329200,7.9443291015625,2.191667079925537,-5.048524856567383,-1.0586843490600586
1701904792961321700,7.96132177734375,1.7262510061264038,-4.203535079956055,0.445037841796875
1701904792978313000,7.97831298828125,1.1059437990188599,-3.721646308898926,1.8524904251098633
1701904792995305700,7.9953056640625,0.7145196199417114,-3.139021873474121,2.1435537338256836
1701904793012297000,8.012296875,0.368629515171051,-2.5693187713623047,1.349416732788086
1701904793029288700,8.029288818359374,0.19849973917007446,-1.7765343189239502,0.43363094329833984
1701904793046281500,8.046281494140626,-0.08166474103927612,-0.6577560901641846,-0.12132835388183594
1701904793063273200,8.063273193359375,-0.7439207434654236,0.4836254119873047,-0.03815937042236328
1701904793080262100,8.08026220703125,-1.4091545343399048,1.5019588470458984,0.48267650604248047
1701904793097247000,8.0972470703125,-1.6819363832473755,2.4950523376464844,0.7569246292114258
1701904793114240000,8.114239990234376,-1.8235552310943604,3.0527985095977783,0.3331108093261719
1701904793131232000,8.13123193359375,-1.6683099269866943,3.226942539215088,-0.17487525939941406
1701904793148226000,8.14822607421875,-1.4668679237365723,3.084968090057373,-0.32808351516723633
1701904793165216500,8.165216552734375,-1.3147333860397339,2.8796746730804443,-0.18355035781860352
1701904793182207700,8.182207763671874,-0.923500120639801,2.6827199459075928,0.21811151504516602
1701904793199199000,8.199198974609375,-0.7454578876495361,2.5715174674987793,0.9847397804260254
1701904793216194300,8.2161943359375,-0.9827902913093567,2.7463059425354004,1.663973331451416
1701904793233184300,8.233184326171875,-1.1472135782241821,3.013592004776001,2.4548916816711426
1701904793250174000,8.250174072265626,-1.1658092737197876,3.3539745807647705,3.4069533348083496
1701904793267172600,8.267172607421875,-1.104337215423584,3.6863861083984375,4.555009365081787
1701904793284162300,8.284162353515624,-1.226325273513794,3.8387017250061035,5.650113105773926
1701904793301151500,8.3011513671875,-1.2470805644989014,3.9165115356445312,6.411816596984863
1701904793318144000,8.31814404296875,-1.0447769165039062,3.9821877479553223,6.912012100219727
1701904793335144200,8.335144287109374,-0.7430233359336853,3.9234843254089355,7.473014831542969
1701904793352125200,8.352125244140625,-0.6023876667022705,3.5525412559509277,8.043679237365723
1701904793369117400,8.369117431640625,-0.5964090824127197,2.7751331329345703,8.309136390686035
1701904793386119700,8.38611962890625,-0.6970234513282776,2.0293617248535156,8.341926574707031
1701904793403112200,8.4031123046875,-0.8708995580673218,1.0283684730529785,8.856088638305664
1701904793420101400,8.420101318359375,-0.9228683710098267,0.6658501625061035,9.324217796325684
1701904793437096000,8.437095947265625,-0.9662412405014038,1.0911450386047363,9.23558235168457
1701904793454087400,8.45408740234375,-0.8105837106704712,1.626594066619873,8.711771011352539
1701904793471080000,8.471079833984374,-0.3612721562385559,1.7531509399414062,7.687535762786865
1701904793488071200,8.4880712890625,0.2993760108947754,1.120089054107666,6.692745208740234
1701904793505063400,8.5050634765625,1.1328999996185303,0.17516326904296875,5.801348686218262
1701904793522055200,8.52205517578125,1.5328370332717896,-0.6991863250732422,4.953305244445801
1701904793539047000,8.539046875,1.345048427581787,-1.2540030479431152,4.025040626525879
1701904793556039700,8.556039794921874,1.1381949186325073,-1.2739615440368652,2.9267187118530273
1701904793573031200,8.57303125,1.0805732011795044,-0.870328426361084,1.5885467529296875
1701904793590012400,8.590012451171875,1.1055002212524414,-0.4412388801574707,0.3124723434448242
1701904793607004200,8.607004150390624,1.2135124206542969,-0.09733724594116211,-0.861506462097168
1701904793624007700,8.624007568359374,1.4950129985809326,0.0009150505065917969,-1.7001981735229492
1701904793640999200,8.640999267578126,1.8206923007965088,-0.2855410575866699,-2.1713414192199707
1701904793657988000,8.657988037109375,2.07802414894104,-0.8502964973449707,-2.529432773590088
1701904793674986000,8.674986083984376,2.2957024574279785,-1.3686153888702393,-2.9642348289489746
1701904793691974400,8.691974365234374,2.3509554862976074,-1.838888168334961,-3.4438748359680176
1701904793708966700,8.708966552734376,2.3683366775512695,-2.220411539077759,-3.904712677001953
1701904793725957600,8.72595751953125,2.2403149604797363,-2.4185431003570557,-4.48423433303833
1701904793742951700,8.74295166015625,2.2400074005126953,-2.6867129802703857,-4.871099472045898
1701904793759942100,8.759942138671875,2.4548916816711426,-2.9588277339935303,-5.006142616271973
1701904793776935000,8.776934814453124,2.8156135082244873,-3.091740131378174,-4.995420932769775
1701904793793926400,8.793926513671876,3.182903528213501,-3.1348767280578613,-4.837008953094482
1701904793810918700,8.810918701171875,3.4277572631835938,-3.2633466720581055,-4.397466659545898
1701904793827910000,8.827909912109375,3.5817761421203613,-3.649961471557617,-3.870244026184082
1701904793844899800,8.84489990234375,3.560439109802246,-4.29991340637207,-3.3667140007019043
1701904793861893400,8.861893310546876,3.5653672218322754,-4.908374309539795,-2.927548408508301
1701904793878894600,8.87889453125,3.722992420196533,-5.44223690032959,-2.43521785736084
1701904793895877600,8.895877685546875,3.9234423637390137,-5.8489885330200195,-1.741358757019043
1701904793912870100,8.9128701171875,3.5281543731689453,-5.854662895202637,-1.410400390625
1701904793929843000,8.929843017578126,2.764158248901367,-5.9413161277771,-1.1417217254638672
1701904793946852000,8.94685205078125,1.9079140424728394,-5.927690505981445,-1.071608543395996
1701904793963848200,8.96384814453125,1.1954853534698486,-5.737124443054199,-1.3873252868652344
1701904793980827400,8.980827392578124,1.1028265953063965,-5.102567672729492,-1.6985383033752441
1701904793997829400,8.997829345703124,1.34280526638031,-4.436685562133789,-1.048201560974121
1701904794014822000,9.01482177734375,1.1021699905395508,-3.758802890777588,0.2058124542236328
1701904794031813000,9.031813232421875,0.16856300830841064,-3.4123003482818604,1.3901700973510742
1701904794048803800,9.048803955078125,-0.7876741886138916,-3.1359682083129883,1.7616910934448242
1701904794065784800,9.065784912109375,-1.4284640550613403,-2.8695952892303467,1.5009651184082031
1701904794082792200,9.082792236328125,-1.3455214500427246,-2.4559905529022217,0.9602317810058594
1701904794099780900,9.09978076171875,-0.7277762293815613,-1.7778434753417969,0.4386129379272461
1701904794116772400,9.1167724609375,0.1594373881816864,-0.7037725448608398,0.021669387817382812
1701904794133757000,9.1337568359375,0.5494895577430725,0.48265695571899414,0.023847579956054688
1701904794150757400,9.15075732421875,0.20785844326019287,1.6666383743286133,0.04440879821777344
1701904794167748900,9.167748779296875,-0.48674434423446655,2.390366554260254,0.04087638854980469
1701904794184737000,9.184737060546874,-0.9837544560432434,2.8601949214935303,0.04592609405517578
1701904794201726500,9.2017265625,-1.2493932247161865,2.8746657371520996,-0.04850196838378906
1701904794218724900,9.218724853515624,-1.1124554872512817,2.802320718765259,-0.10117912292480469
1701904794235716000,9.235716064453126,-0.8590620160102844,2.663463830947876,0.13766813278198242
1701904794252705800,9.252705810546875,-0.6198300719261169,2.6457526683807373,0.6266880035400391
1701904794269689600,9.269689697265624,-0.5202172994613647,2.7224907875061035,1.263181209564209
1701904794286692900,9.28669287109375,-0.6315338611602783,2.8686389923095703,1.9926457405090332
1701904794303681500,9.303681640625,-0.9954268932342529,3.058394432067871,2.663316249847412
1701904794320679200,9.32067919921875,-1.3559075593948364,3.1559181213378906,3.409337043762207
1701904794337657600,9.33765771484375,-1.5833983421325684,3.2039079666137695,4.303952217102051
1701904794354660600,9.35466064453125,-1.7084263563156128,3.187436580657959,5.11052942276001
1701904794371648800,9.371648681640625,-1.90205717086792,3.102212905883789,5.742201805114746
1701904794388644600,9.38864453125,-1.96549654006958,3.171469211578369,6.173454284667969
1701904794405636400,9.40563623046875,-2.105099678039551,3.3256030082702637,6.713725566864014
1701904794422627300,9.42262744140625,-2.3321707248687744,3.177718162536621,7.263386249542236
1701904794439608600,9.439608642578126,-2.531294345855713,2.6753530502319336,7.471062183380127
1701904794456612900,9.45661279296875,-2.4076333045959473,2.0451345443725586,7.370876312255859
1701904794473603600,9.473603515625,-2.0144004821777344,1.2243313789367676,7.6143598556518555
1701904794490596000,9.49059619140625,-1.8654519319534302,0.5868334770202637,7.833062648773193
1701904794507587600,9.507587646484374,-1.8016772270202637,0.5346641540527344,7.610605239868164
1701904794524581600,9.52458154296875,-1.5045427083969116,0.9829888343811035,6.945369720458984
1701904794541565400,9.5415654296875,-0.9448093175888062,1.1981830596923828,6.185093402862549
1701904794558568000,9.55856787109375,-0.19550827145576477,0.9095454216003418,5.509637832641602
1701904794575555600,9.5755556640625,0.5690525770187378,0.047072410583496094,5.185740947723389
1701904794592547600,9.592547607421874,1.1558218002319336,-0.8647661209106445,4.79989767074585
1701904794609539000,9.6095390625,1.3495960235595703,-1.3331608772277832,4.2387847900390625
1701904794626518500,9.6265185546875,1.2469292879104614,-1.2988877296447754,3.3141841888427734
1701904794643525400,9.643525390625,1.2199733257293701,-0.9307370185852051,2.147810935974121
1701904794660515300,9.660515380859374,1.2338736057281494,-0.5163631439208984,0.9596090316772461
1701904794677506600,9.677506591796876,1.2617530822753906,-0.17907381057739258,-0.09241104125976562
1701904794694498600,9.69449853515625,1.1621978282928467,-0.028831958770751953,-0.9111709594726562
1701904794711488300,9.71148828125,1.0428080558776855,0.025949954986572266,-1.6030635833740234
1701904794728486000,9.72848583984375,0.9154241681098938,-0.05577898025512695,-2.1362199783325195
1701904794745471200,9.74547119140625,0.9093267917633057,-0.17171382904052734,-2.6597518920898438
1701904794762463500,9.76246337890625,1.043651819229126,-0.3177952766418457,-3.241541862487793
1701904794779458300,9.779458251953125,1.262110948562622,-0.4924952983856201,-3.9227285385131836
1701904794796451000,9.796451171875,1.4346082210540771,-0.72153639793396,-4.6031317710876465
1701904794813442300,9.8134423828125,1.790030598640442,-0.9791977405548096,-5.120335578918457
1701904794830434800,9.830434814453126,2.193049907684326,-1.3004810810089111,-5.224103927612305
1701904794847426000,9.847426025390625,2.455188274383545,-1.6145703792572021,-5.118277072906494
1701904794864418300,9.864418212890625,2.7682318687438965,-1.8635637760162354,-4.826213836669922
1701904794881409800,9.881409912109374,3.047800064086914,-2.1810860633850098,-4.272106170654297
1701904794898402300,9.89840234375,3.241550922393799,-3.0121583938598633,-3.0798726081848145
1701904794915383300,9.91538330078125,3.2900469303131104,-3.632686138153076,-2.0960898399353027
1701904794932387000,9.932386962890625,3.0143256187438965,-4.036459922790527,-1.298039436340332
1701904794949377000,9.949376953125,2.8829917907714844,-4.080199718475342,-0.6744794845581055
1701904794966370800,9.966370849609374,2.796710968017578,-4.238399505615234,-0.25049686431884766
1701904794983361300,9.983361328125,2.767158269882202,-4.327225208282471,-0.13237380981445312
1701904795000354300,10.000354248046875,2.7714993953704834,-4.324165344238281,-0.4438362121582031
1701904795017345300,10.01734521484375,2.699094295501709,-4.643466949462891,-0.7752180099487305
1701904795034338000,10.034338134765624,2.52548885345459,-5.079090118408203,-1.0309200286865234
1701904795051329300,10.051329345703126,2.411799669265747,-5.35390567779541,-1.3840460777282715
1701904795068321800,10.06832177734375,2.334263324737549,-4.920693397521973,-2.0385537147521973
1701904795085313000,10.08531298828125,2.2990331649780273,-4.1825642585754395,-2.1618223190307617
1701904795102305800,10.102305908203125,1.890723466873169,-3.2949748039245605,-1.4585952758789062
1701904795119297000,10.119297119140626,1.1547945737838745,-2.7651917934417725,-0.37670230865478516
1701904795136278000,10.136278076171875,0.3625774383544922,-2.54536509513855,0.08922767639160156
1701904795153271000,10.15327099609375,-0.24030190706253052,-2.485905408859253,-0.2418689727783203
1701904795170273300,10.170273193359375,-0.3914335370063782,-2.33760142326355,-1.0104045867919922
1701904795187267600,10.187267578125,-0.14022105932235718,-1.7029705047607422,-1.8963961601257324
1701904795204254200,10.204254150390625,0.23687589168548584,-0.7101712226867676,-2.2262182235717773
1701904795221248800,10.221248779296875,0.3486723303794861,0.2631082534790039,-1.6620216369628906
1701904795238241300,10.2382412109375,0.2450912594795227,1.1986021995544434,-0.8960309028625488
1701904795255232500,10.255232421875,-0.049582064151763916,1.9766676425933838,-0.24797344207763672
1701904795272221700,10.2722216796875,-0.7085798382759094,2.496506690979004,0.22118854522705078
1701904795289205800,10.289205810546875,-1.6837559938430786,2.781421422958374,0.4977598190307617
1701904795306206200,10.306206298828124,-2.55167555809021,2.892591953277588,0.6968550682067871
1701904795323202800,10.323202880859375,-2.7940633296966553,2.7762460708618164,1.1313767433166504
1701904795340192500,10.340192626953124,-2.3408169746398926,2.5664570331573486,1.862222671508789
1701904795357184300,10.357184326171875,-1.8977878093719482,2.578260898590088,2.640753746032715
1701904795374176300,10.37417626953125,-1.8812174797058105,2.6509594917297363,3.266779899597168
1701904795391168000,10.39116796875,-1.8518881797790527,2.8916854858398438,3.803466320037842
1701904795408160300,10.40816015625,-1.6304402351379395,3.0214004516601562,4.540527820587158
1701904795425141200,10.425141357421875,-1.3752195835113525,2.9424257278442383,5.534982204437256
1701904795442144300,10.442144287109375,-1.4708607196807861,2.9048256874084473,6.336838245391846
1701904795459134700,10.459134765625,-1.7108207941055298,2.9903550148010254,6.794159412384033
1701904795476128800,10.476128662109375,-1.975820541381836,3.1376118659973145,6.893477916717529
1701904795493119500,10.493119384765626,-2.1300365924835205,3.1904373168945312,6.872512340545654
1701904795510112000,10.510112060546875,-2.2353506088256836,2.824028491973877,6.857529640197754
1701904795527102500,10.5271025390625,-2.249427080154419,2.2669010162353516,6.711597442626953
1701904795544092200,10.544092041015626,-2.0797324180603027,1.6661319732666016,6.735296726226807
1701904795561083400,10.56108349609375,-2.002845287322998,1.0774564743041992,6.904657363891602
1701904795578069000,10.578069091796875,-1.8019384145736694,0.692692756652832,7.01919412612915
1701904795595063000,10.59506298828125,-1.2738287448883057,0.6333580017089844,7.117753982543945
1701904795612062000,10.61206201171875,-0.6733170747756958,1.0675907135009766,6.7911553382873535
1701904795629045200,10.629045166015626,-0.1597556173801422,1.3700637817382812,6.297194480895996
1701904795646041900,10.646041748046875,0.2872491776943207,1.2746796607971191,5.714996814727783
1701904795663029800,10.66302978515625,0.7054198384284973,0.5971188545227051,5.382876396179199
1701904795680030500,10.680030517578125,1.0332995653152466,-0.23502492904663086,5.15134859085083
1701904795697022700,10.697022705078124,1.2967357635498047,-0.815488338470459,4.782485008239746
1701904795714015200,10.71401513671875,1.3368407487869263,-0.9443235397338867,4.044736385345459
1701904795731006700,10.7310068359375,1.4363653659820557,-0.6665811538696289,2.7832369804382324
1701904795747999000,10.7479990234375,1.5512633323669434,-0.3494987487792969,1.4999456405639648
1701904795764988000,10.76498779296875,1.678114891052246,-0.09517765045166016,0.3751821517944336
1701904795781979100,10.781979248046875,1.6597938537597656,-0.019082069396972656,-0.6062736511230469
1701904795798977000,10.79897705078125,1.5754305124282837,-0.08553647994995117,-1.3714799880981445
1701904795815966700,10.815966796875,1.3880751132965088,-0.2519216537475586,-2.0253686904907227
1701904795832958200,10.832958251953125,1.1677217483520508,-0.47040867805480957,-2.6075901985168457
1701904795849939200,10.849939208984376,1.1433688402175903,-0.7127742767333984,-3.291527271270752
1701904795866942700,10.866942626953126,1.399104118347168,-0.947624921798706,-3.8336381912231445
1701904795883934000,10.883933837890625,1.9934964179992676,-1.1904857158660889,-3.7281112670898438
1701904795900925700,10.90092578125,2.70308780670166,-1.3787896633148193,-3.368227958679199
1701904795917918200,10.917918212890624,3.010244846343994,-1.613783359527588,-3.3288378715515137
1701904795934909700,10.93490966796875,3.0196194648742676,-1.8232896327972412,-3.598273754119873
1701904795951902000,10.95190185546875,3.0150389671325684,-1.9492008686065674,-3.949038505554199
1701904795968897000,10.96889697265625,3.1730804443359375,-2.0273549556732178,-4.103366374969482
1701904795985886700,10.98588671875,3.245910882949829,-2.6520190238952637,-3.6193666458129883
1701904796002877200,11.002877197265626,3.278585433959961,-3.2724132537841797,-3.0866661071777344
1701904796019870000,11.019869873046876,3.062002420425415,-3.807645082473755,-2.6892175674438477
1701904796036860200,11.036860107421875,2.802525520324707,-4.1906609535217285,-2.659358024597168
1701904796053854200,11.053854248046875,2.65256667137146,-4.6606926918029785,-2.5617122650146484
1701904796070845000,11.070844970703124,2.740522861480713,-5.104225158691406,-2.4322686195373535
1701904796087837400,11.08783740234375,2.8955113887786865,-5.485172748565674,-2.19651460647583
1701904796104828700,11.10482861328125,3.020231246948242,-5.833315372467041,-1.6637887954711914
1701904796121819400,11.1218193359375,2.8433797359466553,-6.11533784866333,-1.3054838180541992
1701904796138815200,11.138815185546875,2.454113006591797,-6.282402038574219,-1.7115788459777832
1701904796155804400,11.155804443359376,2.4538800716400146,-6.035402297973633,-2.3667755126953125
1701904796172794400,11.17279443359375,2.759552478790283,-5.380962371826172,-2.3684139251708984
1701904796189786600,11.18978662109375,2.616797685623169,-4.752841949462891,-1.1602449417114258
1701904796206777900,11.20677783203125,1.8536720275878906,-4.22252082824707,0.2657966613769531
1701904796223773200,11.223773193359374,0.758864164352417,-3.8022265434265137,1.1203365325927734
1701904796240767000,11.24076708984375,0.02488112449645996,-3.255183458328247,1.0082359313964844
1701904796257757000,11.2577568359375,-0.33430159091949463,-2.7482500076293945,0.4900550842285156
1701904796274738400,11.274738525390624,-0.25522738695144653,-2.0523338317871094,0.10149097442626953
1701904796291730200,11.291730224609376,0.0148085355758667,-1.1735291481018066,0.027074813842773438
1701904796308732000,11.30873193359375,0.21452683210372925,-0.09712362289428711,0.09975814819335938
1701904796325722000,11.32572216796875,0.14083567261695862,1.1195869445800781,0.5075883865356445
1701904796342718700,11.34271875,-0.2185487151145935,1.9943742752075195,0.8672466278076172
1701904796359707600,11.359707763671874,-0.6122644543647766,2.6452624797821045,0.8848299980163574
1701904796376700700,11.37670068359375,-0.8907893300056458,2.8329408168792725,1.032820701599121
1701904796393692200,11.393692138671875,-0.9818533062934875,2.902195930480957,1.2527084350585938
1701904796410683600,11.41068359375,-0.9787295460700989,2.8079118728637695,1.5355911254882812
1701904796427676000,11.427676025390625,-0.8894848823547363,2.706554651260376,1.8194055557250977
1701904796444667100,11.444667236328126,-0.9283728003501892,2.7127251625061035,2.2834882736206055
1701904796461660000,11.461659912109376,-1.4503813982009888,2.6222381591796875,3.293257236480713
1701904796478651400,11.4786513671875,-2.733942747116089,2.8626179695129395,3.975968837738037
1701904796495644200,11.49564404296875,-3.991377830505371,3.050414562225342,4.447956562042236
1701904796512635100,11.51263525390625,-4.610189914703369,3.0054755210876465,4.965927600860596
1701904796529627600,11.529627685546876,-4.2040252685546875,2.8802247047424316,5.535741329193115
1701904796546618000,11.5466181640625,-3.2985048294067383,2.7920351028442383,6.099083423614502
1701904796563612200,11.563612060546875,-2.5787267684936523,2.9871387481689453,6.911346435546875
1701904796580608300,11.580608154296876,-2.5387604236602783,3.3665380477905273,7.727491855621338
1701904796597583000,11.5975830078125,-2.67781400680542,3.380484104156494,8.196962356567383
1701904796614577200,11.6145771484375,-2.6597647666931152,2.915851593017578,8.232815742492676
1701904796631570700,11.63157080078125,-2.659681797027588,2.169522285461426,8.20582103729248
1701904796648565800,11.648565673828125,-2.509601593017578,1.2156310081481934,8.578386306762695
1701904796665553700,11.6655537109375,-2.3173975944519043,0.616546630859375,8.885641098022461
1701904796682546200,11.682546142578126,-1.8518517017364502,0.9327454566955566,8.72100830078125
1701904796699537000,11.699536865234375,-1.3606661558151245,1.6708245277404785,7.916044235229492
1701904796716531000,11.716531005859375,-0.7663085460662842,2.190244674682617,6.916524887084961
1701904796733522000,11.73352197265625,-0.20307183265686035,1.8113727569580078,6.365326404571533
1701904796750511600,11.75051171875,0.2869201898574829,0.853482723236084,6.095637798309326
1701904796767507000,11.7675068359375,0.5284665822982788,-0.2541165351867676,5.747037410736084
1701904796784499200,11.784499267578125,0.7267847657203674,-1.0201129913330078,5.075822353363037
1701904796801491500,11.801491455078125,0.8836770057678223,-1.1399106979370117,3.8962817192077637
1701904796818478600,11.818478515625,1.1614265441894531,-0.8880491256713867,2.6258392333984375
1701904796835474000,11.835473876953126,1.5154887437820435,-0.4937896728515625,1.546642780303955
1701904796852469000,11.852468994140626,1.7197407484054565,-0.1553192138671875,0.6303215026855469
1701904796869469700,11.8694697265625,1.6507244110107422,0.05365705490112305,-0.17767906188964844
1701904796886458400,11.886458251953124,1.6411195993423462,0.17096900939941406,-0.9165568351745605
1701904796903449000,11.903448974609375,1.6410856246948242,0.10679340362548828,-1.4015564918518066
1701904796920442400,11.9204423828125,1.7445626258850098,-0.12000370025634766,-1.7896924018859863
1701904796937433600,11.93743359375,1.94937002658844,-0.41817522048950195,-2.3097214698791504
1701904796954425000,11.954425048828124,2.227494716644287,-0.7464144229888916,-2.806551933288574
1701904796971407000,11.971406982421875,2.499176263809204,-1.1216378211975098,-3.276628017425537
1701904796988409000,11.9884091796875,2.804126262664795,-1.4837660789489746,-3.7626986503601074
1701904797005401900,12.00540185546875,3.1997945308685303,-1.8015244007110596,-4.03693151473999
1701904797022393000,12.02239306640625,3.6194183826446533,-2.168412685394287,-4.05049467086792
1701904797039385600,12.039385498046874,3.9533166885375977,-2.370741605758667,-4.028226852416992
1701904797056376000,12.0563759765625,4.058602333068848,-2.5178463459014893,-3.8997373580932617
1701904797073368800,12.073368896484375,4.103005409240723,-2.88657546043396,-3.5344791412353516
1701904797090361900,12.09036181640625,4.053857803344727,-3.469508409500122,-2.9797606468200684
1701904797107353000,12.10735302734375,4.0292887687683105,-4.045572757720947,-2.404972553253174
1701904797124344600,12.124344482421876,3.7686638832092285,-4.6303911209106445,-1.9667282104492188
1701904797141337000,12.141337158203125,3.5424063205718994,-5.192760467529297,-1.7777719497680664
1701904797158327800,12.158327880859375,3.4210548400878906,-5.47091817855835,-1.651456356048584
1701904797175321600,12.175321533203125,3.424527168273926,-5.640615463256836,-1.0919008255004883
1701904797192309200,12.192309326171875,2.8450074195861816,-6.058723449707031,-0.6652393341064453
1701904797209304600,12.2093046875,1.7635698318481445,-6.417927265167236,-0.8394527435302734
1701904797226295800,12.2262958984375,1.1920557022094727,-6.610123157501221,-1.5862541198730469
1701904797243288600,12.24328857421875,1.7880111932754517,-5.931230545043945,-2.501980781555176
1701904797260279800,12.26027978515625,2.5207464694976807,-4.841156005859375,-2.599769115447998
1701904797277272300,12.277272216796876,2.427675247192383,-3.656585693359375,-1.780714511871338
1701904797294261000,12.294260986328124,1.280012607574463,-3.2356464862823486,-0.4146537780761719
1701904797311259000,12.3112587890625,0.04658937454223633,-3.008540630340576,0.3941001892089844
1701904797328247600,12.32824755859375,-0.8220610618591309,-2.8737640380859375,0.3113899230957031
1701904797345239800,12.34523974609375,-0.915168046951294,-2.6801698207855225,-0.29520606994628906
1701904797362231300,12.362231201171875,-0.4367430806159973,-2.199579954147339,-0.8689737319946289
1701904797379212500,12.379212646484374,0.17336693406105042,-1.4492967128753662,-1.2869071960449219
1701904797396216000,12.396216064453125,0.47927701473236084,-0.45501208305358887,-1.2401137351989746
1701904797413207800,12.413207763671876,0.02476900815963745,0.5301048755645752,-0.7450361251831055
1701904797430199300,12.43019921875,-0.747236430644989,1.4657840728759766,-0.36815547943115234
1701904797447191000,12.44719091796875,-1.3262842893600464,2.1247901916503906,-0.4130067825317383
1701904797464183600,12.46418359375,-1.6605870723724365,2.151712656021118,-0.48882532119750977
1701904797481175300,12.48117529296875,-1.3287041187286377,1.9470713138580322,-0.3080582618713379
1701904797498167300,12.498167236328126,-0.7332625985145569,1.631655216217041,0.38914918899536133
1701904797515148500,12.5151484375,-0.5009632110595703,1.687154769897461,1.118422031402588
1701904797532150800,12.53215087890625,-0.8473625779151917,1.7332038879394531,1.8881325721740723
1701904797549132500,12.549132568359376,-1.0479419231414795,1.8954353332519531,2.7849583625793457
1701904797566133500,12.566133544921875,-1.2859790325164795,2.109809398651123,3.674476146697998
1701904797583127800,12.5831279296875,-1.4845424890518188,2.5230350494384766,4.503014087677002
1701904797600118500,12.600118408203125,-1.6831085681915283,2.8127760887145996,5.480157375335693
1701904797617098800,12.6170986328125,-1.6938776969909668,2.967438220977783,6.595449924468994
1701904797634102000,12.63410205078125,-1.4734762907028198,3.097489356994629,7.666581153869629
1701904797651094800,12.6510947265625,-1.6038508415222168,3.68820858001709,8.098864555358887
1701904797668086000,12.6680859375,-1.8061847686767578,4.098433494567871,8.192983627319336
1701904797685078500,12.68507861328125,-2.2349495887756348,4.083890914916992,8.113377571105957
1701904797702066700,12.702066650390625,-2.471065044403076,3.484140396118164,8.043661117553711
1701904797719062300,12.719062255859376,-2.2995498180389404,2.762622356414795,7.999975681304932
1701904797736053500,12.736053466796875,-1.8503599166870117,1.8256206512451172,8.17758560180664
1701904797753035800,12.753035888671874,-1.3786274194717407,1.2642021179199219,8.038818359375
1701904797770026200,12.770026123046875,-0.7771913409233093,1.4339442253112793,7.578461170196533
1701904797787031000,12.787031005859374,-0.3270484209060669,2.1650218963623047,7.006069660186768
1701904797804010800,12.8040107421875,-0.17272412776947021,2.5966110229492188,6.560733795166016
1701904797821009200,12.821009033203126,-0.008595287799835205,2.38430118560791,6.105862140655518
1701904797838005200,12.838005126953124,0.34955424070358276,1.477323055267334,5.685538291931152
1701904797854997500,12.85499755859375,0.7816841006278992,0.40926027297973633,5.169567584991455
1701904797871989200,12.8719892578125,1.239577293395996,-0.2562904357910156,4.178179740905762
1701904797888972500,12.88897265625,1.6374340057373047,-0.42383670806884766,2.9855122566223145
1701904797905974000,12.90597412109375,1.9020673036575317,-0.28864526748657227,1.8583321571350098
1701904797922952000,12.922951904296875,1.9157378673553467,0.006020069122314453,0.8960781097412109
1701904797939959600,12.93995947265625,1.661217212677002,0.28110837936401367,0.19447803497314453
1701904797956948500,12.956948486328125,1.1532220840454102,0.45232391357421875,-0.4495863914489746
1701904797973941500,12.97394140625,0.7338007092475891,0.5250124931335449,-1.0154328346252441
1701904797990933200,12.990933349609374,0.5381935238838196,0.4367074966430664,-1.532196044921875
1701904798007916300,13.007916259765626,0.5386030673980713,0.21678781509399414,-2.095944404602051
1701904798024908300,13.024908203125,0.9435397982597351,-0.024800777435302734,-2.9251132011413574
1701904798041911000,13.0419111328125,1.7878496646881104,-0.34394216537475586,-3.4405412673950195
1701904798058900700,13.058900634765624,2.6462349891662598,-0.6460733413696289,-3.632488250732422
1701904798075892000,13.07589208984375,2.982753276824951,-0.8543040752410889,-3.6879830360412598
1701904798092881700,13.092881591796875,3.1128344535827637,-0.845409631729126,-3.8159584999084473
1701904798109887700,13.1098876953125,2.999253273010254,-0.9649622440338135,-3.7757129669189453
1701904798126868200,13.1268681640625,2.783562660217285,-1.1294636726379395,-3.6764445304870605
1701904798143842300,13.14384228515625,2.8192086219787598,-1.3890244960784912,-3.4560546875
1701904798160852200,13.160852294921876,3.010125160217285,-2.085270643234253,-2.8543896675109863
1701904798177843700,13.17784375,3.1081438064575195,-2.8137600421905518,-2.234671115875244
1701904798194836200,13.194836181640625,3.1075377464294434,-3.4044690132141113,-1.7629623413085938
1701904798211821800,13.21182177734375,3.1894478797912598,-3.961519718170166,-1.545691967010498
1701904798228807200,13.22880712890625,3.241727352142334,-4.498102188110352,-1.3444437980651855
1701904798245798400,13.24579833984375,3.3563618659973145,-4.758984565734863,-1.211164951324463
1701904798262805800,13.2628056640625,3.2888388633728027,-4.605751991271973,-1.3442330360412598
1701904798279794400,13.27979443359375,2.981391429901123,-4.629060745239258,-1.1114721298217773
1701904798296788500,13.29678857421875,2.26993465423584,-4.768918991088867,-1.1202030181884766
1701904798313779200,13.313779296875,1.5872325897216797,-4.89194393157959,-1.401564121246338
1701904798330771700,13.330771728515625,1.346048355102539,-4.646578788757324,-1.6794772148132324
1701904798347763000,13.347762939453125,1.4002479314804077,-4.017204284667969,-1.420659065246582
1701904798364751600,13.364751708984375,1.4139611721038818,-3.1176249980926514,-0.6243381500244141
1701904798381750000,13.38175,0.8823671340942383,-2.346590518951416,0.16165733337402344
1701904798398739000,13.398739013671875,-0.07389938831329346,-2.0423152446746826,0.7158069610595703
1701904798415731000,13.41573095703125,-0.7606366872787476,-1.90891695022583,0.7829504013061523
1701904798432723000,13.432722900390624,-0.9367884993553162,-1.850175380706787,0.5203742980957031
1701904798449714400,13.44971435546875,-0.9398102164268494,-1.569221019744873,0.1381969451904297
1701904798466706000,13.466705810546875,-0.8514131307601929,-0.8190269470214844,-0.34552574157714844
1701904798483699000,13.483698974609375,-0.7364601492881775,0.06119585037231445,-0.5612926483154297
1701904798500690400,13.5006904296875,-0.5828399062156677,1.072350263595581,-0.5444188117980957
1701904798517682000,13.517681884765626,-0.6960128545761108,1.8748867511749268,-0.7047562599182129
1701904798534671000,13.534671142578125,-0.9173560738563538,2.352656364440918,-0.8832812309265137
1701904798551666000,13.551666015625,-0.8987448215484619,2.580136775970459,-1.0042328834533691
1701904798568658700,13.56865869140625,-0.7029504776000977,2.557757616043091,-1.0054259300231934
1701904798585646800,13.585646728515625,-0.37395599484443665,2.3670642375946045,-0.7770161628723145
1701904798602639400,13.602639404296875,-0.33195918798446655,2.235973834991455,-0.14310836791992188
1701904798619633000,13.6196328125,-1.0059387683868408,2.2921814918518066,0.4661412239074707
1701904798636639700,13.6366396484375,-1.9310921430587769,2.388881206512451,1.1912813186645508
1701904798653617200,13.6536171875,-2.8543710708618164,2.3699841499328613,1.8178930282592773
1701904798670610200,13.670610107421876,-3.1942708492279053,2.4054574966430664,2.4195637702941895
1701904798687601200,13.68760107421875,-2.9654078483581543,2.283121109008789,3.394667148590088
1701904798704581400,13.704581298828124,-2.4947457313537598,2.1273193359375,4.4734063148498535
1701904798721583900,13.721583984375,-2.152658224105835,2.117246627807617,5.23673677444458
1701904798738580200,13.738580322265625,-2.0153274536132812,2.380459785461426,5.586655139923096
1701904798755569000,13.75556884765625,-1.7838572263717651,2.574605941772461,6.278613090515137
1701904798772567000,13.772567138671874,-1.7726577520370483,2.563096046447754,7.115206718444824
1701904798789552000,13.78955224609375,-1.9126391410827637,2.127439022064209,7.731908798217773
1701904798806546700,13.806546630859375,-2.109734058380127,1.7680954933166504,8.057395935058594
1701904798823536000,13.8235361328125,-2.364792585372925,0.9974455833435059,8.462717056274414
1701904798840529200,13.840529052734375,-2.2807862758636475,0.7319960594177246,8.381122589111328
1701904798857520600,13.857520751953125,-1.9516091346740723,0.9880714416503906,7.924360752105713
1701904798874513200,13.87451318359375,-1.3977601528167725,1.6053833961486816,7.07625150680542
1701904798891504400,13.89150439453125,-0.8535036444664001,1.9511890411376953,6.181662082672119
1701904798908497000,13.908496826171875,-0.1892109513282776,1.8137125968933105,5.347662448883057
1701904798925488400,13.92548828125,0.21266013383865356,1.0259380340576172,4.8036208152771
1701904798942480600,13.942480712890625,0.46980708837509155,0.07536077499389648,4.333478927612305
1701904798959471900,13.959471923828126,0.7130240201950073,-0.6352481842041016,3.8259472846984863
1701904798976463600,13.976463623046875,0.8133572936058044,-0.8695554733276367,3.077113151550293
1701904798993456600,13.99345654296875,0.9164037108421326,-0.6264157295227051,2.156646251678467
1701904799010448400,14.010448486328125,1.1118385791778564,-0.10051679611206055,1.2205891609191895
1701904799027426600,14.027426513671875,1.2057783603668213,0.43584680557250977,0.4442157745361328
1701904799044423400,14.04442333984375,1.0358819961547852,0.8010907173156738,-0.1759490966796875
1701904799061415000,14.061414794921875,0.8175085783004761,1.0169916152954102,-0.677398681640625
1701904799078408200,14.078408203125,0.6385581493377686,1.0520601272583008,-1.064784049987793
1701904799095398000,14.09539794921875,0.5041093826293945,0.9016399383544922,-1.4700226783752441
1701904799112392400,14.112392333984374,0.6949818730354309,0.766319751739502,-2.0691308975219727
1701904799129378800,14.12937890625,1.0427019596099854,0.5070247650146484,-2.6275205612182617
1701904799146386200,14.14638623046875,1.4838546514511108,0.15236139297485352,-3.0468907356262207
1701904799163374600,14.16337451171875,1.9030969142913818,-0.18488168716430664,-3.4390268325805664
1701904799180367400,14.180367431640626,2.247767448425293,-0.5237393379211426,-3.777860641479492
1701904799197358800,14.19735888671875,2.4628281593322754,-0.982529878616333,-3.8573055267333984
1701904799214351400,14.214351318359375,2.80580472946167,-1.308419942855835,-3.814157485961914
1701904799231342800,14.2313427734375,3.1868085861206055,-1.548417329788208,-3.5609965324401855
1701904799248335000,14.248335205078124,3.486870288848877,-2.086789131164551,-2.8338661193847656
1701904799265326300,14.265326416015625,3.6216437816619873,-2.66624116897583,-2.12103271484375
1701904799282311200,14.282311279296875,3.403111219406128,-3.2355546951293945,-1.6966156959533691
1701904799299309300,14.299309326171874,3.3234758377075195,-3.7329747676849365,-1.2359108924865723
1701904799316303600,14.3163037109375,3.281078815460205,-4.17017936706543,-0.8685884475708008
1701904799333294000,14.333294189453126,3.290724277496338,-4.4681396484375,-0.4378547668457031
1701904799350287400,14.350287353515625,3.098304510116577,-4.447327613830566,-0.31540584564208984
1701904799367277300,14.36727734375,2.7051920890808105,-4.617169380187988,-0.32038211822509766
1701904799384271400,14.384271240234375,2.144266128540039,-4.803988456726074,-0.6871719360351562
1701904799401261600,14.401261474609376,1.7713382244110107,-4.889764308929443,-1.6661553382873535
1701904799418254000,14.418254150390625,1.6080820560455322,-4.6168060302734375,-2.6446685791015625
1701904799435245600,14.43524560546875,1.8224048614501953,-3.85060977935791,-2.870309352874756
1701904799452235500,14.452235595703126,1.8445954322814941,-3.0393166542053223,-2.2949609756469727
1701904799469221600,14.4692216796875,1.2472779750823975,-2.457437515258789,-1.1725921630859375
1701904799486221300,14.48622119140625,0.5077452063560486,-2.072389602661133,-0.4418678283691406
1701904799503214000,14.503214111328125,-0.15395545959472656,-2.017207384109497,-0.25807857513427734
1701904799520205800,14.520205810546875,-0.3866885304450989,-2.0445666313171387,-0.46280765533447266
1701904799537197000,14.537197021484374,-0.16127967834472656,-1.7621188163757324,-0.9157781600952148
1701904799554189600,14.554189453125,0.26676031947135925,-0.9912886619567871,-1.305513858795166
1701904799571170300,14.57117041015625,0.441524863243103,0.03940391540527344,-1.2664146423339844
1701904799588173600,14.588173583984375,0.17990976572036743,1.0837316513061523,-1.029360294342041
1701904799605164800,14.605164794921874,-0.47417497634887695,1.9307763576507568,-0.8546328544616699
1701904799622154000,14.622154052734375,-0.9986295700073242,2.392500400543213,-0.6638708114624023
1701904799639148800,14.639148681640625,-1.13802170753479,2.460087776184082,-0.20753192901611328
1701904799656141000,14.65614111328125,-1.0151268243789673,2.3612167835235596,0.2718367576599121
1701904799673132300,14.67313232421875,-0.8114619851112366,2.297159433364868,0.5481891632080078
1701904799690119000,14.690118896484375,-0.6957634687423706,2.269378662109375,0.9024581909179688
1701904799707118800,14.707118896484374,-0.873685359954834,2.2961912155151367,1.2276582717895508
1701904799724108800,14.72410888671875,-1.2139071226119995,2.3868699073791504,1.710378646850586
1701904799741097500,14.741097412109376,-1.385084629058838,2.601752758026123,2.3252429962158203
1701904799758095000,14.75809521484375,-1.3631868362426758,2.8564963340759277,3.0404052734375
1701904799775084000,14.775083984375,-1.2437071800231934,2.928236961364746,3.7953410148620605
1701904799792076500,14.79207666015625,-1.0609685182571411,2.843377113342285,4.39810037612915
1701904799809075500,14.809075439453125,-0.9464912414550781,2.7102880477905273,5.026650905609131
1701904799826058200,14.826058349609376,-0.9694421291351318,2.768136978149414,5.565760612487793
1701904799843054000,14.84305419921875,-1.3355624675750732,3.145111560821533,5.91978645324707
1701904799860040700,14.860040771484375,-1.9930592775344849,3.2728781700134277,6.515916347503662
1701904799877034800,14.87703466796875,-2.396331787109375,3.0120630264282227,7.227417945861816
1701904799894026200,14.894026123046874,-2.410883665084839,2.577101707458496,7.674923896789551
1701904799911021800,14.911021728515625,-2.363948345184326,2.029334545135498,7.850313186645508
1701904799928011800,14.92801171875,-2.298290729522705,1.3706297874450684,8.13784122467041
1701904799945004300,14.94500439453125,-1.9978716373443604,1.1913719177246094,8.184188842773438
1701904799961994200,14.961994140625,-1.538435935974121,1.543391227722168,7.928860187530518
1701904799978987000,14.978987060546874,-1.1387903690338135,1.7411103248596191,7.474467754364014
1701904799995979300,14.995979248046876,-0.5424970388412476,1.689131259918213,6.658791542053223
1701904800012967400,15.012967529296875,0.2041720747947693,0.9815220832824707,5.998383522033691
1701904800029952800,15.029952880859375,0.8153746128082275,-0.11909675598144531,5.510898113250732
1701904800046954800,15.046954833984374,1.0775146484375,-0.9383459091186523,4.87090539932251
1701904800063947000,15.063947021484376,1.0609924793243408,-1.2634906768798828,4.033639430999756
1701904800080938200,15.080938232421875,1.0391128063201904,-0.9912524223327637,3.05435848236084
1701904800097918000,15.09791796875,0.9299188852310181,-0.44214725494384766,2.002906322479248
1701904800114907100,15.1149072265625,0.7754478454589844,0.15946197509765625,1.0804686546325684
1701904800131911000,15.131910888671875,0.6104432940483093,0.6451249122619629,0.3199739456176758
1701904800148894000,15.14889404296875,0.5149189233779907,0.9138073921203613,-0.32233285903930664
1701904800165889800,15.165889892578125,0.48417526483535767,0.9739837646484375,-0.9109468460083008
1701904800182881000,15.182881103515625,0.6133246421813965,0.8047041893005371,-1.5565876960754395
1701904800199875800,15.199875732421875,0.908531665802002,0.5162343978881836,-2.2219748497009277
1701904800216865300,15.216865234375,1.2014460563659668,0.1853017807006836,-2.8671011924743652
1701904800233863400,15.233863525390625,1.5661635398864746,-0.14444398880004883,-3.36906099319458
1701904800250848300,15.25084814453125,1.9105381965637207,-0.48140621185302734,-3.766383647918701
1701904800267846000,15.267845947265625,2.2174205780029297,-0.9555356502532959,-3.905336856842041
1701904800284833500,15.28483349609375,2.6922569274902344,-1.2254981994628906,-4.04026460647583
1701904800301834000,15.301833984375,3.0570731163024902,-1.4031639099121094,-4.1290130615234375
1701904800318824700,15.31882470703125,3.243880271911621,-1.750023365020752,-3.9444775581359863
1701904800335807000,15.335806884765624,3.482741355895996,-2.4048988819122314,-3.283022880554199
1701904800352805600,15.3528056640625,3.49783992767334,-3.3017706871032715,-2.5127334594726562
1701904800369791700,15.369791748046875,3.3777668476104736,-3.9678726196289062,-2.0330147743225098
1701904800386792000,15.3867919921875,3.159848928451538,-4.349314212799072,-1.9518342018127441
1701904800403786000,15.403785888671875,2.8285746574401855,-4.613062858581543,-1.950078010559082
1701904800420776700,15.420776611328124,2.684447765350342,-4.799655914306641,-1.7291183471679688
1701904800437769000,15.43776904296875,2.654947280883789,-4.898410797119141,-1.1813082695007324
1701904800454757000,15.454757080078124,2.6560065746307373,-5.0678839683532715,-0.6953649520874023
1701904800471753000,15.4717529296875,2.418257236480713,-5.29665994644165,-0.7002696990966797
1701904800488744200,15.488744140625,2.2996153831481934,-5.416788101196289,-1.3408913612365723
1701904800505734100,15.505734130859375,2.4422450065612793,-4.836860656738281,-2.1434326171875
1701904800522727700,15.522727783203125,2.633427858352661,-4.070398330688477,-2.1132092475891113
1701904800539720400,15.539720458984375,2.6837706565856934,-3.1984076499938965,-1.3158931732177734
1701904800556699600,15.55669970703125,2.0621092319488525,-2.651829719543457,-0.4580574035644531
1701904800573706000,15.5737060546875,1.0185531377792358,-2.4211390018463135,-0.07146549224853516
1701904800590696000,15.590696044921875,0.02943587303161621,-2.361872673034668,-0.37819480895996094
1701904800607688000,15.60768798828125,-0.3475205898284912,-2.3341846466064453,-0.9310588836669922
1701904800624679400,15.624679443359375,0.28023213148117065,-1.8775978088378906,-1.308706283569336
1701904800641672000,15.641671875,0.9064052700996399,-0.9604654312133789,-1.3333024978637695
1701904800658655700,15.65865576171875,0.9840940237045288,0.061553955078125,-0.6588258743286133
1701904800675656000,15.675656005859375,0.32976552844047546,1.237116813659668,-0.2918376922607422
1701904800692647200,15.692647216796875,-0.7880226373672485,2.195115089416504,-0.32456254959106445
1701904800709639000,15.709638916015624,-1.754086971282959,2.6643102169036865,-0.33256006240844727
1701904800726631700,15.726631591796876,-1.977660894393921,2.654679298400879,-0.14060115814208984
1701904800743613400,15.743613525390625,-1.4896174669265747,2.3771674633026123,0.1475672721862793
1701904800760615000,15.760614990234375,-0.6683493852615356,2.1414198875427246,0.44696664810180664
1701904800777607400,15.777607421875,-0.0939897745847702,2.036586284637451,0.8379335403442383
1701904800794598700,15.7945986328125,-0.13805323839187622,2.080979824066162,1.357121467590332
1701904800811591200,15.811591064453125,-0.9626386761665344,2.2797932624816895,1.9616727828979492
1701904800828582400,15.82858251953125,-1.8604096174240112,2.498305320739746,2.4786019325256348
1701904800845576000,15.845575927734375,-2.333372116088867,2.76297664642334,2.9038848876953125
1701904800862565000,15.862565185546876,-2.282529830932617,2.7606873512268066,3.5777664184570312
1701904800879558400,15.879558349609376,-1.9369983673095703,2.7410759925842285,4.2161335945129395
1701904800896549000,15.896549072265625,-1.6615943908691406,2.692483425140381,4.848042011260986
1701904800913543400,15.91354345703125,-1.9013452529907227,2.7887768745422363,5.499002456665039
1701904800930534100,15.9305341796875,-2.646589517593384,2.862675666809082,6.2813544273376465
1701904800947526400,15.9475263671875,-3.198845624923706,2.7397727966308594,7.147816181182861
1701904800964517600,15.964517578125,-3.497036933898926,2.295886516571045,8.074788093566895
1701904800981510000,15.981510009765625,-3.357685089111328,1.9395928382873535,8.282018661499023
1701904800998490000,15.998489990234376,-3.085139274597168,1.1810736656188965,8.601432800292969
1701904801015494700,16.01549462890625,-2.6758148670196533,0.5274505615234375,8.7353515625
1701904801032479700,16.032479736328124,-2.0347466468811035,0.5293941497802734,8.518209457397461
1701904801049480400,16.04948046875,-1.5578603744506836,1.1334705352783203,7.998613357543945
1701904801066469400,16.066469482421876,-1.2631313800811768,1.6509418487548828,7.253738880157471
1701904801083461600,16.083461669921874,-0.868422269821167,1.6556181907653809,6.478089809417725
1701904801100452900,16.100452880859375,-0.4001842737197876,0.8990139961242676,5.928236484527588
1701904801117445600,16.117445556640625,0.05223488807678223,-0.09636354446411133,5.190821170806885
1701904801134436900,16.134436767578126,0.5080315470695496,-0.7156281471252441,4.083150386810303
1701904801151429400,16.151429443359376,0.8400207161903381,-0.8191337585449219,2.9876084327697754
1701904801168420900,16.1684208984375,0.9000663757324219,-0.5247659683227539,1.9604859352111816
1701904801185410300,16.185410400390627,0.7652434706687927,-0.0992131233215332,1.0392513275146484
1701904801202406400,16.202406494140625,0.5595188736915588,0.33139944076538086,0.18954181671142578
1701904801219396000,16.21939599609375,0.3814258575439453,0.5432047843933105,-0.5062441825866699
1701904801236388900,16.236388916015624,0.3116759955883026,0.5923881530761719,-1.1613378524780273
1701904801253380600,16.253380615234374,0.3566955327987671,0.4896683692932129,-1.7224416732788086
1701904801270372400,16.270372314453127,0.5240076780319214,0.28801441192626953,-2.216042995452881
1701904801287363800,16.28736376953125,0.8014532327651978,0.026561737060546875,-2.6139893531799316
1701904801304356900,16.30435693359375,1.1063601970672607,-0.29030752182006836,-3.001516819000244
1701904801321348600,16.3213486328125,1.3866181373596191,-0.6409144401550293,-3.2301878929138184
1701904801338339600,16.338339599609377,1.702260971069336,-0.9216852188110352,-3.4965920448303223
1701904801355332000,16.35533203125,2.0116281509399414,-1.1144170761108398,-3.7585973739624023
1701904801372323600,16.372323486328124,2.2822976112365723,-1.2989866733551025,-3.9123072624206543
1701904801389315800,16.38931591796875,2.5453176498413086,-1.6413490772247314,-3.827789783477783
1701904801406306300,16.406306396484375,2.7632548809051514,-1.9478645324707031,-3.6538262367248535
1701904801423300600,16.423300537109377,2.873729705810547,-2.3196845054626465,-3.301571846008301
1701904801440290800,16.440290771484374,2.6382622718811035,-2.734318971633911,-3.231884479522705
1701904801457273000,16.457273193359374,2.252241611480713,-3.4691054821014404,-3.0200247764587402
1701904801474275000,16.474275146484374,2.202329397201538,-4.1161651611328125,-2.6586599349975586
1701904801491267600,16.491267578125,2.428234100341797,-4.87697172164917,-2.2237958908081055
1701904801508258800,16.5082587890625,2.542720317840576,-5.079093933105469,-1.7363519668579102
1701904801525260000,16.525260009765624,2.2939937114715576,-5.097891330718994,-1.1894750595092773
1701904801542239500,16.542239501953127,1.8020622730255127,-5.088551998138428,-0.9150819778442383
1701904801559234800,16.55923486328125,1.3161541223526,-5.29630184173584,-0.9955739974975586
1701904801576226300,16.576226318359375,1.1867191791534424,-5.42642068862915,-1.2667207717895508
1701904801593216300,16.59321630859375,1.5243597030639648,-5.115238189697266,-1.5480828285217285
1701904801610208800,16.610208740234373,2.0045390129089355,-4.460528373718262,-1.41802978515625
1701904801627200800,16.62720068359375,2.3325867652893066,-3.6161186695098877,-1.0013742446899414
1701904801644195800,16.64419580078125,2.1730704307556152,-3.109644889831543,-0.30388641357421875
1701904801661187000,16.66118701171875,1.5372374057769775,-2.851283073425293,0.2826519012451172
1701904801678174500,16.678174560546875,0.7525631785392761,-2.55568528175354,0.36628055572509766
1701904801695170300,16.69517041015625,0.19882488250732422,-2.2246651649475098,0.1362447738647461
1701904801712162000,16.712162109375,0.1767788529396057,-1.5679125785827637,-0.3890266418457031
1701904801729142800,16.729142822265626,0.5288804173469543,-0.5969314575195312,-0.9107651710510254
1701904801746146000,16.74614599609375,0.6654888391494751,0.4467635154724121,-1.2478032112121582
1701904801763137800,16.7631376953125,0.5964367389678955,1.4335124492645264,-1.0820255279541016
1701904801780129300,16.78012939453125,0.33420658111572266,2.2172091007232666,-0.7554788589477539
1701904801797121000,16.79712109375,-0.3147348165512085,2.6992809772491455,-0.5269303321838379
1701904801814113800,16.81411376953125,-0.9894490838050842,2.7736992835998535,-0.2608208656311035
1701904801831105500,16.83110546875,-1.2484829425811768,2.6582157611846924,0.03684377670288086
1701904801848094700,16.8480947265625,-1.1301701068878174,2.370333433151245,0.48568248748779297
1701904801865089800,16.86508984375,-0.994425892829895,2.1082210540771484,0.8929691314697266
1701904801882079200,16.882079345703126,-1.0748112201690674,2.0489258766174316,1.2618522644042969
1701904801899074600,16.899074462890624,-1.539738655090332,2.1707491874694824,1.7458152770996094
1701904801916064800,16.916064697265625,-2.0460236072540283,2.3990631103515625,2.2805333137512207
1701904801933054000,16.933053955078126,-2.403860092163086,2.61735200881958,3.1514201164245605
1701904801950038000,16.9500380859375,-2.6058578491210938,2.5824661254882812,4.085648059844971
1701904801967041000,16.967041015625,-2.5443029403686523,2.4777350425720215,4.821943759918213
1701904801984032300,16.9840322265625,-2.573168992996216,2.361070156097412,5.36972713470459
1701904802001024800,17.001024658203125,-2.886981964111328,2.4833273887634277,5.865256309509277
1701904802018018800,17.018018798828123,-3.286649703979492,2.5950303077697754,6.607769966125488
1701904802035008300,17.03500830078125,-3.7644731998443604,2.438680648803711,7.535745620727539
1701904802051996700,17.05199658203125,-3.940110921859741,2.037543773651123,8.03341007232666
1701904802068973300,17.068973388671875,-3.816868782043457,1.7556238174438477,8.023916244506836
1701904802085979600,17.085979736328124,-3.552100419998169,1.1000752449035645,8.212181091308594
1701904802102979600,17.1029794921875,-3.2417986392974854,0.598689079284668,8.435508728027344
1701904802119966500,17.119966552734375,-3.203524351119995,0.5589818954467773,8.567764282226562
1701904802136960800,17.136960693359374,-2.8532562255859375,0.730133056640625,8.264372825622559
1701904802153951500,17.153951416015627,-1.7052173614501953,1.1550703048706055,7.309719085693359
1701904802170933000,17.17093310546875,-0.4305970072746277,1.2615675926208496,6.406789302825928
1701904802187935200,17.187935302734374,0.666962206363678,0.96539306640625,5.801479816436768
1701904802204924700,17.204924560546875,1.1126407384872437,0.4831838607788086,5.201136589050293
1701904802221911000,17.2219111328125,1.1096317768096924,0.07258892059326172,4.376894950866699
1701904802238911500,17.238911376953126,0.8717082142829895,-0.1429271697998047,3.445737838745117
1701904802255903000,17.255903076171876,0.6578980684280396,0.10478544235229492,2.376244068145752
1701904802272895000,17.27289501953125,0.6125019788742065,0.5253715515136719,1.4054241180419922
1701904802289887700,17.2898876953125,0.6265265941619873,0.9768986701965332,0.5741081237792969
1701904802306878000,17.3068779296875,0.718368649482727,1.336616039276123,-0.01135110855102539
1701904802323860500,17.323860595703124,0.7836258411407471,1.3818044662475586,-0.40342235565185547
1701904802340862500,17.340862548828124,0.9648841619491577,1.3164310455322266,-0.7310624122619629
1701904802357854000,17.35785400390625,1.167685627937317,1.0890789031982422,-1.109156608581543
1701904802374836200,17.374836181640624,1.4461015462875366,0.7483768463134766,-1.5451421737670898
1701904802391838000,17.391837890625,1.6411651372909546,0.39811134338378906,-2.02402925491333
1701904802408838000,17.408837890625,1.9313983917236328,0.06369543075561523,-2.4323182106018066
1701904802425819000,17.42581884765625,2.2964348793029785,-0.30782175064086914,-2.682344436645508
1701904802442813700,17.442813720703125,2.831469774246216,-0.6419315338134766,-2.7753114700317383
1701904802459805400,17.459805419921874,3.3282814025878906,-1.030388355255127,-2.627821445465088
1701904802476787200,17.476787109375,3.863006114959717,-1.3602747917175293,-2.479869842529297
1701904802493792500,17.49379248046875,4.283039093017578,-1.91086745262146,-2.152376651763916
1701904802510779000,17.51077880859375,4.477975845336914,-2.612994909286499,-1.880537986755371
1701904802527769000,17.52776904296875,4.502653121948242,-3.2522144317626953,-1.7427310943603516
1701904802544760600,17.544760498046877,4.536893844604492,-3.935133457183838,-1.5986356735229492
1701904802561747500,17.56174755859375,4.683560371398926,-4.503654479980469,-1.4808568954467773
1701904802578742800,17.57874267578125,4.8828206062316895,-5.067614555358887,-1.1530251502990723
1701904802595734500,17.595734619140625,4.7978386878967285,-5.244745254516602,-1.194981575012207
1701904802612724700,17.612724853515626,4.277353286743164,-5.205846786499023,-1.7090644836425781
1701904802629725700,17.6297255859375,3.7588536739349365,-5.5338897705078125,-2.1488280296325684
1701904802646718000,17.646718017578124,3.535480499267578,-5.893463134765625,-2.354300022125244
1701904802663708400,17.66370849609375,3.107163429260254,-5.941001892089844,-2.9476699829101562
1701904802680700400,17.680700439453126,2.646150827407837,-5.32154655456543,-3.5676403045654297
1701904802697692200,17.697692138671876,2.3204345703125,-4.221654891967773,-3.396653652191162
1701904802714684700,17.7146845703125,1.8053861856460571,-3.237255096435547,-2.469428062438965
1701904802731676200,17.73167626953125,1.2982699871063232,-2.6182165145874023,-1.6594529151916504
1701904802748665900,17.748665771484376,0.8685241341590881,-2.4729487895965576,-1.2740440368652344
1701904802765660000,17.765659912109374,0.6855442523956299,-2.5881378650665283,-1.1823549270629883
1701904802782654700,17.78265478515625,0.7671507000923157,-2.566025733947754,-1.3185529708862305
1701904802799643400,17.799643310546877,0.6611746549606323,-2.2142484188079834,-1.4206924438476562
1701904802816631600,17.816631591796874,0.42020803689956665,-1.4919023513793945,-1.2788991928100586
1701904802833631700,17.8336318359375,-0.07594752311706543,-0.512937068939209,-0.7602667808532715
1701904802850620000,17.850619873046874,-0.6227988004684448,0.5405235290527344,-0.3350563049316406
1701904802867611100,17.867611083984375,-1.2244845628738403,1.4022915363311768,-0.16574764251708984
1701904802884601000,17.88460107421875,-1.626144528388977,1.9201555252075195,0.05680274963378906
1701904802901597700,17.90159765625,-1.6123076677322388,2.061018705368042,0.5206942558288574
1701904802918587100,17.918587158203124,-1.3877205848693848,1.9260220527648926,1.1472654342651367
1701904802935578600,17.93557861328125,-1.282888412475586,1.7900338172912598,1.7255964279174805
1701904802952568000,17.952568115234374,-1.5627598762512207,1.7578420639038086,2.155022144317627
1701904802969562600,17.969562744140624,-1.8370795249938965,1.9129600524902344,2.551445960998535
1701904802986544400,17.98654443359375,-2.1849870681762695,2.222358226776123,2.964384078979492
1701904803003546400,18.00354638671875,-2.399461269378662,2.3712730407714844,3.6042442321777344
1701904803020538600,18.02053857421875,-2.3201208114624023,2.4560160636901855,4.383323669433594
1701904803037530400,18.0375302734375,-2.053147315979004,2.5559616088867188,5.030794620513916
1701904803054522400,18.0545224609375,-1.9824295043945312,2.594728946685791,5.662147045135498
1701904803071514000,18.07151416015625,-2.1989903450012207,2.730252265930176,6.142547130584717
1701904803088506400,18.08850634765625,-2.50827693939209,2.9453864097595215,6.59339714050293
1701904803105497900,18.105497802734376,-2.9465434551239014,3.241100311279297,6.981945514678955
1701904803122490000,18.122489990234374,-3.470677375793457,3.1537861824035645,7.502500534057617
1701904803139470000,18.139469970703125,-3.73868465423584,2.7945518493652344,7.9225358963012695
1701904803156474600,18.156474609375,-3.6278834342956543,2.3791656494140625,8.047801971435547
1701904803173465300,18.17346533203125,-3.2737178802490234,1.7455005645751953,8.356230735778809
1701904803190457900,18.190457763671876,-2.9773917198181152,0.9238700866699219,8.802721977233887
1701904803207448300,18.2074482421875,-2.4021353721618652,0.5426058769226074,8.975627899169922
1701904803224445700,18.22444580078125,-1.8438506126403809,0.9673266410827637,8.755311965942383
1701904803241430000,18.241429931640624,-1.5890547037124634,1.8652453422546387,7.949043273925781
1701904803258425600,18.258425537109375,-1.1477773189544678,2.39957332611084,6.945058345794678
1701904803275417000,18.2754169921875,-0.6004304885864258,2.071688652038574,6.1919779777526855
1701904803292409300,18.292409423828126,0.04556006193161011,1.1269044876098633,5.568098545074463
1701904803309400600,18.309400634765623,0.5214323997497559,0.07541084289550781,4.7033233642578125
1701904803326392300,18.326392333984376,0.7529886960983276,-0.5069122314453125,3.491344451904297
1701904803343374600,18.34337451171875,0.9609479308128357,-0.6184482574462891,2.3324193954467773
1701904803360376800,18.360376953125,1.2294042110443115,-0.36832284927368164,1.3037500381469727
1701904803377368000,18.3773681640625,1.377848505973816,-0.000008106231689453125,0.38684940338134766
1701904803394360600,18.394360595703127,1.4227306842803955,0.3456230163574219,-0.36418867111206055
1701904803411352000,18.41135205078125,1.3386495113372803,0.5275583267211914,-0.9224567413330078
1701904803428344600,18.428344482421874,1.2917475700378418,0.5378260612487793,-1.2994966506958008
1701904803445332000,18.44533203125,1.241516351699829,0.30958986282348633,-1.6403303146362305
1701904803462328600,18.46232861328125,1.339342474937439,-0.0858001708984375,-1.9156146049499512
1701904803479319600,18.479319580078126,1.6751656532287598,-0.4719576835632324,-2.283283233642578
1701904803496312000,18.49631201171875,2.0426623821258545,-0.9705142974853516,-2.707228660583496
1701904803513303600,18.513303466796874,2.501310110092163,-1.4430925846099854,-3.078324317932129
1701904803530291700,18.530291748046874,2.993248701095581,-1.883082628250122,-3.404242992401123
1701904803547287800,18.547287841796877,3.6179661750793457,-2.240360975265503,-3.3898062705993652
1701904803564279800,18.56427978515625,4.023824691772461,-2.4067587852478027,-3.278569221496582
1701904803581269800,18.581269775390624,4.35435152053833,-2.384387731552124,-3.1201162338256836
1701904803598263600,18.598263671875,4.618556022644043,-2.513307809829712,-2.810825824737549
1701904803615242500,18.615242431640624,4.622941017150879,-3.0392045974731445,-2.2483882904052734
1701904803632238800,18.63223876953125,4.398843765258789,-3.6578726768493652,-1.9961090087890625
1701904803649228300,18.649228271484375,4.021648406982422,-4.218771934509277,-2.1388120651245117
1701904803666225700,18.6662255859375,3.9339523315429688,-4.710545539855957,-2.3932876586914062
1701904803683213300,18.68321337890625,3.92031192779541,-5.066479682922363,-2.5152525901794434
1701904803700212200,18.700212158203126,3.7091023921966553,-5.203580856323242,-2.4657087326049805
1701904803717195500,18.717195556640625,3.2459192276000977,-5.083009243011475,-2.3335165977478027
1701904803734186800,18.734186767578127,2.419659376144409,-5.053439140319824,-2.5274100303649902
1701904803751183000,18.75118310546875,1.4592887163162231,-5.252507209777832,-2.9346327781677246
1701904803768177400,18.768177490234375,0.9383115768432617,-5.337008476257324,-3.444851875305176
1701904803785171700,18.785171630859374,1.2352796792984009,-4.801928997039795,-3.5291123390197754
1701904803802162200,18.802162109375,1.4793249368667603,-4.237305641174316,-2.267460346221924
1701904803819149000,18.819149169921875,1.1114027500152588,-3.4261021614074707,-0.7325067520141602
1701904803836134400,18.836134521484375,0.11625784635543823,-2.915466547012329,0.1997833251953125
1701904803853133000,18.853133056640626,-0.9136447906494141,-2.752150297164917,0.44548892974853516
1701904803870122500,18.87012255859375,-1.1646831035614014,-2.744976282119751,0.32503318786621094
1701904803887127300,18.887127197265624,-0.7488948106765747,-2.5993752479553223,0.0452728271484375
1701904803904117200,18.9041171875,0.028385281562805176,-2.015028953552246,-0.33339691162109375
1701904803921109000,18.92110888671875,0.5125054121017456,-1.0374464988708496,-0.3290376663208008
1701904803938101200,18.938101318359376,0.4530726969242096,0.15241765975952148,-0.09806060791015625
1701904803955092500,18.955092529296873,-0.021750494837760925,1.1882190704345703,0.26174068450927734
1701904803972082000,18.97208203125,-0.7979311943054199,1.9755580425262451,0.7309136390686035
1701904803989063200,18.989063232421874,-1.5836572647094727,2.3727352619171143,1.1937990188598633
1701904804006069000,19.006069091796874,-2.2404346466064453,2.5239787101745605,1.5699186325073242
1701904804023055000,19.02305517578125,-2.615398645401001,2.543323040008545,1.9350171089172363
1701904804040048600,19.040048583984376,-2.5358591079711914,2.466784954071045,2.4250926971435547
1701904804057034800,19.05703466796875,-2.177401304244995,2.451341152191162,2.972593307495117
1701904804074034200,19.0740341796875,-1.947936773300171,2.4823741912841797,3.5986924171447754
1701904804091030800,19.09103076171875,-2.0227203369140625,2.6010847091674805,4.207211971282959
1701904804108020200,19.108020263671875,-2.2786765098571777,2.8307809829711914,4.7408037185668945
1701904804125010700,19.1250107421875,-2.498116970062256,3.0256333351135254,5.312280178070068
1701904804142005000,19.1420048828125,-2.458310604095459,3.082455635070801,6.012396335601807
1701904804158995500,19.158995361328124,-2.4418041706085205,3.083441734313965,6.516076564788818
1701904804175975200,19.17597509765625,-2.521361827850342,3.1216869354248047,6.839062213897705
1701904804192978000,19.19297802734375,-2.6553220748901367,3.251007080078125,6.977810859680176
1701904804209961000,19.2099609375,-2.8967204093933105,3.35805082321167,7.066136837005615
1701904804226963500,19.22696337890625,-3.4865283966064453,2.94796085357666,7.395583629608154
1701904804243950300,19.243950439453126,-3.881199359893799,2.3929853439331055,7.490164279937744
1701904804260947000,19.260947021484377,-4.150820732116699,1.8529272079467773,7.219295978546143
1701904804277939500,19.277939453125,-4.103625297546387,0.955388069152832,7.139694690704346
1701904804294930700,19.2949306640625,-3.5063929557800293,0.08187103271484375,7.298660755157471
1701904804311920600,19.311920654296873,-2.67616605758667,-0.35663747787475586,7.409984111785889
1701904804328917000,19.3289169921875,-1.9085450172424316,0.1740870475769043,6.9170145988464355
1701904804345906700,19.34590673828125,-1.2984468936920166,0.7477631568908691,6.403634548187256
1701904804362895000,19.36289501953125,-0.6911479234695435,0.9302520751953125,5.886113166809082
1701904804379890400,19.379890380859376,-0.06256973743438721,0.3491673469543457,5.523979187011719
1701904804396882200,19.396882080078125,0.5087182521820068,-0.593360424041748,5.1076250076293945
1701904804413874700,19.413874755859375,0.7702816724777222,-1.4231343269348145,4.500082015991211
1701904804430866000,19.430865966796876,0.8871105909347534,-1.7175440788269043,3.426520824432373
1701904804447858400,19.4478583984375,1.0043672323226929,-1.665285587310791,2.30462646484375
1701904804464849200,19.46484912109375,1.2454348802566528,-1.3323750495910645,1.0821504592895508
1701904804481842200,19.48184228515625,1.4576959609985352,-0.9218664169311523,-0.017504215240478516
1701904804498833200,19.498833251953126,1.5837070941925049,-0.5217094421386719,-0.959254264831543
1701904804515815000,19.51581494140625,1.6031203269958496,-0.22479915618896484,-1.710190773010254
1701904804532818000,19.53281787109375,1.5966300964355469,0.0034027099609375,-2.2196688652038574
1701904804549798100,19.549798095703125,1.5596058368682861,0.1829991340637207,-2.621354103088379
1701904804566801700,19.5668017578125,1.5680482387542725,0.2292952537536621,-2.992030620574951
1701904804583793400,19.58379345703125,1.6644501686096191,0.2214183807373047,-3.3664965629577637
1701904804600785000,19.600784912109376,1.7990113496780396,-0.00827789306640625,-3.698941707611084
1701904804617780000,19.617780029296874,2.009229898452759,-0.2683529853820801,-3.9587197303771973
1701904804634768400,19.634768310546875,2.200559139251709,-0.6228456497192383,-4.040539264678955
1701904804651761200,19.65176123046875,2.387485980987549,-0.8843801021575928,-4.0465474128723145
1701904804668752600,19.668752685546874,2.625582695007324,-1.1855285167694092,-3.937807559967041
1701904804685742600,19.68574267578125,2.878850221633911,-1.4853465557098389,-3.8273468017578125
1701904804702738700,19.70273876953125,3.134782552719116,-1.7485623359680176,-3.715907096862793
1701904804719726600,19.7197265625,3.264707088470459,-2.2816834449768066,-3.447061061859131
1701904804736721200,19.73672119140625,3.3738832473754883,-2.9832510948181152,-3.217158794403076
1701904804753702700,19.75370263671875,3.5360169410705566,-3.7545347213745117,-2.998528003692627
1701904804770702800,19.770702880859375,3.822239398956299,-4.547800064086914,-2.5934791564941406
1701904804787697400,19.787697509765625,4.176665306091309,-4.964477062225342,-2.318885326385498
1701904804804687400,19.804687255859374,4.154581069946289,-4.9376373291015625,-2.215864658355713
1701904804821680000,19.82168017578125,3.633136749267578,-4.883861541748047,-1.8743691444396973
1701904804838671400,19.83867138671875,2.812232494354248,-4.958298683166504,-1.3981084823608398
1701904804855663600,19.85566357421875,1.7970538139343262,-5.064486503601074,-1.5286874771118164
1701904804872641300,19.872641357421877,1.1062779426574707,-4.969177722930908,-1.9737606048583984
1701904804889647400,19.8896474609375,1.1639339923858643,-4.417117118835449,-2.1011362075805664
1701904804906638800,19.906638916015623,1.4509501457214355,-3.5373733043670654,-1.5022239685058594
1701904804923630300,19.92363037109375,1.196601152420044,-2.748568296432495,-0.5572147369384766
1701904804940620300,19.940620361328126,0.4438755512237549,-2.3070576190948486,0.13878536224365234
1701904804957617700,19.95761767578125,-0.4381371736526489,-2.2154526710510254,0.5245542526245117
1701904804974606600,19.974606689453125,-0.7535247206687927,-2.2225537300109863,0.5245771408081055
1701904804991599000,19.99159912109375,-0.4713331162929535,-2.1255931854248047,0.3666362762451172
1701904805008590300,20.00859033203125,0.08267712593078613,-1.7349448204040527,0.0769662857055664
1701904805025583600,20.02558349609375,0.36839017271995544,-0.8548521995544434,-0.02653026580810547
1701904805042573000,20.042572998046875,0.14099010825157166,0.19005632400512695,0.14203453063964844
1701904805059565600,20.059565673828125,-0.3822576403617859,1.3581037521362305,0.13525962829589844
1701904805076558600,20.07655859375,-0.9751927256584167,2.2045507431030273,0.2703680992126465
1701904805093549600,20.093549560546876,-1.3549432754516602,2.623248815536499,0.7627015113830566
1701904805110539800,20.110539794921873,-1.4436357021331787,2.6594133377075195,1.4032907485961914
1701904805127535900,20.127535888671876,-1.3985079526901245,2.60337495803833,1.9126768112182617
1701904805144526000,20.144526123046877,-1.3556736707687378,2.5154056549072266,2.239798069000244
1701904805161518600,20.1615185546875,-1.3152230978012085,2.5046205520629883,2.4243650436401367
1701904805178507800,20.1785078125,-1.290679693222046,2.4602866172790527,2.844017505645752
1701904805195502800,20.1955029296875,-1.4808871746063232,2.5334019660949707,3.411966323852539
1701904805212490000,20.212489990234374,-2.0021486282348633,2.666545867919922,4.133032321929932
1701904805229488400,20.22948828125,-2.629234790802002,2.9027090072631836,4.620997905731201
1701904805246465500,20.246465576171875,-3.1634466648101807,2.8573999404907227,5.020287990570068
1701904805263469800,20.2634697265625,-3.360546588897705,2.5837879180908203,5.335244178771973
1701904805280460500,20.28046044921875,-3.2440268993377686,2.335693359375,5.49574613571167
1701904805297453000,20.297453125,-3.066694736480713,2.383859634399414,5.4331865310668945
1701904805314444300,20.3144443359375,-3.0320611000061035,2.66579532623291,5.464518070220947
1701904805331436800,20.331436767578126,-3.2019591331481934,2.594179153442383,5.939427852630615
1701904805348428000,20.348427978515623,-3.3627800941467285,2.2278895378112793,6.1630988121032715
1701904805365420500,20.365420654296877,-3.4115400314331055,1.7876253128051758,6.138199329376221
1701904805382408700,20.38240869140625,-3.2263569831848145,1.1574711799621582,6.382739543914795
1701904805399404000,20.399404052734376,-2.9138805866241455,0.40582990646362305,6.82650089263916
1701904805416395500,20.4163955078125,-2.4863715171813965,-0.04405403137207031,7.151675224304199
1701904805433388300,20.43338818359375,-2.0892977714538574,0.14905118942260742,7.199060440063477
1701904805450375400,20.45037548828125,-1.8306604623794556,0.7575268745422363,6.797530651092529
1701904805467372500,20.46737255859375,-1.537543773651123,1.1236462593078613,6.220218658447266
1701904805484360700,20.484360595703127,-1.11336088180542,0.744391918182373,5.928896903991699
1701904805501358300,20.5013583984375,-0.5475139617919922,-0.2290172576904297,5.590631484985352
1701904805518347000,20.518346923828126,0.05594068765640259,-1.2127022743225098,4.892495155334473
1701904805535339300,20.53533935546875,0.5591560006141663,-1.703873634338379,3.811422348022461
1701904805552329500,20.55232958984375,1.0506987571716309,-1.6794242858886719,2.547567367553711
1701904805569313300,20.569313232421877,1.651450514793396,-1.3183112144470215,1.3088164329528809
1701904805586324000,20.586323974609375,2.1002423763275146,-0.8524246215820312,0.20338106155395508
1701904805603307300,20.603307373046874,2.2718334197998047,-0.4038724899291992,-0.7459874153137207
1701904805620296000,20.6202958984375,2.169365167617798,-0.14827585220336914,-1.5676884651184082
1701904805637292500,20.63729248046875,1.9656972885131836,0.08452892303466797,-2.2153849601745605
1701904805654272300,20.654272216796876,1.5281435251235962,0.25026750564575195,-2.688413143157959
1701904805671274800,20.671274658203124,1.1310656070709229,0.28432703018188477,-3.0304031372070312
1701904805688266000,20.688265869140626,0.9067884683609009,0.24271774291992188,-3.4152750968933105
1701904805705258500,20.705258544921875,0.9523912668228149,0.08867692947387695,-3.8067970275878906
1701904805722249500,20.72224951171875,1.296748399734497,-0.17429208755493164,-4.1799445152282715
1701904805739242200,20.7392421875,1.6745078563690186,-0.499298095703125,-4.46458101272583
1701904805756233200,20.756233154296876,2.0049312114715576,-0.8647861480712891,-4.701980113983154
1701904805773222700,20.77322265625,2.225210189819336,-1.1808748245239258,-4.9883809089660645
1701904805790218200,20.79021826171875,2.4816112518310547,-1.407503366470337,-5.133038520812988
1701904805807209200,20.807209228515624,2.769275665283203,-1.5829212665557861,-5.090179443359375
1701904805824207000,20.82420703125,3.001242160797119,-1.9808616638183594,-4.588733196258545
1701904805841193500,20.841193359375,2.9903345108032227,-2.5097362995147705,-3.8084559440612793
1701904805858181600,20.858181640625,2.8814215660095215,-3.0726170539855957,-3.112731456756592
1701904805875180500,20.8751806640625,2.8829469680786133,-3.433236598968506,-2.596971035003662
1701904805892165600,20.89216552734375,2.879511594772339,-3.9199323654174805,-1.8045501708984375
1701904805909150700,20.909150634765624,2.7042572498321533,-4.204409599304199,-1.1202034950256348
1701904805926139000,20.926138916015624,2.1568336486816406,-4.311580657958984,-0.7655153274536133
1701904805943139800,20.943139892578124,1.594135046005249,-4.437195777893066,-0.5818424224853516
1701904805960132000,20.960132080078125,1.0920993089675903,-4.808472156524658,-0.3254241943359375
1701904805977129500,20.97712939453125,0.6917229890823364,-5.130187034606934,-0.46344661712646484
1701904805994120200,20.9941201171875,0.6882175803184509,-4.784344673156738,-0.9534673690795898
1701904806011100000,21.011099853515624,0.9564337730407715,-3.9521069526672363,-1.0393142700195312
1701904806028096500,21.028096435546875,1.0462367534637451,-2.9937944412231445,-0.46294498443603516
1701904806045086500,21.04508642578125,0.6417117118835449,-2.3462629318237305,0.4611644744873047
1701904806062081000,21.0620810546875,-0.02424648404121399,-2.0585784912109375,1.1615867614746094
1701904806079072500,21.079072509765624,-0.7743033170700073,-1.9920716285705566,1.4619264602661133
1701904806096063500,21.0960634765625,-0.9810506105422974,-1.8575472831726074,1.3011817932128906
1701904806113056800,21.113056884765626,-0.7686395049095154,-1.478013515472412,0.9346399307250977
1701904806130046000,21.1300458984375,-0.33712902665138245,-0.6717801094055176,0.4013094902038574
1701904806147047000,21.147046875,0.03649696335196495,0.488675594329834,-0.06000995635986328
1701904806164039700,21.164039794921877,0.13613466918468475,1.5326619148254395,-0.1767873764038086
1701904806181031400,21.181031494140626,0.17948788404464722,2.3951759338378906,0.04799604415893555
1701904806198034000,21.198033935546874,0.1031542420387268,2.928412437438965,0.386197566986084
1701904806215013000,21.21501318359375,-0.16757401823997498,3.073774814605713,0.6082262992858887
1701904806232009000,21.232009033203123,-0.5935950875282288,3.091459035873413,0.6501307487487793
1701904806248989400,21.248989501953126,-0.9997966289520264,2.9677987098693848,0.7974200248718262
1701904806265990100,21.265990234375,-1.160804033279419,2.845334053039551,1.1323919296264648
1701904806282972200,21.28297216796875,-1.0863547325134277,2.810253143310547,1.6856575012207031
1701904806299963400,21.29996337890625,-0.9965439438819885,2.947139263153076,2.263885021209717
1701904806316966100,21.316966064453126,-1.0574049949645996,3.0535378456115723,2.6889266967773438
1701904806333967000,21.333967041015626,-1.0701154470443726,3.0203847885131836,3.1153664588928223
1701904806350950400,21.350950439453126,-0.8624377250671387,2.76566219329834,3.7845144271850586
1701904806367942000,21.36794189453125,-0.5479452013969421,2.5182533264160156,4.5242533683776855
1701904806384931300,21.384931396484376,-0.7074146866798401,2.322629451751709,5.228078842163086
1701904806401928000,21.401927978515626,-1.2336273193359375,2.278639793395996,5.989655017852783
1701904806418907100,21.4189072265625,-1.9871275424957275,2.5665059089660645,6.451953887939453
1701904806435908900,21.435908935546873,-2.688399314880371,2.4233651161193848,7.017805576324463
1701904806452897500,21.4528974609375,-3.238293409347534,1.8653554916381836,7.556583881378174
1701904806469890800,21.469890869140624,-3.638298988342285,1.4318647384643555,7.559272766113281
1701904806486878200,21.486878173828124,-3.8067684173583984,0.7635254859924316,7.878329277038574
1701904806503873300,21.503873291015626,-4.180880546569824,-0.19188594818115234,8.325370788574219
1701904806520872700,21.520872802734374,-4.566641330718994,-0.4874138832092285,8.212044715881348
1701904806537860600,21.537860595703126,-4.482132911682129,-0.0005812644958496094,7.464828968048096
