time,seconds_elapsed,z,y,x
1700852578311038000,0.108037841796875,-3.193296432495117,-2.111424446105957,0.567833662033081
1700852578328030200,0.1250302734375,-3.4247219562530518,-2.275547504425049,0.5181074142456055
1700852578345014800,0.142014892578125,-2.2990939617156982,-2.596832275390625,-0.1114354133605957
1700852578362000600,0.159000732421875,-0.8358283042907715,-3.277223825454712,-0.6967923641204834
1700852578378990300,0.175990234375,0.5602602958679199,-3.627880096435547,-0.449033260345459
1700852578395977000,0.19297705078125,-0.6646132469177246,-3.8559956550598145,-0.1893773078918457
1700852578412975600,0.2099755859375,-2.9063849449157715,-3.8033556938171387,-0.09403657913208008
1700852578429970700,0.226970703125,-3.822333812713623,-4.175640106201172,0.0387873649597168
1700852578446959600,0.243959716796875,-1.8670825958251953,-4.70706844329834,-0.7599749565124512
1700852578463946000,0.260946044921875,0.24648141860961914,-5.463374614715576,-1.040090560913086
1700852578480937700,0.277937744140625,1.4182753562927246,-5.700107097625732,-0.943516731262207
1700852578497930000,0.294929931640625,-0.8817658424377441,-5.5660223960876465,-0.8683567047119141
1700852578514915000,0.3119150390625,-2.9383602142333984,-5.395551681518555,-1.080918788909912
1700852578531908900,0.328908935546875,-2.0022366046905518,-5.688457489013672,-1.324841022491455
1700852578548897800,0.345897705078125,0.9028444290161133,-5.565582275390625,-1.971395492553711
1700852578565889800,0.362889892578125,0.28439581394195557,-5.442334175109863,-1.8990163803100586
1700852578582869500,0.379869384765625,-0.43525928258895874,-5.114799499511719,-1.0095939636230469
1700852578599855000,0.396855224609375,0.6826553344726562,-4.830101013183594,1.2614269256591797
1700852578616861700,0.41386181640625,3.212545394897461,-3.4365625381469727,2.962503433227539
1700852578633845500,0.430845458984375,3.830437421798706,-2.668013095855713,3.7826337814331055
1700852578650837500,0.44783740234375,3.5694539546966553,-1.767860770225525,3.5330076217651367
1700852578667830000,0.464830078125,3.839773178100586,-0.7061103582382202,2.913959503173828
1700852578684815000,0.481815185546875,4.7860822677612305,0.22668278217315674,4.412807464599609
1700852578701809000,0.498808837890625,5.457882881164551,1.1805849075317383,6.962254524230957
1700852578718797800,0.5157978515625,5.583501815795898,2.2382216453552246,9.223312377929688
1700852578735789300,0.532789306640625,4.828267574310303,3.390937566757202,8.869659423828125
1700852578752775000,0.54977490234375,3.811595916748047,4.032431125640869,7.132565498352051
1700852578769766100,0.56676611328125,3.695004463195801,4.371411323547363,5.970550537109375
1700852578786761000,0.583760986328125,3.716012954711914,4.449174404144287,5.527125358581543
1700852578803732700,0.600732666015625,3.265251636505127,4.23881721496582,5.672311782836914
1700852578820737300,0.6177373046875,2.561519145965576,4.107844352722168,6.014593124389648
1700852578837729500,0.6347294921875,2.1061549186706543,4.154943943023682,6.359795570373535
1700852578854712000,0.651712158203125,2.633741617202759,4.1595964431762695,7.7162275314331055
1700852578871700700,0.66870068359375,3.2163965702056885,4.191815376281738,8.621713638305664
1700852578888698600,0.68569873046875,3.4058713912963867,4.3350019454956055,8.430359840393066
1700852578905688000,0.70268798828125,3.2649052143096924,4.315369606018066,8.046804428100586
1700852578922675000,0.719675048828125,3.5954697132110596,4.231687545776367,8.454882621765137
1700852578939662600,0.73666259765625,3.759371280670166,4.203927040100098,9.60833740234375
1700852578956659000,0.753658935546875,2.0441219806671143,4.448686599731445,10.347418785095215
1700852578973654800,0.77065478515625,1.0773181915283203,4.331315994262695,10.912797927856445
1700852578990628900,0.78762890625,1.4099019765853882,4.060194969177246,9.644941329956055
1700852579007629800,0.8046298828125,3.2366974353790283,3.5065081119537354,8.503307342529297
1700852579024608800,0.82160888671875,5.957881927490234,2.3783979415893555,8.770587921142578
1700852579041609000,0.83860888671875,7.144069194793701,1.1825857162475586,9.296934127807617
1700852579058596900,0.855596923828125,6.376009941101074,0.04957246780395508,8.91547966003418
1700852579075586600,0.872586669921875,4.496826648712158,-0.49566030502319336,7.126553535461426
1700852579092577000,0.889576904296875,3.3491759300231934,-0.7762637138366699,4.730899810791016
1700852579109567200,0.906567138671875,3.5200259685516357,-1.0842552185058594,2.558526039123535
1700852579126558500,0.923558349609375,4.162858009338379,-1.470869541168213,0.9226226806640625
1700852579143544800,0.940544921875,4.3677263259887695,-1.7813301086425781,-0.4276285171508789
1700852579160536800,0.957536865234375,4.199604034423828,-1.8057911396026611,-1.752018928527832
1700852579177518600,0.9745185546875,3.713541269302368,-1.6642827987670898,-3.001842498779297
1700852579194514400,0.991514404296875,3.231790065765381,-1.674522876739502,-4.043158531188965
1700852579211508200,1.00850830078125,3.129908323287964,-1.6667702198028564,-4.765799522399902
1700852579228496400,1.025496337890625,3.0978825092315674,-1.7385205030441284,-5.271541595458984
1700852579245486000,1.042486083984375,2.9944539070129395,-1.95353364944458,-5.690962791442871
1700852579262476800,1.059476806640625,2.8417115211486816,-1.9799916744232178,-6.293262481689453
1700852579279479300,1.076479248046875,2.649822950363159,-1.9937435388565063,-6.832795143127441
1700852579296458000,1.0934580078125,2.737821578979492,-2.352525234222412,-6.808972358703613
1700852579313444900,1.11044482421875,3.539194107055664,-2.4606895446777344,-6.852851867675781
1700852579330436400,1.127436279296875,4.770401954650879,-2.978241443634033,-6.539073944091797
1700852579347428900,1.144428955078125,5.900718688964844,-3.422637462615967,-6.005270957946777
1700852579364414000,1.1614140625,6.470039367675781,-4.270397186279297,-4.848225116729736
1700852579381408500,1.178408447265625,6.782977104187012,-4.859845161437988,-3.3962931632995605
1700852579398396700,1.195396728515625,6.903697967529297,-5.016643524169922,-2.135646343231201
1700852579415397400,1.2123974609375,6.841280937194824,-4.979733467102051,-1.0935792922973633
1700852579432379100,1.229379150390625,6.736642837524414,-5.471076488494873,0.46749210357666016
1700852579449376500,1.24637646484375,6.302057266235352,-6.235212326049805,1.6320552825927734
1700852579466360800,1.26336083984375,5.354100227355957,-6.9632062911987305,1.8006486892700195
1700852579483345700,1.280345703125,3.6710739135742188,-7.097130298614502,0.5620183944702148
1700852579500334800,1.2973349609375,2.8228330612182617,-6.980442047119141,-0.9630184173583984
1700852579517317600,1.314317626953125,3.898024559020996,-7.086106777191162,-0.8151254653930664
1700852579534314500,1.331314453125,4.952968120574951,-7.382171154022217,0.1213998794555664
1700852579551310600,1.348310546875,5.281197547912598,-7.61431884765625,0.5799989700317383
1700852579568297000,1.365296875,4.882531642913818,-6.569454669952393,-0.2265644073486328
1700852579585284600,1.38228466796875,4.093271255493164,-5.303358554840088,-0.19803142547607422
1700852579602266600,1.3992666015625,3.050332546234131,-4.3777313232421875,0.49558162689208984
1700852579619266800,1.416266845703125,2.733480453491211,-3.751920700073242,1.1784191131591797
1700852579636257800,1.4332578125,3.129509449005127,-3.155338764190674,2.0393476486206055
1700852579653244000,1.450243896484375,3.775226593017578,-2.220926284790039,2.03665828704834
1700852579670234000,1.467234130859375,4.290838718414307,-1.549598217010498,1.813084602355957
1700852579687229700,1.484229736328125,4.433936595916748,-0.7931947708129883,2.3476667404174805
1700852579704206000,1.5012060546875,3.919365167617798,0.5334067344665527,3.8454537391662598
1700852579721204500,1.51820458984375,2.353269100189209,2.139098644256592,5.274980545043945
1700852579738198300,1.5351982421875,0.5389397740364075,3.556159019470215,5.57003927230835
1700852579755184600,1.5521845703125,-0.7014477849006653,4.171400547027588,6.0535783767700195
1700852579772178400,1.569178466796875,-0.8634837865829468,4.7181267738342285,6.428469657897949
1700852579789169000,1.5861689453125,-0.23622065782546997,5.246618270874023,7.154588222503662
1700852579806157000,1.603156982421875,0.4672395884990692,5.930879592895508,8.070514678955078
1700852579823144000,1.62014404296875,0.7277217507362366,6.493729591369629,9.189821243286133
1700852579840135700,1.6371357421875,-0.25739043951034546,7.047693252563477,10.13437271118164
1700852579857128000,1.6541279296875,-1.4077270030975342,7.285157203674316,10.407052040100098
1700852579874113000,1.671113037109375,-1.796819806098938,6.800847053527832,9.061964988708496
1700852579891095800,1.688095703125,-0.5555253028869629,5.708795547485352,7.276649475097656
1700852579908099600,1.705099609375,1.8183361291885376,5.003322124481201,6.146191120147705
1700852579925080800,1.722080810546875,4.109182357788086,4.834426403045654,6.10615348815918
1700852579942076000,1.739075927734375,4.7180609703063965,4.687433242797852,6.641218185424805
1700852579959056400,1.756056396484375,3.8209075927734375,4.663342475891113,6.6955037117004395
1700852579976044800,1.773044921875,2.3936009407043457,4.166123867034912,6.623596668243408
1700852579993047300,1.79004736328125,1.3956786394119263,3.3820858001708984,6.403745651245117
1700852580010035000,1.807034912109375,2.0779778957366943,3.205256462097168,6.390773773193359
1700852580027017000,1.824016845703125,3.060565948486328,2.9481897354125977,7.143530368804932
1700852580044005400,1.84100537109375,3.428739547729492,2.457697868347168,7.975122928619385
1700852580061007600,1.858007568359375,2.7419400215148926,1.2541098594665527,8.026538848876953
1700852580077996800,1.874996826171875,1.948787808418274,-0.18813037872314453,7.909137725830078
1700852580094980900,1.89198095703125,1.3439748287200928,-1.1024370193481445,8.570619583129883
1700852580111978500,1.908978515625,0.5362017750740051,-1.6645822525024414,9.548065185546875
1700852580128965600,1.925965576171875,0.7994212508201599,-1.8517060279846191,9.628137588500977
1700852580145956400,1.942956298828125,2.6216113567352295,-3.0590925216674805,10.394317626953125
1700852580162943200,1.959943115234375,3.546391487121582,-4.415589332580566,11.504207611083984
1700852580179924500,1.976924560546875,3.538987636566162,-5.1475677490234375,11.53101634979248
1700852580196927200,1.99392724609375,3.1124587059020996,-5.259627342224121,10.503554344177246
1700852580213912600,2.01091259765625,2.846858501434326,-5.8000407218933105,8.979830741882324
1700852580230893600,2.0278935546875,4.015956878662109,-7.927467346191406,9.13930892944336
1700852580247897600,2.044897705078125,4.624414443969727,-8.672220230102539,7.191310882568359
1700852580264883000,2.061883056640625,4.638886451721191,-8.3707914352417,3.8991918563842773
1700852580281875700,2.078875732421875,4.671442031860352,-7.629476547241211,1.2135286331176758
1700852580298846700,2.0958466796875,4.950019836425781,-6.74289083480835,-0.8640041351318359
1700852580315856600,2.112856689453125,5.039668560028076,-6.304981708526611,-2.3491225242614746
1700852580332842500,2.129842529296875,4.741084098815918,-6.271999359130859,-3.3165392875671387
1700852580349834500,2.14683447265625,4.811492443084717,-6.0157389640808105,-4.56328010559082
1700852580366826500,2.163826416015625,4.569284439086914,-5.787236213684082,-5.754279136657715
1700852580383812000,2.18081201171875,4.1726274490356445,-5.696355819702148,-6.773322105407715
1700852580400805000,2.19780517578125,4.019936561584473,-5.623213768005371,-7.400550842285156
1700852580417796400,2.21479638671875,3.906428813934326,-5.658575534820557,-7.740817546844482
1700852580434780200,2.2317802734375,3.721250295639038,-5.969954967498779,-7.646717071533203
1700852580451767000,2.24876708984375,3.3811452388763428,-6.42979621887207,-7.461121082305908
1700852580468765700,2.265765625,4.172334671020508,-6.188077449798584,-7.305129051208496
1700852580485755400,2.28275537109375,4.315054893493652,-6.07234001159668,-7.074041843414307
1700852580502742500,2.299742431640625,4.342208385467529,-6.006991386413574,-6.849640846252441
1700852580519721000,2.316720947265625,4.215168476104736,-6.489047050476074,-6.578116416931152
1700852580536726500,2.3337265625,4.264983177185059,-6.985480308532715,-6.558042526245117
1700852580553711600,2.350711669921875,4.535679340362549,-7.576447486877441,-6.383783340454102
1700852580570705000,2.367704833984375,5.040143013000488,-7.876309394836426,-5.647623062133789
1700852580587695600,2.384695556640625,5.255384922027588,-7.78349494934082,-4.440925121307373
1700852580604678000,2.401677978515625,5.289908409118652,-7.972106456756592,-3.490809917449951
1700852580621675000,2.418675048828125,5.469389915466309,-8.570265769958496,-3.065701484680176
1700852580638661600,2.43566162109375,5.500138282775879,-9.159265518188477,-3.090420722961426
1700852580655657700,2.45265771484375,5.666051864624023,-9.096366882324219,-3.1048598289489746
1700852580672649200,2.469649169921875,5.2169084548950195,-9.435325622558594,-1.297560691833496
1700852580689628200,2.486628173828125,4.5419392585754395,-9.637432098388672,1.7010316848754883
1700852580706627300,2.50362744140625,3.692854881286621,-9.519876480102539,2.972686767578125
1700852580723614500,2.520614501953125,3.2320399284362793,-9.113338470458984,3.9094648361206055
1700852580740605000,2.53760498046875,3.320712089538574,-8.575603485107422,5.354596138000488
1700852580757592800,2.5545927734375,3.0826945304870605,-7.8210272789001465,6.998896598815918
1700852580774583300,2.571583251953125,1.8584874868392944,-6.786007404327393,8.012041091918945
1700852580791575300,2.5885751953125,0.012056589126586914,-5.611077308654785,8.698158264160156
1700852580808552000,2.605552001953125,-0.133417010307312,-4.13284158706665,8.167057991027832
1700852580825553000,2.622552978515625,0.8508880138397217,-2.8426880836486816,7.250509262084961
1700852580842545700,2.639545654296875,2.273916721343994,-1.2259106636047363,6.255107879638672
1700852580859533800,2.656533935546875,2.8712573051452637,0.6805663108825684,5.401866912841797
1700852580876526000,2.673526123046875,2.052802085876465,2.2592720985412598,4.493414402008057
1700852580893511200,2.69051123046875,0.7030245065689087,3.312451124191284,3.8930892944335938
1700852580910504200,2.707504150390625,-0.4373045563697815,3.7107224464416504,3.5227060317993164
1700852580927495200,2.7244951171875,-0.5166355967521667,3.6872057914733887,3.218824863433838
1700852580944481500,2.7414814453125,-0.018659234046936035,3.5457258224487305,3.2060203552246094
1700852580961474300,2.758474365234375,0.8028209209442139,3.757155418395996,3.5679540634155273
1700852580978462000,2.7754619140625,1.1653401851654053,4.293478012084961,4.183598041534424
1700852580995459600,2.79245947265625,0.7698441743850708,4.993268966674805,4.878591537475586
1700852581012438500,2.8094384765625,-0.15827351808547974,5.522719383239746,5.245604991912842
1700852581029433000,2.82643310546875,-0.9965508580207825,5.178074836730957,5.67772912979126
1700852581046414800,2.843414794921875,-0.5741023421287537,4.955427646636963,6.007931709289551
1700852581063408000,2.860408203125,0.4952746331691742,5.0655293464660645,7.08872652053833
1700852581080406500,2.877406494140625,1.2033965587615967,5.558073043823242,8.308507919311523
1700852581097396500,2.894396484375,0.9992476105690002,6.183170795440674,8.80771541595459
1700852581114378800,2.911378662109375,0.5546056032180786,6.230880260467529,9.221985816955566
1700852581131365000,2.928365234375,0.7155818939208984,5.693402290344238,9.799287796020508
1700852581148362800,2.94536279296875,1.301795482635498,5.377313613891602,10.242155075073242
1700852581165351400,2.962351318359375,1.9199323654174805,5.480466842651367,10.022689819335938
1700852581182343000,2.979343017578125,2.257840394973755,5.143690586090088,9.604381561279297
1700852581199325000,2.996324951171875,2.536647319793701,3.9851131439208984,9.373205184936523
1700852581216321500,3.013321533203125,2.703669786453247,2.367581844329834,9.382168769836426
1700852581233311700,3.030311767578125,2.5199508666992188,0.5549287796020508,9.91910171508789
1700852581250304800,3.0473046875,2.460134506225586,-0.6745481491088867,10.66073226928711
1700852581267295000,3.064294921875,2.964268207550049,-1.0491056442260742,11.033049583435059
1700852581284280800,3.08128076171875,3.5860047340393066,-1.422663688659668,11.09587287902832
1700852581301273600,3.098273681640625,3.9235243797302246,-2.3449478149414062,11.266388893127441
1700852581318264000,3.11526416015625,3.7043814659118652,-3.7870426177978516,11.253416061401367
1700852581335253800,3.132253662109375,3.3757598400115967,-5.216507911682129,10.690391540527344
1700852581352244000,3.149243896484375,3.459408760070801,-6.128945350646973,9.073198318481445
1700852581369233700,3.166233642578125,4.066769599914551,-6.566515922546387,6.9061279296875
1700852581386213400,3.18321337890625,5.000895977020264,-6.737504005432129,4.906682014465332
1700852581403213600,3.200213623046875,5.644353866577148,-6.343584060668945,2.649036407470703
1700852581420203800,3.217203857421875,6.052802562713623,-5.505815505981445,0.4136371612548828
1700852581437193200,3.234193115234375,5.904961109161377,-4.771855354309082,-1.3809924125671387
1700852581454171600,3.251171630859375,5.355640411376953,-4.052360534667969,-2.7236671447753906
1700852581471165400,3.26816552734375,4.683535575866699,-3.6893835067749023,-3.529600143432617
1700852581488163600,3.28516357421875,4.322504043579102,-3.52371883392334,-3.94996976852417
1700852581505153300,3.3021533203125,3.9459712505340576,-3.440934658050537,-4.859522342681885
1700852581522143500,3.3191435546875,3.711839199066162,-3.2809700965881348,-5.911714553833008
1700852581539133000,3.3361328125,3.626788854598999,-3.095634937286377,-6.654811859130859
1700852581556125400,3.35312548828125,3.7503292560577393,-2.8569495677948,-7.193935394287109
1700852581573111000,3.370111083984375,3.9418601989746094,-2.848505735397339,-7.33575439453125
1700852581590103600,3.387103515625,4.337775230407715,-2.8895151615142822,-7.253868103027344
1700852581607093000,3.404093017578125,4.833971977233887,-3.081655502319336,-6.908468246459961
1700852581624083200,3.421083251953125,5.394392967224121,-3.3034331798553467,-6.826824188232422
1700852581641072600,3.43807275390625,5.74912166595459,-3.754204511642456,-7.073641777038574
1700852581658052900,3.455052978515625,5.932980537414551,-4.347280502319336,-7.090385437011719
1700852581675039000,3.4720390625,6.154064655303955,-4.767190933227539,-6.48106575012207
1700852581692042800,3.489042724609375,6.182982444763184,-5.100862979888916,-5.5270609855651855
1700852581709033000,3.506032958984375,6.0530500411987305,-5.433150291442871,-4.612362861633301
1700852581726023200,3.523023193359375,6.377286911010742,-5.639678001403809,-4.096316814422607
1700852581743012900,3.540012939453125,7.0273966789245605,-6.1330647468566895,-3.3230767250061035
1700852581759990000,3.556989990234375,6.965632438659668,-6.689243793487549,-2.1654906272888184
1700852581776983300,3.5739833984375,5.250975608825684,-6.533685207366943,-1.4746160507202148
1700852581793976000,3.59097607421875,3.9266366958618164,-6.00218391418457,-0.9937715530395508
1700852581810964000,3.6079638671875,3.1071808338165283,-6.074481964111328,-0.283294677734375
1700852581827956200,3.624956298828125,2.983830213546753,-6.250619888305664,0.20009708404541016
1700852581844943000,3.641943115234375,3.3929247856140137,-6.271127700805664,0.2862377166748047
1700852581861933800,3.658933837890625,3.501171112060547,-6.559790134429932,0.767207145690918
1700852581878922200,3.675922119140625,2.823550224304199,-6.373951435089111,1.6777639389038086
1700852581895916500,3.69291650390625,1.5766736268997192,-5.916257858276367,2.7993059158325195
1700852581912903000,3.70990283203125,0.7527420520782471,-5.67586088180542,3.8359928131103516
1700852581929892600,3.726892578125,1.1068265438079834,-5.466892719268799,4.494606971740723
1700852581946887000,3.743886962890625,1.895466923713684,-5.3478312492370605,4.451271057128906
1700852581963873300,3.760873291015625,3.167619466781616,-4.731180667877197,3.965182304382324
1700852581980866600,3.777866455078125,4.172581672668457,-3.3685593605041504,4.116580486297607
1700852581997844500,3.794844482421875,4.3533430099487305,-1.3607916831970215,4.002457618713379
1700852582014853600,3.811853515625,3.259521961212158,0.4771251678466797,3.7461352348327637
1700852582031841300,3.82884130859375,1.9847559928894043,2.1285290718078613,3.3498153686523438
1700852582048832000,3.84583203125,1.009505271911621,3.0397274494171143,2.893141269683838
1700852582065822500,3.862822509765625,0.6627537608146667,3.31807017326355,2.666130542755127
1700852582082811100,3.87981103515625,0.9218900203704834,3.4530467987060547,2.4991555213928223
1700852582099796500,3.89679638671875,1.6681569814682007,3.593843936920166,3.01442813873291
1700852582116791800,3.913791748046875,2.050490379333496,3.891449213027954,3.5991692543029785
1700852582133782000,3.930781982421875,1.6721506118774414,3.967864990234375,4.106050968170166
1700852582150771500,3.947771484375,1.2219476699829102,4.173956394195557,4.318775653839111
1700852582167762000,3.964761962890625,0.9924284815788269,4.129510402679443,5.129582405090332
1700852582184751600,3.981751708984375,1.2891777753829956,4.261781692504883,6.626774311065674
1700852582201740000,3.998739990234375,1.8083643913269043,4.364678859710693,8.10816764831543
1700852582218723800,4.015723876953125,2.952692747116089,4.721532821655273,9.206603050231934
1700852582235722000,4.032721923828125,3.248201847076416,5.436147689819336,9.624353408813477
1700852582252711400,4.04971142578125,2.368940830230713,6.061737060546875,9.601800918579102
1700852582269703700,4.06670361328125,1.3849588632583618,6.004826068878174,10.20465087890625
1700852582286691000,4.083691162109375,0.7008535861968994,5.4824957847595215,11.203267097473145
1700852582303681800,4.100681884765625,-0.10798251628875732,5.1410722732543945,10.891218185424805
1700852582320671200,4.117671142578125,-0.4510350227355957,4.121333599090576,10.180103302001953
1700852582337664800,4.134664794921875,0.21956026554107666,2.9848570823669434,9.208901405334473
1700852582354645500,4.1516455078125,1.231931209564209,2.5683040618896484,8.600282669067383
1700852582371644200,4.16864404296875,1.6465400457382202,2.192790985107422,9.050718307495117
1700852582388629000,4.18562890625,1.8126258850097656,1.8991169929504395,9.475091934204102
1700852582405623800,4.202623779296875,1.7390905618667603,1.4255738258361816,9.142698287963867
1700852582422611200,4.219611083984375,1.8310472965240479,0.7923746109008789,8.519445419311523
1700852582439591200,4.236591064453125,2.220094680786133,0.0900888442993164,7.854090690612793
1700852582456578000,4.253578125,2.586244583129883,-0.9365425109863281,7.721768379211426
1700852582473581600,4.27058154296875,2.9328231811523438,-2.21309232711792,7.505399227142334
1700852582490571000,4.287571044921875,3.6250436305999756,-3.2924795150756836,7.049814224243164
1700852582507561500,4.3045615234375,4.298237323760986,-3.9938244819641113,6.255813121795654
1700852582524551000,4.321551025390625,4.669666290283203,-3.931715965270996,4.752712249755859
1700852582541541000,4.338541015625,4.430194854736328,-3.2227425575256348,2.870849132537842
1700852582558520000,4.35552001953125,3.6296987533569336,-2.5068016052246094,1.2697815895080566
1700852582575519700,4.372519775390625,2.8397269248962402,-1.9392595291137695,-0.08483266830444336
1700852582592511700,4.38951171875,2.5021450519561768,-1.6738457679748535,-1.1858100891113281
1700852582609511200,4.40651123046875,2.7845611572265625,-1.7313637733459473,-1.373051643371582
1700852582626488000,4.423488037109375,3.936614990234375,-1.4834508895874023,-2.1309313774108887
1700852582643483400,4.4404833984375,4.476162910461426,-1.673938274383545,-3.0509023666381836
1700852582660470500,4.457470458984375,4.742152214050293,-1.826472282409668,-4.09849739074707
1700852582677460700,4.474460693359375,4.413229942321777,-1.9949774742126465,-4.921815395355225
1700852582694441700,4.491441650390625,4.048829555511475,-2.1021764278411865,-5.219841003417969
1700852582711445000,4.508445068359375,3.9280734062194824,-2.0828168392181396,-5.323657035827637
1700852582728430000,4.52543017578125,4.076678276062012,-2.009600877761841,-5.376638412475586
1700852582745429200,4.54242919921875,4.501087188720703,-1.8616406917572021,-5.24489688873291
1700852582762410200,4.55941015625,5.13962459564209,-1.8334288597106934,-5.135787010192871
1700852582779400700,4.576400634765625,5.569558143615723,-2.0810728073120117,-4.825290679931641
1700852582796400400,4.593400390625,5.855517387390137,-2.661179304122925,-4.350775718688965
1700852582813378000,4.6103779296875,6.361289024353027,-3.235227346420288,-3.5241317749023438
1700852582830372600,4.62737255859375,6.943987846374512,-3.6715517044067383,-2.6498165130615234
1700852582847369700,4.64436962890625,7.206576824188232,-3.5895371437072754,-2.4963035583496094
1700852582864347600,4.66134765625,6.926276206970215,-3.921982526779175,-2.316922187805176
1700852582881343000,4.678343017578125,6.340301036834717,-4.791570663452148,-2.1628904342651367
1700852582898329900,4.695329833984375,6.127706527709961,-5.387500286102295,-2.535489559173584
1700852582915320600,4.712320556640625,6.66525411605835,-5.843920707702637,-2.2256946563720703
1700852582932309500,4.7293095703125,6.851454734802246,-6.166772842407227,-1.521005630493164
1700852582949300000,4.746300048828125,6.140455722808838,-5.970392227172852,-1.1966557502746582
1700852582966289700,4.76328955078125,4.364526748657227,-5.571692943572998,-1.4867901802062988
1700852582983280000,4.780280029296875,2.5891506671905518,-5.348310470581055,-1.780916690826416
1700852583000269600,4.79726953125,1.4701577425003052,-5.138033866882324,-1.5314407348632812
1700852583017257000,4.814257080078125,1.4503717422485352,-4.9730377197265625,-0.7917137145996094
1700852583034241800,4.83124169921875,1.9752147197723389,-4.762911319732666,-0.0167236328125
1700852583051240000,4.848239990234375,2.265641212463379,-4.3403778076171875,0.23014068603515625
1700852583068219000,4.865218994140625,2.543789863586426,-3.9342212677001953,0.6550226211547852
1700852583085222700,4.88222265625,3.1611006259918213,-2.9139981269836426,1.1545476913452148
1700852583102209300,4.899209228515625,3.0343363285064697,-1.8650178909301758,1.467700481414795
1700852583119199700,4.91619970703125,2.292041301727295,-0.7916455268859863,1.4831600189208984
1700852583136189000,4.93318896484375,1.350662350654602,0.14058828353881836,1.53609037399292
1700852583153179600,4.9501796875,0.8854395151138306,0.9504809379577637,1.6636810302734375
1700852583170168800,4.9671689453125,0.7290798425674438,1.4691457748413086,1.8273825645446777
1700852583187159600,4.98415966796875,0.8547415733337402,1.558863639831543,2.0548906326293945
1700852583204149200,5.001149169921875,1.1918444633483887,1.588296890258789,2.914614200592041
1700852583221139500,5.018139404296875,1.1348052024841309,1.7076706886291504,3.5457534790039062
1700852583238128600,5.035128662109375,0.6638590097427368,1.8850374221801758,3.596965789794922
1700852583255122000,5.052121826171875,0.3471193015575409,2.0046448707580566,3.5138869285583496
1700852583272106500,5.0691064453125,0.6638035774230957,1.661642074584961,4.0433244705200195
1700852583289098200,5.08609814453125,1.7240861654281616,1.33888578414917,5.441455364227295
1700852583306086100,5.103086181640625,2.4534380435943604,1.3716368675231934,7.632624626159668
1700852583323081700,5.120081787109375,2.0904815196990967,1.8891081809997559,9.561929702758789
1700852583340068600,5.137068603515625,0.7922908067703247,3.0276904106140137,10.556106567382812
1700852583357059300,5.154059326171875,-0.4680253565311432,3.9297614097595215,11.28123950958252
1700852583374048300,5.17104833984375,-0.5882683396339417,4.36635160446167,11.938737869262695
1700852583391039200,5.188039306640625,0.013783803209662437,4.089686870574951,12.156153678894043
1700852583408028200,5.205028076171875,0.5586502552032471,3.9719347953796387,11.374752044677734
1700852583425019100,5.22201904296875,0.6261060833930969,4.02147102355957,10.49244499206543
1700852583442008300,5.23900830078125,0.365750253200531,4.224896430969238,9.481937408447266
1700852583458988300,5.25598828125,-0.0037321746349334717,3.1809825897216797,8.874692916870117
1700852583475975400,5.272975341796875,0.6852678656578064,1.8567276000976562,8.909688949584961
1700852583492971000,5.289970947265625,1.6685365438461304,0.18111419677734375,9.280601501464844
1700852583509967600,5.306967529296875,2.2997357845306396,-0.8880386352539062,8.876375198364258
1700852583526959000,5.323958984375,3.503787040710449,-0.5685625076293945,8.838638305664062
1700852583543936800,5.340936767578125,4.125135898590088,-0.021674156188964844,8.925041198730469
1700852583560930300,5.357930419921875,3.7962734699249268,-0.1041421890258789,8.833839416503906
1700852583577919700,5.374919677734375,3.030186176300049,-1.320265769958496,8.917932510375977
1700852583594908200,5.391908203125,2.4263696670532227,-3.3046836853027344,9.058372497558594
1700852583611899000,5.40889892578125,2.5461089611053467,-4.800337791442871,8.80476188659668
1700852583628888600,5.425888671875,2.9966320991516113,-5.237702369689941,7.731268405914307
1700852583645879300,5.44287939453125,3.9577715396881104,-4.86426305770874,6.249659538269043
1700852583662868700,5.45986865234375,4.747753143310547,-4.2534356117248535,4.637062072753906
1700852583679858400,5.4768583984375,5.056390762329102,-3.662660598754883,2.88480281829834
1700852583696850400,5.493850341796875,4.755692481994629,-3.5370378494262695,1.1854496002197266
1700852583713850000,5.51085009765625,4.262540340423584,-3.6693453788757324,-0.5744385719299316
1700852583730838000,5.527838134765625,4.029156684875488,-3.557659149169922,-2.5109262466430664
1700852583747825000,5.544824951171875,4.079836368560791,-3.2812681198120117,-3.7426857948303223
1700852583764820500,5.561820556640625,4.1360673904418945,-2.996042251586914,-4.465438365936279
1700852583781815000,5.57881494140625,3.9378156661987305,-2.9349451065063477,-5.051923751831055
1700852583798797800,5.5957978515625,3.5497312545776367,-3.04793119430542,-5.790457725524902
1700852583815787300,5.612787353515625,3.0994882583618164,-3.374537944793701,-6.538122177124023
1700852583832778000,5.629778076171875,3.120421886444092,-3.858441114425659,-7.579753875732422
1700852583849767200,5.64676708984375,3.7255399227142334,-4.076712131500244,-8.238065719604492
1700852583866757600,5.663757568359375,4.254611492156982,-4.029416561126709,-8.233466148376465
1700852583883747000,5.6807470703125,4.459437370300293,-3.859921455383301,-8.089359283447266
1700852583900733000,5.69773291015625,4.152359962463379,-3.841745376586914,-7.837491035461426
1700852583917727200,5.714727294921875,3.846069812774658,-4.060695171356201,-7.4556355476379395
1700852583934713900,5.7317138671875,3.835890293121338,-4.491274356842041,-7.45996618270874
1700852583951706600,5.74870654296875,4.289609432220459,-5.384960174560547,-7.904246807098389
1700852583968701400,5.765701416015625,5.269493103027344,-6.0821003913879395,-7.7866387367248535
1700852583985686800,5.782686767578125,6.156607627868652,-6.435962677001953,-6.858608245849609
1700852584002677200,5.79967724609375,5.848834037780762,-6.9882683753967285,-5.343046188354492
1700852584019666000,5.816666015625,4.732658386230469,-6.948494911193848,-4.891510009765625
1700852584036659700,5.83365966796875,4.07191276550293,-7.250827789306641,-4.659036636352539
1700852584053644300,5.850644287109375,4.029125690460205,-8.402891159057617,-3.3067874908447266
1700852584070637300,5.86763720703125,3.9818997383117676,-8.735560417175293,-1.2052373886108398
1700852584087626500,5.88462646484375,1.9168888330459595,-8.599702835083008,0.6558685302734375
1700852584104617000,5.901616943359375,-0.919985294342041,-8.12276840209961,2.144847869873047
1700852584121596000,5.918595947265625,-2.7634801864624023,-7.334244251251221,3.4886035919189453
1700852584138596900,5.935596923828125,-2.509131908416748,-6.604630470275879,4.489053726196289
1700852584155583500,5.95258349609375,-0.5805519819259644,-5.929626941680908,5.023468971252441
1700852584172576300,5.969576171875,1.661725401878357,-5.254683017730713,4.707027435302734
1700852584189566200,5.986566162109375,3.4168992042541504,-4.219498157501221,3.492539405822754
1700852584206554000,6.00355419921875,3.9801013469696045,-3.2181992530822754,2.0326504707336426
1700852584223548700,6.020548583984375,4.101263999938965,-2.0022530555725098,1.1077885627746582
1700852584240526300,6.0375263671875,4.108658313751221,-0.4951748847961426,0.9842109680175781
1700852584257526000,6.054526123046875,3.6984260082244873,0.8472495079040527,1.1049799919128418
1700852584274516500,6.0715166015625,3.0941295623779297,1.7132315635681152,1.3741812705993652
1700852584291506000,6.088505859375,2.8371682167053223,2.027285575866699,1.7921013832092285
1700852584308496400,6.105496337890625,3.082935094833374,1.9907183647155762,2.6320152282714844
1700852584325486000,6.122486083984375,3.4293429851531982,2.143782138824463,3.6625614166259766
1700852584342483000,6.13948291015625,3.456569194793701,2.5149340629577637,4.886832237243652
1700852584359465700,6.1564658203125,2.935521125793457,3.125563621520996,5.913537502288818
1700852584376456200,6.173456298828125,2.259115219116211,3.544562816619873,6.845743179321289
1700852584393445400,6.1904453125,1.762741208076477,3.6377182006835938,7.766581058502197
1700852584410425300,6.20742529296875,1.5438486337661743,3.647643566131592,8.600732803344727
1700852584427425500,6.224425537109375,1.984566569328308,3.755011558532715,9.697551727294922
1700852584444414000,6.2414140625,2.666501045227051,4.181893825531006,10.829193115234375
1700852584461407700,6.25840771484375,2.659593343734741,4.723386287689209,11.517881393432617
1700852584478396000,6.27539599609375,1.6369001865386963,4.9407219886779785,11.467662811279297
1700852584495384800,6.292384765625,0.6289654970169067,4.679412364959717,10.922185897827148
1700852584512375800,6.309375732421875,0.6641786098480225,4.491445064544678,10.264050483703613
1700852584529365200,6.326365234375,1.2117502689361572,4.465887069702148,9.674068450927734
1700852584546355500,6.34335546875,1.3478031158447266,4.0697736740112305,9.46906852722168
1700852584563345200,6.36034521484375,1.2192819118499756,2.915726661682129,9.819475173950195
1700852584580335600,6.377335693359375,1.3488469123840332,1.5097556114196777,10.10096263885498
1700852584597325300,6.3943251953125,1.6734249591827393,-0.007102012634277344,10.522229194641113
1700852584614315500,6.4113154296875,2.1298177242279053,-1.0389719009399414,11.107571601867676
1700852584631305000,6.428304931640625,2.544029712677002,-1.616323471069336,11.376139640808105
1700852584648290000,6.4452900390625,2.963683843612671,-1.8592710494995117,11.065820693969727
1700852584665286100,6.4622861328125,3.4950103759765625,-2.3599109649658203,10.478103637695312
1700852584682275300,6.479275390625,4.078863143920898,-3.567641258239746,9.74030590057373
1700852584699264800,6.4962646484375,4.796441078186035,-5.506039619445801,9.154045104980469
1700852584716255200,6.513255126953125,5.364162921905518,-7.00013542175293,8.222536087036133
1700852584733244400,6.530244384765625,5.517910003662109,-7.42318058013916,6.536520957946777
1700852584750235000,6.54723486328125,5.346428394317627,-7.031619071960449,4.622438907623291
1700852584767224300,6.564224365234375,4.878015995025635,-6.387848854064941,2.695775032043457
1700852584784215000,6.581215087890625,4.318172931671143,-5.6443939208984375,0.640385627746582
1700852584801204500,6.59820458984375,3.814629077911377,-4.984546184539795,-1.2049455642700195
1700852584818194700,6.615194580078125,3.4596762657165527,-4.485013484954834,-2.762531280517578
1700852584835180000,6.632179931640625,3.072183847427368,-3.9922518730163574,-4.043558597564697
1700852584852168200,6.649168212890625,2.5131454467773438,-3.3908190727233887,-5.0531792640686035
1700852584869163300,6.666163330078125,2.0519907474517822,-2.8343169689178467,-5.934653282165527
1700852584886155500,6.683155517578125,1.8398096561431885,-2.4223978519439697,-6.7629194259643555
1700852584903127800,6.7001279296875,1.8166799545288086,-2.2866716384887695,-7.49832820892334
1700852584920134700,6.717134765625,1.9650003910064697,-2.3097004890441895,-8.218518257141113
1700852584937123300,6.734123291015625,2.3930325508117676,-2.4290578365325928,-8.770301818847656
1700852584954115300,6.751115234375,2.8652260303497314,-2.3737077713012695,-9.173359870910645
1700852584971104000,6.76810400390625,3.189976215362549,-2.4789109230041504,-9.124621391296387
1700852584988094500,6.785094482421875,3.517241954803467,-2.80871844291687,-8.630882263183594
1700852585005083600,6.802083740234375,3.8973641395568848,-3.0652031898498535,-8.315742492675781
1700852585022074000,6.81907421875,4.303354263305664,-3.41512393951416,-8.285280227661133
1700852585039052500,6.836052490234375,4.930728435516357,-3.964735984802246,-8.243990898132324
1700852585056054800,6.8530546875,5.672616004943848,-4.4265923500061035,-7.810225963592529
1700852585073043500,6.87004345703125,6.231975555419922,-4.766409873962402,-6.954400539398193
1700852585090035000,6.887034912109375,6.7193145751953125,-4.941586494445801,-5.7027692794799805
1700852585107020000,6.90402001953125,7.046607971191406,-4.980226516723633,-4.210212230682373
1700852585124016400,6.921016357421875,5.892945289611816,-5.501365661621094,-3.426250457763672
1700852585141003300,6.938003173828125,4.370991230010986,-5.785404205322266,-3.8574953079223633
1700852585157993700,6.95499365234375,3.984912872314453,-6.166561126708984,-3.964277744293213
1700852585174983400,6.9719833984375,4.495228290557861,-6.740349769592285,-2.3495216369628906
1700852585191974000,6.988973876953125,4.855011940002441,-7.134162902832031,-0.2207174301147461
1700852585208963000,7.005963134765625,4.265707015991211,-7.1416449546813965,0.9281587600708008
1700852585225953800,7.022953857421875,3.302678108215332,-7.403679370880127,1.8486824035644531
1700852585242941000,7.03994091796875,2.914097547531128,-7.565074443817139,2.9812755584716797
1700852585259923700,7.056923828125,3.1626901626586914,-6.919616222381592,4.3809709548950195
1700852585276915200,7.073915283203125,3.3833117485046387,-5.919405460357666,5.446718215942383
1700852585293908700,7.09090869140625,3.273770332336426,-4.725844383239746,5.9096455574035645
1700852585310899200,7.107899169921875,3.359639883041382,-3.406792640686035,5.900884628295898
1700852585327882800,7.1248828125,3.369874954223633,-2.1192526817321777,5.785486698150635
1700852585344872200,7.1418720703125,2.8213486671447754,-0.6262083053588867,5.533803939819336
1700852585361870000,7.1588701171875,1.161137342453003,1.1014890670776367,5.298312664031982
1700852585378855200,7.175855224609375,-0.6812217831611633,2.7221388816833496,5.084534645080566
1700852585395840800,7.1928408203125,-1.7720026969909668,3.7045931816101074,4.961976528167725
1700852585412833500,7.20983349609375,-1.5719976425170898,4.017069339752197,4.782639026641846
1700852585429827800,7.226827880859375,-0.2899385094642639,3.827022075653076,4.326984405517578
1700852585446816500,7.24381640625,1.2170393466949463,3.5734949111938477,4.028984069824219
1700852585463805700,7.2608056640625,2.194742202758789,3.4949679374694824,3.9055514335632324
1700852585480795600,7.277795654296875,2.1881773471832275,3.6842832565307617,4.157052040100098
1700852585497792500,7.29479248046875,1.58339524269104,4.147417068481445,4.847953796386719
1700852585514783000,7.311782958984375,0.3491618037223816,4.65669584274292,5.351805210113525
1700852585531771600,7.328771728515625,-0.535948634147644,4.532588005065918,6.0932464599609375
1700852585548761900,7.345761962890625,-0.2479526698589325,4.2768964767456055,7.032986164093018
1700852585565752600,7.362752685546875,0.18571782112121582,3.9244189262390137,7.976499557495117
1700852585582741800,7.37974169921875,0.4487101435661316,3.856894016265869,8.68436050415039
1700852585599723800,7.396723876953125,0.7629674673080444,4.080172061920166,9.511543273925781
1700852585616721700,7.4137216796875,0.6695319414138794,4.407243728637695,10.01883316040039
1700852585633712000,7.430712158203125,0.30102235078811646,4.215427875518799,10.271677017211914
1700852585650701800,7.447701904296875,0.2094564437866211,4.026055335998535,10.27160358428955
1700852585667692000,7.464692138671875,0.27918797731399536,3.8124876022338867,9.881430625915527
1700852585684681200,7.48168115234375,0.6405799388885498,3.0126519203186035,9.741458892822266
1700852585701672000,7.498671875,1.2435667514801025,1.6593284606933594,9.72581672668457
1700852585718660000,7.51566015625,2.1239585876464844,0.29921817779541016,9.561812400817871
1700852585735656000,7.532656005859375,2.544436454772949,-1.0511512756347656,9.688262939453125
1700852585752643800,7.549643798828125,2.6082377433776855,-1.4292240142822266,9.579238891601562
1700852585769631500,7.566631591796875,2.7241289615631104,-1.3441963195800781,9.372428894042969
1700852585786621000,7.583620849609375,2.834629535675049,-1.6392297744750977,9.059728622436523
1700852585803601200,7.60060107421875,2.717531442642212,-2.4432058334350586,8.449995040893555
1700852585820601000,7.61760107421875,2.7746996879577637,-3.6966028213500977,7.638540267944336
1700852585837591800,7.634591796875,3.1138296127319336,-5.171120643615723,6.5966291427612305
1700852585854580700,7.651580810546875,3.8796133995056152,-5.587127685546875,5.061837196350098
1700852585871569200,7.668569091796875,4.569981098175049,-4.673045635223389,3.1005797386169434
1700852585888563500,7.6855634765625,4.749758243560791,-3.200349807739258,1.2113704681396484
1700852585905551400,7.70255126953125,4.545527935028076,-1.9412035942077637,-0.31917619705200195
1700852585922541000,7.719541015625,4.135886192321777,-1.741889476776123,-1.0068740844726562
1700852585939531300,7.73653125,3.4871788024902344,-1.7261080741882324,-1.6746163368225098
1700852585956520400,7.7535205078125,2.880384683609009,-1.616567611694336,-2.456177234649658
1700852585973511200,7.77051123046875,2.5184361934661865,-1.509246826171875,-3.6336636543273926
1700852585990500400,7.787500244140625,2.7867374420166016,-1.5597758293151855,-4.090182304382324
1700852586007491000,7.804490966796875,2.9164085388183594,-1.7650160789489746,-4.22576379776001
1700852586024480500,7.82148046875,2.6802430152893066,-1.7477827072143555,-4.856983661651611
1700852586041470700,7.838470703125,2.305734157562256,-1.6669018268585205,-5.658105850219727
1700852586058460400,7.85546044921875,2.3691532611846924,-1.7182106971740723,-6.6025390625
1700852586075447800,7.87244775390625,2.7802951335906982,-1.9059035778045654,-7.366730213165283
1700852586092443000,7.88944287109375,3.165346145629883,-2.419240713119507,-7.6209516525268555
1700852586109421000,7.906421142578125,3.5844829082489014,-3.05003023147583,-7.329636573791504
1700852586126417400,7.92341748046875,3.864063262939453,-3.2987117767333984,-7.151699066162109
1700852586143398100,7.940398193359375,3.777907133102417,-3.4342751502990723,-6.964866638183594
1700852586160400000,7.95739990234375,3.4418156147003174,-3.9232563972473145,-6.559445858001709
1700852586177390000,7.97439013671875,3.202913761138916,-4.617826461791992,-6.043034553527832
1700852586194369000,7.991369140625,3.4783880710601807,-5.254591464996338,-5.709592342376709
1700852586211367700,8.00836767578125,4.526262283325195,-5.603565692901611,-5.354783535003662
1700852586228362000,8.025362060546875,5.488568305969238,-6.249349117279053,-3.8502306938171387
1700852586245350100,8.04235009765625,6.111420154571533,-6.0366435050964355,-2.4594216346740723
1700852586262339600,8.059339599609375,5.401386260986328,-5.4521284103393555,-2.1577539443969727
1700852586279326700,8.07632666015625,3.948056697845459,-5.333459854125977,-2.305126190185547
1700852586296319200,8.0933193359375,2.559948444366455,-5.696896553039551,-2.251389980316162
1700852586313309700,8.110309814453124,1.8572211265563965,-6.0747480392456055,-1.0044975280761719
1700852586330288600,8.12728857421875,2.106031656265259,-6.42905330657959,1.5854520797729492
1700852586347288800,8.144288818359374,2.1738903522491455,-6.087715148925781,3.5227909088134766
1700852586364280000,8.161280029296876,1.596733570098877,-5.342141151428223,4.060132026672363
1700852586381269500,8.17826953125,0.8766162395477295,-4.580441474914551,3.8607702255249023
1700852586398254600,8.195254638671875,0.8177317976951599,-4.033690929412842,3.44881534576416
1700852586415253800,8.212253662109376,1.8539568185806274,-3.346574306488037,2.719304084777832
1700852586432238600,8.229238525390626,3.1033735275268555,-2.484457492828369,2.763350486755371
1700852586449229300,8.246229248046875,3.661418914794922,-0.8700566291809082,3.0749258995056152
1700852586466218800,8.26321875,2.8409767150878906,0.9367733001708984,2.8049583435058594
1700852586483196200,8.280196044921874,1.1077030897140503,2.3906402587890625,2.2967562675476074
1700852586500201200,8.297201171875,-0.0924275815486908,3.3213400840759277,2.105433464050293
1700852586517189400,8.314189453125,-0.6123576760292053,3.8008315563201904,2.3131346702575684
1700852586534178600,8.331178466796874,-0.6424826979637146,3.815164089202881,2.7372350692749023
1700852586551168800,8.348168701171875,-0.5965191125869751,3.6185641288757324,3.587233543395996
1700852586568158500,8.365158447265625,-0.37165820598602295,3.6369576454162598,3.889522075653076
1700852586585148700,8.382148681640626,-0.4342799782752991,3.5872883796691895,4.276641845703125
1700852586602138000,8.39913818359375,-0.6312476396560669,3.730982780456543,4.7618021965026855
1700852586619128800,8.41612890625,-0.8822766542434692,3.853860378265381,5.293550968170166
1700852586636103000,8.43310302734375,-0.9641872644424438,3.863818645477295,6.179288864135742
1700852586653098200,8.45009814453125,-1.2013089656829834,3.9113893508911133,6.849981784820557
1700852586670098000,8.467097900390625,-1.3206582069396973,3.707047462463379,7.313587188720703
1700852586687088400,8.48408837890625,-0.9559571146965027,3.487435817718506,7.749814033508301
1700852586704077800,8.501077880859375,-0.5498682856559753,3.4535346031188965,7.934170722961426
1700852586721068300,8.518068359375,-0.090687096118927,3.643064498901367,7.933138847351074
1700852586738057700,8.5350576171875,-0.08143669366836548,3.6938023567199707,7.8398661613464355
1700852586755048200,8.552048095703125,-0.12012547254562378,3.9829049110412598,7.508326530456543
1700852586772037600,8.56903759765625,-0.4013460576534271,3.857131004333496,7.671247482299805
1700852586789028000,8.586028076171875,-0.5522454977035522,2.892251491546631,8.58316421508789
1700852586806017500,8.603017578125,-0.23919785022735596,1.6563129425048828,9.0425443649292
1700852586823006500,8.62000634765625,0.4162735342979431,0.6777238845825195,9.219279289245605
1700852586839999000,8.6369990234375,0.9406619668006897,0.13317584991455078,9.596281051635742
1700852586856988000,8.65398779296875,1.0144174098968506,0.5006351470947266,9.828770637512207
1700852586873977000,8.67097705078125,0.6973376870155334,0.5985107421875,9.92378044128418
1700852586890957000,8.68795703125,0.46237677335739136,-0.14910030364990234,9.695778846740723
1700852586907955500,8.70495556640625,0.7486467361450195,-1.5250320434570312,9.276039123535156
1700852586924949200,8.72194921875,1.5858807563781738,-3.193120002746582,8.520441055297852
1700852586941937200,8.738937255859375,3.1580288410186768,-4.087733745574951,7.650315284729004
1700852586958932000,8.755931884765625,4.406311511993408,-4.084266662597656,6.512444972991943
1700852586975904000,8.772904052734376,4.975216388702393,-3.374180793762207,4.854025840759277
1700852586992903200,8.789903076171875,4.624441146850586,-2.5481624603271484,2.9869818687438965
1700852587009889800,8.806889892578125,3.972984552383423,-1.8575830459594727,1.0927700996398926
1700852587026884600,8.823884521484375,3.56152606010437,-1.5369200706481934,-0.733184814453125
1700852587043869200,8.840869140625,3.7104358673095703,-1.288048267364502,-2.033717632293701
1700852587060863700,8.85786376953125,3.8207478523254395,-1.0724825859069824,-2.866964817047119
1700852587077854500,8.8748544921875,3.6770405769348145,-0.9981284141540527,-3.571906566619873
1700852587094834400,8.89183447265625,3.263798236846924,-0.9801754951477051,-4.3201093673706055
1700852587111833000,8.9088330078125,2.6083431243896484,-1.0243253707885742,-4.982608318328857
1700852587128824000,8.925823974609376,2.1555113792419434,-0.9437661170959473,-5.674438953399658
1700852587145813200,8.942813232421875,1.829169511795044,-0.8008866310119629,-6.3082594871521
1700852587162802400,8.959802490234376,1.9365243911743164,-0.5068097114562988,-6.7299957275390625
1700852587179787300,8.976787353515626,2.2131972312927246,-0.3519883155822754,-6.817379951477051
1700852587196778500,8.993778564453125,2.616987943649292,-0.45636653900146484,-6.681950092315674
1700852587213771500,9.010771484375,2.8404855728149414,-0.9181857109069824,-6.425240516662598
1700852587230754300,9.02775439453125,3.176860809326172,-1.3050487041473389,-6.138692855834961
1700852587247758300,9.04475830078125,3.6434640884399414,-1.6420423984527588,-5.746471405029297
1700852587264735700,9.06173583984375,3.9673538208007812,-1.9539892673492432,-5.448483943939209
1700852587281721900,9.078721923828125,4.271340847015381,-2.5628108978271484,-4.540665149688721
1700852587298718200,9.09571826171875,4.671928882598877,-3.3601865768432617,-3.562258243560791
1700852587315712800,9.112712646484376,5.296573638916016,-3.7205865383148193,-2.8288073539733887
1700852587332706000,9.1297060546875,5.718122482299805,-4.218413352966309,-2.058243751525879
1700852587349695500,9.146695556640625,5.649253845214844,-5.202193737030029,-1.1700148582458496
1700852587366685700,9.163685791015626,5.532007217407227,-5.411552429199219,-1.2186555862426758
1700852587383678200,9.18067822265625,5.837308883666992,-5.514700412750244,-0.7265009880065918
1700852587400662800,9.197662841796875,5.155129432678223,-5.948378562927246,0.42693042755126953
1700852587417655300,9.2146552734375,3.9158527851104736,-5.607730388641357,0.7724580764770508
1700852587434642000,9.231641845703125,2.4105215072631836,-4.764292240142822,0.4919309616088867
1700852587451638300,9.24863818359375,1.1087110042572021,-4.1358466148376465,0.43433380126953125
1700852587468625200,9.265625244140624,0.2568104863166809,-3.3379173278808594,0.5532588958740234
1700852587485612300,9.2826123046875,-0.3184833526611328,-2.6344780921936035,0.5313587188720703
1700852587502607600,9.299607666015625,-0.7093310356140137,-1.991041660308838,0.23394441604614258
1700852587519594800,9.3165947265625,-0.9921425580978394,-1.38679838180542,-0.14822673797607422
1700852587536585000,9.3335849609375,-1.0126549005508423,-0.9058222770690918,-0.7377328872680664
1700852587553574400,9.350574462890625,-0.375999391078949,-0.4593672752380371,-1.1551356315612793
1700852587570565000,9.367565185546875,0.6526430249214172,0.35016775131225586,-0.5084190368652344
1700852587587554300,9.38455419921875,1.13008451461792,1.546915054321289,0.7397499084472656
1700852587604544800,9.401544677734375,0.42251747846603394,2.8234705924987793,1.6494760513305664
1700852587621534000,9.418533935546876,-0.9793523550033569,3.763655424118042,1.9898862838745117
1700852587638511400,9.435511474609376,-1.9082024097442627,4.0008544921875,2.436098575592041
1700852587655514600,9.4525146484375,-1.3188982009887695,3.9025444984436035,3.049722671508789
1700852587672503800,9.46950390625,-0.07458305358886719,3.732726573944092,3.6722569465637207
1700852587689491500,9.486491455078125,0.663449227809906,3.433117389678955,4.073471546173096
1700852587706487000,9.503487060546876,0.6930301189422607,3.104255199432373,4.363453388214111
1700852587723473700,9.5204736328125,-0.07416468858718872,2.761117458343506,4.470119476318359
1700852587740464400,9.53746435546875,-0.7976107001304626,2.694343090057373,4.570972919464111
1700852587757441800,9.55444189453125,-1.1569918394088745,2.5443782806396484,4.997404098510742
1700852587774444300,9.5714443359375,-1.0382437705993652,2.368539810180664,5.609966278076172
1700852587791433500,9.58843359375,-0.8411026000976562,2.190462112426758,6.256048202514648
1700852587808424200,9.605424072265626,-0.8426499962806702,2.115273952484131,6.594916820526123
1700852587825400300,9.622400390625,-0.5642385482788086,2.1386661529541016,6.925881385803223
1700852587842393300,9.639393310546875,0.030900299549102783,2.2677054405212402,7.422091007232666
1700852587859395800,9.656395751953125,0.436257004737854,2.698739528656006,7.7139363288879395
1700852587876382700,9.6733828125,0.2551921010017395,3.026966094970703,7.836765289306641
1700852587893374000,9.6903740234375,-0.11941683292388916,2.560027599334717,8.557299613952637
1700852587910361000,9.707361083984376,-0.2717311978340149,1.917762279510498,8.726892471313477
1700852587927353000,9.72435302734375,0.39129185676574707,1.204233169555664,9.166315078735352
1700852587944345900,9.741345947265625,0.8015000820159912,0.6594524383544922,9.472305297851562
1700852587961332700,9.758332763671875,0.8864769339561462,0.33124828338623047,9.574026107788086
1700852587978323200,9.7753232421875,0.9649866223335266,0.008226394653320312,9.516899108886719
1700852587995312600,9.792312744140625,0.7682142853736877,-0.6746749877929688,9.039583206176758
1700852588012302000,9.809302001953125,0.9133453965187073,-1.555312156677246,8.426883697509766
1700852588029293600,9.82629345703125,1.456739902496338,-2.353884696960449,7.849576473236084
1700852588046283300,9.843283203125,2.317598342895508,-2.769289493560791,7.100144386291504
1700852588063275300,9.860275146484375,3.209500789642334,-2.4603328704833984,5.971434116363525
1700852588080252200,9.877252197265625,3.5063512325286865,-1.796858310699463,4.304719924926758
1700852588097252400,9.89425244140625,3.5452003479003906,-1.0588679313659668,2.6586785316467285
1700852588114242600,9.91124267578125,3.196976661682129,-0.5644145011901855,1.1512856483459473
1700852588131221200,9.92822119140625,2.8608641624450684,-0.27637624740600586,-0.24508905410766602
1700852588148224500,9.945224609375,2.6423940658569336,-0.10852384567260742,-1.4779839515686035
1700852588165209900,9.9622099609375,2.432375907897949,-0.19962120056152344,-2.2744321823120117
1700852588182215000,9.97921484375,2.3058600425720215,-0.253873348236084,-3.1669673919677734
1700852588199189200,9.996189208984376,2.0064704418182373,-0.4570131301879883,-3.9881858825683594
1700852588216184800,10.013184814453124,1.60916268825531,-0.6207237243652344,-4.66696834564209
1700852588233161000,10.030160888671874,1.2604193687438965,-0.6484360694885254,-5.293700218200684
1700852588250162000,10.047161865234376,1.1460316181182861,-0.552947998046875,-5.66818904876709
1700852588267151400,10.0641513671875,1.1741185188293457,-0.4412684440612793,-5.924807548522949
1700852588284141800,10.081141845703126,1.3721258640289307,-0.46173667907714844,-5.778249740600586
1700852588301131300,10.09813134765625,1.8355021476745605,-0.4994022846221924,-5.566736221313477
1700852588318121700,10.115121826171874,2.2777516841888428,-0.6712846755981445,-5.606304168701172
1700852588335108600,10.132108642578125,2.524402141571045,-1.0886781215667725,-5.5563812255859375
1700852588352101600,10.1491015625,2.722910165786743,-1.664846420288086,-5.5720319747924805
1700852588369093600,10.16609375,3.164644241333008,-2.294429302215576,-5.472136497497559
1700852588386081500,10.18308154296875,3.670376777648926,-3.0241429805755615,-5.1237945556640625
1700852588403070700,10.20007080078125,4.350350856781006,-3.7099740505218506,-4.388517379760742
1700852588420051200,10.21705126953125,4.9538469314575195,-4.129368305206299,-3.6436896324157715
1700852588437051000,10.23405078125,5.043089389801025,-4.951664447784424,-2.806649684906006
1700852588454041000,10.251041015625,4.617872714996338,-5.3876495361328125,-2.529684543609619
1700852588471030500,10.268030517578126,3.75457501411438,-5.225613594055176,-2.8234381675720215
1700852588488021000,10.28502099609375,3.2467288970947266,-5.188277244567871,-2.45322847366333
1700852588505010200,10.30201025390625,2.7780275344848633,-5.422802925109863,-1.7923145294189453
1700852588521998300,10.318998291015625,2.7505462169647217,-5.3410115242004395,-0.9573144912719727
1700852588538982400,10.335982421875,2.081972360610962,-5.1446027755737305,0.3966388702392578
1700852588555963100,10.352963134765625,0.6578019857406616,-4.437259674072266,1.7877025604248047
1700852588572972800,10.369972900390625,-1.3658349514007568,-3.562654495239258,2.4490957260131836
1700852588589960700,10.386960693359375,-2.414308547973633,-3.243743896484375,2.6724185943603516
1700852588606950100,10.4039501953125,-1.6465933322906494,-3.298795700073242,2.574380874633789
1700852588623930600,10.4209306640625,-0.07638591527938843,-3.312352180480957,1.5867061614990234
1700852588640929800,10.4379296875,1.8148194551467896,-2.350903034210205,0.7085776329040527
1700852588657920000,10.454919921875,2.2195167541503906,-0.5528945922851562,0.25132322311401367
1700852588674909700,10.47190966796875,1.3193244934082031,1.244246482849121,-0.23980283737182617
1700852588691900000,10.48889990234375,0.14230090379714966,2.6286087036132812,-0.5938620567321777
1700852588708889300,10.505889404296875,-0.28756794333457947,3.384795665740967,-0.557650089263916
1700852588725880000,10.522880126953124,-0.0590347945690155,3.521841526031494,-0.2939777374267578
1700852588742857700,10.539857666015624,0.5008518099784851,3.3403611183166504,-0.2319488525390625
1700852588759848700,10.5568486328125,0.9975957870483398,2.9573216438293457,-0.16100358963012695
1700852588776843300,10.57384326171875,1.5014961957931519,2.645437240600586,0.17404603958129883
1700852588793828900,10.590828857421876,1.9528965950012207,2.577568531036377,1.499718189239502
1700852588810824200,10.60782421875,1.0308725833892822,2.5457534790039062,2.0028977394104004
1700852588827815700,10.624815673828126,-0.07583925873041153,2.50455379486084,2.0594043731689453
1700852588844807000,10.641806884765625,0.42249971628189087,2.282869338989258,2.823172092437744
1700852588861791500,10.65879150390625,2.048611879348755,2.2992653846740723,4.33012056350708
1700852588878777000,10.675777099609375,2.919745683670044,2.386260986328125,5.725477695465088
1700852588895773400,10.6927734375,2.3585879802703857,2.3578972816467285,6.147984027862549
1700852588912762600,10.7097626953125,1.4760117530822754,2.3021974563598633,6.4728007316589355
1700852588929757700,10.7267578125,0.986741304397583,2.484767436981201,6.443404674530029
1700852588946748400,10.74374853515625,1.2746742963790894,2.6371665000915527,6.618363380432129
1700852588963739100,10.7607392578125,1.7138123512268066,3.0538463592529297,7.081857681274414
1700852588980728000,10.77772802734375,1.3208154439926147,3.7062530517578125,7.267472743988037
1700852588997718800,10.79471875,0.5503345727920532,3.6161961555480957,7.768411636352539
1700852589014707000,10.81170703125,0.30857333540916443,2.497948169708252,8.512845993041992
1700852589031689200,10.828689208984375,0.8563472032546997,1.7985243797302246,8.506231307983398
1700852589048687900,10.84568798828125,1.489810585975647,1.0304498672485352,8.864704132080078
1700852589065678000,10.862677978515626,1.5357646942138672,1.2624640464782715,9.186487197875977
1700852589082667800,10.879667724609375,1.0438868999481201,1.5725913047790527,9.612060546875
1700852589099664600,10.89666455078125,0.1681097149848938,1.3607845306396484,9.465616226196289
1700852589116646000,10.91364599609375,-0.4722556173801422,0.47150707244873047,9.051828384399414
1700852589133639700,10.9306396484375,-0.3118351697921753,-0.9083986282348633,8.841745376586914
1700852589150627300,10.94762744140625,0.05731683969497681,-1.9950065612792969,8.093896865844727
1700852589167615000,10.964614990234375,1.029005527496338,-2.3791866302490234,6.78788423538208
1700852589184616700,10.98161669921875,2.4636270999908447,-2.0824685096740723,5.6294355392456055
1700852589201597700,10.99859765625,3.8004627227783203,-1.172680377960205,4.368742942810059
1700852589218587100,11.015587158203125,4.017058849334717,-0.015810012817382812,3.074942111968994
1700852589235575000,11.032574951171876,3.2002620697021484,0.7096877098083496,1.9469470977783203
1700852589252569600,11.049569580078124,2.23635196685791,1.1060853004455566,0.8707761764526367
1700852589269557500,11.0665576171875,1.7293087244033813,1.0874061584472656,0.05814504623413086
1700852589286546700,11.083546630859376,1.8964219093322754,0.9133415222167969,-0.9306812286376953
1700852589303537200,11.100537109375,2.308945894241333,0.45679235458374023,-1.7490644454956055
1700852589320526600,11.117526611328126,2.824160575866699,-0.03238868713378906,-2.4209113121032715
1700852589337516800,11.134516845703125,2.9866886138916016,-0.3857269287109375,-3.1946592330932617
1700852589354506000,11.151506103515626,2.776294708251953,-0.640526294708252,-3.9376230239868164
1700852589371497500,11.16849755859375,2.442673683166504,-0.6939363479614258,-4.674907207489014
1700852589388486100,11.185486083984374,2.3294968605041504,-0.6907777786254883,-5.174430847167969
1700852589405476600,11.2024765625,2.6760082244873047,-0.6159110069274902,-5.602789878845215
1700852589422466300,11.21946630859375,3.3026130199432373,-0.6717495918273926,-5.750885963439941
1700852589439454000,11.236453857421875,4.012711524963379,-0.7781047821044922,-5.806093215942383
1700852589456448300,11.2534482421875,4.594451904296875,-1.4613251686096191,-5.371233940124512
1700852589473436200,11.270436279296876,4.788794040679932,-2.065984010696411,-5.246733665466309
1700852589490415000,11.2874150390625,4.899908065795898,-2.451843500137329,-5.082068920135498
1700852589507416300,11.304416259765626,4.951927185058594,-2.7882747650146484,-4.793894290924072
1700852589524405500,11.321405517578125,5.472746849060059,-3.21486234664917,-4.259372234344482
1700852589541395700,11.338395751953126,6.039340496063232,-4.410229682922363,-3.1306395530700684
1700852589558382800,11.3553828125,6.380596160888672,-5.399898529052734,-2.1193246841430664
1700852589575378200,11.372378173828125,5.894099235534668,-5.442178249359131,-2.2662482261657715
1700852589592365000,11.389364990234375,4.260106086730957,-5.456594467163086,-2.3022170066833496
1700852589609355800,11.406355712890624,2.479759454727173,-5.3367600440979,-2.3984761238098145
1700852589626341400,11.42334130859375,1.4441120624542236,-5.62457275390625,-1.8362016677856445
1700852589643339500,11.440339599609375,1.4768644571304321,-5.802976608276367,-0.5303058624267578
1700852589660324900,11.457324951171875,1.4334920644760132,-5.303689002990723,0.4707832336425781
1700852589677315000,11.474315185546875,0.6013740301132202,-4.663913726806641,0.6145286560058594
1700852589694304800,11.4913046875,-0.4049387574195862,-4.21800422668457,-0.09289360046386719
1700852589711295000,11.508294921875,-1.3660980463027954,-3.976573944091797,-1.2847952842712402
1700852589728284200,11.5252841796875,-1.14162015914917,-3.630812644958496,-1.8738503456115723
1700852589745275000,11.54227490234375,0.6319668292999268,-2.7390646934509277,-0.5777473449707031
1700852589762267400,11.559267333984375,2.284717082977295,-1.5321831703186035,0.2579665184020996
1700852589779251500,11.57625146484375,2.2993557453155518,-0.40767526626586914,-0.16174983978271484
1700852589796241400,11.593241455078125,1.0410126447677612,0.5736479759216309,-0.3885226249694824
1700852589813237000,11.610237060546876,-0.49482598900794983,1.4997076988220215,-0.1147761344909668
1700852589830224000,11.627223876953124,-1.4449998140335083,2.2059006690979004,0.3330378532409668
1700852589847214300,11.64421435546875,-1.5675381422042847,2.632901191711426,1.0359783172607422
1700852589864203800,11.661203857421874,-1.2231404781341553,2.6797280311584473,1.8099241256713867
1700852589881183500,11.67818359375,-0.8440543413162231,2.6522107124328613,2.708545684814453
1700852589898183700,11.69518359375,-1.007444143295288,2.7973031997680664,3.238481044769287
1700852589915174100,11.712174072265626,-1.425611138343811,2.971428871154785,3.4585142135620117
1700852589932163600,11.72916357421875,-1.7854859828948975,2.9375152587890625,3.887467384338379
1700852589949153800,11.74615380859375,-1.5044503211975098,2.939359664916992,4.623869895935059
1700852589966143200,11.763143310546875,-0.621831476688385,2.878986358642578,5.923550128936768
1700852589983133700,11.7801337890625,-0.001148998737335205,2.8651390075683594,7.129631996154785
1700852590000123100,11.797123046875,-0.08167767524719238,2.583273410797119,7.695828437805176
1700852590017113300,11.81411328125,-0.14182519912719727,2.3993849754333496,8.147638320922852
1700852590034102800,11.831102783203125,0.04287552833557129,2.3553757667541504,8.622604370117188
1700852590051093200,11.84809326171875,0.4076457619667053,2.870663642883301,8.98569107055664
1700852590068082400,11.86508251953125,0.3251655697822571,3.557793617248535,9.223770141601562
1700852590085073000,11.882072998046874,-0.5164053440093994,4.169569492340088,9.25058364868164
1700852590102062600,11.8990625,-1.263229489326477,3.5390071868896484,9.826944351196289
1700852590119042600,11.91604248046875,-1.3324795961380005,2.0917716026306152,10.393424987792969
1700852590136042200,11.933042236328125,-0.8188372850418091,1.1977505683898926,10.286012649536133
1700852590153032400,11.950032470703125,-0.31128019094467163,0.6563224792480469,10.162638664245605
1700852590170025200,11.967025146484374,0.3168402910232544,0.6361074447631836,9.769307136535645
1700852590187012400,11.984012451171875,0.8405287265777588,0.6301794052124023,9.462041854858398
1700852590204002000,12.001001953125,0.9617367386817932,0.46185874938964844,8.993940353393555
1700852590220981800,12.017981689453125,0.8194608092308044,-0.1217041015625,8.555129051208496
1700852590237981700,12.034981689453126,1.0838696956634521,-1.0536298751831055,7.980207443237305
1700852590254972400,12.051972412109375,1.7758886814117432,-2.0697717666625977,7.25169563293457
1700852590271961600,12.068961669921874,2.6693310737609863,-2.6201863288879395,6.316651344299316
1700852590288952300,12.085952392578125,3.2809417247772217,-2.484647274017334,4.89146089553833
1700852590305941500,12.10294140625,3.3759522438049316,-1.843294620513916,3.2460684776306152
1700852590322931700,12.119931640625,3.180828332901001,-1.2034950256347656,1.9068593978881836
1700852590339911000,12.136910888671874,2.846928596496582,-0.808586597442627,0.8690509796142578
1700852590356908300,12.153908203125,2.392768621444702,-0.7195916175842285,-0.11307573318481445
1700852590373903400,12.1709033203125,2.0749549865722656,-0.7283320426940918,-1.1432385444641113
1700852590390892300,12.187892333984376,1.8698539733886719,-0.713526725769043,-2.320906162261963
1700852590407870200,12.2048701171875,1.8851475715637207,-0.7192821502685547,-3.2769265174865723
1700852590424871400,12.221871337890626,2.011902093887329,-0.7027840614318848,-3.9729971885681152
1700852590441859600,12.238859619140625,2.124821662902832,-0.7109041213989258,-4.461954593658447
1700852590458844400,12.255844482421875,2.105041742324829,-0.7579402923583984,-4.875335693359375
1700852590475840300,12.27284033203125,2.259784698486328,-0.9686646461486816,-5.249992847442627
1700852590492820000,12.289820068359376,2.620882511138916,-1.3290646076202393,-5.8400044441223145
1700852590509809400,12.306809326171875,3.2962734699249268,-1.6473627090454102,-6.313720226287842
1700852590526813200,12.323813232421875,3.969735622406006,-1.8973541259765625,-6.296910285949707
1700852590543788000,12.3407880859375,4.463385581970215,-2.195467948913574,-5.915829658508301
1700852590560780800,12.35778076171875,4.796156883239746,-2.8794567584991455,-5.152666091918945
1700852590577769000,12.37476904296875,4.586615085601807,-3.4776134490966797,-4.642139434814453
1700852590594760700,12.3917607421875,4.027249813079834,-3.999669075012207,-4.815831661224365
1700852590611752000,12.408751953125,3.8744454383850098,-4.416875839233398,-5.393784523010254
1700852590628740600,12.42574072265625,4.625039100646973,-4.960280418395996,-5.341091156005859
1700852590645729000,12.44272900390625,5.783706188201904,-5.920134544372559,-3.7514328956604004
1700852590662725600,12.4597255859375,5.863358020782471,-6.230820178985596,-2.4518790245056152
1700852590679702500,12.47670263671875,4.339889049530029,-5.822798252105713,-2.8931379318237305
1700852590696699600,12.49369970703125,2.80914044380188,-5.620440483093262,-3.6349563598632812
1700852590713697000,12.510697021484376,2.3250932693481445,-6.15186882019043,-3.498704433441162
1700852590730691300,12.52769140625,3.1342263221740723,-6.637287139892578,-1.9718017578125
1700852590747679000,12.544678955078124,3.875833034515381,-6.654221534729004,0.38671302795410156
1700852590764669400,12.56166943359375,2.4041390419006348,-6.182780742645264,1.4470109939575195
1700852590781659000,12.578658935546875,-0.29311227798461914,-5.153591632843018,1.3458833694458008
1700852590798649000,12.595649169921876,-2.305715322494507,-4.369658946990967,1.3919639587402344
1700852590815636000,12.612635986328126,-2.2528157234191895,-3.969466209411621,2.0210838317871094
1700852590832631600,12.629631591796874,-0.882975161075592,-3.5269298553466797,2.3519668579101562
1700852590849618400,12.646618408203125,0.8205125331878662,-2.781981945037842,2.3892526626586914
1700852590866608600,12.663608642578126,1.855891466140747,-1.432539463043213,2.0797085762023926
1700852590883598300,12.680598388671875,1.847733974456787,0.1233205795288086,1.556440830230713
1700852590900588500,12.697588623046874,1.3402248620986938,1.6185221672058105,1.1673684120178223
1700852590917578200,12.714578125,0.8113046884536743,2.8611292839050293,1.076798439025879
1700852590934568400,12.731568359375,0.36997658014297485,3.441943645477295,1.229914665222168
1700852590951558000,12.748557861328125,0.05861246585845947,3.2351207733154297,1.94193696975708
1700852590968548000,12.765548095703124,-0.06414476037025452,2.917093276977539,2.817234992980957
1700852590985537800,12.782537841796875,-0.2660018801689148,2.8943896293640137,3.4220852851867676
1700852591002520300,12.799520263671875,-0.685512900352478,3.24112606048584,3.592132568359375
1700852591019505200,12.816505126953125,-0.916461169719696,3.771024703979492,3.838164806365967
1700852591036509700,12.833509765625,-0.7061262130737305,3.9540820121765137,4.610574245452881
1700852591053497300,12.850497314453126,-0.1953699290752411,3.687164306640625,5.609930992126465
1700852591070483200,12.867483154296876,-0.03047284483909607,3.1752724647521973,6.550552845001221
1700852591087470800,12.884470947265624,-0.17655403912067413,3.088637351989746,7.031657695770264
1700852591104467500,12.901467529296875,-0.23263981938362122,3.323781967163086,7.434208869934082
1700852591121457000,12.918456787109376,0.3253365755081177,3.638918876647949,8.011903762817383
1700852591138447400,12.935447265625,1.611246943473816,3.6877050399780273,8.750986099243164
1700852591155433700,12.952433837890625,2.666372060775757,3.654569149017334,9.2755126953125
1700852591172427500,12.969427490234375,2.724647283554077,3.741236686706543,9.493349075317383
1700852591189419000,12.9864189453125,1.5232549905776978,3.989741802215576,9.310763359069824
1700852591206406700,13.00340673828125,0.6432466506958008,3.353785991668701,9.843334197998047
1700852591223396000,13.02039599609375,0.5178974866867065,2.6353726387023926,9.87276554107666
1700852591240380000,13.0373798828125,0.9482424855232239,1.7124357223510742,9.850114822387695
1700852591257375700,13.054375732421875,1.1874752044677734,0.8032426834106445,9.894689559936523
1700852591274366500,13.071366455078126,1.2708278894424438,0.3666410446166992,9.656843185424805
1700852591291356000,13.08835595703125,1.142769694328308,0.3683624267578125,9.497685432434082
1700852591308346000,13.10534619140625,1.2729252576828003,0.4503774642944336,9.250402450561523
1700852591325324800,13.12232470703125,1.4474401473999023,-0.28369998931884766,9.188282012939453
1700852591342326000,13.139325927734374,1.4797849655151367,-1.564742088317871,9.013191223144531
1700852591359315500,13.1563154296875,1.4462698698043823,-2.9492878913879395,8.158708572387695
1700852591376305700,13.1733056640625,1.8286831378936768,-3.8855624198913574,6.789330005645752
1700852591393295000,13.190295166015625,2.552060604095459,-3.7401928901672363,5.01718807220459
1700852591410285600,13.20728564453125,3.132066249847412,-2.9389190673828125,3.204725742340088
1700852591427271000,13.22427099609375,3.0311837196350098,-2.0050272941589355,1.551732063293457
1700852591444265500,13.241265380859375,2.6721229553222656,-1.3547611236572266,0.27333498001098633
1700852591461244400,13.258244384765625,2.1478235721588135,-1.1339354515075684,-0.8532915115356445
1700852591478245000,13.2752451171875,1.5192264318466187,-1.1702208518981934,-1.9884328842163086
1700852591495234300,13.292234375,1.2254652976989746,-1.1391773223876953,-2.9484477043151855
1700852591512225000,13.30922509765625,1.1701374053955078,-1.119269847869873,-3.6521053314208984
1700852591529214500,13.32621435546875,1.3841516971588135,-1.0722637176513672,-4.235973358154297
1700852591546204700,13.34320458984375,1.495837926864624,-1.0911593437194824,-4.795213222503662
1700852591563194000,13.360194091796876,1.6192582845687866,-1.1877284049987793,-5.26180362701416
1700852591580184600,13.3771845703125,1.6667168140411377,-1.4168787002563477,-5.850076198577881
1700852591597174000,13.394174072265624,1.9492614269256592,-1.6267471313476562,-6.262566566467285
1700852591614164200,13.411164306640625,2.3353683948516846,-1.7678921222686768,-6.335758686065674
1700852591631153400,13.4281533203125,2.7530558109283447,-1.8509535789489746,-6.386563777923584
1700852591648157700,13.44515771484375,3.077866554260254,-2.092072010040283,-6.220358371734619
1700852591665133800,13.4621337890625,3.579326629638672,-2.6546459197998047,-5.633326530456543
1700852591682123800,13.479123779296875,3.903709888458252,-3.3971376419067383,-5.090174198150635
1700852591699109600,13.496109619140626,4.191801071166992,-4.048882484436035,-4.693864345550537
1700852591716101000,13.51310107421875,4.580141067504883,-4.342837333679199,-4.300422668457031
1700852591733095700,13.530095703125,4.914065361022949,-4.400789260864258,-3.7813901901245117
1700852591750083600,13.54708349609375,5.226747512817383,-4.851729393005371,-2.4962596893310547
1700852591767072800,13.56407275390625,4.729452610015869,-5.49699592590332,-1.5288152694702148
1700852591784063500,13.5810634765625,3.6573994159698486,-5.619516372680664,-1.877324104309082
1700852591801052700,13.598052734375,2.780304193496704,-5.808711051940918,-2.777998447418213
1700852591818043100,13.615043212890624,2.6122078895568848,-6.118923187255859,-2.943293571472168
1700852591835032300,13.6320322265625,3.1171491146087646,-6.227851867675781,-2.6708264350891113
1700852591852020700,13.649020751953126,3.5443308353424072,-6.317632675170898,-1.5387601852416992
1700852591869014500,13.6660146484375,3.246613025665283,-6.157233238220215,-0.5724248886108398
1700852591886002400,13.68300244140625,2.077472686767578,-5.683772563934326,-0.40137290954589844
1700852591902990300,13.699990234375,0.6189610958099365,-5.197267532348633,-0.35185909271240234
1700852591919984000,13.716984130859375,0.30900537967681885,-5.004360675811768,0.7102642059326172
1700852591936969200,13.73396923828125,1.0916903018951416,-4.406143665313721,1.9225997924804688
1700852591953956400,13.750956298828125,1.5015182495117188,-3.179999351501465,2.321591377258301
1700852591970953200,13.767953125,0.8726294040679932,-1.509678840637207,1.8995847702026367
1700852591987940600,13.784940673828125,-0.2885812222957611,0.2146930694580078,1.230339527130127
1700852592004931600,13.801931640625,-1.1869953870773315,1.7062420845031738,0.8608946800231934
1700852592021911000,13.8189111328125,-1.6345676183700562,2.616818428039551,0.8333196640014648
1700852592038903300,13.8359033203125,-1.4496198892593384,2.9645166397094727,0.9798555374145508
1700852592055901700,13.852901611328125,-0.7461265325546265,2.9088997840881348,1.1661829948425293
1700852592072892200,13.86989208984375,-0.08783262968063354,2.352105140686035,1.3533391952514648
1700852592089869600,13.88686962890625,0.5690079927444458,1.8512563705444336,1.6639060974121094
1700852592106870500,13.90387060546875,0.8673433661460876,1.9585590362548828,2.155111312866211
1700852592123854300,13.920854248046876,0.7666170001029968,2.057830333709717,3.7150731086730957
1700852592140850400,13.937850341796874,0.37887847423553467,2.5093936920166016,5.221417427062988
1700852592157830100,13.954830078125,-0.37019121646881104,2.8864850997924805,6.43911600112915
1700852592174827800,13.971827880859376,-1.0330814123153687,2.868062973022461,7.325746536254883
1700852592191820800,13.98882080078125,-0.9622628688812256,2.811941146850586,8.226444244384766
1700852592208812500,14.0058125,-0.427988201379776,2.882874011993408,9.106216430664062
1700852592225800400,14.022800537109376,0.002322554588317871,3.2425975799560547,9.74085807800293
1700852592242783700,14.03978369140625,0.2010313868522644,3.6407251358032227,10.102046012878418
1700852592259777000,14.056777099609375,0.09410858154296875,4.080865383148193,10.279060363769531
1700852592276764700,14.0737646484375,-0.04420202970504761,4.453334331512451,10.358989715576172
1700852592293749500,14.09074951171875,-0.30221495032310486,4.86992073059082,10.273459434509277
1700852592310747000,14.107746826171875,-0.6510835289955139,3.8712687492370605,10.800580978393555
1700852592327734500,14.124734619140625,-0.5972428321838379,2.3142261505126953,10.760049819946289
1700852592344722700,14.14172265625,0.04418063163757324,1.1915903091430664,10.43632698059082
1700852592361711400,14.15871142578125,0.6086397171020508,0.692230224609375,10.564554214477539
1700852592378699800,14.17569970703125,1.0368101596832275,0.9132652282714844,10.552753448486328
1700852592395694600,14.192694580078125,1.3675365447998047,0.5496339797973633,10.739656448364258
1700852592412683500,14.20968359375,1.8840677738189697,-0.2028341293334961,10.263208389282227
1700852592429676000,14.226676025390624,2.3513543605804443,-1.475595474243164,9.413994789123535
1700852592446663400,14.243663330078125,3.1067702770233154,-2.6768598556518555,8.307987213134766
1700852592463664400,14.260664306640624,3.847937822341919,-3.5222911834716797,7.780510425567627
1700852592480634600,14.277634521484375,4.059479713439941,-3.4903836250305176,6.584652900695801
1700852592497630200,14.294630126953125,3.93343186378479,-2.7316675186157227,4.8029656410217285
1700852592514643000,14.311642822265625,3.856445550918579,-1.699540615081787,2.901185989379883
1700852592531616000,14.328615966796875,3.7001311779022217,-0.8869228363037109,1.0553174018859863
1700852592548608000,14.34560791015625,3.4348511695861816,-0.7538495063781738,-0.29476499557495117
1700852592565598500,14.362598388671875,3.059807777404785,-0.870753288269043,-1.3707151412963867
1700852592582587600,14.379587646484374,2.3277950286865234,-1.0810394287109375,-2.2818522453308105
1700852592599578000,14.396578125,1.6307110786437988,-1.2089643478393555,-3.1439099311828613
1700852592616567600,14.413567626953125,1.2677603960037231,-1.1550893783569336,-3.95574951171875
1700852592633557800,14.430557861328126,1.4168473482131958,-1.1749954223632812,-4.490499019622803
1700852592650547200,14.447547119140625,1.60160231590271,-1.2808632850646973,-4.929839134216309
1700852592667537400,14.464537353515626,1.896547794342041,-1.3896026611328125,-5.2187886238098145
1700852592684526800,14.48152685546875,2.3311076164245605,-1.442856788635254,-5.484302997589111
1700852592701517300,14.498517333984376,2.9235944747924805,-1.4199578762054443,-5.620625972747803
1700852592718506800,14.5155068359375,3.4742319583892822,-1.5812110900878906,-5.732938766479492
1700852592735489500,14.532489501953124,3.93475341796875,-2.0488901138305664,-5.437498092651367
1700852592752489000,14.549489013671876,4.1620283126831055,-2.7107644081115723,-5.450324058532715
1700852592769476900,14.566476806640624,4.2551751136779785,-3.4170784950256348,-5.735904216766357
1700852592786466300,14.58346630859375,4.237107753753662,-3.943444013595581,-5.815752029418945
1700852592803456800,14.600456787109374,4.139305114746094,-4.330151557922363,-5.556939125061035
1700852592820456000,14.6174560546875,4.1541547775268555,-4.587504863739014,-5.135344505310059
1700852592837436700,14.634436767578125,4.370379447937012,-5.191012859344482,-4.138795852661133
1700852592854421800,14.651421875,4.147495269775391,-6.02886438369751,-3.122933864593506
1700852592871419400,14.66841943359375,3.3997583389282227,-6.013930797576904,-3.345536708831787
1700852592888408300,14.685408203125,2.6342430114746094,-6.04011869430542,-3.547626495361328
1700852592905396200,14.702396240234375,2.3194706439971924,-6.593149185180664,-2.617640972137451
1700852592922385400,14.719385498046876,2.527257204055786,-6.845335483551025,-0.8994264602661133
1700852592939375900,14.7363759765625,1.8879587650299072,-6.78166389465332,0.3114013671875
1700852592956365000,14.753364990234376,0.5028907656669617,-6.474797248840332,0.8531656265258789
1700852592973355500,14.77035546875,-0.561951220035553,-6.018378257751465,0.9309377670288086
1700852592990345000,14.787344970703124,-0.5613282918930054,-5.616371154785156,1.2820568084716797
1700852593007334400,14.80433447265625,0.4051063358783722,-5.239446640014648,1.8852243423461914
1700852593024326000,14.821325927734375,1.4886952638626099,-4.67960262298584,1.7310266494750977
1700852593041315000,14.838315185546875,1.933996319770813,-3.6198525428771973,1.025893211364746
1700852593058304300,14.85530419921875,1.7318623065948486,-2.195082187652588,0.43482208251953125
1700852593075294700,14.872294677734375,1.3505957126617432,-0.5716457366943359,0.39293384552001953
1700852593092284200,14.8892841796875,0.24930289387702942,0.991727352142334,0.3120594024658203
1700852593109274600,14.906274658203126,-0.9758821725845337,2.1635518074035645,0.17187261581420898
1700852593126264000,14.92326416015625,-1.674543857574463,2.947526454925537,0.3052945137023926
1700852593143254300,14.940254150390626,-1.711656928062439,3.050816059112549,0.674431324005127
1700852593160243700,14.95724365234375,-1.1790730953216553,2.8591346740722656,1.2959256172180176
1700852593177234000,14.97423388671875,-0.4342038035392761,2.655463695526123,2.4941887855529785
1700852593194223400,14.991223388671875,-0.42316964268684387,2.8942246437072754,3.1815128326416016
1700852593211213800,15.0082138671875,-1.0811223983764648,3.1359519958496094,3.752676010131836
1700852593228211000,15.0252109375,-1.7325282096862793,3.169802665710449,4.419832706451416
1700852593245193700,15.04219384765625,-2.0788588523864746,2.960362434387207,5.529520034790039
1700852593262183000,15.059182861328125,-2.1772375106811523,2.751199245452881,6.603979110717773
1700852593279173400,15.07617333984375,-2.1047170162200928,2.5977816581726074,7.851714134216309
1700852593296153000,15.093153076171875,-1.75528883934021,2.633096694946289,8.955257415771484
1700852593313153300,15.1101533203125,-1.271803617477417,3.086404800415039,9.744298934936523
1700852593330142700,15.127142822265625,-0.49030014872550964,3.821056842803955,10.364616394042969
1700852593347133200,15.14413330078125,0.3551092743873596,4.404150485992432,10.658794403076172
1700852593364122400,15.161122314453126,0.7066197991371155,4.801270961761475,10.697668075561523
1700852593381113000,15.178113037109375,0.07119745016098022,4.605017185211182,10.50381088256836
1700852593398102300,15.195102294921876,-0.44573238492012024,3.2937917709350586,10.799315452575684
1700852593415094500,15.212094482421875,-0.5216524600982666,2.19387149810791,10.481958389282227
1700852593432081700,15.22908154296875,-0.21989920735359192,1.2759804725646973,10.496528625488281
1700852593449084000,15.246083984375,-0.18101611733436584,0.9157214164733887,10.846113204956055
1700852593466061600,15.2630615234375,-0.6260088086128235,0.8137717247009277,10.699178695678711
1700852593483052300,15.28005224609375,-0.731081485748291,0.6130232810974121,10.24570083618164
1700852593500032500,15.297032470703124,0.27584409713745117,0.16022586822509766,9.878660202026367
1700852593517030100,15.314030029296875,1.3401212692260742,-0.8388185501098633,9.417835235595703
1700852593534021400,15.331021484375,2.164543390274048,-2.135876178741455,8.601187705993652
1700852593551011600,15.348011474609375,2.9385056495666504,-3.1584010124206543,7.901288032531738
1700852593568001000,15.3650009765625,3.3271987438201904,-3.274519920349121,6.559303283691406
1700852593584991200,15.3819912109375,3.51896071434021,-2.695157051086426,4.703911781311035
1700852593601980700,15.398980712890625,3.4672441482543945,-1.953129768371582,2.8824033737182617
1700852593618960400,15.41596044921875,3.3721745014190674,-1.5370368957519531,1.1814241409301758
1700852593635960300,15.432960205078125,3.134770631790161,-1.4539785385131836,-0.3290557861328125
1700852593652949500,15.449949462890626,2.81935715675354,-1.5974884033203125,-1.4944896697998047
1700852593669941200,15.466941162109375,2.37292218208313,-1.7075295448303223,-2.645235061645508
1700852593686930700,15.4839306640625,2.0086350440979004,-1.7452354431152344,-3.667445182800293
1700852593703919900,15.500919921875,1.9038997888565063,-1.6931333541870117,-4.486374378204346
1700852593720910300,15.517910400390624,1.9021315574645996,-1.7850430011749268,-4.91880464553833
1700852593737899800,15.534899658203125,2.0114083290100098,-2.0500500202178955,-5.318404197692871
1700852593754890200,15.55189013671875,2.0860488414764404,-2.2275638580322266,-5.879858493804932
1700852593771879400,15.56887939453125,2.1673288345336914,-2.3255231380462646,-6.319515228271484
1700852593788872200,15.5858720703125,2.1934545040130615,-2.343294143676758,-6.522697448730469
1700852593805857000,15.60285693359375,2.3260672092437744,-2.4411277770996094,-6.517211437225342
1700852593822849500,15.619849609375,2.6668198108673096,-2.7123594284057617,-6.021510124206543
1700852593839828200,15.636828125,3.2085580825805664,-3.137394905090332,-5.4279279708862305
1700852593856818700,15.653818603515624,3.7171523571014404,-3.6435647010803223,-5.051558017730713
1700852593873819000,15.67081884765625,3.862337112426758,-4.333099842071533,-4.916397571563721
1700852593890808300,15.687808349609375,3.8167672157287598,-4.933178424835205,-5.211650848388672
1700852593907799600,15.704799560546874,4.0081377029418945,-5.41526460647583,-5.168065071105957
1700852593924789000,15.7217890625,4.852324485778809,-5.721676349639893,-4.300665378570557
1700852593941778200,15.738778076171876,5.495907306671143,-6.404451370239258,-2.3743271827697754
1700852593958768400,15.755768310546875,4.900517463684082,-6.56689453125,-1.6587271690368652
1700852593975757800,15.7727578125,3.664471387863159,-6.142936706542969,-2.3980908393859863
1700852593992735700,15.78973583984375,2.3686399459838867,-6.544734954833984,-2.705111026763916
1700852594009733400,15.8067333984375,1.666736364364624,-7.126126766204834,-2.3861422538757324
1700852594026730800,15.823730712890624,1.7609379291534424,-6.974308967590332,-1.582838535308838
1700852594043706400,15.840706298828126,2.3418869972229004,-6.358781814575195,-0.03386974334716797
1700852594060701200,15.857701171875,2.091461658477783,-5.821798324584961,1.2750434875488281
1700852594077687600,15.8746875,1.2541697025299072,-5.150575637817383,1.987544059753418
1700852594094669300,15.89166943359375,0.44087985157966614,-4.712996959686279,2.3226118087768555
1700852594111669800,15.908669677734375,0.3953549265861511,-4.2909955978393555,2.42423152923584
1700852594128662500,15.92566259765625,1.0228387117385864,-3.6509180068969727,2.465683937072754
1700852594145653000,15.942653076171876,1.5286448001861572,-2.430239677429199,2.392179012298584
1700852594162639600,15.9596396484375,1.0864503383636475,-0.9526634216308594,2.470397472381592
1700852594179620400,15.976620361328125,-0.12044113874435425,0.8290061950683594,2.2912654876708984
1700852594196615000,15.993614990234375,-1.5698578357696533,2.2652149200439453,1.9534268379211426
1700852594213614600,16.010614501953125,-2.452925205230713,3.279954195022583,1.7836976051330566
1700852594230601000,16.02760107421875,-2.4861278533935547,3.408230781555176,2.0123257637023926
1700852594247594500,16.044594482421875,-1.6724189519882202,3.2233285903930664,2.405167579650879
1700852594264586800,16.061586669921876,-0.8732306957244873,2.883073329925537,3.1146411895751953
1700852594281575700,16.07857568359375,-0.356494665145874,2.7882490158081055,3.576205253601074
1700852594298564600,16.095564697265626,-0.11887407302856445,2.924123764038086,4.3829345703125
1700852594315554000,16.112553955078123,-0.4806358218193054,3.067704200744629,5.25792932510376
1700852594332538400,16.129538330078127,-0.9779417514801025,3.093888282775879,6.447902679443359
1700852594349535000,16.146534912109374,-1.7544885873794556,3.06636381149292,7.643067359924316
1700852594366526500,16.1635263671875,-2.304184913635254,3.1510772705078125,8.548626899719238
1700852594383514000,16.18051416015625,-2.3139336109161377,3.182520866394043,9.121686935424805
1700852594400494800,16.197494873046875,-1.5766043663024902,3.4386205673217773,9.320568084716797
1700852594417494800,16.214494873046874,-0.3264153003692627,3.737916946411133,9.819347381591797
1700852594434482200,16.231482177734375,0.5287255644798279,4.160516738891602,10.100515365600586
1700852594451477000,16.24847705078125,0.45002245903015137,4.6637067794799805,9.834200859069824
1700852594468465200,16.265465087890625,-0.06661903858184814,4.870429515838623,9.282942771911621
1700852594485453600,16.28245361328125,-0.43721646070480347,4.786445617675781,8.869891166687012
1700852594502444500,16.299444580078124,-0.198064386844635,3.6972155570983887,9.018186569213867
1700852594519434000,16.31643408203125,0.35852980613708496,2.424210548400879,9.324535369873047
1700852594536424200,16.333424072265625,0.8842798471450806,1.7358570098876953,9.462967872619629
1700852594553414000,16.350413818359375,0.49901634454727173,1.2206106185913086,9.734757423400879
1700852594570403800,16.36740380859375,-0.029112815856933594,1.0900697708129883,9.564949035644531
1700852594587393500,16.3843935546875,0.20010823011398315,0.5439310073852539,9.618873596191406
1700852594604383700,16.4013837890625,1.0202854871749878,-0.3913116455078125,9.862874984741211
1700852594621373000,16.418373046875,1.8337440490722656,-1.560089111328125,9.84885311126709
1700852594638363600,16.43536376953125,2.609581470489502,-2.607358932495117,9.768351554870605
1700852594655352800,16.452352783203125,3.108013868331909,-3.4955759048461914,9.506586074829102
1700852594672343300,16.46934326171875,3.1066207885742188,-3.699171543121338,8.316350936889648
1700852594689332700,16.486332763671875,2.8075006008148193,-3.395402431488037,6.336456298828125
1700852594706323000,16.503322998046876,2.7553086280822754,-2.7787036895751953,4.066928386688232
1700852594723312600,16.520312744140625,2.811903476715088,-2.439960479736328,2.028489589691162
1700852594740302800,16.537302734375,2.859241008758545,-2.3429160118103027,0.30480241775512695
1700852594757292000,16.5542919921875,2.7647647857666016,-2.4638500213623047,-1.1287498474121094
1700852594774282500,16.571282470703125,2.6699092388153076,-2.5446128845214844,-2.424694061279297
1700852594791272000,16.58827197265625,2.4946887493133545,-2.532365322113037,-3.5608410835266113
1700852594808262100,16.60526220703125,2.249795436859131,-2.3849997520446777,-4.6841840744018555
1700852594825253000,16.622253173828124,2.047816753387451,-2.233428478240967,-5.611875534057617
1700852594842240500,16.639240478515624,1.912142276763916,-2.2417447566986084,-6.146082878112793
1700852594859231200,16.656231201171874,2.016580581665039,-2.2255725860595703,-6.481357097625732
1700852594876221400,16.673221435546875,2.151994466781616,-2.291041612625122,-6.627782344818115
1700852594893210600,16.690210693359376,2.2562389373779297,-2.4547088146209717,-6.88273811340332
1700852594910201600,16.70720166015625,2.579904556274414,-2.6215925216674805,-7.136645793914795
1700852594927191000,16.72419091796875,3.04489803314209,-2.913200616836548,-6.9914140701293945
1700852594944181200,16.74118115234375,3.522249460220337,-3.3896255493164062,-6.43080997467041
1700852594961182000,16.758181884765627,3.862056016921997,-3.8704586029052734,-5.766189098358154
1700852594978160600,16.77516064453125,3.7481281757354736,-4.4391350746154785,-5.342799663543701
1700852594995150000,16.792150146484374,3.64646577835083,-5.123537540435791,-5.377223968505859
1700852595012140500,16.809140625,4.239434719085693,-5.679620742797852,-5.234148025512695
1700852595029130000,16.8261298828125,5.350347518920898,-6.295679092407227,-4.124131679534912
1700852595046120400,16.843120361328126,5.4214277267456055,-6.623915195465088,-2.9238533973693848
1700852595063110000,16.86010986328125,3.901254177093506,-6.383311748504639,-2.988766670227051
1700852595080100000,16.87710009765625,2.4522881507873535,-6.248924255371094,-3.403317928314209
1700852595097089300,16.89408935546875,1.930455207824707,-6.755515098571777,-3.3751940727233887
1700852595114079700,16.911079833984374,2.4000747203826904,-7.1794843673706055,-2.657853126525879
1700852595131069200,16.928069091796875,3.3612751960754395,-6.965240478515625,-1.1029901504516602
1700852595148056000,16.94505615234375,3.5537381172180176,-6.55545711517334,0.5311717987060547
1700852595165046500,16.962046630859376,2.1957480907440186,-6.144631385803223,1.5513067245483398
1700852595182039300,16.979039306640626,0.5329707860946655,-5.387850761413574,1.915792465209961
1700852595199018000,16.99601806640625,-1.0162441730499268,-4.746936798095703,2.118380546569824
1700852595216019000,17.01301904296875,-1.5022205114364624,-4.037116527557373,2.380115509033203
1700852595233008400,17.03000830078125,-0.8313455581665039,-3.19718074798584,2.831214427947998
1700852595249996300,17.046996337890626,-0.1879473626613617,-2.124117851257324,2.8324718475341797
1700852595266990600,17.063990478515624,0.24402809143066406,-0.6588397026062012,2.6643991470336914
1700852595283968000,17.080968017578126,0.21611660718917847,0.6883602142333984,2.5538582801818848
1700852595300967700,17.0979677734375,0.22293877601623535,1.9823884963989258,2.502842426300049
1700852595317958400,17.11495849609375,0.1773417592048645,2.8627395629882812,2.3919363021850586
1700852595334947600,17.131947509765624,0.3615589737892151,3.119095802307129,2.678947925567627
1700852595351937800,17.148937744140625,0.6360326409339905,3.1073851585388184,3.290790557861328
1700852595368927500,17.165927490234374,0.49343132972717285,3.1592860221862793,3.9138479232788086
1700852595385917400,17.18291748046875,-0.08492481708526611,3.443307876586914,4.127050876617432
1700852595402903300,17.1999033203125,-0.36242175102233887,3.691427707672119,4.476650238037109
1700852595419890700,17.216890625,-0.0399552583694458,3.7863593101501465,5.116305351257324
1700852595436886800,17.23388671875,-0.016487538814544678,3.5972700119018555,6.232511520385742
1700852595453877200,17.250877197265623,-0.4898199737071991,3.3319644927978516,6.930100440979004
1700852595470866400,17.267866455078124,-1.0615437030792236,3.0927071571350098,7.530531883239746
1700852595487857000,17.28485693359375,-0.9534372687339783,2.983266830444336,8.378363609313965
1700852595504834300,17.301834228515624,-0.4534411132335663,3.1974897384643555,9.377996444702148
1700852595521836500,17.31883642578125,-0.06596493721008301,3.7882184982299805,10.315801620483398
1700852595538814200,17.335814208984374,-0.16863304376602173,4.257173538208008,11.051965713500977
1700852595555816400,17.35281640625,-0.3620586097240448,4.863292217254639,11.176902770996094
1700852595572813000,17.36981298828125,-0.4392695128917694,5.095211982727051,10.849170684814453
1700852595589785600,17.38678564453125,-0.3885188698768616,4.1684441566467285,10.944612503051758
1700852595606788600,17.40378857421875,-0.03891676664352417,2.9010276794433594,10.7192964553833
1700852595623772400,17.4207724609375,0.405001163482666,1.7105097770690918,10.72889518737793
1700852595640756000,17.437755859375,0.43939411640167236,0.8320150375366211,10.944502830505371
1700852595657755400,17.45475537109375,0.438931941986084,0.6795196533203125,11.024520874023438
1700852595674742000,17.471741943359376,0.2543017864227295,0.5661869049072266,10.702430725097656
1700852595691727600,17.4887275390625,0.26106977462768555,0.11653995513916016,10.136434555053711
1700852595708722200,17.50572216796875,0.6632055044174194,-1.0356836318969727,9.827310562133789
1700852595725704200,17.5227041015625,1.101544976234436,-2.6407594680786133,9.55300521850586
1700852595742702000,17.5397021484375,1.5109683275222778,-3.9999594688415527,8.938142776489258
1700852595759684400,17.556684326171876,1.9383529424667358,-4.547114849090576,7.423995018005371
1700852595776680700,17.5736806640625,2.50889253616333,-4.189150810241699,5.1835503578186035
1700852595793667000,17.5906669921875,3.145543336868286,-3.8321290016174316,3.418668746948242
1700852595810658300,17.607658203125,3.5595474243164062,-3.254030704498291,1.695061206817627
1700852595827649000,17.62464892578125,3.288421154022217,-2.6922998428344727,0.11211109161376953
1700852595844632000,17.641632080078125,2.763439178466797,-2.263155937194824,-1.2695136070251465
1700852595861628200,17.658628173828124,2.338552236557007,-2.068861961364746,-2.2611966133117676
1700852595878619100,17.675619140625,2.135960102081299,-2.271118640899658,-2.8469910621643066
1700852595895609900,17.69260986328125,2.1192398071289062,-2.7661027908325195,-3.223907947540283
1700852595912594700,17.7095947265625,1.9876387119293213,-3.019193410873413,-4.084266662597656
1700852595929594400,17.726594482421874,1.888645052909851,-2.967137098312378,-5.057809829711914
1700852595946582800,17.743582763671874,1.9548430442810059,-2.7578847408294678,-5.790726661682129
1700852595963573000,17.760572998046875,2.0488898754119873,-2.6441080570220947,-6.336302757263184
1700852595980562200,17.777562255859376,2.098783493041992,-2.9820961952209473,-6.406193733215332
1700852595997552600,17.794552734375,2.2023937702178955,-3.348936080932617,-6.48123836517334
1700852596014541800,17.811541748046874,2.4139504432678223,-3.672468423843384,-6.97103214263916
1700852596031532300,17.8285322265625,2.7551326751708984,-3.9082489013671875,-7.539815902709961
1700852596048521700,17.845521728515624,3.139993190765381,-4.273301601409912,-7.668312072753906
1700852596065512000,17.862511962890625,3.23860239982605,-4.803909778594971,-7.441895961761475
1700852596082500600,17.87950048828125,3.114752769470215,-5.595538139343262,-6.838696479797363
1700852596099491800,17.896491943359376,3.179068088531494,-6.19299840927124,-6.28125
1700852596116482000,17.91348193359375,3.7004547119140625,-6.637716293334961,-6.148863792419434
1700852596133471500,17.930471435546874,4.606377124786377,-6.975584030151367,-5.722262382507324
1700852596150461000,17.9474609375,4.552778720855713,-7.011673927307129,-5.172238826751709
1700852596167451100,17.964451171875,3.8133299350738525,-7.000175952911377,-4.520299434661865
1700852596184440300,17.9814404296875,3.0174126625061035,-7.453206539154053,-3.376007556915283
1700852596201431000,17.99843115234375,2.6808700561523438,-8.030353546142578,-1.9979629516601562
1700852596218420200,18.015420166015623,2.7259206771850586,-7.93358039855957,-1.0748043060302734
1700852596235411200,18.0324111328125,2.874095916748047,-7.6136932373046875,-0.1356029510498047
1700852596252399400,18.0493994140625,2.7753489017486572,-7.144044876098633,1.8205833435058594
1700852596269390300,18.066390380859374,1.7731802463531494,-6.485370635986328,3.6935110092163086
1700852596286379800,18.0833798828125,0.2326381504535675,-5.604160785675049,4.555041313171387
1700852596303370200,18.100370361328125,-0.9838830232620239,-4.929676532745361,4.974527359008789
1700852596320340500,18.117340576171873,-1.2401000261306763,-4.18392276763916,5.295248031616211
1700852596337339600,18.134339599609376,-0.6634685397148132,-2.8915905952453613,5.424679279327393
1700852596354339300,18.15133935546875,-0.48107966780662537,-0.8858494758605957,5.292788982391357
1700852596371329500,18.16832958984375,-0.8307607769966125,1.052253246307373,4.913278102874756
1700852596388318700,18.185318603515626,-1.5716694593429565,2.8086814880371094,4.362908840179443
1700852596405309400,18.202309326171875,-2.368372917175293,4.001321315765381,3.9777493476867676
1700852596422298600,18.219298583984376,-2.837236166000366,4.544432640075684,3.987274646759033
1700852596439288800,18.236288818359377,-3.2359917163848877,4.634490966796875,3.8636679649353027
1700852596456278300,18.2532783203125,-2.9673867225646973,4.423200607299805,3.8813819885253906
1700852596473268500,18.2702685546875,-2.535217523574829,4.276430130004883,4.002414703369141
1700852596490258200,18.287258056640624,-2.0302278995513916,4.019791126251221,4.396914482116699
1700852596507248400,18.304248291015625,-1.3474273681640625,3.9221630096435547,5.059688091278076
1700852596524237800,18.32123779296875,-1.4068875312805176,3.902637004852295,5.426616668701172
1700852596541228300,18.338228271484375,-1.8845800161361694,3.7008204460144043,5.586343765258789
1700852596558217200,18.35521728515625,-1.9064277410507202,3.4693403244018555,5.883098602294922
1700852596575208000,18.3722080078125,-1.0314795970916748,3.169454574584961,6.897151947021484
1700852596592197000,18.389197021484375,0.013169169425964355,3.258751392364502,7.997068405151367
1700852596609185800,18.406185791015623,0.3044370412826538,3.670037269592285,8.675904273986816
1700852596626177000,18.423177001953125,0.3778817653656006,4.045451641082764,9.211936950683594
1700852596643166000,18.440166015625,0.6155877113342285,4.175987720489502,9.704028129577637
1700852596660157700,18.45715771484375,0.8513458967208862,4.318601131439209,10.001933097839355
1700852596677147000,18.47414697265625,0.7335699796676636,4.262786865234375,10.298863410949707
1700852596694135000,18.491135009765625,0.14215898513793945,3.452657699584961,10.81396198272705
1700852596711138300,18.50813818359375,-0.30329078435897827,2.2718586921691895,11.073823928833008
1700852596728113400,18.525113525390626,-0.4612860083580017,1.5495061874389648,10.957252502441406
1700852596745109000,18.54210888671875,-0.5540562868118286,0.8177366256713867,11.127847671508789
1700852596762095600,18.559095703125,-0.5767956376075745,0.4675006866455078,10.697172164916992
1700852596779075300,18.576075439453124,-0.1702500581741333,-0.0000782012939453125,10.12883186340332
1700852596796073200,18.5930732421875,0.7167922258377075,-0.8596639633178711,9.410398483276367
1700852596813067800,18.61006787109375,1.6395117044448853,-2.2474536895751953,8.869621276855469
1700852596830055200,18.62705517578125,2.394641637802124,-3.6384401321411133,8.458206176757812
1700852596847045600,18.644045654296875,2.7877745628356934,-4.597428321838379,7.860827922821045
1700852596864034800,18.661034912109375,3.019758701324463,-4.5931806564331055,6.545627593994141
1700852596881026300,18.6780263671875,3.1746578216552734,-4.064212799072266,4.694291114807129
1700852596898014500,18.695014404296874,3.3281049728393555,-3.348097324371338,2.5187454223632812
1700852596915003100,18.712003173828126,3.4074103832244873,-2.8267765045166016,0.5423998832702637
1700852596931995400,18.728995361328124,3.4778804779052734,-2.5597429275512695,-1.0390620231628418
1700852596948984300,18.745984375,3.3916311264038086,-2.366218090057373,-2.2994794845581055
1700852596965963500,18.762963623046875,3.0788683891296387,-2.154918670654297,-3.3312740325927734
1700852596982964200,18.779964111328123,2.5539679527282715,-1.8568673133850098,-4.142691612243652
1700852596999946800,18.79694677734375,2.3487541675567627,-1.6192164421081543,-4.7619829177856445
1700852597016946700,18.81394677734375,2.184232234954834,-1.7865407466888428,-5.203021049499512
1700852597033933300,18.830933349609374,2.2299270629882812,-2.040071964263916,-5.943182945251465
1700852597050923500,18.847923583984375,2.4248921871185303,-1.9725837707519531,-6.604395866394043
1700852597067912700,18.86491259765625,2.581359624862671,-1.5623650550842285,-6.841856956481934
1700852597084903200,18.881903076171874,2.6627700328826904,-1.2744052410125732,-6.640408515930176
1700852597101892900,18.898892822265626,2.9674572944641113,-1.3303849697113037,-6.012627601623535
1700852597118884000,18.915884033203124,3.3890762329101562,-1.7620561122894287,-5.514573097229004
1700852597135872000,18.9328720703125,3.7565126419067383,-2.3253824710845947,-5.464629173278809
1700852597152852700,18.949852783203124,3.761070728302002,-3.1513471603393555,-5.669557571411133
1700852597169852200,18.96685205078125,3.818237781524658,-3.690001964569092,-6.084819793701172
1700852597186842600,18.983842529296876,3.4572298526763916,-3.9276652336120605,-6.051839351654053
1700852597203831800,19.000831787109377,3.8692307472229004,-4.094057083129883,-5.06383752822876
1700852597220821800,19.01782177734375,4.432835578918457,-4.143004417419434,-4.444847106933594
1700852597237811200,19.034811279296875,4.823543071746826,-4.841684341430664,-3.3350815773010254
1700852597254800000,19.0517998046875,4.121435165405273,-5.867689609527588,-2.9886608123779297
1700852597271793000,19.06879296875,3.2639570236206055,-6.326043128967285,-3.7336182594299316
1700852597288779300,19.085779296875,3.157409191131592,-7.088339805603027,-3.5323915481567383
1700852597305773000,19.10277294921875,3.5919673442840576,-7.934031009674072,-1.9009885787963867
1700852597322761200,19.11976123046875,4.174721717834473,-7.696317672729492,0.3534097671508789
1700852597339762400,19.136762451171876,3.3261098861694336,-6.894662857055664,1.3440837860107422
1700852597356740900,19.153740966796875,1.7069318294525146,-5.923967361450195,1.7093353271484375
1700852597373730600,19.17073046875,0.02500540018081665,-5.235621452331543,2.0940628051757812
1700852597390720500,19.187720458984376,-0.7723932266235352,-4.676488876342773,2.616868019104004
1700852597407710500,19.20471044921875,-0.5515785813331604,-4.176086902618408,3.000150680541992
1700852597424700400,19.221700439453127,0.036072611808776855,-3.541077136993408,3.0548653602600098
1700852597441689600,19.238689697265624,0.6340720057487488,-2.5781893730163574,2.5253100395202637
1700852597458689000,19.25568896484375,1.1315823793411255,-1.1364269256591797,2.074418544769287
1700852597475666700,19.272666748046873,1.178873062133789,0.523381233215332,1.957982063293457
1700852597492662000,19.289662109375,0.715664267539978,1.9043750762939453,1.8841276168823242
1700852597518134800,19.315134765625,-0.1416834592819214,3.249662399291992,1.998208999633789
1700852597535136300,19.33213623046875,-0.7917611598968506,3.538839340209961,1.9513344764709473
1700852597552117000,19.349116943359373,-1.0481995344161987,3.447718620300293,1.827928066253662
1700852597569110800,19.36611083984375,-0.5603442788124084,3.15556001663208,2.064176082611084
1700852597586093800,19.38309375,0.2259119749069214,2.74442720413208,3.0282626152038574
1700852597603083000,19.4000830078125,0.7684630155563354,2.7757396697998047,4.521589756011963
1700852597620072200,19.417072265625,0.040682435035705566,3.094653606414795,5.7395405769348145
1700852597637067500,19.434067626953127,-1.4400198459625244,3.6917099952697754,6.193361282348633
1700852597654062300,19.451062255859377,-2.8283982276916504,3.998569965362549,6.505949020385742
1700852597671048200,19.468048095703125,-2.8572041988372803,4.071287631988525,7.0063276290893555
1700852597688042500,19.48504248046875,-1.6182341575622559,4.034465789794922,8.354432106018066
1700852597705028900,19.50202880859375,-0.5712535977363586,4.11618185043335,9.523425102233887
1700852597722021000,19.519021240234373,-0.06776773929595947,4.161920070648193,10.4793119430542
1700852597739006000,19.536005859375,-0.22790414094924927,4.228803634643555,10.57275104522705
1700852597755999700,19.552999755859375,-0.2369002103805542,4.606308937072754,10.207776069641113
1700852597772991200,19.5699912109375,0.16049599647521973,5.294857501983643,9.734294891357422
1700852597789981700,19.586981689453125,0.47548508644104004,5.36538028717041,9.659660339355469
1700852597806968800,19.60396875,0.6033733487129211,4.176146030426025,10.15110969543457
1700852597823964000,19.6209638671875,0.29923874139785767,2.6638307571411133,10.284998893737793
1700852597840940300,19.637940185546874,-0.0950397253036499,1.489799976348877,10.107109069824219
1700852597857941000,19.65494091796875,0.19152003526687622,0.7297172546386719,10.461395263671875
1700852597874930700,19.6719306640625,1.153498888015747,0.5828208923339844,10.24323844909668
1700852597891921200,19.688921142578124,2.1562211513519287,0.18887996673583984,9.859062194824219
1700852597908910600,19.70591064453125,2.701720952987671,-0.3633270263671875,9.132030487060547
1700852597925900500,19.722900634765626,3.087618112564087,-1.2058258056640625,8.717632293701172
1700852597942890200,19.73989013671875,3.003687620162964,-2.075249671936035,8.513015747070312
1700852597959869700,19.75686962890625,2.583850860595703,-2.5759172439575195,7.803025722503662
1700852597976870000,19.773869873046873,2.2730698585510254,-2.717090129852295,6.3715715408325195
1700852597993859800,19.79085986328125,2.493422031402588,-2.8209071159362793,4.901100158691406
1700852598010849500,19.807849609375,2.8039209842681885,-2.7568368911743164,3.4001893997192383
1700852598027826400,19.824826416015625,2.7648184299468994,-2.6291584968566895,1.87031888961792
1700852598044829000,19.841828857421874,2.2539725303649902,-2.371657371520996,0.3701181411743164
1700852598061819100,19.858819091796875,1.6347359418869019,-2.081371784210205,-1.0526328086853027
1700852598078808800,19.875808837890624,1.1671282052993774,-1.9401659965515137,-2.253319263458252
1700852598095788300,19.892788330078126,1.0906354188919067,-1.9015226364135742,-3.325043201446533
1700852598112788500,19.90978857421875,1.350314974784851,-2.083028793334961,-4.08404541015625
1700852598129778400,19.9267783203125,1.75828218460083,-2.3106460571289062,-4.628754138946533
1700852598146779100,19.943779052734374,1.8660995960235596,-2.50524640083313,-5.265371799468994
1700852598163758300,19.96075830078125,1.937424898147583,-2.4944097995758057,-6.276721000671387
1700852598180747800,19.977747802734374,2.038334846496582,-2.4876186847686768,-6.895205497741699
1700852598197734000,19.99473388671875,2.503571033477783,-2.632375478744507,-6.806469917297363
1700852598214728700,20.011728759765624,3.227743625640869,-2.942854166030884,-6.0700578689575195
1700852598231720200,20.02872021484375,3.6760413646698,-3.13073992729187,-5.365312576293945
1700852598248704500,20.04570458984375,3.611027717590332,-3.415116548538208,-4.9586710929870605
1700852598265697300,20.062697265625,3.415888547897339,-3.811117649078369,-4.7468180656433105
1700852598282684400,20.079684326171876,3.1855826377868652,-4.25495719909668,-4.586510181427002
1700852598299669200,20.096669189453124,3.19093656539917,-4.7805891036987305,-4.536706447601318
1700852598316666600,20.11366650390625,3.9743809700012207,-5.178050994873047,-4.5085320472717285
1700852598333656800,20.13065673828125,5.074233531951904,-5.414852142333984,-4.4031195640563965
1700852598350646300,20.147646240234376,5.438240051269531,-5.8853349685668945,-3.8939595222473145
1700852598367636500,20.164636474609374,4.379673480987549,-6.347255706787109,-3.8323168754577637
1700852598384625700,20.181625732421875,3.3254570960998535,-6.277426242828369,-4.427629470825195
1700852598401614800,20.19861474609375,2.9932732582092285,-6.4612579345703125,-4.152230262756348
1700852598418607000,20.215607177734373,3.005913019180298,-6.905529022216797,-2.8189611434936523
1700852598435593200,20.23259326171875,2.7430038452148438,-6.680367469787598,-1.2769737243652344
1700852598452587800,20.249587890625,1.0043036937713623,-6.313966751098633,-0.22121715545654297
1700852598469575200,20.2665751953125,-1.4074211120605469,-5.926741600036621,0.17890071868896484
1700852598486565400,20.2835654296875,-2.664642095565796,-5.674064636230469,0.4599456787109375
1700852598503555300,20.300555419921874,-1.6158831119537354,-5.61361837387085,1.238999366760254
1700852598520544500,20.31754443359375,0.453618586063385,-5.629567623138428,2.232699394226074
1700852598537534700,20.33453466796875,2.509040117263794,-5.21942663192749,3.080185890197754
1700852598554524400,20.3515244140625,4.032589435577393,-3.7970175743103027,3.001819610595703
1700852598571514400,20.368514404296874,3.735360622406006,-1.995206356048584,2.5031356811523438
1700852598588501500,20.38550146484375,2.662789821624756,-0.0705404281616211,2.100243091583252
1700852598605496600,20.40249658203125,1.4710543155670166,1.640730857849121,1.9170012474060059
1700852598622483500,20.4194833984375,0.44088923931121826,2.6488523483276367,1.9832987785339355
1700852598639470600,20.436470703125,0.22482514381408691,3.0828657150268555,2.5812954902648926
1700852598656467000,20.453467041015625,0.40615105628967285,3.1934823989868164,3.205413818359375
1700852598673453300,20.470453369140625,0.3694208860397339,3.0495853424072266,3.6616663932800293
1700852598690440400,20.4874404296875,0.5032421350479126,2.7185206413269043,4.159658908843994
1700852598707436000,20.50443603515625,0.6739727854728699,2.4449429512023926,4.889516353607178
1700852598724420600,20.521420654296875,0.624226987361908,2.5913314819335938,5.774182319641113
1700852598741414700,20.53841455078125,0.32891982793807983,2.7931571006774902,6.936853408813477
1700852598758402600,20.555402587890626,-0.2575807571411133,3.0860719680786133,8.000798225402832
1700852598775389000,20.572388916015626,-0.7075886726379395,3.395371437072754,8.94205093383789
1700852598792385500,20.589385498046877,-0.8608092069625854,3.87099027633667,10.015740394592285
1700852598809361700,20.606361572265627,-0.5674563646316528,4.49581241607666,10.739056587219238
1700852598826361900,20.62336181640625,0.01739567518234253,5.005774021148682,11.540873527526855
1700852598843352000,20.64035205078125,0.8210121989250183,5.101069927215576,12.24731159210205
1700852598860341200,20.65734130859375,1.0101017951965332,4.831600666046143,12.649490356445312
1700852598877331200,20.674331298828125,0.3892873525619507,4.892498970031738,12.18985366821289
1700852598894321200,20.691321044921875,-0.4416135549545288,4.412142753601074,11.266759872436523
1700852598911311000,20.70831103515625,0.22959697246551514,2.6224260330200195,10.878591537475586
1700852598928300800,20.72530078125,2.1589903831481934,1.110870361328125,11.486917495727539
1700852598945290500,20.74229052734375,1.860583782196045,1.0606412887573242,12.13875675201416
1700852598962280400,20.759280517578127,0.08351266384124756,1.6029839515686035,12.774633407592773
1700852598979271700,20.776271728515624,-1.7281832695007324,1.2225475311279297,13.543742179870605
1700852598996260000,20.793260009765625,-2.4451119899749756,-0.14460277557373047,14.269929885864258
1700852599013249800,20.810249755859374,-2.204401969909668,-2.0346717834472656,13.805919647216797
1700852599030240000,20.827239990234375,-0.9952273368835449,-4.374695777893066,12.482236862182617
1700852599047219200,20.84421923828125,0.9599872827529907,-6.713954925537109,10.233281135559082
1700852599064222000,20.861221923828126,3.469221591949463,-8.206836700439453,7.634432792663574
1700852599081206800,20.878206787109374,5.633454322814941,-7.793657302856445,5.022334575653076
1700852599098196500,20.895196533203126,6.454706192016602,-6.09342622756958,2.5852813720703125
1700852599115191800,20.91219189453125,5.804871082305908,-4.439362049102783,0.42664670944213867
1700852599132178700,20.9291787109375,4.825654983520508,-3.5173702239990234,-1.6740341186523438
1700852599149168600,20.946168701171874,4.053308486938477,-3.308347702026367,-2.7436628341674805
1700852599166158300,20.963158447265624,3.5581836700439453,-3.179543972015381,-3.6182851791381836
1700852599183148500,20.9801484375,3.2179677486419678,-3.0702757835388184,-4.3083271980285645
1700852599200138000,20.997137939453125,2.642625331878662,-3.0374908447265625,-4.9316534996032715
1700852599217115600,21.01411572265625,2.078237533569336,-2.944984197616577,-5.33829927444458
1700852599234113300,21.03111328125,1.8599739074707031,-2.832221269607544,-5.900744438171387
1700852599251100400,21.048100341796875,1.7708927392959595,-2.7910349369049072,-6.562747001647949
1700852599268086800,21.065086669921875,1.8177241086959839,-2.9288198947906494,-7.078835487365723
1700852599285082600,21.08208251953125,2.097993850708008,-2.9640183448791504,-7.201691150665283
1700852599302060300,21.099060302734376,2.367436170578003,-2.973498582839966,-7.166683673858643
1700852599319056400,21.116056396484375,2.6948981285095215,-3.1350927352905273,-6.867463111877441
1700852599336049400,21.13304931640625,3.1835107803344727,-3.355095148086548,-6.374188423156738
1700852599353044000,21.1500439453125,3.6975815296173096,-3.8833041191101074,-5.884684085845947
1700852599370035500,21.167035400390624,4.179135322570801,-4.555588722229004,-5.444058895111084
1700852599387022800,21.18402294921875,4.462741374969482,-5.07386589050293,-5.075239658355713
1700852599404006400,21.20100634765625,4.733754634857178,-5.281402587890625,-4.805455684661865
1700852599421001500,21.21800146484375,5.0585222244262695,-5.397704601287842,-4.536067485809326
1700852599437996000,21.23499609375,5.249330043792725,-5.975715160369873,-3.657503604888916
1700852599454975200,21.251975341796875,5.049829959869385,-6.2589216232299805,-2.7832579612731934
1700852599471975200,21.26897509765625,4.649888038635254,-5.8541693687438965,-2.8627538681030273
1700852599488965400,21.28596533203125,3.840372323989868,-5.737550735473633,-2.8496556282043457
1700852599505955000,21.302955078125,3.014286994934082,-5.790865898132324,-2.4507436752319336
1700852599522941000,21.31994091796875,2.315864086151123,-5.8824920654296875,-1.6888008117675781
1700852599539924000,21.336924072265624,1.7753040790557861,-5.839470386505127,-0.3910055160522461
1700852599556940000,21.35393994140625,0.4979536831378937,-5.757645606994629,0.7850198745727539
1700852599573912300,21.370912353515624,-1.2589507102966309,-5.4623517990112305,1.217306137084961
1700852599590904600,21.387904541015626,-2.2500455379486084,-5.1683030128479,1.3953514099121094
1700852599607893800,21.404893798828127,-1.6474190950393677,-4.995052337646484,1.8351402282714844
1700852599624884000,21.421884033203124,-0.08072283864021301,-4.857333183288574,2.3007755279541016
1700852599641873700,21.438873779296873,1.469784140586853,-4.159728050231934,2.5770177841186523
1700852599658859500,21.455859619140625,2.2330362796783447,-2.742469310760498,2.6292219161987305
1700852599675853000,21.47285302734375,1.5552364587783813,-0.8928132057189941,2.1909918785095215
1700852599692843000,21.489843017578124,0.3610743284225464,0.6718940734863281,1.9245381355285645
1700852599709833000,21.5068330078125,-0.5313155651092529,1.925809383392334,1.7864980697631836
1700852599726823200,21.5238232421875,-0.6196850538253784,2.628481388092041,1.7264113426208496
1700852599743812400,21.540812255859375,0.0796436071395874,2.8451414108276367,2.1223225593566895
1700852599760802600,21.557802490234376,0.830361545085907,2.871126651763916,2.7719550132751465
1700852599777792300,21.574792236328125,0.9469515681266785,2.7201905250549316,3.16776704788208
1700852599794780000,21.59177978515625,0.594409167766571,2.529974937438965,3.6676487922668457
1700852599811763700,21.608763671875,0.16454261541366577,2.540343761444092,4.663669109344482
1700852599828761900,21.625761962890625,-0.09124737977981567,2.8925843238830566,6.1577534675598145
1700852599845751600,21.64275146484375,-0.5396255850791931,3.2661542892456055,7.604120254516602
1700852599862741800,21.65974169921875,-0.9463189244270325,3.3112621307373047,9.039000511169434
1700852599879717600,21.676717529296877,-0.9003534913063049,3.163576126098633,10.860445976257324
1700852599896721400,21.693721435546873,-1.0209033489227295,3.348945140838623,12.082813262939453
1700852599913710800,21.7107109375,-1.0323971509933472,4.053948402404785,12.472688674926758
1700852599930701000,21.727701171875,-0.48818814754486084,4.945464611053467,12.768714904785156
1700852599947690500,21.7446904296875,-0.04728811979293823,5.60468864440918,12.94577693939209
