time,seconds_elapsed,z,y,x
1701097227176365800,0.11636572265625,-0.7133636474609375,-0.5772509574890137,0.16988730430603027
1701097227193353200,0.133353271484375,-0.6567625999450684,-0.6667032241821289,0.39308202266693115
1701097227210345500,0.150345458984375,-0.3807210922241211,-0.6837997436523438,0.21471214294433594
1701097227227342800,0.1673427734375,-0.36634254455566406,-0.8197698593139648,0.0534517765045166
1701097227244326100,0.184326171875,-0.521697998046875,-0.9459166526794434,0.21403610706329346
1701097227261311700,0.201311767578125,-0.5240721702575684,-1.3440818786621094,-0.14345407485961914
1701097227278293800,0.218293701171875,-1.793858528137207,-1.7626047134399414,-0.17513799667358398
1701097227295295500,0.23529541015625,-4.030507564544678,-2.0889852046966553,0.6680219173431396
1701097227312281300,0.25228125,-4.349828720092773,-2.8059089183807373,1.0054607391357422
1701097227329273600,0.269273681640625,-2.7714600563049316,-3.568056583404541,0.293820858001709
1701097227346264800,0.286264892578125,-1.0954351425170898,-4.669922828674316,-0.6853067874908447
1701097227363241200,0.3032412109375,-0.6733865737915039,-5.860091209411621,-1.4546012878417969
1701097227380246000,0.32024609375,-1.8513238430023193,-7.030332088470459,-2.0876290798187256
1701097227397234200,0.337234130859375,-2.837937831878662,-7.708178520202637,-2.8918917179107666
1701097227414222800,0.354222900390625,-2.528719425201416,-8.182974815368652,-3.6718029975891113
1701097227431210200,0.371210205078125,-1.6313220262527466,-8.935730934143066,-3.9792163372039795
1701097227448200400,0.388200439453125,-1.165939211845398,-9.377569198608398,-3.5901072025299072
1701097227465191700,0.405191650390625,-2.1220247745513916,-9.37187671661377,-1.8611102104187012
1701097227482180000,0.42218017578125,-3.436523199081421,-8.288280487060547,0.2108631134033203
1701097227499172900,0.4391728515625,-4.33413553237915,-7.250758171081543,2.2331676483154297
1701097227516166100,0.456166259765625,-3.80983567237854,-6.6406450271606445,3.2098302841186523
1701097227533149400,0.4731494140625,-1.790398120880127,-6.428550720214844,4.129152297973633
1701097227550141700,0.4901416015625,0.35882458090782166,-5.9411163330078125,4.495654106140137
1701097227567132200,0.507132080078125,1.5366237163543701,-5.428053855895996,4.301746368408203
1701097227584119300,0.524119384765625,1.9674066305160522,-5.168529033660889,4.394182205200195
1701097227601112000,0.541112060546875,2.4502673149108887,-4.805809020996094,5.61495304107666
1701097227618101000,0.55810107421875,2.5999608039855957,-4.169260025024414,6.459918975830078
1701097227635095800,0.575095703125,1.9756577014923096,-3.3241987228393555,6.514013290405273
1701097227652077800,0.592077880859375,1.5915157794952393,-2.533949613571167,6.687910079956055
1701097227669071000,0.609071044921875,1.6388300657272339,-1.6524760723114014,7.039833068847656
1701097227686062000,0.62606201171875,2.063615083694458,-1.0102667808532715,8.355164527893066
1701097227703048000,0.6430478515625,2.896533489227295,0.40357160568237305,10.179919242858887
1701097227720041000,0.660041015625,3.5546624660491943,1.833540439605713,10.738072395324707
1701097227737020200,0.677020263671875,3.3820252418518066,3.4860353469848633,10.065067291259766
1701097227754015200,0.69401513671875,2.6713452339172363,4.804961681365967,8.901424407958984
1701097227771009500,0.711009521484375,1.6330163478851318,5.622254371643066,7.972617149353027
1701097227788003300,0.72800341796875,0.699016273021698,5.942500591278076,7.547446250915527
1701097227805000700,0.745000732421875,0.4057931900024414,6.2555155754089355,7.485990047454834
1701097227821977000,0.76197705078125,0.19268371164798737,6.575766086578369,7.046253681182861
1701097227838969000,0.778968994140625,-0.29992204904556274,6.868288040161133,6.395880222320557
1701097227855959000,0.795958984375,-1.031317949295044,6.971024513244629,5.655594348907471
1701097227872948500,0.812948486328125,-1.812673568725586,6.853972434997559,5.255710601806641
1701097227889937700,0.829937744140625,-2.048896312713623,7.002076625823975,5.829136371612549
1701097227906929400,0.846929443359375,-2.2824203968048096,7.071616172790527,7.349711894989014
1701097227923917000,0.8639169921875,-2.9609177112579346,7.039991855621338,8.474125862121582
1701097227940908500,0.880908447265625,-2.928938865661621,6.6246209144592285,9.23246955871582
1701097227957887200,0.89788720703125,-2.4273123741149902,5.930252552032471,9.891952514648438
1701097227974884000,0.914884033203125,-1.7813682556152344,5.4497971534729,10.170756340026855
1701097227991875300,0.931875244140625,-1.4368140697479248,5.084361553192139,10.139994621276855
1701097228008867600,0.94886767578125,-1.6358401775360107,4.455424785614014,9.8257417678833
1701097228025858800,0.96585888671875,-1.711220145225525,3.5157952308654785,8.823568344116211
1701097228042845000,0.982844970703125,-1.1494336128234863,1.9596490859985352,7.728498935699463
1701097228059835600,0.999835693359375,-0.3716382384300232,0.2214984893798828,7.008054733276367
1701097228076840200,1.016840087890625,-0.0172346830368042,-1.3644723892211914,6.485574722290039
1701097228093812000,1.03381201171875,0.2552352547645569,-2.4821829795837402,6.072456359863281
1701097228110810400,1.050810302734375,1.1754963397979736,-3.07659649848938,5.612653732299805
1701097228127796700,1.067796630859375,1.5160998106002808,-3.5927419662475586,4.91884708404541
1701097228144788200,1.084788330078125,1.7251708507537842,-3.9386143684387207,3.99985408782959
1701097228161774000,1.101774169921875,2.0248172283172607,-4.136106014251709,2.9592056274414062
1701097228178766300,1.118766357421875,2.2531299591064453,-4.291020393371582,1.7498712539672852
1701097228195757300,1.13575732421875,2.388292074203491,-4.467964172363281,0.4820232391357422
1701097228212740900,1.152740966796875,2.378148078918457,-4.414141654968262,-0.7625808715820312
1701097228229738200,1.16973828125,2.8050742149353027,-4.4135332107543945,-1.4966306686401367
1701097228246720300,1.18672021484375,3.081853151321411,-4.625199317932129,-1.8889851570129395
1701097228263713300,1.20371337890625,3.5261030197143555,-4.888755798339844,-2.117097854614258
1701097228280706300,1.220706298828125,3.992691993713379,-5.141848564147949,-2.257399082183838
1701097228297695200,1.2376953125,4.090432167053223,-5.587926864624023,-2.5093994140625
1701097228314676200,1.25467626953125,4.439257621765137,-5.936352729797363,-2.8046035766601562
1701097228331672300,1.27167236328125,4.609922885894775,-6.050884246826172,-3.164745330810547
1701097228348664800,1.288664794921875,4.809436798095703,-6.212011814117432,-3.455606460571289
1701097228365664800,1.305664794921875,4.774091720581055,-6.237666130065918,-3.1019973754882812
1701097228382642200,1.32264208984375,3.9360649585723877,-6.81205415725708,-2.394461154937744
1701097228399636500,1.339636474609375,3.939147710800171,-7.595524787902832,-2.3884010314941406
1701097228416609000,1.356609130859375,4.671010971069336,-8.25788402557373,-2.816962718963623
1701097228433611800,1.37361181640625,5.268510818481445,-8.803396224975586,-2.827493190765381
1701097228450604500,1.3906044921875,5.743178844451904,-9.352282524108887,-2.347306251525879
1701097228467593700,1.40759375,5.9693098068237305,-9.817583084106445,-0.8440265655517578
1701097228484585500,1.42458544921875,5.869837760925293,-9.982072830200195,0.3106822967529297
1701097228501571300,1.4415712890625,4.960468292236328,-10.321025848388672,0.7057094573974609
1701097228518561500,1.4585615234375,4.0991740226745605,-10.077909469604492,0.22652912139892578
1701097228535555600,1.4755556640625,3.614072561264038,-9.376659393310547,-0.32004261016845703
1701097228552538600,1.49253857421875,3.6175460815429688,-8.378064155578613,-0.08950233459472656
1701097228569538300,1.509538330078125,3.016900062561035,-7.779024124145508,1.0427131652832031
1701097228586512100,1.52651220703125,2.0683140754699707,-7.220277786254883,1.6813421249389648
1701097228603504000,1.543504150390625,1.1581649780273438,-6.600459098815918,1.8879632949829102
1701097228620512000,1.560511962890625,0.2639610171318054,-5.943486213684082,1.5524606704711914
1701097228637488600,1.577488525390625,-0.2331078052520752,-5.040236473083496,0.8445949554443359
1701097228654483000,1.59448291015625,-0.5650395154953003,-4.134695053100586,0.5394458770751953
1701097228671467800,1.6114677734375,-0.3619261682033539,-2.7901268005371094,0.8281965255737305
1701097228688461300,1.62846142578125,-0.8315803408622742,-1.7420275211334229,1.784653663635254
1701097228705446400,1.6454462890625,-1.2017431259155273,-0.6013083457946777,2.988069534301758
1701097228722432800,1.662432861328125,-1.8279259204864502,0.7800087928771973,3.194183349609375
1701097228739424000,1.679424072265625,-2.8187313079833984,1.5494530200958252,2.677236557006836
1701097228756411100,1.6964111328125,-4.067365646362305,1.9749503135681152,2.1763858795166016
1701097228773402000,1.713402099609375,-4.672247409820557,2.300806999206543,2.544865608215332
1701097228790393000,1.73039306640625,-5.133894920349121,2.4769887924194336,4.111742973327637
1701097228807388700,1.747388671875,-4.122821807861328,3.214585065841675,5.243109226226807
1701097228824375600,1.76437548828125,-3.1414408683776855,3.812465190887451,5.882054328918457
1701097228841364500,1.781364501953125,-3.0232229232788086,4.531284809112549,6.3123087882995605
1701097228858365200,1.798365234375,-4.251428127288818,5.095841407775879,6.7748332023620605
1701097228875352600,1.8153525390625,-6.082536697387695,5.22187614440918,6.880765914916992
1701097228892335600,1.832335693359375,-5.9264678955078125,5.537238597869873,6.798188209533691
1701097228909332700,1.849332763671875,-4.142242431640625,5.606671333312988,7.07464075088501
1701097228926321400,1.8663212890625,-3.071549654006958,5.464114189147949,7.259868144989014
1701097228943304700,1.8833046875,-2.80318021774292,5.2545318603515625,7.669840335845947
1701097228960301600,1.900301513671875,-3.632978916168213,4.842150688171387,8.169511795043945
1701097228977290000,1.9172900390625,-4.725616455078125,4.451626777648926,8.489007949829102
1701097228994274800,1.93427490234375,-4.955643177032471,3.55753493309021,9.446983337402344
1701097229011269000,1.95126904296875,-4.10698938369751,2.703634738922119,10.567550659179688
1701097229028260600,1.968260498046875,-2.7841687202453613,1.7850704193115234,11.30412483215332
1701097229045247500,1.98524755859375,-1.5121592283248901,1.5419063568115234,11.078344345092773
1701097229062239000,2.002239013671875,-0.5640679001808167,1.5057148933410645,10.355823516845703
1701097229079219200,2.01921923828125,-0.019224107265472412,1.041482925415039,9.478137969970703
1701097229096220000,2.036219970703125,0.22164636850357056,-0.11753129959106445,8.9564208984375
1701097229113206500,2.05320654296875,0.9039118885993958,-1.6368598937988281,8.438122749328613
1701097229130199300,2.07019921875,1.847146987915039,-3.081108570098877,7.592843055725098
1701097229147186200,2.087186279296875,2.566145181655884,-3.972939968109131,6.144384384155273
1701097229164178700,2.1041787109375,2.9814391136169434,-4.378450393676758,4.544893264770508
1701097229181172500,2.12117236328125,2.924326181411743,-4.471165657043457,2.9980010986328125
1701097229198164700,2.138164794921875,2.735999345779419,-4.36061429977417,1.6912717819213867
1701097229215149800,2.15514990234375,2.586766481399536,-4.037725448608398,0.6019525527954102
1701097229232135400,2.172135498046875,2.6904075145721436,-3.884174346923828,-0.2070331573486328
1701097229249128000,2.1891279296875,2.938751220703125,-4.0358123779296875,-0.8311662673950195
1701097229266119700,2.20611962890625,3.3601553440093994,-4.286601543426514,-1.433438777923584
1701097229283105000,2.22310498046875,3.761033058166504,-4.650826930999756,-1.852820873260498
1701097229300098300,2.240098388671875,4.181728839874268,-5.012166500091553,-2.145434856414795
1701097229317087500,2.25708740234375,4.495704650878906,-5.434966564178467,-2.035667896270752
1701097229334077400,2.274077392578125,4.689752578735352,-5.747779846191406,-1.9013190269470215
1701097229351065900,2.29106591796875,4.9401397705078125,-6.026955604553223,-1.7751312255859375
1701097229368056800,2.308056884765625,5.1214823722839355,-6.454100131988525,-1.8430566787719727
1701097229385041000,2.325041015625,5.476987361907959,-6.83353328704834,-2.2794551849365234
1701097229402031900,2.342031982421875,5.832843780517578,-7.172238826751709,-2.8277459144592285
1701097229419029000,2.359029052734375,6.017810344696045,-7.862663269042969,-2.936826229095459
1701097229436001800,2.376001708984375,6.344574451446533,-8.513931274414062,-2.727447032928467
1701097229453004000,2.393004150390625,6.599782943725586,-9.286970138549805,-2.5017805099487305
1701097229470002000,2.410001953125,6.987689018249512,-10.282169342041016,-2.2398324012756348
1701097229486982000,2.42698193359375,7.837484359741211,-10.465803146362305,-2.1248388290405273
1701097229503973600,2.4439736328125,7.717393398284912,-10.378460884094238,-1.7340712547302246
1701097229520967200,2.46096728515625,6.261108875274658,-10.123926162719727,-0.7699580192565918
1701097229537955800,2.477955810546875,4.680605888366699,-10.672073364257812,0.26192283630371094
1701097229554928000,2.49492822265625,3.224597692489624,-10.614164352416992,0.19572734832763672
1701097229571932200,2.51193212890625,2.408867597579956,-10.138368606567383,-0.5050182342529297
1701097229588927000,2.528927001953125,2.0079550743103027,-9.238765716552734,-1.1377124786376953
1701097229605917000,2.5459169921875,1.847541093826294,-8.525806427001953,-0.9506254196166992
1701097229622894600,2.56289453125,1.7822221517562866,-8.335952758789062,0.2852201461791992
1701097229639895000,2.57989501953125,1.7008187770843506,-8.290718078613281,2.394606590270996
1701097229656883000,2.596883056640625,1.236186146736145,-7.9077653884887695,3.9890451431274414
1701097229673870800,2.613870849609375,0.704474925994873,-7.077348232269287,4.1184282302856445
1701097229690866700,2.63086669921875,0.17560946941375732,-5.840954780578613,3.5205841064453125
1701097229707844600,2.6478447265625,-0.02846205234527588,-4.515432357788086,3.2052173614501953
1701097229724835600,2.664835693359375,-0.14479589462280273,-3.319760322570801,4.056316375732422
1701097229741832000,2.68183203125,-0.8005988001823425,-2.132080078125,5.702638626098633
1701097229758824200,2.69882421875,-1.7200407981872559,-0.828150749206543,7.375141143798828
1701097229775815700,2.715815673828125,-2.59987735748291,0.8958301544189453,7.779867649078369
1701097229792803800,2.732803955078125,-3.9133658409118652,1.953444480895996,7.75250244140625
1701097229809791500,2.74979150390625,-4.598973751068115,3.1681103706359863,7.94282341003418
1701097229826785000,2.766784912109375,-5.328020095825195,4.057504653930664,7.942139148712158
1701097229843771100,2.783771240234375,-5.686832427978516,4.427001953125,8.920499801635742
1701097229860764400,2.800764404296875,-5.088104248046875,5.457425117492676,8.912485122680664
1701097229877753300,2.81775341796875,-4.534319877624512,6.096385955810547,8.20164680480957
1701097229894744600,2.83474462890625,-4.38065242767334,6.522350788116455,7.07632303237915
1701097229911730400,2.85173046875,-4.108354091644287,6.815935134887695,6.359239101409912
1701097229928723000,2.868722900390625,-3.376267910003662,6.866329669952393,6.4663519859313965
1701097229945715200,2.885715087890625,-2.5407729148864746,6.890865802764893,7.065162181854248
1701097229962697500,2.902697509765625,-1.6901884078979492,6.965686798095703,7.267574310302734
1701097229979684900,2.919684814453125,-1.4386883974075317,6.604748249053955,7.433429718017578
1701097229996673500,2.936673583984375,-1.3526005744934082,5.739682197570801,7.980691909790039
1701097230013670000,2.953669921875,-1.4343907833099365,4.622015953063965,8.762934684753418
1701097230030663000,2.970662841796875,-1.0462241172790527,3.7988438606262207,9.35576057434082
1701097230047652000,2.987652099609375,-0.6207817792892456,2.6910128593444824,10.545336723327637
1701097230064643600,3.0046435546875,-0.2075086236000061,1.6838340759277344,11.520612716674805
1701097230081629400,3.02162939453125,0.29349201917648315,0.7706995010375977,12.269715309143066
1701097230098622500,3.03862255859375,0.7677658200263977,0.3039436340332031,12.44825267791748
1701097230115613400,3.055613525390625,0.9194836616516113,-0.1889667510986328,12.402925491333008
1701097230132595700,3.072595703125,0.8620592355728149,-0.9767675399780273,11.737762451171875
1701097230149594400,3.089594482421875,1.0347869396209717,-2.387056827545166,10.81646728515625
1701097230166582800,3.106582763671875,1.5929580926895142,-4.336757659912109,9.891632080078125
1701097230183559000,3.123558837890625,2.276066780090332,-5.830507278442383,8.586769104003906
1701097230200564500,3.140564453125,2.751831531524658,-6.7649664878845215,6.77092170715332
1701097230217551600,3.157551513671875,3.189358949661255,-6.812817096710205,4.448337554931641
1701097230234542000,3.1745419921875,3.270629405975342,-6.796866416931152,2.3007068634033203
1701097230251521000,3.19152099609375,3.767026424407959,-6.088677406311035,0.1891632080078125
1701097230268511200,3.20851123046875,3.8049750328063965,-5.759144306182861,-0.8745355606079102
1701097230285511700,3.22551171875,3.8050763607025146,-5.504753589630127,-1.9222941398620605
1701097230302501400,3.24250146484375,3.7375996112823486,-5.552643775939941,-2.900357246398926
1701097230319479000,3.25947900390625,3.933652400970459,-5.777255058288574,-3.479560375213623
1701097230336470500,3.276470458984375,4.162372589111328,-6.140617370605469,-3.9463415145874023
1701097230353472800,3.29347265625,4.467455863952637,-6.470857620239258,-4.079566478729248
1701097230370461000,3.3104609375,4.979015350341797,-6.703570365905762,-4.026905536651611
1701097230387450600,3.32745068359375,5.331686973571777,-6.951485633850098,-3.7092576026916504
1701097230404452000,3.3444521484375,5.4211225509643555,-7.1189374923706055,-3.502838611602783
1701097230421428700,3.3614287109375,5.271312713623047,-7.181598663330078,-3.59822416305542
1701097230438420500,3.37842041015625,5.309784889221191,-7.281637191772461,-3.93684720993042
1701097230455410400,3.395410400390625,5.29930305480957,-7.44749641418457,-4.295419692993164
1701097230472398800,3.41239892578125,5.543427467346191,-7.781189918518066,-4.429817199707031
1701097230489391600,3.4293916015625,6.026068687438965,-8.123977661132812,-4.138944625854492
1701097230506379800,3.4463798828125,6.566322326660156,-8.452129364013672,-3.4624624252319336
1701097230523359500,3.463359375,6.665096282958984,-8.969572067260742,-2.683741569519043
1701097230540359400,3.480359375,6.555599689483643,-9.479072570800781,-1.6904726028442383
1701097230557349600,3.497349609375,5.912073612213135,-9.466585159301758,-1.1315455436706543
1701097230574339600,3.514339599609375,5.1943254470825195,-9.67203426361084,-0.7986268997192383
1701097230591327700,3.53132763671875,4.069582462310791,-9.957275390625,0.22476863861083984
1701097230608320800,3.54832080078125,2.5772507190704346,-9.792980194091797,0.8244209289550781
1701097230625296100,3.565296142578125,1.7271862030029297,-8.981897354125977,0.734217643737793
1701097230642291500,3.58229150390625,1.5310447216033936,-8.192892074584961,1.0692014694213867
1701097230659278800,3.59927880859375,1.6109776496887207,-7.637906074523926,2.1877336502075195
1701097230676269300,3.616269287109375,1.7111270427703857,-7.474308013916016,4.06859016418457
1701097230693259000,3.633259033203125,1.536915898323059,-7.141887664794922,5.7260589599609375
1701097230710250500,3.65025048828125,1.296964168548584,-6.130297660827637,5.998276710510254
1701097230727240700,3.66724072265625,0.8531078696250916,-4.710431098937988,4.884354591369629
1701097230744230000,3.68422998046875,0.42454010248184204,-3.2027807235717773,4.106639862060547
1701097230761221600,3.7012216796875,-0.04266166687011719,-1.5091729164123535,3.8972129821777344
1701097230778209000,3.718208984375,-0.36633265018463135,0.29533863067626953,3.5735015869140625
1701097230795208000,3.7352080078125,-0.8501067161560059,1.5383338928222656,3.4919958114624023
1701097230812204300,3.752204345703125,-1.3507157564163208,2.199828624725342,3.533970832824707
1701097230829187800,3.769187744140625,-1.9333956241607666,2.5920708179473877,3.2590036392211914
1701097230846177000,3.786177001953125,-2.4194650650024414,2.697277307510376,3.124823570251465
1701097230863168300,3.803168212890625,-2.7742056846618652,2.9441921710968018,3.169447898864746
1701097230880147000,3.82014697265625,-2.740691900253296,3.2885005474090576,3.6817097663879395
1701097230897147400,3.8371474609375,-2.5681610107421875,4.048017978668213,4.536506175994873
1701097230914137000,3.85413720703125,-2.972426414489746,4.907753944396973,5.1524152755737305
1701097230931135700,3.8711357421875,-3.793458938598633,5.77833890914917,5.562504291534424
1701097230948117200,3.8881171875,-4.7334818840026855,6.225196361541748,6.277868270874023
1701097230965106700,3.905106689453125,-5.1462626457214355,6.455283164978027,7.0183844566345215
1701097230982097000,3.922096923828125,-4.902585029602051,6.471135139465332,8.089984893798828
1701097230999085600,3.93908544921875,-4.3587775230407715,6.45602560043335,9.005157470703125
1701097231016077800,3.956077880859375,-3.907102108001709,6.330740928649902,9.765029907226562
1701097231033066500,3.97306640625,-3.8072805404663086,6.032145977020264,9.825937271118164
1701097231050057000,3.990056884765625,-3.836566925048828,5.105385780334473,9.613306045532227
1701097231067035600,4.00703564453125,-3.140329360961914,3.9300060272216797,9.209709167480469
1701097231084036400,4.024036376953125,-1.9254369735717773,2.425935745239258,9.620646476745605
1701097231101026000,4.041026123046875,-0.38827377557754517,1.070244312286377,10.643852233886719
1701097231118009300,4.05800927734375,1.142578125,0.5322885513305664,11.486064910888672
1701097231135008300,4.07500830078125,1.7577922344207764,0.986936092376709,11.432147979736328
1701097231151995600,4.09199560546875,1.3297970294952393,1.1460785865783691,10.68596076965332
1701097231168985600,4.108985595703125,0.4682832956314087,0.3857893943786621,9.605012893676758
1701097231185975300,4.125975341796875,0.05302315950393677,-1.456296443939209,8.873773574829102
1701097231202965500,4.142965576171875,0.47145384550094604,-3.4847779273986816,8.080767631530762
1701097231219955500,4.15995556640625,1.1471998691558838,-5.067137241363525,6.753119468688965
1701097231236934700,4.1769345703125,1.5894513130187988,-5.543849945068359,4.863242149353027
1701097231253932500,4.1939326171875,2.149019479751587,-4.971724510192871,2.502316474914551
1701097231270927600,4.210927734375,2.288635730743408,-4.2769036293029785,0.5850124359130859
1701097231287914800,4.227914794921875,2.315011501312256,-3.795348644256592,-0.6130561828613281
1701097231304904700,4.24490478515625,2.355424642562866,-3.5818428993225098,-1.496994972229004
1701097231321895000,4.26189501953125,2.428600788116455,-3.6374597549438477,-2.1299514770507812
1701097231338887400,4.278887451171875,2.465256452560425,-3.890591859817505,-2.63741397857666
1701097231355871700,4.295871826171875,3.038922071456909,-4.052464485168457,-3.1059622764587402
1701097231372864500,4.312864501953125,3.5217199325561523,-4.29317045211792,-3.385509967803955
1701097231389857300,4.329857177734375,3.981398582458496,-4.487945556640625,-3.5792460441589355
1701097231406840800,4.3468408203125,4.42111873626709,-4.760369777679443,-3.683666706085205
1701097231423834000,4.363834228515625,4.894769191741943,-5.063093185424805,-3.768847942352295
1701097231440813300,4.380813232421875,5.023396968841553,-5.5970025062561035,-3.6783294677734375
1701097231457824300,4.39782421875,5.052276611328125,-5.997014045715332,-3.5790114402770996
1701097231474803700,4.4148037109375,5.363868236541748,-6.11920690536499,-3.7641239166259766
1701097231491793700,4.431793701171875,5.603891849517822,-6.324931621551514,-4.153705596923828
1701097231508783600,4.44878369140625,5.796060562133789,-6.641016960144043,-4.3698883056640625
1701097231525773600,4.465773681640625,5.902260780334473,-6.982282638549805,-4.357027053833008
1701097231542763300,4.48276318359375,5.914794921875,-7.456182956695557,-4.145560264587402
1701097231559753200,4.499753173828125,5.486063003540039,-8.315425872802734,-3.741154193878174
1701097231576753400,4.51675341796875,5.086763858795166,-9.566206932067871,-2.3150525093078613
1701097231593722600,4.53372265625,4.663074016571045,-10.028514862060547,-1.1388425827026367
1701097231610723000,4.55072314453125,3.6861650943756104,-9.779157638549805,-0.5369529724121094
1701097231627713000,4.567713134765625,2.078977584838867,-9.728790283203125,-0.29846763610839844
1701097231644702700,4.58470263671875,0.6298284530639648,-9.542701721191406,-0.5521106719970703
1701097231661690400,4.6016904296875,0.3345377445220947,-9.42410945892334,-0.8241672515869141
1701097231678682600,4.6186826171875,1.1581025123596191,-9.407605171203613,-0.5231714248657227
1701097231695672300,4.63567236328125,2.7299981117248535,-9.001618385314941,0.7366981506347656
1701097231712659700,4.65265966796875,3.557828426361084,-8.641682624816895,2.561570167541504
1701097231729655000,4.669655029296875,3.314009189605713,-8.112911224365234,3.457601547241211
1701097231746642200,4.68664208984375,2.6384811401367188,-7.756556987762451,3.543698310852051
1701097231763632400,4.70363232421875,1.7776410579681396,-7.021566390991211,3.474437713623047
1701097231780622000,4.7206220703125,1.2398176193237305,-5.694796085357666,3.388082504272461
1701097231797617400,4.737617431640625,0.8885784149169922,-4.05924654006958,3.740489959716797
1701097231814601700,4.754601806640625,0.15837983787059784,-2.227261543273926,4.497064590454102
1701097231831591400,4.77159130859375,-0.9618146419525146,-0.4888467788696289,5.493474960327148
1701097231848571000,4.78857080078125,-2.2034080028533936,1.0445852279663086,6.508871555328369
1701097231865571800,4.80557177734375,-3.5293400287628174,2.377352237701416,6.746301174163818
1701097231882561300,4.822561279296875,-4.93959903717041,3.3418610095977783,6.467681884765625
1701097231899548200,4.839548095703125,-5.6937384605407715,3.936809539794922,6.535945415496826
1701097231916541200,4.856541259765625,-5.266042709350586,4.312025547027588,6.958240985870361
1701097231933531100,4.87353125,-3.9867873191833496,4.93595027923584,8.280250549316406
1701097231950520800,4.890520751953125,-3.0858817100524902,5.304107666015625,6.210886478424072
1701097231967510800,4.9075107421875,-2.127986431121826,6.034390449523926,7.5029520988464355
1701097231984501000,4.9245009765625,-2.3961246013641357,5.969010353088379,6.664982795715332
1701097232001490700,4.94149072265625,-1.997114896774292,6.288247108459473,6.272968769073486
1701097232018480600,4.958480712890625,-1.20027494430542,6.326448440551758,6.972853660583496
1701097232035470600,4.975470703125,-0.2273312658071518,6.374405860900879,7.8134613037109375
1701097232052461000,4.9924609375,0.8985860347747803,6.3651533126831055,8.117616653442383
1701097232069450000,5.009449951171875,1.4480520486831665,6.354958534240723,8.262255668640137
1701097232086427600,5.026427734375,1.351462483406067,5.78652286529541,8.803674697875977
1701097232103419400,5.04341943359375,0.6379804015159607,4.995949745178223,9.23141098022461
1701097232120422400,5.06042236328125,0.23801952600479126,4.331538200378418,9.231201171875
1701097232137409000,5.077408935546875,0.36471861600875854,3.4288949966430664,9.52113151550293
1701097232154391000,5.09439111328125,0.984067440032959,2.4144434928894043,10.235445022583008
1701097232171381000,5.111381103515625,1.5444749593734741,1.574333667755127,11.136051177978516
1701097232188369400,5.128369384765625,1.7508727312088013,1.6279969215393066,11.191240310668945
1701097232205361400,5.145361328125,1.458143711090088,1.6218047142028809,10.586263656616211
1701097232222350600,5.1623505859375,0.7287856936454773,1.093958854675293,9.456857681274414
1701097232239340000,5.179340087890625,1.0888006687164307,-0.37689685821533203,8.809823036193848
1701097232256331800,5.196331787109375,1.8268550634384155,-2.137239933013916,8.25308609008789
1701097232273316900,5.21331689453125,2.5914809703826904,-3.806436538696289,7.525014877319336
1701097232290312700,5.230312744140625,2.969529628753662,-4.533109664916992,6.080045700073242
1701097232307303000,5.247302978515625,3.315664529800415,-5.095428466796875,4.585784912109375
1701097232324293400,5.26429345703125,3.292426586151123,-4.7990803718566895,2.7570409774780273
1701097232341288400,5.281288330078125,2.7240166664123535,-4.418697357177734,1.212447166442871
1701097232358268200,5.29826806640625,2.2880911827087402,-4.196183204650879,0.10599708557128906
1701097232375268900,5.315268798828125,2.117623805999756,-4.1970062255859375,-0.5686607360839844
1701097232392258300,5.33225830078125,2.29305362701416,-4.37213134765625,-1.1079845428466797
1701097232409238000,5.349238037109375,2.666917562484741,-4.660854339599609,-1.5405611991882324
1701097232426238500,5.366238525390625,2.9703071117401123,-5.02151346206665,-1.7479357719421387
1701097232443225900,5.383225830078125,3.4415597915649414,-5.2183122634887695,-2.0486297607421875
1701097232460221000,5.400220947265625,3.7759742736816406,-5.553408622741699,-2.148052215576172
1701097232477208000,5.4172080078125,4.03346061706543,-5.936788558959961,-2.279710292816162
1701097232494195500,5.434195556640625,4.525643825531006,-6.293957233428955,-2.4209213256835938
1701097232511190500,5.4511904296875,4.912855625152588,-6.582485198974609,-2.691408634185791
1701097232528178000,5.468177978515625,5.412930488586426,-6.8578948974609375,-3.0172839164733887
1701097232545167600,5.485167724609375,5.822473526000977,-7.065427303314209,-3.330185890197754
1701097232562157600,5.502157470703125,6.274044990539551,-7.376029014587402,-3.881364345550537
1701097232579147500,5.5191474609375,6.512576580047607,-7.777884483337402,-4.40041446685791
1701097232596137500,5.536137451171875,6.75587797164917,-8.257280349731445,-4.666327953338623
1701097232613127400,5.55312744140625,6.893474578857422,-8.718425750732422,-4.638042449951172
1701097232630108400,5.5701083984375,6.750370025634766,-9.055201530456543,-4.042109489440918
1701097232647106800,5.58710693359375,6.075019836425781,-8.995586395263672,-3.3011488914489746
1701097232664099300,5.604099365234375,5.029448986053467,-9.145918846130371,-1.5866117477416992
1701097232681087000,5.6210869140625,3.5087368488311768,-9.259663581848145,-0.20422744750976562
1701097232698067700,5.638067626953125,2.15690016746521,-9.25926399230957,-0.13044452667236328
1701097232715067000,5.65506689453125,1.7308850288391113,-8.674273490905762,-0.6682300567626953
1701097232732056600,5.672056640625,1.8992500305175781,-7.9670867919921875,0.2369394302368164
1701097232749046500,5.689046630859375,1.6923643350601196,-7.319777011871338,1.620370864868164
1701097232766034000,5.706033935546875,1.3693616390228271,-6.56239128112793,2.325643539428711
1701097232783029000,5.723029052734375,0.7514067888259888,-6.1231842041015625,2.731813430786133
1701097232800016400,5.740016357421875,0.27154815196990967,-5.808108806610107,2.5952653884887695
1701097232816998000,5.756997802734375,0.3892192840576172,-5.0375847816467285,2.050485610961914
1701097232833993500,5.773993408203125,0.6205046772956848,-3.8622941970825195,1.870361328125
1701097232850988800,5.79098876953125,0.8068960905075073,-2.3051140308380127,2.0963382720947266
1701097232867976000,5.807975830078125,0.5322071313858032,-1.0507152080535889,3.27321720123291
1701097232884962800,5.824962890625,0.13207828998565674,0.28092026710510254,4.779778480529785
1701097232901958700,5.841958740234375,-0.5880657434463501,1.57491135597229,5.589851379394531
1701097232918945500,5.858945556640625,-1.7005481719970703,2.5868332386016846,5.719099044799805
1701097232935935500,5.875935546875,-2.701890468597412,3.4153988361358643,5.368048191070557
1701097232952925700,5.89292578125,-3.471649646759033,4.142927169799805,5.255341529846191
1701097232969915400,5.909915283203125,-3.7488420009613037,4.462359428405762,6.433943748474121
1701097232986905300,5.9269052734375,-3.6934759616851807,5.32192325592041,7.551515579223633
1701097233003895000,5.94389501953125,-3.7171967029571533,6.2589263916015625,7.780281066894531
1701097233020898300,5.960898193359375,-3.7095937728881836,6.847960472106934,7.138635158538818
1701097233037867500,5.977867431640625,-3.1825668811798096,6.945978164672852,6.374052047729492
1701097233054865200,5.994865234375,-1.931762933731079,6.8759613037109375,6.188992500305176
1701097233071854800,6.011854736328125,-0.21048107743263245,6.962770462036133,6.067723751068115
1701097233088830700,6.028830810546875,1.317417025566101,7.160736560821533,6.421298980712891
1701097233105834800,6.045834716796875,2.2808926105499268,7.2656450271606445,7.096272945404053
1701097233122824700,6.06282470703125,2.1777760982513428,7.079124927520752,7.881623268127441
1701097233139814700,6.079814697265625,1.0194101333618164,6.642755508422852,8.48331069946289
1701097233156794600,6.096794677734375,-0.21480897068977356,6.313632011413574,8.565778732299805
1701097233173794800,6.113794921875,-0.8547570109367371,5.410634994506836,9.139017105102539
1701097233190784000,6.130783935546875,-0.7675208449363708,4.198544502258301,10.384765625
1701097233207771600,6.147771728515625,0.06340163946151733,3.378345012664795,11.85529613494873
1701097233224764400,6.164764404296875,0.4336063861846924,2.6423840522766113,12.651378631591797
1701097233241754000,6.181754150390625,-0.3428606390953064,2.2572474479675293,12.154195785522461
1701097233258744000,6.198744140625,-1.6294652223587036,1.6720337867736816,11.25
1701097233275723300,6.21572314453125,-2.2437639236450195,0.4018392562866211,10.825828552246094
1701097233292716300,6.23271630859375,-2.037562847137451,-1.427823543548584,10.495034217834473
1701097233309716500,6.249716552734375,-0.7640115022659302,-3.132197856903076,9.389191627502441
1701097233326703900,6.266703857421875,0.508586585521698,-4.341699123382568,7.9508771896362305
1701097233343693600,6.283693603515625,1.55936598777771,-4.8820109367370605,6.245999336242676
1701097233360683500,6.30068359375,2.213280200958252,-4.977021217346191,4.550188064575195
1701097233377673500,6.317673583984375,2.4864280223846436,-4.6963276863098145,2.8099117279052734
1701097233394663200,6.3346630859375,2.431699275970459,-4.532775402069092,1.4620208740234375
1701097233411653400,6.3516533203125,2.6031293869018555,-4.411993026733398,0.3694486618041992
1701097233428640800,6.368640869140625,3.032636880874634,-4.568568706512451,-0.4107532501220703
1701097233445635300,6.38563525390625,3.488349437713623,-4.988089084625244,-0.9901847839355469
1701097233462623200,6.402623291015625,4.01707649230957,-5.484834671020508,-1.5406346321105957
1701097233479613000,6.419613037109375,4.511249542236328,-5.842628479003906,-2.1148338317871094
1701097233496602600,6.4366025390625,4.879797458648682,-6.452707767486572,-2.492619037628174
1701097233513579300,6.453579345703125,5.338706970214844,-6.794885635375977,-2.8704590797424316
1701097233530574600,6.47057470703125,5.661615371704102,-7.126376152038574,-3.201295852661133
1701097233547572500,6.487572509765625,6.085762977600098,-7.36135196685791,-3.558478832244873
1701097233564562400,6.5045625,6.320058822631836,-7.604599475860596,-4.01965856552124
1701097233581552600,6.521552734375,6.414447784423828,-7.725286483764648,-4.771913528442383
1701097233598539800,6.538539794921875,6.337455749511719,-7.819162368774414,-5.576266288757324
1701097233615534800,6.555534912109375,6.154766082763672,-7.996700286865234,-6.232341766357422
1701097233632522000,6.57252197265625,6.010265350341797,-8.403253555297852,-6.439846038818359
1701097233649512000,6.589511962890625,5.698892116546631,-8.944511413574219,-6.395605564117432
1701097233666513700,6.606513671875,5.566550254821777,-9.176103591918945,-5.98482084274292
1701097233683489300,6.6234892578125,5.2373552322387695,-9.44764518737793,-4.8787126541137695
1701097233700471300,6.64047119140625,4.374647617340088,-9.599357604980469,-3.376326084136963
1701097233717471700,6.6574716796875,2.892681837081909,-9.83629035949707,-1.9130449295043945
1701097233734459100,6.674459228515625,1.733379602432251,-9.701438903808594,-1.4416084289550781
1701097233751454000,6.691453857421875,1.3610951900482178,-9.289310455322266,-1.008296012878418
1701097233768441300,6.70844140625,1.4271537065505981,-8.811468124389648,0.44394779205322266
1701097233785431300,6.725431396484375,1.2028019428253174,-8.49238395690918,2.9669408798217773
1701097233802421800,6.742421875,0.7129731178283691,-8.33029556274414,5.603239059448242
1701097233819411500,6.759411376953125,0.16899752616882324,-7.725002765655518,7.384169578552246
1701097233836401400,6.7764013671875,-0.305395245552063,-6.5557942390441895,7.5355119705200195
1701097233853391000,6.79339111328125,-0.7544213533401489,-4.989788055419922,6.873295783996582
1701097233870381000,6.810381103515625,-1.0466045141220093,-3.269944906234741,6.305959701538086
1701097233887368400,6.827368408203125,-1.3783257007598877,-1.5893235206604004,6.040380477905273
1701097233904363300,6.84436328125,-1.52303147315979,0.10692930221557617,5.8408002853393555
1701097233921350700,6.8613505859375,-1.74953293800354,1.6100444793701172,5.350027084350586
1701097233938340600,6.878340576171875,-2.089367389678955,2.7122459411621094,4.959595680236816
1701097233955328800,6.895328857421875,-2.3434488773345947,3.373579263687134,4.606057643890381
1701097233972322600,6.912322509765625,-2.464968681335449,3.8947360515594482,4.028019905090332
1701097233989310500,6.929310546875,-2.465947151184082,3.9933700561523438,3.7575764656066895
1701097234006300200,6.946300048828125,-2.120013475418091,4.118096351623535,3.6082663536071777
1701097234023290400,6.963290283203125,-1.2661832571029663,4.254086971282959,3.797333240509033
1701097234040280300,6.9802802734375,-0.32797569036483765,4.747585773468018,4.059669494628906
1701097234057270000,6.99727001953125,0.06319460272789001,5.205555438995361,4.383581638336182
1701097234074260200,7.01426025390625,0.09352001547813416,5.754674911499023,4.619473934173584
1701097234091249700,7.031249755859375,-0.2022315263748169,6.1504974365234375,4.876228332519531
1701097234108240100,7.048240234375,-0.2560887336730957,6.333678245544434,5.492860794067383
1701097234125225700,7.065225830078125,0.11122816801071167,6.325810432434082,6.649726390838623
1701097234142214400,7.08221435546875,0.5106022953987122,6.398958206176758,7.722317695617676
1701097234159204900,7.099204833984375,0.734969973564148,6.625814437866211,8.777099609375
1701097234176189000,7.11618896484375,0.5938806533813477,6.762874126434326,9.787027359008789
1701097234193183200,7.133183349609375,0.05826437473297119,6.321337699890137,10.718976974487305
1701097234210169900,7.150169921875,-0.452634334564209,5.829802513122559,10.895310401916504
1701097234227165700,7.167165771484375,-0.7469817399978638,5.020735740661621,10.655288696289062
1701097234244153000,7.184153076171875,-0.622636079788208,3.5920300483703613,10.545188903808594
1701097234261143600,7.2011435546875,-0.004759311676025391,2.305335521697998,10.405708312988281
1701097234278124500,7.21812451171875,0.5855801701545715,1.764721393585205,10.032600402832031
1701097234295116800,7.23511669921875,0.5948700904846191,1.9731488227844238,9.240962982177734
1701097234312121000,7.25212109375,0.02133437991142273,1.8228201866149902,8.451642036437988
1701097234329108700,7.269108642578125,-0.5776116847991943,0.7631053924560547,8.043966293334961
1701097234346098700,7.2860986328125,-0.21527540683746338,-0.950531005859375,7.71697473526001
1701097234363078700,7.30307861328125,0.6685178279876709,-2.857356548309326,7.303219795227051
1701097234380078800,7.320078857421875,1.2903378009796143,-3.979238986968994,6.354876518249512
1701097234397069300,7.3370693359375,1.3860892057418823,-4.255000591278076,4.786052703857422
1701097234414056200,7.35405615234375,1.3942614793777466,-3.893125057220459,2.905040740966797
1701097234431051000,7.371051025390625,1.319338083267212,-3.530406951904297,1.5027618408203125
1701097234448038100,7.3880380859375,1.3840687274932861,-3.364377975463867,0.5666284561157227
1701097234465028400,7.4050283203125,1.5880874395370483,-3.4476587772369385,-0.19494342803955078
1701097234482018300,7.422018310546875,1.8623183965682983,-3.896155834197998,-0.7805576324462891
1701097234499008300,7.43900830078125,2.3958330154418945,-4.237293243408203,-1.6383018493652344
1701097234515998000,7.455998046875,3.091517925262451,-4.451469421386719,-2.501779556274414
1701097234532988000,7.47298779296875,3.6226110458374023,-4.7196197509765625,-3.1079678535461426
1701097234549977900,7.489977783203125,4.023454189300537,-4.955453395843506,-3.477856159210205
1701097234566953200,7.506953125,4.255492210388184,-5.270902156829834,-3.582207202911377
1701097234583958000,7.5239580078125,4.494669437408447,-5.527108669281006,-3.6813855171203613
1701097234600947700,7.54094775390625,4.705683708190918,-5.696610927581787,-3.95988130569458
1701097234617935000,7.55793505859375,4.764039993286133,-5.795355796813965,-4.379222869873047
1701097234634935800,7.574935791015625,4.622940540313721,-5.880448341369629,-4.82205867767334
1701097234651918600,7.591918701171875,4.454689979553223,-5.9365339279174805,-5.229819297790527
1701097234668907300,7.6089072265625,4.429081439971924,-6.185035705566406,-5.423318862915039
1701097234685897500,7.6258974609375,4.337915420532227,-6.682168483734131,-5.456577301025391
1701097234702887400,7.642887451171875,4.450385093688965,-7.203965187072754,-5.473932266235352
1701097234719877400,7.65987744140625,4.5611677169799805,-7.735376358032227,-5.282629013061523
1701097234736856800,7.67685693359375,4.705163955688477,-8.174022674560547,-4.223194122314453
1701097234753855700,7.693855712890625,3.3209071159362793,-8.209275245666504,-3.1175761222839355
1701097234770845400,7.710845458984375,0.8811242580413818,-8.455998420715332,-1.9372000694274902
1701097234787840300,7.72784033203125,0.023074626922607422,-8.983597755432129,-1.1015663146972656
1701097234804827000,7.744826904296875,1.0088173151016235,-8.861416816711426,-0.6525774002075195
1701097234821816800,7.76181689453125,2.4679105281829834,-8.561877250671387,-0.07123661041259766
1701097234838806800,7.778806884765625,3.6559720039367676,-8.026803970336914,1.246063232421875
1701097234855796700,7.795796630859375,3.543274164199829,-7.233183860778809,3.151174545288086
1701097234872784000,7.812783935546875,2.1523590087890625,-6.654827117919922,4.73281192779541
1701097234889778700,7.82977880859375,0.9973748326301575,-5.600254058837891,5.545164108276367
1701097234906767000,7.84676708984375,0.16357207298278809,-4.233952522277832,5.315742492675781
1701097234923756500,7.863756591796875,-0.6347345113754272,-2.7994258403778076,4.372560501098633
1701097234940755700,7.880755615234375,-0.9699752926826477,-1.380577802658081,3.527067184448242
1701097234957736400,7.897736328125,-0.9147257804870605,0.05271625518798828,3.0738067626953125
1701097234974726100,7.91472607421875,-0.6156237721443176,1.1784026622772217,3.1361894607543945
1701097234991716000,7.931716064453125,-0.3856636881828308,2.168799877166748,3.794218063354492
1701097235008705800,7.948705810546875,-0.6686184406280518,3.2601375579833984,4.0771613121032715
1701097235025688000,7.96568798828125,-1.6216821670532227,3.8509600162506104,4.150360584259033
1701097235042688800,7.982688720703125,-2.351184129714966,4.256593704223633,4.1150946617126465
1701097235059678700,7.9996787109375,-2.522395133972168,4.579098701477051,4.203701972961426
1701097235076649700,8.016649658203125,-2.024522066116333,4.738065719604492,4.732381820678711
1701097235093647600,8.033647705078126,-1.3842581510543823,4.968720436096191,5.597766399383545
1701097235110645800,8.050645751953125,-1.17449152469635,5.390705108642578,6.026235580444336
1701097235127636000,8.067635986328124,-1.1760306358337402,5.713229179382324,6.12624979019165
1701097235144625700,8.084625732421875,-1.0604808330535889,6.2000813484191895,6.086101531982422
1701097235161615600,8.10161572265625,-0.6080895662307739,6.303618431091309,6.255345344543457
1701097235178605300,8.118605224609375,-0.2013629674911499,6.334023475646973,6.489110469818115
1701097235195595500,8.135595458984374,0.21022649109363556,6.221346855163574,6.918707847595215
1701097235212586200,8.152586181640626,-0.037543363869190216,6.106775760650635,7.639899730682373
1701097235229574400,8.169574462890624,-1.0270026922225952,5.6726226806640625,8.550573348999023
1701097235246565000,8.186565185546876,-2.104236602783203,5.097395896911621,9.07258415222168
1701097235263552300,8.20355224609375,-2.4346089363098145,4.539734840393066,9.199670791625977
1701097235280548000,8.220548095703125,-1.9515583515167236,3.51308536529541,9.59212875366211
1701097235297535000,8.237534912109375,-0.6186536550521851,2.6709442138671875,10.177371978759766
1701097235314525000,8.25452490234375,1.0504677295684814,2.442722797393799,10.520147323608398
1701097235331515000,8.271514892578125,1.7883341312408447,2.8248238563537598,10.176060676574707
1701097235348504600,8.288504638671874,1.1694719791412354,2.9478421211242676,9.491861343383789
1701097235365494800,8.305494873046875,0.29006701707839966,2.103610038757324,9.03217887878418
1701097235382484700,8.322484619140624,0.06490924954414368,0.4407219886779785,8.868207931518555
1701097235399475500,8.339475341796875,0.5779354572296143,-1.4913859367370605,8.642624855041504
1701097235416463400,8.35646337890625,1.0438743829727173,-3.094348430633545,7.90134334564209
1701097235433437000,8.37343701171875,1.5190236568450928,-3.8241100311279297,6.569446563720703
1701097235450444500,8.390444580078125,1.7138404846191406,-3.700580596923828,4.776494979858398
1701097235467434200,8.407434326171876,1.5020945072174072,-3.3244566917419434,3.1442184448242188
1701097235484413400,8.424413330078124,1.211005687713623,-2.9397807121276855,1.916579246520996
1701097235501414400,8.441414306640626,1.2861297130584717,-2.8084564208984375,1.1231184005737305
1701097235518404000,8.458404052734375,1.4866321086883545,-3.0398128032684326,0.3703727722167969
1701097235535394000,8.47539404296875,1.995759129524231,-3.4578909873962402,-0.43176841735839844
1701097235552386600,8.492386474609376,2.5156662464141846,-4.044260025024414,-1.1786861419677734
1701097235569371400,8.509371337890625,3.191713333129883,-4.601407051086426,-1.862360954284668
1701097235586361300,8.526361328125,3.653458833694458,-5.075664043426514,-2.4932870864868164
1701097235603347500,8.543347412109375,3.964846134185791,-5.614522457122803,-2.7823591232299805
1701097235620335000,8.560335205078125,4.255448341369629,-6.118653774261475,-3.033487319946289
1701097235637318100,8.577318115234375,4.540359020233154,-6.433990478515625,-3.498532772064209
1701097235654321000,8.59432080078125,4.629759788513184,-6.7240447998046875,-3.900446891784668
1701097235671309300,8.611309326171876,4.666399002075195,-6.980401992797852,-4.3834452629089355
1701097235688298500,8.628298583984375,4.602888107299805,-7.269035816192627,-4.837558746337891
1701097235705288700,8.645288818359376,4.38209342956543,-7.678600788116455,-5.301219940185547
1701097235722273300,8.662273193359376,4.40815544128418,-7.954802513122559,-5.834527969360352
1701097235739263500,8.679263427734375,4.482907772064209,-8.154827117919922,-6.186861038208008
1701097235756257800,8.6962578125,4.528085708618164,-8.335636138916016,-6.036170959472656
1701097235773245700,8.71324560546875,4.291749954223633,-8.63988971710205,-5.528589725494385
1701097235790236200,8.730236083984375,3.9530014991760254,-9.063095092773438,-4.049859523773193
1701097235807224300,8.747224365234375,3.1491293907165527,-9.260047912597656,-2.40045166015625
1701097235824219000,8.764218994140625,1.8395057916641235,-9.438796997070312,-1.0358304977416992
1701097235841207600,8.78120751953125,0.9484009742736816,-9.324190139770508,-0.11556529998779297
1701097235858191000,8.798191162109376,0.8271286487579346,-9.003653526306152,0.2283344268798828
1701097235875189000,8.81518896484375,1.307223916053772,-8.280113220214844,0.9994840621948242
1701097235892185000,8.83218505859375,1.5942387580871582,-7.662412643432617,2.621368408203125
1701097235909172700,8.8491728515625,1.5217775106430054,-7.235199928283691,4.618460655212402
1701097235926162700,8.86616259765625,1.2870618104934692,-6.679501533508301,6.210197448730469
1701097235943152600,8.883152587890624,0.9294118881225586,-5.800747871398926,6.707348823547363
1701097235960131800,8.9001318359375,0.46845921874046326,-4.602089881896973,6.060857772827148
1701097235977132500,8.917132568359374,-0.20381379127502441,-3.178372621536255,5.18605899810791
1701097235994122200,8.934122314453125,-0.6538360118865967,-1.4804024696350098,4.53809928894043
1701097236011112400,8.951112548828124,-0.9437376260757446,0.08597946166992188,4.408846855163574
1701097236028102400,8.968102294921875,-1.2501856088638306,1.5148746967315674,4.627272605895996
1701097236045092400,8.98509228515625,-1.7035175561904907,2.6613523960113525,4.890622615814209
1701097236062080500,9.00208056640625,-2.1488864421844482,3.5696966648101807,4.540783405303955
1701097236079074000,9.019073974609375,-2.6269335746765137,3.8113925457000732,4.2680134773254395
1701097236096058000,9.03605810546875,-2.421955108642578,4.098706245422363,3.9390416145324707
1701097236113052000,9.053052001953125,-1.9285191297531128,4.030803203582764,4.256076335906982
1701097236130042000,9.0700419921875,-1.1305667161941528,4.395086288452148,5.007108211517334
1701097236147032000,9.087031982421875,-0.7311708331108093,5.02706241607666,5.826460361480713
1701097236164021800,9.104021728515624,-0.7272079586982727,5.692235469818115,6.237410068511963
1701097236181012000,9.121011962890625,-0.8001643419265747,6.300563812255859,6.4559221267700195
1701097236198001700,9.138001708984374,-0.6042392253875732,6.744195938110352,6.88899564743042
1701097236214992000,9.154991943359375,-0.16267871856689453,7.014952659606934,7.608560085296631
1701097236231981600,9.171981689453125,0.6232366561889648,7.0966081619262695,8.456563949584961
1701097236248971500,9.188971435546875,1.5205073356628418,7.381478309631348,9.03829288482666
1701097236265961500,9.20596142578125,1.9997646808624268,7.487070083618164,9.713720321655273
1701097236282951400,9.222951416015626,1.7689670324325562,7.033606052398682,10.575050354003906
1701097236299941400,9.23994140625,1.052952527999878,6.400866985321045,11.038414001464844
1701097236316920600,9.256920654296875,0.30332112312316895,5.6564741134643555,11.038267135620117
1701097236333920500,9.27392041015625,0.1014021635055542,4.642425537109375,11.213577270507812
1701097236350912000,9.290912109375,0.5353803038597107,3.4235010147094727,11.735671997070312
1701097236367900400,9.307900390625,1.0800964832305908,2.8315272331237793,11.893953323364258
1701097236384892000,9.324891845703124,1.3057210445404053,2.766024112701416,11.306114196777344
1701097236401880800,9.341880859375,0.9125466346740723,2.4685187339782715,10.518585205078125
1701097236418870800,9.358870849609374,0.48388752341270447,1.435838222503662,9.864457130432129
1701097236435861000,9.375861083984375,0.6120378375053406,-0.05014657974243164,9.286651611328125
1701097236452849000,9.392848876953124,1.3132466077804565,-1.9444580078125,8.985176086425781
1701097236469843000,9.409843017578124,1.6986618041992188,-3.4540653228759766,8.590167999267578
1701097236486830600,9.42683056640625,1.785614013671875,-4.227975368499756,7.199197769165039
1701097236503810000,9.44381005859375,1.7128443717956543,-4.306335926055908,5.092694282531738
1701097236520814800,9.46081494140625,1.5931131839752197,-4.137386322021484,2.9281320571899414
1701097236537800700,9.47780078125,1.5032228231430054,-4.109949111938477,1.2950201034545898
1701097236554790400,9.494790283203125,1.7845219373703003,-4.115520000457764,-0.010640144348144531
1701097236571780400,9.5117802734375,2.073432207107544,-4.316209316253662,-1.050079345703125
1701097236588776400,9.5287763671875,2.6379659175872803,-4.490384578704834,-1.987617015838623
1701097236605760300,9.54576025390625,3.097482681274414,-4.733340740203857,-2.775343418121338
1701097236622750200,9.562750244140625,3.6076841354370117,-5.10502815246582,-3.350450038909912
1701097236639740200,9.579740234375,4.037492275238037,-5.4137678146362305,-3.9319753646850586
1701097236656730000,9.596730224609376,4.579000949859619,-5.732129096984863,-4.377656936645508
1701097236673720300,9.61372021484375,5.1123199462890625,-5.823699951171875,-4.5167622566223145
1701097236690699000,9.630698974609375,5.062145233154297,-5.931787967681885,-4.419312953948975
1701097236707699500,9.647699462890625,4.995335102081299,-5.990544319152832,-4.389007568359375
1701097236724692700,9.664692626953125,4.973386764526367,-6.134021759033203,-4.412117004394531
1701097236741679900,9.681679931640625,5.168497085571289,-6.257779121398926,-4.4717020988464355
1701097236758669800,9.698669921875,5.355354309082031,-6.667766571044922,-4.537418365478516
1701097236775660000,9.715659912109375,5.469783782958984,-6.931495666503906,-4.683200359344482
1701097236792637200,9.73263720703125,5.57513952255249,-7.481916427612305,-4.481994152069092
1701097236809644000,9.74964404296875,5.618588924407959,-7.990156173706055,-3.9250388145446777
1701097236826630000,9.7666298828125,5.404316425323486,-8.416954040527344,-3.014112949371338
1701097236843619800,9.783619873046876,4.935184955596924,-8.460980415344238,-2.044447898864746
1701097236860609800,9.80060986328125,4.020338535308838,-8.924834251403809,-0.93658447265625
1701097236877599700,9.817599853515626,3.240861415863037,-9.01551342010498,-0.004330635070800781
1701097236894587000,9.8345869140625,2.3534157276153564,-8.644546508789062,0.685755729675293
1701097236911574300,9.85157421875,1.8190906047821045,-8.080562591552734,1.662491798400879
1701097236928569600,9.868569580078125,1.4262415170669556,-7.453866958618164,3.060797691345215
1701097236945559600,9.8855595703125,0.8315541744232178,-7.010286331176758,4.425420761108398
1701097236962549500,9.902549560546875,0.26432108879089355,-6.390863418579102,4.9676313400268555
1701097236979539200,9.919539306640624,-0.46986567974090576,-5.597342491149902,4.6081743240356445
1701097236996529200,9.936529052734375,-1.2183051109313965,-4.712308406829834,3.715761184692383
1701097237013519000,9.95351904296875,-1.6433149576187134,-3.507709503173828,2.6795549392700195
1701097237030498800,9.970498779296875,-1.6295318603515625,-2.199018955230713,2.182845115661621
1701097237047499000,9.9874990234375,-1.433391809463501,-0.9479207992553711,2.3443174362182617
1701097237064489200,10.0044892578125,-1.3926368951797485,0.24009990692138672,2.5275630950927734
1701097237081479200,10.021479248046875,-1.4552723169326782,1.2579469680786133,2.505324363708496
1701097237098468900,10.03846875,-1.6798838376998901,1.9458484649658203,2.387197971343994
1701097237115458800,10.055458740234375,-1.6659319400787354,2.1871771812438965,2.5838818550109863
1701097237132450300,10.0724501953125,-1.4223295450210571,2.51516056060791,3.1065211296081543
1701097237149437000,10.08943701171875,-1.3238484859466553,3.0089974403381348,3.8902316093444824
1701097237166427400,10.106427490234376,-1.4381154775619507,3.7479562759399414,4.568759918212891
1701097237183420000,10.123419921875,-1.6543750762939453,4.415988922119141,5.416870594024658
1701097237200408300,10.140408203125,-1.9447596073150635,4.979061126708984,6.414425373077393
1701097237217398500,10.1573984375,-2.1925482749938965,5.616293430328369,7.402324199676514
1701097237234388500,10.174388427734375,-2.584322214126587,6.163593292236328,8.600542068481445
1701097237251378700,10.191378662109376,-2.493772029876709,6.612642288208008,9.830530166625977
1701097237268368400,10.208368408203125,-1.7753938436508179,7.2354536056518555,10.64806079864502
1701097237285358300,10.2253583984375,-0.6070125102996826,7.622431755065918,11.335501670837402
1701097237302348500,10.2423486328125,0.8751462697982788,7.82233190536499,11.876497268676758
1701097237319338200,10.259338134765626,2.110198497772217,7.421263694763184,12.269356727600098
1701097237336328200,10.276328125,2.486422061920166,6.4749040603637695,12.2037935256958
1701097237353318400,10.293318359375,2.5737195014953613,5.37423038482666,11.902946472167969
1701097237370308400,10.310308349609375,2.4365310668945312,4.181784152984619,11.80087661743164
1701097237387295500,10.32729541015625,2.2013206481933594,3.2477407455444336,11.911884307861328
1701097237404290600,10.34429052734375,1.936899185180664,2.849595069885254,11.731365203857422
1701097237421278000,10.36127783203125,1.5273561477661133,3.0381526947021484,11.027026176452637
1701097237438257400,10.37825732421875,0.8229725360870361,2.743624687194824,10.16323471069336
1701097237455255600,10.395255615234374,0.4526011347770691,1.6337289810180664,9.47092056274414
1701097237472250400,10.41225048828125,0.5139152407646179,-0.11823320388793945,9.037055969238281
1701097237489235700,10.429235595703124,1.095365047454834,-1.9334921836853027,8.329801559448242
1701097237506230300,10.446230224609375,1.8112876415252686,-3.256279468536377,7.130233287811279
1701097237523217700,10.4632177734375,2.3708786964416504,-3.7875757217407227,5.366207122802734
1701097237540207900,10.480207763671874,2.607555389404297,-3.7593116760253906,3.4097843170166016
1701097237557187300,10.497187255859375,2.528473138809204,-3.5356154441833496,1.7317886352539062
1701097237574187800,10.514187744140624,2.1236572265625,-3.3382363319396973,0.5357770919799805
1701097237591177700,10.531177734375,1.6888502836227417,-3.400355815887451,-0.29575157165527344
1701097237608156000,10.548156005859376,1.697571873664856,-3.509873867034912,-1.0394573211669922
1701097237625148400,10.5651484375,2.011206865310669,-3.721675395965576,-1.7605934143066406
1701097237642140400,10.582140380859375,2.484572410583496,-3.972963571548462,-2.410431385040283
1701097237659127800,10.5991279296875,2.902038335800171,-4.27892541885376,-2.938455104827881
1701097237676121300,10.616121337890625,3.3993420600891113,-4.617016792297363,-3.339632511138916
1701097237693108500,10.6331083984375,3.7757301330566406,-4.872664928436279,-3.6912484169006348
1701097237710103300,10.650103271484374,4.011967182159424,-5.242912292480469,-3.730599880218506
1701097237727086000,10.667086181640625,4.2533745765686035,-5.531031131744385,-3.8836731910705566
1701097237744082200,10.684082275390624,4.529276371002197,-5.462246894836426,-4.313912391662598
1701097237761076700,10.70107666015625,4.572925567626953,-5.802736759185791,-4.608278274536133
1701097237778054700,10.7180546875,4.595558166503906,-6.124988555908203,-4.75995397567749
1701097237795059200,10.73505908203125,4.661754608154297,-6.419951915740967,-4.745835781097412
1701097237812047000,10.752047119140625,4.72163724899292,-6.727850914001465,-4.604587554931641
1701097237829037000,10.769037109375,5.015483856201172,-6.905274391174316,-4.4488396644592285
1701097237846027000,10.786027099609376,5.26055383682251,-7.2878828048706055,-3.862962245941162
1701097237863016700,10.8030166015625,5.10152530670166,-7.612587928771973,-2.7819466590881348
1701097237880002800,10.8200029296875,4.457749843597412,-7.572959899902344,-1.9026551246643066
1701097237896990500,10.836990478515625,3.440045118331909,-7.743929862976074,-0.9837284088134766
1701097237913984000,10.85398388671875,2.2724268436431885,-7.886257648468018,-0.13359451293945312
1701097237930979300,10.870979248046876,1.4612491130828857,-7.9047651290893555,0.2892436981201172
1701097237947956200,10.887956298828126,1.3160371780395508,-7.161876201629639,0.1940755844116211
1701097237964956400,10.904956298828125,1.2890856266021729,-6.410068035125732,1.0192222595214844
1701097237981946600,10.921946533203124,1.1982537508010864,-5.631725311279297,2.6348581314086914
1701097237998936600,10.9389365234375,0.4486749768257141,-5.157809257507324,3.637838363647461
1701097238015926500,10.955926513671875,-0.336108922958374,-4.718092441558838,3.586672782897949
1701097238032916500,10.97291650390625,-0.8116744756698608,-4.333749771118164,2.8742446899414062
1701097238049906200,10.98990625,-0.7360386252403259,-3.40559458732605,1.9592056274414062
1701097238066896400,11.006896484375,-0.3091180920600891,-2.05534029006958,1.382246971130371
1701097238083886000,11.023885986328125,-0.1699143648147583,-0.6320035457611084,1.6155166625976562
1701097238100883000,11.040883056640626,-0.5731467008590698,0.7324180603027344,2.162008285522461
1701097238117866200,11.0578662109375,-1.2656035423278809,1.886744737625122,2.7370529174804688
1701097238134853600,11.074853515625,-2.2095065116882324,2.738056182861328,2.8619518280029297
1701097238151848700,11.0918486328125,-2.8120241165161133,3.050577163696289,2.864602565765381
1701097238168833000,11.1088330078125,-3.1606087684631348,3.281970500946045,2.7122955322265625
1701097238185823000,11.125822998046875,-2.830918312072754,3.5431509017944336,3.1051087379455566
1701097238202816000,11.14281591796875,-2.345676898956299,3.8177037239074707,4.214962482452393
1701097238219806200,11.15980615234375,-1.9690912961959839,4.488476753234863,4.756717681884766
1701097238236778200,11.1767783203125,-1.66396963596344,4.973587989807129,5.253732681274414
1701097238253788700,11.19378857421875,-1.5102486610412598,5.470824241638184,6.017269134521484
1701097238270759200,11.21075927734375,-1.482311487197876,6.141554832458496,6.65036153793335
1701097238287764000,11.227763916015626,-1.4847444295883179,6.583115100860596,7.890481948852539
1701097238304754400,11.24475439453125,-0.9924727082252502,6.8536200523376465,9.621225357055664
1701097238321747200,11.261747314453125,0.2952854037284851,7.368830680847168,10.785453796386719
1701097238338733600,11.278733642578125,1.219391107559204,7.686552047729492,11.549615859985352
1701097238355728600,11.295728759765625,0.9723696112632751,7.088353157043457,11.981797218322754
1701097238372713000,11.312712890625,-0.012265652418136597,6.239045143127441,11.847200393676758
1701097238389708000,11.3297080078125,-0.8547380566596985,5.215909004211426,11.775064468383789
1701097238406696200,11.3466962890625,-0.6048060655593872,4.017724990844727,11.726293563842773
1701097238423685600,11.363685546875,0.37788283824920654,3.131969928741455,11.674457550048828
1701097238440675600,11.380675537109376,1.3650991916656494,2.585293769836426,11.576470375061035
1701097238457665500,11.39766552734375,1.8256957530975342,2.677354335784912,10.756711959838867
1701097238474655500,11.414655517578124,1.7984681129455566,2.5945472717285156,9.850059509277344
1701097238491655400,11.431655517578125,1.480228066444397,1.7843575477600098,9.177168846130371
1701097238508635400,11.448635498046874,1.401273488998413,0.30800914764404297,8.659160614013672
1701097238525625300,11.465625244140625,1.7085833549499512,-1.2561144828796387,7.858256816864014
1701097238542601200,11.482601318359375,2.037757158279419,-2.740546226501465,7.062650680541992
1701097238559605200,11.499605224609375,2.189326286315918,-3.064469337463379,5.189765930175781
1701097238576595500,11.516595458984375,1.9678109884262085,-3.0181636810302734,3.2305688858032227
1701097238593588500,11.53358837890625,1.6404407024383545,-2.6375904083251953,1.5681238174438477
1701097238610571800,11.55057177734375,1.2908871173858643,-2.5708653926849365,0.6607179641723633
1701097238627565300,11.5675654296875,1.2639262676239014,-2.6798617839813232,-0.10648250579833984
1701097238644555000,11.584554931640625,1.4685454368591309,-2.9084548950195312,-0.901646614074707
1701097238661545200,11.601545166015624,1.835685133934021,-3.3012306690216064,-1.7063426971435547
1701097238678535000,11.618534912109375,2.426241397857666,-3.649320602416992,-2.6681203842163086
1701097238695524900,11.63552490234375,3.03787899017334,-3.9893689155578613,-3.4451775550842285
1701097238712515000,11.65251513671875,3.6997756958007812,-4.319555282592773,-3.9595680236816406
1701097238729504800,11.6695048828125,4.017358303070068,-4.618590354919434,-4.252979755401611
1701097238746494700,11.68649462890625,4.137048244476318,-4.869325160980225,-4.266417026519775
1701097238763497200,11.703497314453125,4.227982044219971,-5.063519477844238,-4.1607346534729
1701097238780475000,11.720474853515626,4.282657623291016,-5.179955005645752,-4.2179670333862305
1701097238797464800,11.73746484375,4.4783244132995605,-5.2842302322387695,-4.231822967529297
1701097238814454800,11.754454833984376,4.574776649475098,-5.560871124267578,-4.074864387512207
1701097238831444500,11.771444580078125,4.716413497924805,-5.947961330413818,-3.8206543922424316
1701097238848427000,11.788427001953124,4.785004615783691,-6.408580780029297,-3.462940216064453
1701097238865424600,11.805424560546875,4.823803901672363,-6.751525402069092,-3.143892765045166
1701097238882414800,11.822414794921874,4.77469539642334,-6.938638687133789,-3.0108227729797363
1701097238899404500,11.839404541015625,4.5441436767578125,-7.129510402679443,-2.4688644409179688
1701097238916394200,11.856394287109374,4.198593616485596,-7.28270149230957,-1.918431282043457
1701097238933374200,11.873374267578125,3.630434036254883,-7.45277214050293,-1.155360221862793
1701097238950376700,11.890376708984375,3.0313093662261963,-7.849373817443848,-0.15944385528564453
1701097238967364400,11.9073642578125,2.2327847480773926,-8.178022384643555,0.8717975616455078
1701097238984354300,11.924354248046875,1.8474974632263184,-7.359910488128662,1.5636329650878906
1701097239001342000,11.941342041015625,1.5004079341888428,-5.9636125564575195,1.7973833084106445
1701097239018335500,11.95833544921875,0.6436329483985901,-5.011706829071045,2.0190773010253906
1701097239035324200,11.97532421875,-0.04835653305053711,-4.496551513671875,2.006768226623535
1701097239052314400,11.992314453125,-0.4328077435493469,-4.347078800201416,1.8206005096435547
1701097239069304300,12.00930419921875,-0.3189261555671692,-4.194981575012207,1.5267658233642578
1701097239086293500,12.02629345703125,-0.09972584247589111,-3.6577136516571045,1.340707778930664
1701097239103274000,12.04327392578125,0.24151605367660522,-2.671492338180542,1.2933273315429688
1701097239120263400,12.060263427734375,0.2992683947086334,-1.4204821586608887,1.540146827697754
1701097239137266200,12.07726611328125,0.3481774926185608,-0.09160184860229492,1.9102392196655273
1701097239154254000,12.094254150390626,0.06206867843866348,0.9466209411621094,2.550868034362793
1701097239171232000,12.11123193359375,-0.3954172134399414,1.8341376781463623,3.2567625045776367
1701097239188229600,12.128229736328125,-1.074526071548462,2.549192428588867,3.7923574447631836
1701097239205223400,12.145223388671875,-1.8108305931091309,3.038687229156494,4.548052787780762
1701097239222211600,12.162211669921875,-2.07431960105896,3.6833598613739014,5.335555553436279
1701097239239193600,12.179193603515625,-2.4647207260131836,4.183013439178467,6.305288791656494
1701097239256186600,12.1961865234375,-2.7852349281311035,4.748592376708984,7.030911922454834
1701097239273181200,12.21318115234375,-2.8243696689605713,5.281378746032715,7.457972526550293
1701097239290164500,12.23016455078125,-3.1674346923828125,5.872143745422363,7.972417831420898
1701097239307159300,12.2471591796875,-3.4338431358337402,6.259540557861328,8.592122077941895
1701097239324151300,12.2641513671875,-3.5222368240356445,6.653480052947998,9.11781120300293
1701097239341140500,12.281140380859375,-3.259150266647339,6.772547721862793,9.576295852661133
1701097239358123800,12.298123779296875,-2.6599526405334473,6.812854766845703,9.602771759033203
1701097239375112000,12.31511181640625,-2.0152251720428467,6.587001800537109,9.61644458770752
1701097239392116000,12.332115966796875,-1.4710508584976196,6.549133777618408,9.704938888549805
1701097239409104000,12.349103759765624,-1.515852689743042,6.018950939178467,10.306528091430664
1701097239426093600,12.366093505859375,-1.7749508619308472,5.264044761657715,10.846309661865234
1701097239443081000,12.3830810546875,-1.871917724609375,4.520699501037598,11.060966491699219
1701097239460075800,12.40007568359375,-1.4414668083190918,3.5096964836120605,11.298309326171875
1701097239477052700,12.417052734375,-0.8868648409843445,2.4278831481933594,11.634452819824219
1701097239494051000,12.434051025390625,-0.2082962989807129,1.700040340423584,11.73117446899414
1701097239511046000,12.4510458984375,0.12770205736160278,1.766068935394287,11.029539108276367
1701097239528031700,12.46803173828125,-0.013192534446716309,1.557629108428955,10.201650619506836
1701097239545025000,12.48502490234375,-0.013502776622772217,0.7968630790710449,9.493387222290039
1701097239562013400,12.502013427734376,0.3402121663093567,-0.679349422454834,9.127666473388672
1701097239579000800,12.519000732421874,0.9687120914459229,-2.245213031768799,8.392173767089844
1701097239595995600,12.53599560546875,1.6962569952011108,-3.508009433746338,7.325680732727051
1701097239612983000,12.552983154296875,2.200749397277832,-3.984607219696045,5.867073059082031
1701097239629969400,12.569969482421875,2.33125638961792,-4.02655553817749,4.354781150817871
1701097239646963200,12.586963134765625,2.0198845863342285,-3.7944416999816895,2.770989418029785
1701097239663953400,12.603953369140624,1.6840097904205322,-3.7277331352233887,1.6321077346801758
1701097239680943000,12.620943115234375,1.9411673545837402,-3.6915395259857178,0.6142721176147461
1701097239697920000,12.637919921875,2.482682228088379,-4.005862236022949,-0.34760189056396484
1701097239714926000,12.654926025390624,3.1794795989990234,-4.483850479125977,-1.3260211944580078
1701097239731913200,12.671913330078125,3.776724338531494,-4.994894027709961,-2.44393253326416
1701097239748903200,12.688903076171876,4.380979537963867,-5.429337501525879,-3.5110983848571777
1701097239765892900,12.705892822265625,4.900078773498535,-5.560853958129883,-4.743120193481445
1701097239782883000,12.722883056640624,5.108987808227539,-5.684092998504639,-5.6731486320495605
1701097239799879400,12.73987939453125,5.2586870193481445,-5.751430988311768,-6.175193786621094
1701097239816855000,12.75685498046875,5.198982238769531,-5.8451008796691895,-6.563065528869629
1701097239833853000,12.77385302734375,5.2137861251831055,-5.934638023376465,-6.911740303039551
1701097239850838300,12.79083837890625,5.225429534912109,-5.914314270019531,-7.126359939575195
1701097239867837400,12.80783740234375,5.08164644241333,-6.054887771606445,-6.997398376464844
1701097239884809700,12.824809814453126,4.685430526733398,-6.306674480438232,-6.505760192871094
1701097239901815600,12.841815673828124,4.340762615203857,-6.557273864746094,-5.674797534942627
1701097239918802700,12.858802734375,4.276734828948975,-6.761544227600098,-4.859325408935547
1701097239935793000,12.87579296875,4.496603012084961,-7.219008922576904,-3.705305576324463
1701097239952780300,12.8927802734375,4.643798828125,-7.154263496398926,-2.430940628051758
1701097239969775400,12.909775390625,4.593129634857178,-6.617416858673096,-1.0326223373413086
1701097239986761700,12.92676171875,3.6441125869750977,-6.639704704284668,0.6759748458862305
1701097240003753500,12.94375341796875,2.2315733432769775,-6.6347150802612305,2.2183094024658203
1701097240020742400,12.960742431640625,0.6683171987533569,-6.477838039398193,3.102224349975586
1701097240037722000,12.97772216796875,0.06579446792602539,-5.65626859664917,2.7486000061035156
1701097240054722800,12.994722900390625,0.44366657733917236,-4.371147632598877,1.9703750610351562
1701097240071712500,13.01171240234375,0.5014627575874329,-3.5457472801208496,2.3785858154296875
1701097240088702700,13.02870263671875,0.18701046705245972,-3.114095687866211,3.573855400085449
1701097240105692400,13.0456923828125,-0.3450082540512085,-2.9023680686950684,4.651083946228027
1701097240122682600,13.0626826171875,-0.819616436958313,-2.526560068130493,4.860782623291016
1701097240139672600,13.079672607421875,-1.117409348487854,-1.6004986763000488,3.99808406829834
1701097240156652000,13.096652099609376,-1.4611402750015259,-0.20121383666992188,2.8947839736938477
1701097240173652200,13.11365234375,-1.8651158809661865,1.185971736907959,2.304886817932129
1701097240190642400,13.130642333984374,-2.25158429145813,2.387260913848877,2.2482118606567383
1701097240207632400,13.14763232421875,-2.4694809913635254,3.3789613246917725,2.2339706420898438
1701097240224622600,13.16462255859375,-2.7943341732025146,4.056739807128906,2.2296533584594727
1701097240241612500,13.181612548828125,-3.127808094024658,4.43651008605957,1.8790702819824219
1701097240258602200,13.198602294921875,-3.3907315731048584,4.629400730133057,1.6290674209594727
1701097240275592200,13.21559228515625,-3.5976881980895996,4.803286552429199,1.4763984680175781
1701097240292584000,13.232583984375,-3.4566712379455566,4.872946739196777,2.016569137573242
1701097240309567700,13.249567626953125,-3.302183151245117,5.1794939041137695,3.0918221473693848
1701097240326564600,13.266564697265625,-3.690944194793701,5.473723411560059,3.6749672889709473
1701097240343552000,13.283552001953124,-4.241721153259277,5.743260383605957,4.078648567199707
1701097240360542200,13.300542236328125,-4.558727264404297,5.702258110046387,4.781575679779053
1701097240377532200,13.3175322265625,-4.513804912567139,5.66378116607666,5.686461448669434
1701097240394521900,13.33452197265625,-4.005343437194824,5.543078422546387,6.970348358154297
1701097240411511800,13.35151171875,-3.37784481048584,5.64626407623291,8.131661415100098
1701097240428502300,13.368502197265625,-2.9214327335357666,5.621081352233887,9.04730224609375
1701097240445492000,13.385491943359375,-2.887965202331543,5.5295796394348145,9.832807540893555
1701097240462482200,13.402482177734376,-3.371236801147461,5.16097354888916,10.331367492675781
1701097240479471900,13.419471923828125,-3.7279911041259766,4.225862503051758,10.74147891998291
1701097240496461800,13.4364619140625,-3.550118923187256,3.257913589477539,10.793913841247559
1701097240513439700,13.453439697265624,-2.3762848377227783,1.9790449142456055,10.731466293334961
1701097240530441700,13.470441650390624,-0.9599952101707458,0.9747962951660156,10.608945846557617
1701097240547421700,13.487421630859375,0.14188826084136963,0.40952062606811523,10.435955047607422
1701097240564421600,13.504421630859374,0.6643409729003906,0.7060356140136719,9.64400863647461
1701097240581401300,13.5214013671875,0.39959287643432617,0.8198623657226562,8.608280181884766
1701097240598401800,13.53840185546875,0.10132086277008057,0.4849066734313965,7.53765869140625
1701097240615392000,13.55539208984375,0.30574214458465576,-0.6247425079345703,6.760829448699951
1701097240632385000,13.572385009765625,0.8284209966659546,-1.7640295028686523,5.717002868652344
1701097240649368300,13.589368408203125,1.5572152137756348,-2.3791232109069824,4.309754371643066
1701097240666361900,13.60636181640625,2.1460092067718506,-2.3137855529785156,2.7289857864379883
1701097240683351800,13.623351806640626,2.3457870483398438,-1.877711296081543,1.3528366088867188
1701097240700341800,13.640341796875,2.0748982429504395,-1.235400676727295,0.22857379913330078
1701097240717331700,13.657331787109374,1.3774815797805786,-0.7817716598510742,-0.40450096130371094
1701097240734319600,13.674319580078125,1.0365506410598755,-0.722954511642456,-0.708949089050293
1701097240751313700,13.691313720703125,1.1680291891098022,-0.8546180725097656,-1.2897701263427734
1701097240768303400,13.708303466796876,1.7591874599456787,-1.2795352935791016,-1.7697663307189941
1701097240785291300,13.725291259765624,2.5378060340881348,-1.8083386421203613,-2.173645496368408
1701097240802281500,13.742281494140625,3.2185940742492676,-2.3666768074035645,-2.4117422103881836
1701097240819271400,13.759271484375,3.8014767169952393,-2.644618511199951,-2.583578586578369
1701097240836261600,13.77626171875,4.073261260986328,-2.6835339069366455,-2.6682167053222656
1701097240853251600,13.79325146484375,4.239767074584961,-2.904789686203003,-2.361556053161621
1701097240870241500,13.810241455078126,4.529155731201172,-3.3696541786193848,-2.386929512023926
1701097240887231500,13.8272314453125,4.821338176727295,-3.816286563873291,-2.59513521194458
1701097240904221400,13.844221435546874,5.021958351135254,-4.488463401794434,-2.567343235015869
1701097240921209000,13.861208984375,5.505616188049316,-5.249532222747803,-2.506222724914551
1701097240938193400,13.878193359375,5.915863037109375,-5.988288879394531,-2.5452141761779785
1701097240955191300,13.89519140625,6.199466228485107,-6.55492639541626,-2.7261252403259277
1701097240972181200,13.91218115234375,6.266392707824707,-6.754968166351318,-3.17252779006958
1701097240989171200,13.929171142578125,5.765323638916016,-6.8546295166015625,-3.1102542877197266
1701097241006161200,13.9461611328125,4.815250396728516,-6.904074668884277,-2.603867530822754
1701097241023151400,13.9631513671875,3.3869643211364746,-6.835780143737793,-2.0648393630981445
1701097241040141000,13.98014111328125,1.585389494895935,-7.0034894943237305,-1.6460137367248535
1701097241057120800,13.997120849609376,0.3909248113632202,-7.2959089279174805,-1.9490914344787598
1701097241074121200,14.014121337890625,0.20343875885009766,-7.033843040466309,-2.922701835632324
1701097241091111200,14.031111083984374,0.9936835169792175,-6.2652106285095215,-3.22695255279541
1701097241108094500,14.048094482421876,1.4784636497497559,-5.892637252807617,-1.607625961303711
1701097241125087000,14.0650869140625,1.397930383682251,-5.474615573883057,0.8695507049560547
1701097241142072300,14.082072265625,0.7354422807693481,-5.242729663848877,3.0399580001831055
1701097241159061800,14.099061767578124,-0.2914576232433319,-4.702834129333496,3.2878150939941406
1701097241176054500,14.116054443359374,-1.2817350625991821,-4.051551818847656,2.4964380264282227
1701097241193038600,14.13303857421875,-1.9676458835601807,-3.133922815322876,1.7606687545776367
1701097241210044200,14.150044189453125,-1.9844971895217896,-1.8816115856170654,1.422013282775879
1701097241227021300,14.167021240234375,-1.9936555624008179,-0.7891333103179932,2.0227460861206055
1701097241244010000,14.184010009765625,-2.0530905723571777,0.5187034606933594,2.843081474304199
1701097241261003800,14.201003662109375,-2.543508768081665,1.5814168453216553,2.987476348876953
1701097241277989000,14.217989013671875,-3.2868528366088867,2.187347412109375,2.830606460571289
1701097241294993400,14.234993408203126,-3.578434467315674,2.588627576828003,2.7914514541625977
1701097241311980800,14.251980712890624,-3.5375828742980957,3.047001361846924,3.039602279663086
1701097241328971000,14.268970947265625,-3.6833839416503906,3.392758369445801,3.8094077110290527
1701097241345961200,14.285961181640625,-3.8475351333618164,3.802656412124634,4.746488094329834
1701097241362937900,14.302937744140625,-4.090818881988525,4.466917991638184,5.595285415649414
1701097241379943400,14.319943359375,-4.671413421630859,4.955456733703613,6.478833198547363
1701097241396920000,14.336920166015625,-5.441793918609619,5.33490514755249,6.923666000366211
1701097241413909800,14.35390966796875,-5.765120506286621,5.406083583831787,7.34182071685791
1701097241430911200,14.3709111328125,-5.3268513679504395,5.4468584060668945,7.970861434936523
1701097241447890400,14.387890380859375,-4.66847038269043,5.375300407409668,8.89605712890625
1701097241464891000,14.404890869140624,-4.156909465789795,5.359540939331055,9.460073471069336
1701097241481880800,14.421880859375,-4.149574279785156,5.343714714050293,9.528141021728516
1701097241498870800,14.438870849609375,-4.219065189361572,5.197908401489258,9.487119674682617
1701097241515860500,14.455860595703125,-4.4430108070373535,4.349332809448242,9.766658782958984
1701097241532850700,14.4728505859375,-4.159698009490967,3.511585235595703,9.416505813598633
1701097241549840600,14.489840576171876,-3.416538715362549,2.7484536170959473,8.883598327636719
1701097241566830800,14.506830810546875,-2.4523446559906006,1.6215996742248535,8.947356224060059
1701097241583810000,14.52381005859375,-1.3554487228393555,0.5978612899780273,9.277713775634766
1701097241600810500,14.540810546875,-0.5230958461761475,0.13137197494506836,9.263436317443848
1701097241617800700,14.55780078125,-0.12239992618560791,0.18044614791870117,8.703165054321289
1701097241634788600,14.57478857421875,-0.29669034481048584,0.3195347785949707,7.6727294921875
1701097241651783000,14.591782958984375,-0.3571528196334839,0.11293888092041016,6.834423542022705
1701097241668770600,14.6087705078125,-0.13285481929779053,-0.5315656661987305,6.184349060058594
1701097241685760500,14.625760498046875,0.44318902492523193,-1.3222217559814453,5.342219352722168
1701097241702750700,14.642750732421876,1.0895965099334717,-1.7078766822814941,3.947782516479492
1701097241719740400,14.659740478515625,1.7064664363861084,-1.709913730621338,2.2737789154052734
1701097241736730400,14.67673046875,1.8737865686416626,-1.2772245407104492,0.6801090240478516
1701097241753720600,14.693720458984375,1.6511062383651733,-0.7156877517700195,-0.5348844528198242
1701097241770710500,14.71071044921875,1.2424362897872925,-0.33234596252441406,-1.0729846954345703
1701097241787700000,14.727699951171875,0.9261239767074585,-0.1579446792602539,-1.2784104347229004
1701097241804691000,14.74469091796875,0.9664311408996582,-0.2753334045410156,-1.413846492767334
1701097241821680400,14.761680419921875,1.367207407951355,-0.5824551582336426,-1.7542390823364258
1701097241838667500,14.77866748046875,1.8927115201950073,-1.0557975769042969,-2.1530914306640625
1701097241855663000,14.7956630859375,2.4725537300109863,-1.6495723724365234,-2.544832706451416
1701097241872634000,14.812634033203125,2.6654233932495117,-2.202775716781616,-2.9544835090637207
1701097241889644800,14.829644775390625,2.781665802001953,-2.4838716983795166,-3.2182765007019043
1701097241906630400,14.84663037109375,2.9710357189178467,-2.8918399810791016,-3.449382781982422
1701097241923620600,14.86362060546875,3.73305082321167,-3.2905097007751465,-3.582335948944092
1701097241940611800,14.88061181640625,4.842962741851807,-3.856560230255127,-3.5509586334228516
1701097241957601000,14.89760107421875,5.74237060546875,-4.4214043617248535,-3.5993828773498535
1701097241974590500,14.914590576171875,6.384838581085205,-4.957590103149414,-3.812267780303955
1701097241991582000,14.93158203125,6.37486457824707,-5.4965362548828125,-3.6829614639282227
1701097242008568600,14.948568603515625,6.159252166748047,-6.019036293029785,-3.2183423042297363
1701097242025560000,14.96556005859375,6.125699996948242,-6.5865159034729,-2.5089540481567383
1701097242042550300,14.98255029296875,6.304615497589111,-6.550941467285156,-2.313889980316162
1701097242059540200,14.999540283203125,6.436352252960205,-6.192131519317627,-1.6685166358947754
1701097242076533000,15.016532958984374,5.69915771484375,-6.385506629943848,-0.7094955444335938
1701097242093517800,15.033517822265624,4.525018692016602,-6.666338920593262,-0.1649303436279297
1701097242110512400,15.050512451171874,3.0419955253601074,-6.820145130157471,-0.44010066986083984
1701097242127500300,15.067500244140625,2.129430055618286,-6.346914291381836,-1.4609003067016602
1701097242144490200,15.084490234375,1.594314694404602,-5.55744743347168,-1.6779603958129883
1701097242161477400,15.101477294921875,1.3076097965240479,-4.654384613037109,-0.5555353164672852
1701097242178472700,15.11847265625,0.5861856937408447,-4.2822585105896,0.8538494110107422
1701097242195460000,15.135460205078125,0.023744165897369385,-3.9258840084075928,1.2999210357666016
1701097242212447200,15.152447265625,-0.35394567251205444,-3.7929413318634033,1.2436542510986328
1701097242229454600,15.16945458984375,-0.4863790273666382,-3.6359405517578125,1.3118658065795898
1701097242246430200,15.18643017578125,-0.7584848999977112,-2.8413186073303223,1.3646936416625977
1701097242263420400,15.20342041015625,-1.1833750009536743,-1.579817295074463,1.6927804946899414
1701097242280399600,15.220399658203124,-1.7112468481063843,-0.222808837890625,2.244635581970215
1701097242297389800,15.237389892578125,-2.5459437370300293,0.9870095252990723,2.355020523071289
1701097242314390000,15.25439013671875,-3.2535903453826904,1.798922061920166,2.4007129669189453
1701097242331379700,15.271379638671876,-3.7707347869873047,2.2186639308929443,2.667283058166504
1701097242348379100,15.288379150390625,-3.9411306381225586,2.35595703125,2.997422695159912
1701097242365360000,15.305360107421874,-4.1001386642456055,2.5601518154144287,3.653970718383789
1701097242382349800,15.322349853515625,-4.527892112731934,2.8917763233184814,4.354321479797363
1701097242399340000,15.339340087890625,-5.140071868896484,3.297126531600952,4.640321731567383
1701097242416330200,15.356330322265626,-5.857630729675293,3.436859130859375,5.018366813659668
1701097242433321700,15.37332177734375,-6.413919448852539,3.5151920318603516,5.397242546081543
1701097242450308000,15.39030810546875,-6.565035820007324,3.7261595726013184,5.322633743286133
1701097242467299800,15.4072998046875,-6.019887924194336,3.6909196376800537,5.770481109619141
1701097242484290000,15.4242900390625,-5.291135787963867,3.3079299926757812,7.3274431228637695
1701097242501280000,15.441280029296875,-5.196739196777344,3.415238857269287,8.171823501586914
1701097242518259500,15.458259521484376,-5.693307876586914,3.194690227508545,8.881874084472656
1701097242535260000,15.475260009765625,-6.669663429260254,3.101247787475586,9.738260269165039
1701097242552250000,15.49225,-7.4846649169921875,2.8498640060424805,10.502989768981934
1701097242569239600,15.509239501953125,-7.611884117126465,2.0802502632141113,11.180867195129395
1701097242586229800,15.526229736328125,-6.95679235458374,1.0100979804992676,11.72427749633789
1701097242603217400,15.543217529296875,-5.516929626464844,-0.22113418579101562,12.080656051635742
1701097242620201500,15.560201416015625,-3.7855618000030518,-1.1297492980957031,12.153282165527344
1701097242637190100,15.577190185546876,-2.336280345916748,-1.3873686790466309,11.839073181152344
1701097242654187300,15.594187255859374,-1.3894411325454712,-0.6434268951416016,10.594232559204102
1701097242671172900,15.6111728515625,-0.7246853113174438,0.029838085174560547,9.152721405029297
1701097242688168700,15.628168701171875,-0.08392000198364258,-0.0029020309448242188,8.06376838684082
1701097242705152500,15.645152587890625,0.4866294860839844,-0.9297552108764648,7.2345805168151855
1701097242722145300,15.662145263671874,0.8907040357589722,-2.020179271697998,6.147116661071777
1701097242739135000,15.679135009765625,1.367321491241455,-2.8770833015441895,4.843142986297607
1701097242756125700,15.696125732421875,2.0444164276123047,-2.8252205848693848,2.9595961570739746
1701097242773115000,15.713114990234375,2.4171581268310547,-2.3910255432128906,1.5583820343017578
1701097242790108700,15.730108642578125,2.620303153991699,-1.7816157341003418,0.5077066421508789
1701097242807093200,15.74709326171875,2.559072256088257,-1.3469700813293457,-0.3618736267089844
1701097242824082000,15.76408203125,2.4320828914642334,-1.1838064193725586,-0.9482674598693848
1701097242841073700,15.78107373046875,2.6167707443237305,-1.2546794414520264,-1.4765868186950684
1701097242858062000,15.79806201171875,3.0683693885803223,-1.5215189456939697,-1.9406213760375977
1701097242875048400,15.81504833984375,3.539963960647583,-1.987140417098999,-2.367891311645508
1701097242892041200,15.832041259765624,4.073105335235596,-2.443557024002075,-2.7738046646118164
1701097242909037000,15.849037109375,4.631646156311035,-2.7946877479553223,-3.110461711883545
1701097242926032100,15.8660322265625,4.953226089477539,-3.2208075523376465,-3.3789992332458496
1701097242943019500,15.88301953125,5.212175369262695,-3.7324390411376953,-3.5346479415893555
1701097242960009700,15.900009765625,5.423192501068115,-4.182940483093262,-3.653273582458496
1701097242976989200,15.9169892578125,5.464136123657227,-4.661576747894287,-3.4675040245056152
1701097242993987000,15.933987060546874,5.424472808837891,-4.961149215698242,-3.3577256202697754
1701097243010996000,15.950995849609376,5.221996307373047,-5.284449100494385,-3.318521499633789
1701097243027969500,15.967969482421875,5.0080108642578125,-5.769432544708252,-3.2828850746154785
1701097243044959700,15.984959716796874,4.935895919799805,-6.5347771644592285,-3.330533027648926
1701097243061936600,16.0019365234375,5.025173664093018,-7.10090970993042,-3.583604335784912
1701097243078933500,16.01893359375,5.220344543457031,-7.506509780883789,-3.8106517791748047
1701097243095918800,16.0359189453125,4.961599349975586,-7.97558069229126,-3.6004981994628906
1701097243112916700,16.052916748046876,4.260782241821289,-8.217201232910156,-3.374037265777588
1701097243129912000,16.069912109375,3.0390801429748535,-8.049271583557129,-3.221296787261963
1701097243146899500,16.0868994140625,1.64093017578125,-7.9360809326171875,-3.19539737701416
1701097243163889700,16.1038896484375,0.7282193899154663,-7.104101657867432,-3.5500411987304688
1701097243180879600,16.120879638671877,0.41551709175109863,-6.347033977508545,-2.792335033416748
1701097243197869600,16.13786962890625,0.9722362160682678,-5.867645263671875,-0.3269157409667969
1701097243214859800,16.15485986328125,1.0136288404464722,-5.508879661560059,2.164759635925293
1701097243231849500,16.171849365234376,0.2831082344055176,-5.107694625854492,3.5578155517578125
1701097243248839400,16.18883935546875,-0.8515275716781616,-4.594910621643066,3.5658798217773438
1701097243265829400,16.205829345703126,-1.9711616039276123,-3.743929147720337,2.908219337463379
1701097243282819600,16.222819580078124,-2.5185279846191406,-2.4189727306365967,2.408217430114746
1701097243299806700,16.239806640625,-2.92043399810791,-0.9602446556091309,2.39626407623291
1701097243316797700,16.256797607421873,-3.2166647911071777,0.3722224235534668,3.007780075073242
1701097243333797000,16.273797119140625,-3.5814638137817383,1.527622938156128,3.8134231567382812
1701097243350780700,16.29078076171875,-3.811837673187256,2.35015606880188,4.37989616394043
1701097243367766500,16.3077666015625,-3.9615931510925293,3.0261335372924805,4.19853401184082
1701097243384759300,16.32475927734375,-4.108695030212402,3.194779396057129,4.060459136962891
1701097243401749500,16.34174951171875,-4.326849460601807,3.4190685749053955,4.146528720855713
1701097243418739500,16.358739501953124,-4.354615211486816,3.6696741580963135,4.645265579223633
1701097243435729400,16.3757294921875,-4.450881004333496,4.006508827209473,5.279384613037109
1701097243452716800,16.392716796875,-4.577983856201172,4.360413551330566,5.930098056793213
1701097243469712000,16.4097119140625,-4.833800792694092,4.690157890319824,6.352275371551514
1701097243486699500,16.426699462890625,-5.413431167602539,5.077309608459473,6.1995320320129395
1701097243503689200,16.443689208984374,-5.827415943145752,5.1734938621521,6.228627681732178
1701097243520679400,16.460679443359375,-5.753936767578125,5.112098693847656,6.788448333740234
1701097243537669400,16.47766943359375,-5.386676788330078,4.997817039489746,7.6305832862854
1701097243554659300,16.494659423828125,-5.054679870605469,4.840426445007324,8.107447624206543
1701097243571649000,16.51164892578125,-4.8225812911987305,4.580775260925293,8.407573699951172
1701097243588626700,16.528626708984376,-4.482492446899414,4.041699409484863,8.733331680297852
1701097243605631700,16.5456318359375,-3.7281947135925293,3.3266310691833496,8.805305480957031
1701097243622619100,16.562619140625,-2.33501935005188,2.4473495483398438,9.104036331176758
1701097243639609300,16.579609375,-0.9095458388328552,1.5619845390319824,9.502866744995117
1701097243656599300,16.596599365234376,0.344435453414917,0.9224228858947754,9.772387504577637
1701097243673589200,16.61358935546875,1.3743646144866943,1.0989818572998047,9.549910545349121
1701097243690579500,16.630579345703126,1.5995553731918335,1.391143798828125,8.909051895141602
1701097243707569400,16.6475693359375,1.0460407733917236,1.2593269348144531,8.156881332397461
1701097243724559400,16.664559326171876,0.5387187004089355,0.455291748046875,7.516811370849609
1701097243741549300,16.68154931640625,0.6823210716247559,-0.5232396125793457,6.782635688781738
1701097243758535400,16.698535400390625,1.2311583757400513,-1.6117262840270996,6.343506813049316
1701097243775529500,16.715529541015623,1.524865984916687,-1.7934536933898926,4.661698341369629
1701097243792519400,16.73251953125,1.419928789138794,-1.5452117919921875,2.6620025634765625
1701097243809509000,16.749509033203125,1.1521124839782715,-1.1535468101501465,1.156050682067871
1701097243826496800,16.766496826171874,0.7687783241271973,-0.9481945037841797,0.19984149932861328
1701097243843491600,16.78349169921875,0.5738064050674438,-0.930121898651123,-0.5749130249023438
1701097243860479000,16.80047900390625,0.6134757995605469,-1.0846455097198486,-1.3070530891418457
1701097243877469200,16.81746923828125,0.8962188959121704,-1.322826862335205,-2.108503818511963
1701097243894459400,16.83445947265625,1.2713401317596436,-1.6808061599731445,-2.8482189178466797
1701097243911449000,16.851448974609376,1.7944128513336182,-2.0539214611053467,-3.4088268280029297
1701097243928439300,16.868439208984373,2.1838769912719727,-2.4802989959716797,-3.737760066986084
1701097243945429200,16.88542919921875,2.8588480949401855,-2.940737247467041,-3.8127236366271973
1701097243962419200,16.902419189453123,3.5065369606018066,-3.369584083557129,-4.0277934074401855
1701097243979406800,16.91940673828125,3.657264232635498,-3.791609048843384,-4.138463497161865
1701097243996402000,16.93640185546875,3.4665780067443848,-4.091973781585693,-4.490846157073975
1701097244013389300,16.953389404296875,3.3638439178466797,-4.340522766113281,-4.632481098175049
1701097244030379000,16.97037890625,3.2737553119659424,-4.7587761878967285,-4.386953830718994
1701097244047358700,16.987358642578126,3.3406736850738525,-5.325652599334717,-3.948491096496582
1701097244064359400,17.004359375,3.838627815246582,-6.055603981018066,-3.3668575286865234
1701097244081349000,17.02134912109375,4.444552421569824,-6.7813897132873535,-3.0400304794311523
1701097244098351000,17.03835107421875,4.915980339050293,-7.583009719848633,-2.723600387573242
1701097244115329300,17.055329345703125,5.063488960266113,-7.914109706878662,-2.5006308555603027
1701097244132319200,17.0723193359375,4.654040336608887,-7.887669086456299,-2.170228958129883
1701097244149308400,17.089308349609375,3.7723026275634766,-8.147918701171875,-1.0249109268188477
1701097244166299400,17.10629931640625,2.6222620010375977,-8.044031143188477,-0.3112907409667969
1701097244183289300,17.123289306640626,1.6446278095245361,-7.775953769683838,-0.44506072998046875
1701097244200279300,17.140279296875,1.6424025297164917,-7.181234359741211,-1.057016372680664
1701097244217269200,17.157269287109376,2.1891350746154785,-6.2628302574157715,-0.6080417633056641
1701097244234259200,17.17425927734375,1.980757474899292,-5.632089614868164,1.0592985153198242
1701097244251249200,17.191249267578126,1.0079606771469116,-5.2818145751953125,3.2102041244506836
1701097244268239400,17.2082392578125,-0.24122688174247742,-4.504423141479492,4.198836326599121
1701097244285229000,17.22522900390625,-1.691091537475586,-3.6400537490844727,3.790782928466797
1701097244302232000,17.242232177734376,-2.1804401874542236,-2.410681962966919,2.5490665435791016
1701097244319209000,17.259208984375,-2.0731537342071533,-1.1792628765106201,1.6205873489379883
1701097244336199200,17.27619921875,-1.4447593688964844,0.08725690841674805,1.3572359085083008
1701097244353189000,17.293189208984376,-1.1663234233856201,1.2559151649475098,1.760136604309082
1701097244370179000,17.310178955078126,-1.424370527267456,2.4134535789489746,2.062617301940918
1701097244387169000,17.3271689453125,-2.1063878536224365,3.1468284130096436,2.279938220977783
1701097244404159200,17.3441591796875,-3.022416353225708,3.50408673286438,2.5421433448791504
1701097244421146000,17.36114599609375,-3.527768135070801,3.7038040161132812,3.2152528762817383
1701097244438131200,17.378131103515624,-3.8714137077331543,4.069610595703125,3.379594326019287
1701097244455129300,17.39512939453125,-4.263815879821777,4.216723442077637,3.69612455368042
1701097244472119000,17.412119140625,-4.35107946395874,4.472195625305176,4.039944648742676
1701097244489107000,17.42910693359375,-3.9135708808898926,4.639573574066162,4.594539165496826
1701097244506101500,17.4461015625,-3.5486900806427,4.8925323486328125,5.365309238433838
1701097244523089200,17.463089111328124,-3.9462814331054688,5.023944854736328,6.116299629211426
1701097244540079000,17.4800791015625,-4.573198318481445,5.076102256774902,6.992245197296143
1701097244557069300,17.4970693359375,-4.598738670349121,5.735522270202637,7.3169355392456055
1701097244574056400,17.514056396484374,-4.236605167388916,5.201793670654297,7.406105995178223
1701097244591041300,17.531041259765626,-3.718226432800293,5.377767562866211,8.447713851928711
1701097244608033000,17.548032958984376,-2.7575931549072266,4.873631477355957,9.227594375610352
1701097244625025000,17.56502490234375,-2.4085559844970703,4.451542854309082,10.119614601135254
1701097244642011600,17.58201171875,-2.8496572971343994,3.873239040374756,10.402679443359375
1701097244658997800,17.598997802734374,-3.2027111053466797,2.955986976623535,10.398260116577148
1701097244675997000,17.615996826171877,-3.037407398223877,2.1076297760009766,10.474906921386719
1701097244692979500,17.6329794921875,-2.2826786041259766,1.7600069046020508,10.572765350341797
1701097244709969700,17.6499697265625,-1.5879147052764893,1.9976496696472168,10.297849655151367
1701097244726964700,17.66696484375,-1.3337894678115845,2.403292655944824,9.733465194702148
1701097244743954000,17.683953857421876,-1.3499294519424438,2.147340774536133,8.836912155151367
1701097244760943000,17.700943115234374,-1.3998560905456543,0.7210445404052734,7.948511600494385
1701097244777939700,17.717939697265624,-0.7266746759414673,-0.9167966842651367,7.283775329589844
1701097244794929000,17.734928955078125,0.20915094017982483,-2.061190605163574,6.4472808837890625
1701097244811919000,17.751919189453126,0.9245408773422241,-2.62461519241333,5.242823600769043
1701097244828899300,17.7688994140625,1.3302446603775024,-2.6192779541015625,3.8283729553222656
1701097244845896400,17.785896484375,1.0747065544128418,-2.3450965881347656,2.4053382873535156
1701097244862891800,17.802891845703126,0.7726372480392456,-1.9927783012390137,1.1901359558105469
1701097244879879200,17.819879150390626,0.47781652212142944,-1.7774593830108643,0.24412918090820312
1701097244896858400,17.8368583984375,0.5933025479316711,-1.7204108238220215,-0.3002796173095703
1701097244913858000,17.853858154296876,1.0758061408996582,-1.8411436080932617,-0.8555030822753906
1701097244930850300,17.870850341796874,1.6844263076782227,-2.294839859008789,-1.4082303047180176
1701097244947839200,17.887839111328127,2.4585213661193848,-2.835845470428467,-1.9132671356201172
1701097244964829200,17.9048291015625,3.2235608100891113,-3.3035645484924316,-2.251293182373047
1701097244981819100,17.921819091796873,3.9139652252197266,-3.884713649749756,-2.3978281021118164
1701097244998809000,17.93880908203125,4.388950347900391,-4.261912822723389,-2.8143038749694824
1701097245015799300,17.95579931640625,4.818873405456543,-4.719266891479492,-3.1339077949523926
1701097245032791800,17.972791748046873,5.133608818054199,-5.167224884033203,-3.495783805847168
1701097245049776400,17.9897763671875,5.253172874450684,-5.367076873779297,-3.9296131134033203
1701097245066769000,18.006768798828126,5.542896270751953,-5.614742279052734,-4.119189262390137
1701097245083748600,18.02374853515625,5.693251132965088,-6.040369033813477,-4.10693359375
1701097245100749000,18.0407490234375,5.5613203048706055,-6.516592025756836,-4.056692600250244
1701097245117739300,18.0577392578125,5.6720476150512695,-6.837996959686279,-4.001938819885254
1701097245134729200,18.074729248046875,5.730536937713623,-7.194594860076904,-3.680459976196289
1701097245151719200,18.09171923828125,5.23482608795166,-7.394693851470947,-3.1565799713134766
1701097245168694000,18.108694091796874,4.03532075881958,-7.710841655731201,-2.633695125579834
1701097245185699000,18.125698974609374,2.89827299118042,-7.642338752746582,-2.2410311698913574
1701097245202689000,18.14268896484375,1.8262276649475098,-7.8472795486450195,-1.8458337783813477
1701097245219679200,18.15967919921875,1.038404941558838,-7.861693859100342,-1.7306671142578125
1701097245236658400,18.176658447265623,0.6760880947113037,-7.511514663696289,-1.6299009323120117
1701097245253659100,18.1936591796875,0.5474194884300232,-6.911459922790527,-0.9663295745849609
1701097245270648300,18.2106484375,0.49184882640838623,-6.235354900360107,0.02850055694580078
1701097245287638000,18.227637939453125,0.27955198287963867,-5.838016986846924,1.412034034729004
1701097245304631300,18.24463134765625,-0.15698879957199097,-5.6769208908081055,2.748443603515625
1701097245321619000,18.261618896484375,-0.6367446780204773,-5.310731410980225,3.1584911346435547
1701097245338609200,18.278609130859376,-0.9286844730377197,-4.588344573974609,2.667165756225586
1701097245355599000,18.29559912109375,-0.9609782695770264,-3.5304813385009766,2.2032947540283203
1701097245372587000,18.3125869140625,-0.7885233163833618,-2.0040054321289062,1.9292850494384766
1701097245389581300,18.329581298828124,-0.7815369367599487,-0.4707059860229492,2.0319366455078125
1701097245406569000,18.34656884765625,-1.1067793369293213,0.7350649833679199,2.4056386947631836
1701097245423559400,18.363559326171874,-1.5519832372665405,1.681060552597046,2.9434452056884766
1701097245440549000,18.380549072265627,-2.025510787963867,2.3629555702209473,3.3029427528381348
1701097245457539000,18.3975390625,-2.3019726276397705,2.8233892917633057,3.5977349281311035
1701097245474537000,18.414536865234375,-2.5342206954956055,3.2131731510162354,4.035658836364746
1701097245491508700,18.4315087890625,-2.8797121047973633,3.605682134628296,5.079828262329102
1701097245508509200,18.44850927734375,-3.480410099029541,4.138341903686523,6.374487400054932
1701097245525499100,18.4654990234375,-4.008059024810791,5.023967266082764,7.146803855895996
1701097245542489300,18.4824892578125,-4.704846382141113,5.7639617919921875,7.785419464111328
1701097245559482400,18.499482421875,-5.062044143676758,6.245732307434082,8.423532485961914
1701097245576466000,18.5164658203125,-4.852100372314453,6.670616626739502,8.737781524658203
1701097245593459200,18.533459228515625,-4.105503559112549,6.711655616760254,9.139769554138184
1701097245610449200,18.55044921875,-3.1360654830932617,6.57194709777832,9.69527816772461
1701097245627439400,18.567439453125,-1.9384021759033203,6.7212910652160645,10.17420768737793
1701097245644429300,18.58442919921875,-1.1844762563705444,6.832276821136475,10.368297576904297
1701097245661419300,18.601419189453125,-0.8182174563407898,6.335615634918213,10.596529006958008
1701097245678409200,18.6184091796875,-0.9596018195152283,5.44943904876709,10.58448600769043
1701097245695399200,18.635399169921875,-1.0945181846618652,4.709550380706787,10.295585632324219
1701097245712390400,18.652390380859377,-1.1680748462677002,3.7918648719787598,10.448713302612305
1701097245729361000,18.66936083984375,-0.9994352459907532,2.9029765129089355,10.815486907958984
1701097245746369300,18.686369384765626,-0.7184764742851257,2.09487247467041,11.104776382446289
1701097245763359200,18.703359130859376,-0.7054754495620728,2.0000386238098145,10.435577392578125
1701097245780349000,18.720348876953125,-1.0836132764816284,1.9576382637023926,9.427070617675781
1701097245797336600,18.737336669921874,-1.2082713842391968,1.373715877532959,8.66585922241211
1701097245814332000,18.754331787109376,-0.8590978384017944,0.0650949478149414,8.281961441040039
1701097245831316200,18.771316162109375,-0.18622219562530518,-1.5563974380493164,7.938192844390869
1701097245848309200,18.788309326171873,0.4923620820045471,-2.9609732627868652,6.976832389831543
1701097245865299200,18.80529931640625,1.1611552238464355,-3.6177406311035156,5.367536544799805
1701097245882289400,18.822289306640624,1.6319634914398193,-3.7207207679748535,3.5226993560791016
1701097245899279400,18.839279296875,1.6374740600585938,-3.355264186859131,1.7372684478759766
1701097245916269600,18.85626953125,1.3468323945999146,-2.891268253326416,0.38491249084472656
1701097245933259500,18.873259521484375,1.0303332805633545,-2.58133602142334,-0.3943166732788086
1701097245950249500,18.89024951171875,1.0415735244750977,-2.433994770050049,-0.9150094985961914
1701097245967239200,18.9072392578125,1.3068835735321045,-2.6160717010498047,-1.1442546844482422
1701097245984229000,18.92422900390625,1.9265351295471191,-2.736651659011841,-1.4158921241760254
1701097246001219300,18.94121923828125,2.490622043609619,-3.085162878036499,-1.6628332138061523
1701097246018198800,18.95819873046875,2.878225088119507,-3.5514073371887207,-1.8976993560791016
1701097246035199500,18.975199462890625,3.079436779022217,-4.079983711242676,-2.163968086242676
1701097246052189200,18.992189208984374,3.2939939498901367,-4.489368915557861,-2.4430060386657715
1701097246069179100,19.00917919921875,3.658027172088623,-5.070579528808594,-2.545860767364502
1701097246086180000,19.02618017578125,4.215966701507568,-5.260207176208496,-2.945197582244873
1701097246103159600,19.04315966796875,4.817098617553711,-5.4491190910339355,-3.216136932373047
1701097246120137000,19.060136962890624,5.354641914367676,-5.740893363952637,-3.4596433639526367
1701097246137129200,19.077129150390626,5.630094051361084,-6.129298210144043,-3.7301135063171387
1701097246154129000,19.09412890625,5.770727157592773,-6.645630836486816,-4.161350250244141
1701097246171110100,19.111110107421876,6.039653778076172,-7.179043292999268,-4.642340660095215
1701097246188100900,19.128100830078125,6.392209053039551,-7.449664115905762,-5.085911750793457
1701097246205092600,19.145092529296875,6.523399353027344,-7.846930503845215,-4.713138580322266
1701097246222084400,19.16208447265625,6.073775291442871,-7.9455437660217285,-3.8341965675354004
1701097246239069400,19.1790693359375,4.850978851318359,-8.000808715820312,-2.4261879920959473
1701097246256057000,19.19605712890625,3.2106785774230957,-7.9584245681762695,-1.0577449798583984
1701097246273056500,19.213056396484376,1.5718005895614624,-7.923457622528076,-0.6668577194213867
1701097246290049300,19.23004931640625,1.0115132331848145,-7.3670220375061035,-1.1392507553100586
1701097246307032000,19.247031982421873,1.4474475383758545,-6.73215913772583,-0.9334735870361328
1701097246324020700,19.264020751953126,1.5699825286865234,-6.358870506286621,0.38056087493896484
1701097246341013800,19.281013671875,1.5370521545410156,-5.930485725402832,2.1035022735595703
1701097246358002700,19.298002685546876,0.8343656659126282,-5.647732734680176,3.3743104934692383
1701097246374988300,19.31498828125,-0.32670414447784424,-5.129659652709961,3.1963634490966797
1701097246391979000,19.33197900390625,-1.3722784519195557,-4.398350715637207,2.4131040573120117
1701097246408981800,19.348981689453126,-1.8306177854537964,-3.1985812187194824,1.7903480529785156
1701097246425969400,19.365969482421875,-1.9495970010757446,-1.7908430099487305,1.8123664855957031
1701097246442959600,19.382959716796876,-1.817650318145752,-0.4185786247253418,2.604212760925293
1701097246459949600,19.399949462890625,-1.9631237983703613,0.8564743995666504,3.4696197509765625
1701097246476929000,19.416928955078124,-2.3569419384002686,1.904047966003418,3.8387279510498047
1701097246493927000,19.433927001953126,-2.8414359092712402,2.482428789138794,3.68717098236084
1701097246510922000,19.450921875,-3.022782325744629,2.736636161804199,3.390817165374756
1701097246527909600,19.46790966796875,-2.878401756286621,2.953263998031616,3.31796932220459
1701097246544899600,19.484899658203126,-2.469588041305542,3.234666109085083,3.8334927558898926
1701097246561889500,19.5018896484375,-2.12096905708313,3.705817461013794,4.837114334106445
1701097246578879500,19.51887939453125,-2.0708208084106445,4.273036003112793,5.716769695281982
1701097246595869400,19.535869384765626,-2.244821786880493,4.65809440612793,6.448050022125244
1701097246612859400,19.552859375,-2.305004119873047,5.0915069580078125,7.108969211578369
1701097246629848000,19.56984814453125,-2.3212480545043945,5.431090354919434,7.836012840270996
1701097246646838500,19.586838623046877,-1.974090814590454,5.70838737487793,8.619394302368164
1701097246663832000,19.60383203125,-1.2164955139160156,5.990166664123535,9.639141082763672
1701097246680819700,19.62081982421875,-0.4285714626312256,6.444363594055176,10.589234352111816
1701097246697809700,19.6378095703125,-0.05112355947494507,6.579904556274414,11.686352729797363
1701097246714799600,19.654799560546873,-0.07755863666534424,6.195195198059082,12.709128379821777
1701097246731789300,19.671789306640626,-0.795466423034668,5.762459754943848,12.977217674255371
1701097246748792600,19.68879248046875,-1.6000194549560547,4.893798828125,12.958378791809082
1701097246765769500,19.70576953125,-1.9106165170669556,4.072891712188721,12.595308303833008
1701097246782759700,19.722759765625,-1.3022335767745972,3.518853187561035,12.09076976776123
1701097246799747000,19.7397470703125,-0.7265183925628662,3.2345571517944336,11.280611038208008
1701097246816755200,19.756755126953124,-0.7998018264770508,3.042753219604492,9.998862266540527
1701097246833725200,19.77372509765625,-1.3344250917434692,2.236349105834961,9.094590187072754
1701097246850724000,19.79072412109375,-1.6193733215332031,0.6954803466796875,8.920759201049805
1701097246867709700,19.807709716796875,-1.5634334087371826,-0.9376773834228516,8.917490005493164
1701097246884700000,19.824699951171876,-0.9961415529251099,-2.0599145889282227,8.120527267456055
1701097246901689600,19.841689697265625,-0.3364868462085724,-2.7186074256896973,6.609638690948486
1701097246918679600,19.858679443359375,0.4317277669906616,-2.833901882171631,4.82297420501709
1701097246935669800,19.875669677734376,1.4551461935043335,-2.664764404296875,3.0998764038085938
1701097246952657200,19.8926572265625,1.9162099361419678,-2.529022216796875,1.8030471801757812
1701097246969652200,19.90965234375,2.2376394271850586,-2.6090455055236816,0.8505611419677734
1701097246986640000,19.926639892578127,2.472829818725586,-2.834273338317871,-0.1802206039428711
1701097247003629800,19.9436298828125,2.6413040161132812,-3.140368938446045,-1.1568288803100586
1701097247020619800,19.960619873046873,2.9664599895477295,-3.437748908996582,-2.1229710578918457
1701097247037607700,19.977607666015626,3.311175584793091,-3.8223280906677246,-2.815640926361084
1701097247054599200,19.99459912109375,3.6192946434020996,-4.147410869598389,-3.4076576232910156
1701097247071592400,20.011592529296873,3.767042636871338,-4.383048057556152,-4.010997772216797
1701097247088579800,20.028579833984374,4.071223258972168,-4.732180595397949,-4.284140110015869
1701097247105569800,20.04556982421875,4.374151229858398,-4.881701469421387,-4.558630466461182
1701097247122560000,20.06256005859375,4.483099937438965,-5.047089099884033,-4.732037544250488
1701097247139534800,20.079534912109374,4.612006664276123,-5.1952223777771,-4.944376468658447
1701097247156539600,20.09653955078125,4.623749732971191,-5.442347049713135,-5.029303550720215
1701097247173529900,20.11352978515625,4.729726791381836,-5.661482810974121,-5.071189880371094
1701097247190520000,20.13052001953125,4.846789360046387,-5.9465484619140625,-5.037522315979004
1701097247207509800,20.147509765625,5.098435401916504,-6.167757034301758,-4.834197998046875
1701097247224501800,20.164501708984375,5.487164497375488,-6.474876403808594,-4.01532506942749
1701097247241488100,20.181488037109375,5.372164249420166,-6.761343955993652,-3.2139296531677246
1701097247258479900,20.19847998046875,4.513533592224121,-7.236062049865723,-2.8205795288085938
1701097247275469800,20.2154697265625,3.58315110206604,-7.652495384216309,-2.4478583335876465
1701097247292458800,20.232458740234375,2.6128175258636475,-7.977803707122803,-2.1512904167175293
1701097247309440500,20.2494404296875,1.7722257375717163,-8.031401634216309,-1.886232852935791
1701097247326440000,20.26643994140625,1.432006597518921,-7.5157365798950195,-1.239180564880371
1701097247343430000,20.283429931640626,1.4681663513183594,-6.72482442855835,-0.10382938385009766
1701097247360408600,20.30040869140625,1.279407024383545,-6.0012526512146,0.9283638000488281
1701097247377410000,20.31741015625,0.8232539892196655,-5.760932922363281,1.652052879333496
1701097247394389500,20.334389404296875,0.5119611024856567,-5.73073148727417,1.8986225128173828
1701097247411390000,20.351389892578126,0.623499870300293,-5.354157447814941,1.8654022216796875
1701097247428380200,20.368380126953124,0.6947790384292603,-4.4991326332092285,1.5692005157470703
1701097247445369900,20.385369873046876,0.4874398410320282,-3.1436147689819336,1.6009340286254883
1701097247462341000,20.402341064453125,-0.10371501743793488,-1.532883644104004,1.9078788757324219
1701097247479339800,20.41933984375,-1.1130163669586182,-0.011683464050292969,2.2814865112304688
1701097247496339000,20.4363388671875,-2.13848876953125,1.2568187713623047,2.7225403785705566
1701097247513331500,20.45333154296875,-3.1482861042022705,2.1546778678894043,3.0902915000915527
1701097247530320000,20.47031982421875,-3.7950026988983154,2.6740241050720215,3.2651596069335938
1701097247547299300,20.48729931640625,-4.0994391441345215,2.857649803161621,3.572091579437256
1701097247564297200,20.504297119140624,-4.3199872970581055,2.7368698120117188,4.225203514099121
1701097247581287400,20.521287353515625,-4.406859397888184,2.7229104042053223,5.188615322113037
1701097247598269400,20.53826953125,-4.237332344055176,3.0020790100097656,6.139465808868408
1701097247615270100,20.555270263671876,-4.265288829803467,3.3961987495422363,6.902903079986572
1701097247632260400,20.57226025390625,-4.198171138763428,3.7461929321289062,7.591087818145752
1701097247649250000,20.58925,-4.362058162689209,4.126572132110596,8.256412506103516
1701097247666239500,20.606239501953127,-4.4438958168029785,4.419398307800293,8.843719482421875
1701097247683220200,20.62322021484375,-4.097912788391113,4.533648490905762,9.445344924926758
1701097247700220200,20.64022021484375,-3.3902482986450195,4.625144958496094,9.981758117675781
1701097247717210000,20.657210205078126,-2.7535550594329834,4.707902431488037,10.34100341796875
1701097247734200300,20.674200439453124,-2.517526865005493,4.633795738220215,10.460821151733398
1701097247751190300,20.691190185546876,-2.8776164054870605,4.038218975067139,10.536766052246094
1701097247768180500,20.708180419921874,-3.098271369934082,3.5717687606811523,10.089254379272461
1701097247785170400,20.72517041015625,-3.0892701148986816,2.7575159072875977,9.70465087890625
1701097247802160000,20.74216015625,-2.6423702239990234,1.9663777351379395,9.363821029663086
1701097247819150300,20.759150390625,-1.629390001296997,1.2275171279907227,9.466459274291992
1701097247836140300,20.776140380859374,-0.7569780945777893,0.878178596496582,9.609758377075195
1701097247853130200,20.793130126953123,-0.5164898633956909,1.1180338859558105,9.107626914978027
1701097247870120400,20.810120361328124,-0.7722839117050171,1.2978734970092773,8.341865539550781
1701097247887110100,20.827110107421873,-1.0349419116973877,0.8980622291564941,7.71560525894165
1701097247904100400,20.844100341796874,-0.9274603128433228,-0.1719207763671875,7.229420185089111
1701097247921090300,20.86109033203125,-0.3327956795692444,-1.4345111846923828,6.789865970611572
1701097247938068200,20.878068115234374,0.326046884059906,-2.3462839126586914,6.085262775421143
1701097247955070500,20.895070556640626,0.6743018627166748,-2.5934324264526367,4.749411106109619
1701097247972062200,20.912062255859375,0.8677100539207458,-2.196540355682373,3.096774101257324
1701097247989050400,20.92905029296875,0.7605789303779602,-1.8294777870178223,1.7643957138061523
1701097248006040600,20.94604052734375,0.7403287887573242,-1.689934253692627,0.71734619140625
1701097248023030500,20.963030517578126,1.0085464715957642,-1.7841510772705078,-0.23051166534423828
1701097248040020500,20.9800205078125,1.7646749019622803,-1.9751038551330566,-1.4230294227600098
1701097248057000000,20.997,2.652141809463501,-2.2183008193969727,-2.4048123359680176
1701097248073997800,21.013997802734377,3.6499886512756348,-2.6729578971862793,-3.025116443634033
1701097248090984400,21.030984375,4.304970741271973,-2.8945608139038086,-4.031649589538574
1701097248107975700,21.0479755859375,4.77720308303833,-3.2384746074676514,-4.833899021148682
1701097248124962800,21.064962890625,4.603054046630859,-3.9255623817443848,-5.562900066375732
1701097248141958100,21.081958251953125,4.567889213562012,-4.251441955566406,-6.471566677093506
1701097248158941200,21.098941162109377,4.494633674621582,-4.357737064361572,-6.972344398498535
1701097248175937800,21.115937744140624,4.315059661865234,-4.351903438568115,-7.041816711425781
1701097248192924400,21.13292431640625,4.1780853271484375,-4.269686698913574,-6.574798583984375
1701097248209914000,21.1499140625,3.935832977294922,-4.381098747253418,-5.724862098693848
1701097248226898400,21.1668984375,3.8162221908569336,-4.535180568695068,-4.741741180419922
1701097248243894300,21.183894287109375,3.5824618339538574,-4.972228050231934,-3.709700584411621
1701097248260884200,21.20088427734375,3.443850040435791,-5.412345886230469,-2.8907699584960938
1701097248277872600,21.21787255859375,3.089498996734619,-5.647653102874756,-2.283000946044922
1701097248294870500,21.23487060546875,2.8219404220581055,-5.667153835296631,-1.692183017730713
1701097248311860700,21.25186083984375,2.5322160720825195,-5.973222255706787,-0.636805534362793
1701097248328850700,21.2688505859375,2.008467435836792,-6.290648937225342,-0.1900196075439453
1701097248345840600,21.285840576171875,1.4727367162704468,-6.562427043914795,-0.5224380493164062
1701097248362830800,21.302830810546876,1.3825268745422363,-6.454816818237305,-1.085622787475586
1701097248379820800,21.31982080078125,1.8542085886001587,-5.977467060089111,-0.9073972702026367
1701097248396795100,21.336795166015627,2.9205400943756104,-4.9994730949401855,0.28471946716308594
1701097248413799700,21.353799560546875,3.148848533630371,-4.467861175537109,2.624403953552246
1701097248430787800,21.370787841796876,2.797016143798828,-4.054410934448242,4.721837997436523
1701097248447785000,21.387784912109375,1.9157822132110596,-3.571986198425293,5.356525421142578
1701097248464770800,21.404770751953127,0.7478916049003601,-2.8210816383361816,4.793332099914551
1701097248481761000,21.421760986328124,-0.38335198163986206,-1.7485179901123047,4.06539249420166
1701097248498751000,21.4387509765625,-1.3933775424957275,-0.4672708511352539,3.744091033935547
1701097248515741000,21.455740966796874,-2.4769954681396484,0.7415609359741211,4.386788368225098
1701097248532728600,21.472728515625,-3.7214956283569336,2.4277825355529785,4.811033248901367
1701097248549723600,21.4897236328125,-5.041632652282715,3.7170073986053467,4.5908002853393555
1701097248566710800,21.506710693359373,-6.198986053466797,4.434345245361328,4.214837551116943
1701097248583701200,21.523701171875,-7.126965045928955,4.569565773010254,3.918445587158203
1701097248600691000,21.54069091796875,-7.47945499420166,4.670581817626953,3.4538888931274414
1701097248617681200,21.55768115234375,-7.411171913146973,4.514608860015869,3.2814559936523438
1701097248634671000,21.574671142578126,-6.383766174316406,4.425469398498535,3.2478365898132324
1701097248651661000,21.5916611328125,-4.894174575805664,4.496608734130859,3.243947982788086
1701097248668651300,21.6086513671875,-4.089046001434326,4.530301094055176,3.3002614974975586
1701097248685641200,21.62564111328125,-3.7640955448150635,4.7177839279174805,3.477787494659424
1701097248702631400,21.64263134765625,-3.9191908836364746,4.759395122528076,3.8658361434936523
1701097248719612200,21.659612060546873,-3.734341621398926,5.104212760925293,4.160399436950684
1701097248736610600,21.676610595703124,-2.996699571609497,4.890312671661377,5.129974365234375
1701097248753601300,21.693601318359374,-2.0979204177856445,4.610424518585205,6.202956676483154
1701097248770591200,21.71059130859375,-1.6917355060577393,4.1419148445129395,7.621799468994141
1701097248787581400,21.72758154296875,-2.393932580947876,3.9114646911621094,8.602922439575195
1701097248804568800,21.74456884765625,-3.9232337474823,3.3540282249450684,9.666193008422852
