time,seconds_elapsed,z,y,x
1700944950536601600,0.1116015625,-1.001734733581543,-1.018688678741455,-0.15839648246765137
1700944950553597400,0.128597412109375,-1.5405144691467285,-0.9492044448852539,0.2552534341812134
1700944950570590700,0.1455908203125,-1.7280035018920898,-1.076179027557373,0.04378700256347656
1700944950587581200,0.162581298828125,-1.1798715591430664,-1.1601653099060059,-0.35378551483154297
1700944950604576500,0.179576416015625,-0.31713104248046875,-1.5021796226501465,-0.5099447965621948
1700944950621572000,0.196572021484375,0.33032894134521484,-1.8333892822265625,-0.6766914129257202
1700944950638565600,0.213565673828125,-0.10538578033447266,-2.375450372695923,-0.9252870082855225
1700944950655554600,0.230554443359375,-1.2940773963928223,-3.201972723007202,-0.9786825180053711
1700944950672551200,0.24755126953125,-2.6891374588012695,-3.5506019592285156,-0.8322005271911621
1700944950689545500,0.26454541015625,-3.2227230072021484,-3.6411852836608887,-1.1553492546081543
1700944950706535400,0.281535400390625,-2.6132900714874268,-3.928973436355591,-2.109787940979004
1700944950723531000,0.298531005859375,-2.1971025466918945,-4.043095588684082,-2.5431456565856934
1700944950740525000,0.315525146484375,-2.7928411960601807,-4.083378791809082,-1.9014146327972412
1700944950757515800,0.332515869140625,-3.280892848968506,-2.917405843734741,-1.9063920974731445
1700944950774510300,0.34951025390625,-2.890294075012207,-2.9163835048675537,-1.5188560485839844
1700944950791505700,0.366505615234375,-1.574991226196289,-2.9966483116149902,-1.3758034706115723
1700944950808497400,0.383497314453125,0.8868188858032227,-2.9102182388305664,-1.8982748985290527
1700944950825488600,0.400488525390625,2.491637706756592,-1.8685786724090576,-2.516348361968994
1700944950842485000,0.417485107421875,1.1780753135681152,-0.8081629276275635,-2.1756553649902344
1700944950859471000,0.43447119140625,-0.8575987815856934,-0.23731613159179688,-0.991610050201416
1700944950876469800,0.4514697265625,-1.0831704139709473,0.17679882049560547,0.6124601364135742
1700944950893466000,0.468466064453125,1.4941096305847168,0.66094970703125,1.8841838836669922
1700944950910460200,0.485460205078125,4.288949489593506,1.8067286014556885,2.6077356338500977
1700944950927448300,0.5024482421875,3.4403882026672363,3.706089496612549,3.851076126098633
1700944950944446500,0.519446533203125,0.3491947650909424,5.51010799407959,5.197911262512207
1700944950961438500,0.5364384765625,-1.123884677886963,6.759670257568359,6.040759086608887
1700944950978434300,0.553434326171875,0.6696977615356445,7.328308582305908,7.142451286315918
1700944950995422500,0.57042236328125,3.5437753200531006,8.206369400024414,8.749059677124023
1700944951012419600,0.587419677734375,3.4290807247161865,9.21556568145752,9.91536808013916
1700944951029400600,0.604400634765625,1.9512295722961426,9.642484664916992,9.888409614562988
1700944951046403800,0.62140380859375,1.2014973163604736,9.359723091125488,8.938703536987305
1700944951063389200,0.63838916015625,1.3041408061981201,8.799717903137207,7.458662986755371
1700944951080394000,0.65539404296875,1.390120029449463,8.20733642578125,6.018547058105469
1700944951097382100,0.672382080078125,1.3512587547302246,7.436864852905273,5.288996696472168
1700944951114382600,0.689382568359375,0.7574852705001831,6.464059829711914,5.237488746643066
1700944951131372800,0.706372802734375,-0.2484753131866455,5.039076805114746,4.531755447387695
1700944951148368400,0.723368408203125,-1.0598260164260864,3.4963276386260986,2.793842315673828
1700944951165357000,0.740357177734375,-1.4749500751495361,1.9583930969238281,0.7068557739257812
1700944951182353200,0.757353271484375,-1.3769431114196777,0.5120768547058105,-1.2573251724243164
1700944951199347700,0.77434765625,-0.7224464416503906,-0.7567393779754639,-2.327317237854004
1700944951216338000,0.791337890625,0.45340460538864136,-1.8069589138031006,-2.6141343116760254
1700944951233333200,0.808333251953125,1.148449182510376,-3.1234965324401855,-2.537263870239258
1700944951250335200,0.825335205078125,1.1107172966003418,-4.773228645324707,-2.9435486793518066
1700944951267317200,0.842317138671875,0.5725357532501221,-6.524522304534912,-4.468207836151123
1700944951284315000,0.85931494140625,0.3351561427116394,-8.758811950683594,-6.611702919006348
1700944951301307000,0.876306884765625,1.7085108757019043,-10.436716079711914,-8.767098426818848
1700944951318302700,0.893302734375,3.099756956100464,-11.290181159973145,-10.112717628479004
1700944951335291000,0.910290771484375,3.8668861389160156,-12.293556213378906,-9.339554786682129
1700944951352287700,0.927287841796875,4.177647113800049,-13.658208847045898,-6.535285949707031
1700944951369279700,0.94427978515625,4.0624895095825195,-14.84046745300293,-2.5600528717041016
1700944951386274600,0.961274658203125,3.124539613723755,-15.367481231689453,2.171685218811035
1700944951403267000,0.97826708984375,1.8039495944976807,-14.364034652709961,3.7594070434570312
1700944951420263200,0.99526318359375,0.5628148317337036,-12.934914588928223,3.4448375701904297
1700944951437251000,1.0122509765625,-0.07751989364624023,-11.486586570739746,2.925769805908203
1700944951454238700,1.02923876953125,-0.37778592109680176,-10.270650863647461,3.0948543548583984
1700944951471240700,1.04624072265625,-0.3144848346710205,-8.958160400390625,4.519754409790039
1700944951488236500,1.063236572265625,0.07404851913452148,-7.180253505706787,6.592418670654297
1700944951505212400,1.08021240234375,0.5405666828155518,-5.308938980102539,6.351898193359375
1700944951522224400,1.097224365234375,0.6538475751876831,-3.8512344360351562,4.459196090698242
1700944951539213300,1.11421337890625,0.7491459250450134,-2.8878588676452637,2.8821372985839844
1700944951556206000,1.1312060546875,0.8488852977752686,-2.105865478515625,1.8834495544433594
1700944951573201400,1.148201416015625,1.0429847240447998,-1.6163897514343262,1.6879453659057617
1700944951590197000,1.165197021484375,1.6417357921600342,-0.9700465202331543,2.7109479904174805
1700944951607182800,1.182182861328125,2.4458298683166504,0.120025634765625,3.5360922813415527
1700944951624185900,1.199185791015625,2.491319417953491,1.089855670928955,3.744800567626953
1700944951641175000,1.216175048828125,2.127716541290283,1.9263677597045898,3.479241371154785
1700944951658170600,1.233170654296875,1.9212137460708618,2.651308059692383,3.4393529891967773
1700944951675159000,1.250158935546875,1.910618782043457,3.2856945991516113,3.8682446479797363
1700944951692156200,1.26715625,1.9315783977508545,3.7316174507141113,4.735677719116211
1700944951709150500,1.284150390625,2.343379497528076,4.358881950378418,5.343743801116943
1700944951726140200,1.30114013671875,2.6101536750793457,4.911247253417969,5.486885070800781
1700944951743133700,1.3181337890625,2.674497365951538,5.320771217346191,5.3478899002075195
1700944951760133000,1.335133056640625,2.753693103790283,5.651170253753662,5.210217475891113
1700944951777120000,1.3521201171875,2.8919811248779297,5.761831760406494,5.368298530578613
1700944951794116400,1.369116455078125,2.9676499366760254,5.877259731292725,5.628360748291016
1700944951811111000,1.38611083984375,2.714416980743408,5.517996788024902,6.230352401733398
1700944951828104200,1.403104248046875,2.0651514530181885,5.1901750564575195,6.326617240905762
1700944951845086700,1.420086669921875,1.129332423210144,4.948288917541504,6.029487609863281
1700944951862090000,1.437090087890625,0.16643154621124268,4.820236682891846,5.942561626434326
1700944951879084500,1.45408447265625,-0.12380599975585938,4.76055383682251,6.401758193969727
1700944951896074800,1.47107470703125,0.19780957698822021,4.353914737701416,7.424693584442139
1700944951913069800,1.48806982421875,0.6409475803375244,3.809476375579834,8.584747314453125
1700944951930060300,1.505060302734375,0.2723744511604309,3.360086441040039,9.28852367401123
1700944951947054000,1.52205419921875,-0.09557247161865234,2.5459213256835938,9.999359130859375
1700944951964051700,1.5390517578125,0.02756059169769287,1.7062087059020996,10.478371620178223
1700944951981043500,1.55604345703125,0.9970970749855042,0.1531696319580078,11.172834396362305
1700944951998039300,1.573039306640625,2.1255602836608887,-1.222641944885254,11.720378875732422
1700944952015018800,1.590018798828125,2.512698173522949,-1.961301326751709,12.324570655822754
1700944952032024600,1.607024658203125,2.3677310943603516,-1.7350053787231445,11.7884521484375
1700944952049016800,1.624016845703125,2.228187084197998,-1.4228601455688477,10.478338241577148
1700944952066010600,1.6410107421875,2.7548484802246094,-1.7646923065185547,9.02202033996582
1700944952083003600,1.658003662109375,3.791616916656494,-3.29116153717041,8.937159538269043
1700944952100000000,1.675,4.100777626037598,-5.00530481338501,9.040175437927246
1700944952116987000,1.69198681640625,3.4855690002441406,-6.703121185302734,8.64176082611084
1700944952133987300,1.7089873046875,2.8105249404907227,-7.701150417327881,6.932535171508789
1700944952150978800,1.725978759765625,2.509235382080078,-8.356847763061523,4.459539413452148
1700944952167982000,1.742982177734375,2.3311564922332764,-8.59074878692627,1.7520122528076172
1700944952184966400,1.75996630859375,2.4510011672973633,-8.176933288574219,-0.8213939666748047
1700944952201949400,1.776949462890625,2.4293465614318848,-7.407072067260742,-3.015023708343506
1700944952218951000,1.793950927734375,2.268737316131592,-6.554170608520508,-4.699814319610596
1700944952235928800,1.8109287109375,2.043464183807373,-5.80854606628418,-5.844342231750488
1700944952252943400,1.827943359375,1.9434667825698853,-5.22133731842041,-6.79159688949585
1700944952269938200,1.844938232421875,1.8277801275253296,-4.689700126647949,-7.386674880981445
1700944952286922800,1.8619228515625,1.885981559753418,-4.357330799102783,-7.6196208000183105
1700944952303920600,1.878920654296875,2.220907688140869,-4.054029941558838,-7.5759429931640625
1700944952320912000,1.895911865234375,2.8881115913391113,-3.7006335258483887,-7.359192848205566
1700944952337907500,1.912907470703125,3.6328983306884766,-3.4811973571777344,-7.050489902496338
1700944952354889000,1.929888916015625,4.089810848236084,-3.262505531311035,-6.713113784790039
1700944952371892700,1.946892822265625,4.069284439086914,-3.209277868270874,-6.406730651855469
1700944952388887300,1.96388720703125,3.79669451713562,-3.057551145553589,-6.353725910186768
1700944952405878000,1.9808779296875,3.4747371673583984,-2.9772748947143555,-6.180851936340332
1700944952422871300,1.997871337890625,3.3900692462921143,-2.8804397583007812,-5.736104488372803
1700944952439868200,2.0148681640625,3.6156182289123535,-3.0138750076293945,-4.877420902252197
1700944952456856800,2.03185693359375,4.010989665985107,-3.3729701042175293,-3.7996721267700195
1700944952473854000,2.04885400390625,4.678225040435791,-3.8633337020874023,-2.817941188812256
1700944952490846200,2.06584619140625,5.113858699798584,-4.797016620635986,-1.7456536293029785
1700944952507842000,2.082842041015625,5.273133754730225,-5.950229167938232,-0.6320066452026367
1700944952524832300,2.099832275390625,5.513296604156494,-6.710105895996094,-0.11391067504882812
1700944952541826800,2.116826904296875,5.192954063415527,-7.096669673919678,0.37427330017089844
1700944952558821400,2.1338212890625,4.440130710601807,-7.134708404541016,1.1987295150756836
1700944952575811600,2.1508115234375,3.4572999477386475,-7.540066719055176,2.6141529083251953
1700944952592806400,2.167806396484375,2.6479148864746094,-8.327595710754395,3.6084699630737305
1700944952609802200,2.18480224609375,2.359464645385742,-8.732630729675293,3.6381044387817383
1700944952626790700,2.201790771484375,1.9756687879562378,-8.593423843383789,2.829800605773926
1700944952643788500,2.21878857421875,1.4761873483657837,-7.454582214355469,1.572402000427246
1700944952660780300,2.2357802734375,1.5912456512451172,-5.429816246032715,0.6887416839599609
1700944952677776000,2.25277587890625,2.186239004135132,-4.138313293457031,1.2625856399536133
1700944952694764500,2.2697646484375,2.9770946502685547,-2.9814260005950928,2.3981008529663086
1700944952711761400,2.286761474609375,3.0569279193878174,-1.9393577575683594,2.864572525024414
1700944952728755700,2.303755615234375,2.001556873321533,-1.3466720581054688,2.7186222076416016
1700944952745745400,2.320745361328125,0.6372166872024536,-1.1000056266784668,2.1006860733032227
1700944952762740500,2.337740478515625,-0.26847314834594727,-0.6911277770996094,1.1788568496704102
1700944952779734000,2.354734130859375,-0.5744209289550781,-0.26352596282958984,0.5732889175415039
1700944952796728300,2.371728271484375,-0.4419597387313843,0.315793514251709,0.48924779891967773
1700944952813722400,2.388722412109375,0.11733007431030273,0.9918298721313477,0.8087153434753418
1700944952830710800,2.405710693359375,0.47932225465774536,1.6730237007141113,1.1027374267578125
1700944952847716000,2.422716064453125,0.5278702974319458,2.3093948364257812,1.2390317916870117
1700944952864703700,2.439703857421875,0.2754509449005127,2.8134827613830566,1.3695077896118164
1700944952881696300,2.4566962890625,0.13573068380355835,3.3455610275268555,1.7065720558166504
1700944952898690300,2.473690185546875,0.07961738109588623,3.8256583213806152,2.1357812881469727
1700944952915669000,2.4906689453125,0.16030412912368774,4.232176780700684,2.780093193054199
1700944952932674300,2.50767431640625,0.4215949475765228,4.607804775238037,3.3808083534240723
1700944952949671000,2.5246708984375,0.5010896921157837,4.819356918334961,3.851426124572754
1700944952966662000,2.541661865234375,0.3674165606498718,5.057163238525391,4.289120197296143
1700944952983654700,2.558654541015625,0.02188897132873535,5.099945545196533,4.8085222244262695
1700944953000644000,2.57564404296875,-0.21941077709197998,5.073731422424316,5.352672100067139
1700944953017644300,2.592644287109375,-0.3417744040489197,4.672047138214111,6.365661144256592
1700944953034634000,2.609634033203125,-0.43637919425964355,4.467944622039795,6.794297218322754
1700944953051628500,2.626628662109375,-0.5091419816017151,4.213391304016113,6.966529369354248
1700944953068627200,2.643627197265625,-0.628221869468689,3.8130064010620117,7.144432067871094
1700944953085614300,2.6606142578125,-0.5827316045761108,3.890597343444824,7.073802947998047
1700944953102609700,2.677609619140625,-0.2998393774032593,3.8458518981933594,7.218155860900879
1700944953119605000,2.69460498046875,0.4664267301559448,3.566925525665283,7.639200210571289
1700944953136593700,2.71159375,1.3064093589782715,2.9905452728271484,8.206286430358887
1700944953153590500,2.728590576171875,1.7130236625671387,2.064246654510498,8.65855598449707
1700944953170572500,2.745572509765625,1.9806853532791138,1.1712532043457031,8.670719146728516
1700944953187575300,2.7625751953125,2.3407845497131348,0.49672412872314453,8.96780014038086
1700944953204570400,2.7795703125,2.6563589572906494,0.3947429656982422,9.405851364135742
1700944953221563600,2.796563720703125,2.883544921875,1.1909995079040527,9.390503883361816
1700944953238558000,2.813557861328125,2.6335625648498535,2.012207508087158,8.913825988769531
1700944953255548400,2.83054833984375,2.0382256507873535,1.7129573822021484,8.368693351745605
1700944953272543500,2.84754345703125,1.3484779596328735,0.24355030059814453,8.118968963623047
1700944953289539000,2.8645390625,0.8885677456855774,-1.3263139724731445,7.506700038909912
1700944953306527700,2.88152783203125,0.5283552408218384,-2.513984203338623,6.516871452331543
1700944953323525400,2.898525390625,0.29707077145576477,-3.146209716796875,5.545578956604004
1700944953340517000,2.91551708984375,0.7044064998626709,-2.959916591644287,4.343914031982422
1700944953357507000,2.932507080078125,1.1117726564407349,-2.857766628265381,3.0930423736572266
1700944953374506800,2.9495068359375,1.3214292526245117,-2.734483242034912,1.6950607299804688
1700944953391490000,2.966489990234375,1.4431604146957397,-2.5931596755981445,0.20397472381591797
1700944953408492800,2.983492919921875,1.5140676498413086,-2.3825926780700684,-1.2117209434509277
1700944953425483000,3.00048291015625,1.8716679811477661,-2.163743495941162,-2.27590274810791
1700944953442477300,3.017477294921875,2.311901569366455,-2.257237195968628,-2.704833984375
1700944953459473400,3.034473388671875,2.878206729888916,-2.2971270084381104,-3.1242661476135254
1700944953476462000,3.051462158203125,3.360483169555664,-2.533454656600952,-3.697221279144287
1700944953493461200,3.068461181640625,3.508592128753662,-2.711057662963867,-4.420384883880615
1700944953510447600,3.085447509765625,3.6029703617095947,-2.766205310821533,-5.192124366760254
1700944953527446000,3.102446044921875,3.8100647926330566,-2.736631155014038,-5.664327621459961
1700944953544439300,3.119439208984375,4.091858863830566,-2.9312262535095215,-5.634279727935791
1700944953561433000,3.13643310546875,4.419111251831055,-3.291417360305786,-5.170288562774658
1700944953578423000,3.153423095703125,4.641694068908691,-3.9543380737304688,-4.495424270629883
1700944953595425500,3.170425537109375,4.8784613609313965,-4.472993850708008,-4.099217891693115
1700944953612410000,3.18741015625,5.229104042053223,-4.932111740112305,-3.827589988708496
1700944953629407000,3.204406982421875,5.5718231201171875,-5.428205490112305,-3.4282665252685547
1700944953646397000,3.22139697265625,5.810498237609863,-6.164882659912109,-2.8575048446655273
1700944953663396600,3.238396728515625,6.085854530334473,-6.8277459144592285,-2.0742063522338867
1700944953680374000,3.2553740234375,6.208212852478027,-7.252342224121094,-0.8412914276123047
1700944953697374000,3.2723740234375,6.139187812805176,-6.9077935218811035,-0.052521705627441406
1700944953714357200,3.289357177734375,5.416910648345947,-6.849020004272461,0.5061721801757812
1700944953731367700,3.30636767578125,4.466833114624023,-7.3581132888793945,1.065474510192871
1700944953748357600,3.323357666015625,3.49423885345459,-8.1087064743042,1.490255355834961
1700944953765356500,3.3403564453125,2.488887310028076,-8.551003456115723,1.2602005004882812
1700944953782347000,3.357346923828125,1.8351956605911255,-8.100818634033203,1.0842103958129883
1700944953799341300,3.37434130859375,1.354861855506897,-6.617799758911133,0.3391551971435547
1700944953816333800,3.391333740234375,0.9055560827255249,-4.896796703338623,-0.5458984375
1700944953833327900,3.408327880859375,0.5877150297164917,-3.78015398979187,-0.8160762786865234
1700944953850320600,3.425320556640625,0.5131518840789795,-3.446415662765503,-0.7330389022827148
1700944953867315000,3.44231494140625,0.8133318424224854,-3.2725627422332764,-0.7926540374755859
1700944953884307000,3.459306884765625,1.1431217193603516,-2.976567506790161,-1.0043411254882812
1700944953901299200,3.47629931640625,1.3366820812225342,-2.6352362632751465,-0.966465950012207
1700944953918296600,3.493296630859375,1.539035439491272,-1.997751235961914,-0.4719533920288086
1700944953935288600,3.51028857421875,1.253659725189209,-1.0721783638000488,-0.5474758148193359
1700944953952280300,3.5272802734375,0.8191723227500916,-0.19273710250854492,-0.7103781700134277
1700944953969276200,3.544276123046875,0.3032456636428833,0.5319619178771973,-0.5227675437927246
1700944953986265300,3.561265380859375,0.08513104915618896,1.3060369491577148,-0.2363419532775879
1700944954003265000,3.57826513671875,0.19790786504745483,1.877767562866211,0.3240623474121094
1700944954020254700,3.595254638671875,0.4141550064086914,2.3978123664855957,1.0037360191345215
1700944954037248800,3.612248779296875,0.5201054811477661,2.845930337905884,1.6311211585998535
1700944954054241500,3.629241455078125,0.5746965408325195,3.395419120788574,2.0916337966918945
1700944954071239000,3.646239013671875,0.4462353587150574,4.015765190124512,2.3243894577026367
1700944954088225500,3.6632255859375,0.19454550743103027,4.439603805541992,2.775148868560791
1700944954105222700,3.68022265625,0.23610401153564453,4.86873197555542,3.344000816345215
1700944954122215200,3.697215087890625,0.4406735301017761,5.159501552581787,4.181066036224365
1700944954139209500,3.71420947265625,0.8765192031860352,5.327300071716309,4.983554363250732
1700944954156202200,3.7312021484375,0.9725532531738281,5.1761579513549805,5.44379997253418
1700944954173196000,3.748196044921875,0.4988332986831665,4.876145362854004,5.834953308105469
1700944954190188800,3.765188720703125,-0.0940389633178711,4.362454891204834,6.486981391906738
1700944954207180800,3.782180908203125,-0.4212315082550049,4.202270030975342,7.062711715698242
1700944954224178700,3.7991787109375,-0.7316054105758667,3.8282041549682617,7.609256267547607
1700944954241170000,3.816169921875,-0.6340047121047974,3.5684609413146973,8.16366958618164
1700944954258163500,3.83316357421875,-0.10752642154693604,3.303905487060547,8.934837341308594
1700944954275157200,3.8501572265625,0.22054016590118408,3.0997753143310547,9.474006652832031
1700944954292149500,3.8671494140625,0.6487716436386108,2.799220561981201,9.881596565246582
1700944954309139200,3.88413916015625,1.2493422031402588,2.1494688987731934,10.657835006713867
1700944954326136300,3.90113623046875,1.9817227125167847,1.4638252258300781,11.738933563232422
1700944954343130600,3.918130615234375,2.7786197662353516,1.134282112121582,12.571205139160156
1700944954360123400,3.935123291015625,3.376298427581787,1.2249622344970703,13.259130477905273
1700944954377117200,3.9521171875,3.821753978729248,1.8757028579711914,13.12298583984375
1700944954394110200,3.969110107421875,3.7818994522094727,2.3705577850341797,11.768800735473633
1700944954411104500,3.9861044921875,3.1561717987060547,1.8627758026123047,9.832015991210938
1700944954428097000,4.003096923828125,2.272505044937134,0.46308374404907227,8.068181991577148
1700944954445091000,4.020091064453125,1.6200146675109863,-1.2595276832580566,7.039145469665527
1700944954462083600,4.03708349609375,1.19438636302948,-2.7998175621032715,6.690365314483643
1700944954479078100,4.054078125,1.2082180976867676,-3.7637014389038086,6.204535484313965
1700944954496068600,4.071068603515625,1.4327092170715332,-4.098026752471924,5.282842636108398
1700944954513067300,4.0880673828125,1.7304141521453857,-3.9673566818237305,3.700991153717041
1700944954530057500,4.105057373046875,2.0552163124084473,-3.65128755569458,1.753183364868164
1700944954547051800,4.1220517578125,2.4612035751342773,-3.3113670349121094,0.06217670440673828
1700944954564044300,4.139044189453125,2.7920594215393066,-3.229275703430176,-1.0233120918273926
1700944954581038300,4.156038330078125,3.09328031539917,-3.2788686752319336,-1.5869550704956055
1700944954598034400,4.173034423828125,3.2574687004089355,-3.170650005340576,-2.3118953704833984
1700944954615022000,4.19002197265625,3.3261618614196777,-3.071072578430176,-3.2750792503356934
1700944954632018200,4.20701806640625,3.4496915340423584,-3.149785280227661,-4.031226634979248
1700944954649012000,4.224011962890625,3.8183183670043945,-3.4260241985321045,-4.648104667663574
1700944954666005000,4.2410048828125,4.347716808319092,-3.673737049102783,-5.009816646575928
1700944954682999000,4.2579990234375,4.860666275024414,-3.8418333530426025,-4.77297830581665
1700944954699987700,4.27498779296875,5.349318504333496,-4.1075897216796875,-4.0601677894592285
1700944954716985900,4.29198583984375,5.631532669067383,-4.446778297424316,-3.7415976524353027
1700944954733978600,4.308978515625,5.649561882019043,-5.167125701904297,-3.733367443084717
1700944954750973200,4.32597314453125,5.654342174530029,-6.085988998413086,-3.9108500480651855
1700944954767965000,4.34296484375,6.10235595703125,-6.565612316131592,-3.928044319152832
1700944954784960300,4.359960205078125,6.239473342895508,-6.701284408569336,-3.470393180847168
1700944954801952300,4.3769521484375,5.920202255249023,-7.093923568725586,-2.108829975128174
1700944954818946800,4.39394677734375,5.434268951416016,-7.536617755889893,-1.0068855285644531
1700944954835939000,4.41093896484375,5.015613555908203,-7.6169047355651855,-1.1045637130737305
1700944954852933600,4.42793359375,4.481451511383057,-7.740043640136719,-1.3993301391601562
1700944954869926000,4.44492578125,3.58504581451416,-7.890239238739014,-1.7958130836486816
1700944954886920200,4.461920166015625,2.2844862937927246,-7.974563121795654,-1.9638185501098633
1700944954903912700,4.47891259765625,1.2343864440917969,-7.802983283996582,-1.4826674461364746
1700944954920896300,4.495896240234375,0.9217344522476196,-6.624409198760986,-0.7158050537109375
1700944954937889000,4.512888916015625,0.7402361631393433,-5.080170631408691,0.03001689910888672
1700944954954894000,4.52989404296875,0.0710381269454956,-3.912325859069824,0.6407918930053711
1700944954971886300,4.54688623046875,-1.1033833026885986,-2.8847432136535645,0.3289041519165039
1700944954988880600,4.563880615234375,-2.328385353088379,-2.3935763835906982,-0.22528648376464844
1700944955005875700,4.580875732421875,-2.470378875732422,-2.789551019668579,-0.19035720825195312
1700944955022865400,4.597865478515625,-1.498083472251892,-3.0294559001922607,-0.35952281951904297
1700944955039860500,4.614860595703125,-0.2893698215484619,-3.0728065967559814,-0.5680656433105469
1700944955056854000,4.63185400390625,0.8867594003677368,-2.2664453983306885,-0.28115367889404297
1700944955073847000,4.648846923828125,1.33793306350708,-1.1504347324371338,-0.4028606414794922
1700944955090843000,4.6658427734375,0.9334924221038818,-0.15902948379516602,-0.5128097534179688
1700944955107832600,4.68283251953125,0.35554039478302,0.6121907234191895,-0.4959239959716797
1700944955124828000,4.699827880859375,0.04030740261077881,1.264348030090332,-0.23153018951416016
1700944955141805600,4.7168056640625,0.03832900524139404,1.8774068355560303,0.6813473701477051
1700944955158815200,4.733815185546875,0.07921087741851807,2.6854450702667236,1.597212791442871
1700944955175807700,4.750807861328125,-0.04278993606567383,3.466588258743286,2.111259937286377
1700944955192793900,4.7677939453125,-0.3579031229019165,4.165094375610352,2.4103622436523438
1700944955209794300,4.784794189453125,-0.5714579820632935,4.743198871612549,2.5820164680480957
1700944955226790700,4.801790771484375,-0.6679636240005493,5.1419477462768555,2.8254294395446777
1700944955243781400,4.818781494140625,-0.9006558656692505,5.097882270812988,3.5931153297424316
1700944955260775400,4.835775390625,-0.9404232501983643,5.307585716247559,4.224253177642822
1700944955277765400,4.852765380859375,-0.5632045269012451,5.329341411590576,5.105719566345215
1700944955294765000,4.86976513671875,-0.2599634528160095,5.339358329772949,5.927605628967285
1700944955311752000,4.886751953125,-0.3013359308242798,5.389164924621582,6.233400344848633
1700944955328752000,4.903752197265625,-0.6960537433624268,5.4636030197143555,6.149925231933594
1700944955345741600,4.920741455078125,-1.1074961423873901,5.208001136779785,6.348028182983398
1700944955362736000,4.937736083984375,-1.219944715499878,4.5649824142456055,6.842065334320068
1700944955379729000,4.95472900390625,-0.8967549800872803,3.6993203163146973,7.617038726806641
1700944955396723000,4.971722900390625,-0.47589439153671265,2.942261219024658,8.148771286010742
1700944955413705200,4.988705322265625,-0.15683001279830933,2.098461151123047,8.394988059997559
1700944955430710000,5.0057099609375,0.28519850969314575,1.5940814018249512,8.562826156616211
1700944955447700500,5.022700439453125,0.7109897136688232,1.599757194519043,8.61076545715332
1700944955464698400,5.039698486328125,0.34742188453674316,1.8445754051208496,9.101858139038086
1700944955481689000,5.056689208984375,-0.555870771408081,2.1730809211730957,9.41334342956543
1700944955498683400,5.073683349609375,-1.0507709980010986,1.534559726715088,9.645326614379883
1700944955515676400,5.090676513671875,-0.5482975244522095,0.3828263282775879,9.410551071166992
1700944955532670200,5.107670166015625,0.8181960582733154,-0.2888035774230957,8.386632919311523
1700944955549662700,5.124662841796875,2.399657964706421,-0.041304588317871094,7.331046104431152
1700944955566657300,5.1416572265625,2.9819719791412354,0.7393078804016113,6.969642162322998
1700944955583649800,5.15864990234375,2.2850961685180664,1.6031136512756348,6.739162445068359
1700944955600643800,5.175643798828125,1.0899008512496948,1.8554086685180664,6.133144855499268
1700944955617625900,5.1926259765625,0.5973363518714905,1.2896380424499512,5.125411510467529
1700944955634631000,5.209630859375,1.2296733856201172,-0.12886524200439453,4.287299156188965
1700944955651623400,5.22662353515625,2.8382623195648193,-1.6229915618896484,3.7209606170654297
1700944955668617700,5.24361767578125,4.3347039222717285,-2.5226969718933105,2.997615337371826
1700944955685610200,5.2606103515625,5.499635219573975,-2.9763007164001465,2.4727587699890137
1700944955702604500,5.2776044921875,6.205894470214844,-3.0819573402404785,1.8517837524414062
1700944955719597000,5.29459716796875,6.324906349182129,-3.046207904815674,1.3650436401367188
1700944955736591400,5.31159130859375,6.260413646697998,-2.842639446258545,0.6023464202880859
1700944955753583600,5.32858349609375,6.050362586975098,-2.770883083343506,-0.4944877624511719
1700944955770578200,5.345578125,6.003505706787109,-2.6968436241149902,-1.5346455574035645
1700944955787571000,5.362571044921875,6.084465980529785,-2.6345138549804688,-2.151456356048584
1700944955804565000,5.37956494140625,6.151970863342285,-2.4705419540405273,-2.5162672996520996
1700944955821547000,5.396547119140625,6.053183078765869,-2.4259610176086426,-2.6058144569396973
1700944955838552000,5.413552001953125,5.865873336791992,-2.4724020957946777,-2.5670275688171387
1700944955855544800,5.430544921875,5.561570644378662,-2.3142447471618652,-2.809760570526123
1700944955872538600,5.44753857421875,5.4017252922058105,-2.1385769844055176,-3.035579204559326
1700944955889531400,5.464531494140625,5.232443332672119,-1.8610312938690186,-3.462310791015625
1700944955906526000,5.48152587890625,4.923336505889893,-1.694489598274231,-3.830063819885254
1700944955923518200,5.498518310546875,4.586812973022461,-1.8523529767990112,-3.968545913696289
1700944955940508200,5.515508056640625,4.19453239440918,-2.078185558319092,-4.100691318511963
1700944955957505000,5.532505126953125,3.769758939743042,-2.1442720890045166,-4.297324180603027
1700944955974499300,5.549499267578125,3.585510015487671,-1.9926749467849731,-4.58568811416626
1700944955991491800,5.566491943359375,3.6001992225646973,-1.969031810760498,-4.876195907592773
1700944956008475600,5.5834755859375,3.6861157417297363,-2.11845326423645,-4.978227138519287
1700944956025478700,5.600478759765625,3.7155003547668457,-2.2143123149871826,-4.748399257659912
1700944956042473000,5.617472900390625,3.484589099884033,-2.357980728149414,-4.027833938598633
1700944956059466000,5.634466064453125,2.932938575744629,-2.6386542320251465,-3.2115511894226074
1700944956076459800,5.651459716796875,2.245448112487793,-2.8694043159484863,-2.8497424125671387
1700944956093452500,5.66845263671875,1.6139357089996338,-2.9012033939361572,-3.0576443672180176
1700944956110441200,5.685441162109375,0.9290088415145874,-3.1537983417510986,-3.5001063346862793
1700944956127442700,5.702442626953125,0.6413159370422363,-3.2739009857177734,-3.81154727935791
1700944956144431600,5.719431640625,0.7703832387924194,-3.325387477874756,-3.6927132606506348
1700944956161426000,5.736426025390625,0.8029119968414307,-3.54022479057312,-3.0257010459899902
1700944956178420200,5.753420166015625,0.7449463605880737,-3.668570041656494,-2.1697216033935547
1700944956195412500,5.77041259765625,0.6696121692657471,-3.7086308002471924,-1.4872713088989258
1700944956212407000,5.787406982421875,0.17985522747039795,-3.86527156829834,-1.045419692993164
1700944956229400000,5.804400146484375,-0.5131334066390991,-4.087244033813477,-0.46411991119384766
1700944956246407400,5.821407470703125,-1.5397870540618896,-4.070161819458008,0.03359508514404297
1700944956263386600,5.83838671875,-2.7428243160247803,-4.050344467163086,0.7293539047241211
1700944956280381000,5.855380859375,-3.6600983142852783,-3.8091697692871094,1.4043331146240234
1700944956297373400,5.87237353515625,-3.478930950164795,-2.902024269104004,2.1854286193847656
1700944956314367700,5.88936767578125,-2.7609715461730957,-1.879195213317871,3.1847219467163086
1700944956331362600,5.906362548828125,-2.3772711753845215,-0.994840145111084,4.064095497131348
1700944956348341800,5.923341796875,-2.677309989929199,-0.2393350601196289,4.449500560760498
1700944956365347000,5.94034716796875,-3.0588622093200684,0.1118316650390625,4.519789695739746
1700944956382341400,5.95734130859375,-3.0400452613830566,0.38429975509643555,4.391104698181152
1700944956399322400,5.974322265625,-2.5758697986602783,0.6375813484191895,4.462861061096191
1700944956416328200,5.991328125,-2.0490317344665527,1.2932438850402832,4.464823246002197
1700944956433321000,6.008321044921875,-1.6400203704833984,2.044053554534912,4.208404064178467
1700944956450300200,6.025300048828125,-1.3453924655914307,2.791754722595215,4.023909568786621
1700944956467308000,6.04230810546875,-0.9538467526435852,3.579641819000244,3.7161483764648438
1700944956484301800,6.0593017578125,-0.660090982913971,4.153815746307373,3.2475852966308594
1700944956501294300,6.07629443359375,-0.36797451972961426,4.420374870300293,2.859622001647949
1700944956518286300,6.093286376953125,-0.07469701766967773,4.508784294128418,2.3588695526123047
1700944956535284500,6.110284423828125,0.25715166330337524,4.437355041503906,2.0114331245422363
1700944956552257000,6.127257080078125,0.6377996206283569,4.286746025085449,1.8758344650268555
1700944956569257500,6.144257568359375,0.7160729169845581,4.165776252746582,1.8643770217895508
1700944956586262800,6.1612626953125,0.7424676418304443,4.014444351196289,2.082686424255371
1700944956603252700,6.178252685546875,0.527890682220459,3.9078383445739746,2.420750617980957
1700944956620252000,6.195251953125,-0.00036257505416870117,3.834165096282959,2.6467232704162598
1700944956637241900,6.212241943359375,-0.3723880648612976,3.8320069313049316,2.8082146644592285
1700944956654239500,6.229239501953125,-0.6510709524154663,3.951608419418335,3.028127670288086
1700944956671225900,6.246225830078125,-0.7433939576148987,4.05458927154541,3.251171588897705
1700944956688223000,6.263222900390625,-0.6532911062240601,4.014197826385498,3.5535454750061035
1700944956705215700,6.2802158203125,-0.48186206817626953,4.077796936035156,3.4968104362487793
1700944956722197500,6.297197509765625,-0.18551790714263916,4.059910297393799,3.2249207496643066
1700944956739205400,6.314205322265625,0.08501741290092468,3.8434200286865234,3.019254684448242
1700944956756196600,6.331196533203125,0.42050108313560486,3.699517250061035,2.7445068359375
1700944956773189400,6.348189453125,0.8521275520324707,3.514908790588379,2.552957057952881
1700944956790183700,6.36518359375,1.498323678970337,3.300027370452881,2.8406429290771484
1700944956807159300,6.3821591796875,1.9400553703308105,2.7759084701538086,3.6647000312805176
1700944956824162300,6.399162353515625,2.041344404220581,1.9205036163330078,4.769158840179443
1700944956841160400,6.416160400390625,2.069005012512207,1.2063498497009277,5.506717205047607
1700944956858159900,6.433159912109375,2.300647258758545,0.5020546913146973,6.061874866485596
1700944956875148500,6.4501484375,2.8890092372894287,-0.6379003524780273,7.040838241577148
1700944956892145000,6.467144775390625,4.0244364738464355,-1.8206262588500977,8.094284057617188
1700944956909136600,6.48413671875,5.217308044433594,-2.1312103271484375,8.490894317626953
1700944956926131200,6.501131103515625,5.383414268493652,-1.832118034362793,8.131815910339355
1700944956943123500,6.51812353515625,4.754373073577881,-1.3640317916870117,7.678977012634277
1700944956960117500,6.535117431640625,4.2710418701171875,-1.267702579498291,7.485782146453857
1700944956977110500,6.552110595703125,4.353452682495117,-1.5090155601501465,7.1493401527404785
1700944956994104800,6.569104736328125,4.897791385650635,-1.6741280555725098,6.455196380615234
1700944957011097300,6.586097412109375,5.28985595703125,-1.445420742034912,5.547443866729736
1700944957028091100,6.603091064453125,5.145744800567627,-1.1703362464904785,4.834251880645752
1700944957045084200,6.620084228515625,4.596493721008301,-0.8835415840148926,3.8787851333618164
1700944957062076000,6.637075927734375,4.01669979095459,-0.722386360168457,2.708521842956543
1700944957079073500,6.654073486328125,3.655679702758789,-0.7853846549987793,1.4240522384643555
1700944957096065300,6.671065185546875,3.49294376373291,-1.0277867317199707,-0.05582618713378906
1700944957113045000,6.688044921875,3.4769983291625977,-1.3686184883117676,-1.5187397003173828
1700944957130043600,6.705043701171875,3.5594329833984375,-1.6740362644195557,-2.645082473754883
1700944957147044900,6.722044921875,3.5546092987060547,-1.8956890106201172,-2.9374303817749023
1700944957164039000,6.739038818359375,3.7090723514556885,-2.0386252403259277,-2.851133346557617
1700944957181031400,6.756031494140625,4.830230712890625,-1.8936747312545776,-2.7973732948303223
1700944957198026000,6.77302587890625,5.805169105529785,-2.0024189949035645,-2.273252487182617
1700944957215018500,6.7900185546875,6.422580718994141,-2.3457021713256836,-1.615450382232666
1700944957232021500,6.807021484375,7.135581016540527,-2.7984509468078613,-0.9266481399536133
1700944957249005300,6.82400537109375,7.198023319244385,-3.6211421489715576,-0.35981178283691406
1700944957265998600,6.84099853515625,6.928993225097656,-4.123676300048828,-0.44811439514160156
1700944957282993000,6.857992919921875,6.625130653381348,-4.364532470703125,-0.6926374435424805
1700944957299976000,6.874975830078125,6.5772199630737305,-4.752680778503418,-0.6573705673217773
1700944957316979700,6.891979736328125,6.499213218688965,-5.324449062347412,-0.686985969543457
1700944957333972200,6.90897216796875,6.071557998657227,-6.0501389503479,-0.6489334106445312
1700944957350966000,6.925966064453125,5.315281867980957,-6.814414024353027,-0.7158937454223633
1700944957367960000,6.9429599609375,4.494699001312256,-7.478067398071289,-1.1942834854125977
1700944957384956000,6.959955810546875,3.4001288414001465,-8.257530212402344,-1.8803791999816895
1700944957401943300,6.976943359375,2.674527406692505,-8.6017427444458,-2.6740798950195312
1700944957418939400,6.993939453125,1.635376214981079,-8.637813568115234,-3.2927403450012207
1700944957435933200,7.01093310546875,0.304349422454834,-8.213454246520996,-3.893242359161377
1700944957452926200,7.02792626953125,-0.7934566736221313,-7.5466132164001465,-4.049074172973633
1700944957469920500,7.04492041015625,-1.3747360706329346,-7.032229900360107,-3.1091246604919434
1700944957486913000,7.0619130859375,-1.8634331226348877,-6.6319379806518555,-1.8518128395080566
1700944957503909600,7.07890966796875,-2.7826805114746094,-6.587095737457275,-1.0072355270385742
1700944957520897800,7.095897705078125,-3.2065682411193848,-6.510683059692383,-0.5187244415283203
1700944957537894100,7.11289404296875,-3.040557861328125,-6.565419673919678,-0.4385871887207031
1700944957554886700,7.12988671875,-2.3050336837768555,-6.419850826263428,-0.44223594665527344
1700944957571880700,7.146880615234375,-1.3529993295669556,-5.909405708312988,-0.10268497467041016
1700944957588873500,7.16387353515625,-0.4291497468948364,-5.009668350219727,0.4276905059814453
1700944957605865500,7.180865478515625,0.12915563583374023,-3.9136548042297363,0.6769742965698242
1700944957622863400,7.19786328125,0.44062167406082153,-2.651689291000366,0.7719306945800781
1700944957639854600,7.2148544921875,0.5368897914886475,-1.4335708618164062,0.7008695602416992
1700944957656844500,7.231844482421875,0.41892123222351074,-0.5701260566711426,1.111161231994629
1700944957673844200,7.24884423828125,0.34556618332862854,0.18169927597045898,1.498006820678711
1700944957690827500,7.26582763671875,0.30115431547164917,0.9828100204467773,1.7144122123718262
1700944957707830000,7.282830078125,0.168315589427948,1.696617603302002,2.037992000579834
1700944957724819000,7.29981884765625,-0.18330711126327515,2.412261486053467,2.678807258605957
1700944957741815000,7.31681494140625,-0.7316938638687134,3.0303306579589844,3.552884578704834
1700944957758808000,7.33380810546875,-1.3629481792449951,3.6901299953460693,4.303709983825684
1700944957775801900,7.3508017578125,-1.773047685623169,4.0259857177734375,5.027990341186523
1700944957792794400,7.36779443359375,-2.0759530067443848,4.226559638977051,5.328520774841309
1700944957809789200,7.3847890625,-2.1940231323242188,4.182052135467529,5.601400375366211
1700944957826781400,7.401781494140625,-2.15824031829834,4.240734100341797,5.718658447265625
1700944957843775500,7.418775390625,-2.141792058944702,4.383585453033447,6.0065388679504395
1700944957860768300,7.435768310546875,-2.1986446380615234,4.4546284675598145,6.51037073135376
1700944957877759700,7.452759765625,-2.024376153945923,4.465898036956787,7.500889778137207
1700944957894755300,7.46975537109375,-1.4218076467514038,4.665221214294434,8.048248291015625
1700944957911739000,7.48673876953125,-0.6157112717628479,4.682387351989746,8.147565841674805
1700944957928742000,7.503741943359375,0.25634193420410156,4.007508277893066,8.397586822509766
1700944957945732900,7.52073291015625,1.3124120235443115,2.924164295196533,8.97732925415039
1700944957962729000,7.53772900390625,2.214397668838501,1.5341057777404785,10.109800338745117
1700944957979725600,7.5547255859375,2.904343843460083,0.9056205749511719,11.322660446166992
1700944957996715800,7.5717158203125,3.066364288330078,1.3366994857788086,12.132974624633789
1700944958013710000,7.5887099609375,3.0041568279266357,2.4008936882019043,11.932497024536133
1700944958030702800,7.605702880859375,2.74700927734375,2.699110984802246,11.143969535827637
1700944958047696600,7.622696533203125,2.4838757514953613,1.571092128753662,9.938880920410156
1700944958064689400,7.639689453125,2.3605387210845947,-0.6577258110046387,9.04836654663086
1700944958081683000,7.656682861328125,2.1728363037109375,-3.0093045234680176,8.38671875
1700944958098674700,7.6736748046875,2.036436080932617,-4.330664157867432,7.294372081756592
1700944958115672600,7.690672607421875,1.8029322624206543,-4.972984790802002,5.82365608215332
1700944958132657400,7.707657470703125,1.9065853357315063,-5.06925106048584,3.946084976196289
1700944958149657300,7.7246572265625,1.9670907258987427,-5.379154682159424,2.1859703063964844
1700944958166650000,7.741650146484375,2.0696895122528076,-5.734722137451172,0.5231227874755859
1700944958183644000,7.758643798828125,2.540027618408203,-5.5900774002075195,-1.0364694595336914
1700944958200636700,7.77563671875,3.0900790691375732,-5.269695281982422,-2.370943546295166
1700944958217631200,7.79263134765625,3.4747989177703857,-5.1012372970581055,-3.352238655090332
1700944958234623700,7.809623779296875,3.586534023284912,-5.321344375610352,-3.870899200439453
1700944958251617800,7.82661767578125,3.54805850982666,-5.6882405281066895,-4.272486686706543
1700944958268610600,7.843610595703125,3.514833450317383,-5.914631366729736,-4.927093029022217
1700944958285604900,7.86060498046875,3.374384880065918,-5.882933616638184,-5.842432022094727
1700944958302599200,7.87759912109375,3.5592849254608154,-5.687230110168457,-6.537423133850098
1700944958319589600,7.894589599609375,3.6828057765960693,-5.701280117034912,-6.762999534606934
1700944958336584000,7.911583984375,3.8548572063446045,-5.97944974899292,-6.329776763916016
1700944958353567700,7.928567626953125,3.9668219089508057,-6.539391040802002,-5.38902473449707
1700944958370571300,7.9455712890625,4.035684585571289,-7.325261116027832,-4.714533805847168
1700944958387565000,7.96256494140625,4.00103235244751,-7.48691463470459,-4.72327995300293
1700944958404557800,7.979557861328125,3.9360508918762207,-7.753864288330078,-4.556499004364014
1700944958421552400,7.996552490234375,3.895707368850708,-7.998197555541992,-4.224039077758789
1700944958438545000,8.013544921875,4.005300045013428,-8.574186325073242,-3.134387969970703
1700944958455539000,8.0305390625,4.139138698577881,-8.807013511657715,-1.7930660247802734
1700944958472531500,8.047531494140625,4.269160270690918,-8.859801292419434,-0.10036945343017578
1700944958489525800,8.06452587890625,4.210213661193848,-8.508895874023438,1.0968914031982422
1700944958506518500,8.0815185546875,3.1026623249053955,-8.656925201416016,1.402420997619629
1700944958523512600,8.0985126953125,1.7658560276031494,-9.115442276000977,1.1360645294189453
1700944958540505000,8.115505126953124,1.0141310691833496,-9.117477416992188,0.29170703887939453
1700944958557499400,8.13249951171875,1.0760469436645508,-8.168065071105957,-0.7616720199584961
1700944958574492000,8.149491943359376,1.870589256286621,-6.8800177574157715,-0.6774806976318359
1700944958591486200,8.166486328125,2.106558084487915,-5.648939609527588,0.5943803787231445
1700944958608478700,8.183478759765626,1.26426362991333,-4.510483264923096,1.3547430038452148
1700944958625473300,8.200473388671876,-0.10188353061676025,-3.774843215942383,1.3050756454467773
1700944958642466000,8.217466064453125,-1.064883828163147,-3.4261434078216553,0.5319671630859375
1700944958659459800,8.2344599609375,-0.7423044443130493,-3.169602394104004,-0.35907554626464844
1700944958676452600,8.25145263671875,-0.26218289136886597,-2.689720869064331,-0.7882909774780273
1700944958693447000,8.268447021484375,-0.16000530123710632,-2.1095693111419678,-0.7791929244995117
1700944958710439700,8.285439697265625,0.10850401222705841,-1.1848864555358887,-0.5957460403442383
1700944958727433200,8.30243310546875,0.4427151381969452,-0.047437191009521484,-0.4723997116088867
1700944958744415500,8.31941552734375,0.550704836845398,1.0830268859863281,-0.2186565399169922
1700944958761420500,8.336420654296875,0.2797170877456665,1.7323741912841797,0.4512624740600586
1700944958778413300,8.353413330078125,0.16603612899780273,2.255343437194824,1.4524798393249512
1700944958795407600,8.37040771484375,0.4369344115257263,2.8934926986694336,2.623790740966797
1700944958812399600,8.387399658203124,0.549106776714325,3.4711222648620605,3.7432589530944824
1700944958829394400,8.40439453125,0.3817305862903595,4.400906562805176,4.595362663269043
1700944958846376200,8.421376220703126,-0.23699182271957397,5.057176113128662,4.837831020355225
1700944958863381000,8.438381103515624,-1.1025832891464233,5.483103275299072,4.726381778717041
1700944958880373500,8.45537353515625,-1.3903807401657104,5.286200523376465,5.025235176086426
1700944958897367800,8.472367919921876,-1.07822585105896,4.826081275939941,6.025888919830322
1700944958914360600,8.489360595703126,-0.7984037399291992,4.386280059814453,7.1610798835754395
1700944958931354600,8.506354736328126,-0.6020079255104065,3.841864585876465,7.216294765472412
1700944958948347100,8.52334716796875,-0.1609283685684204,3.4395008087158203,6.816625118255615
1700944958965341200,8.540341064453125,0.5407484173774719,3.34995174407959,6.688122272491455
1700944958982334500,8.55733447265625,1.1137561798095703,3.431166648864746,6.824047088623047
1700944958999328000,8.574327880859375,1.4991607666015625,3.245032787322998,7.728590488433838
1700944959016317000,8.59131689453125,1.8988841772079468,2.618433952331543,9.27131462097168
1700944959033319200,8.608319091796876,2.2951459884643555,1.432046890258789,11.170936584472656
1700944959050308000,8.62530810546875,2.863426685333252,0.6476397514343262,12.841398239135742
1700944959067302000,8.642302001953125,3.1711056232452393,1.0533623695373535,13.743135452270508
1700944959084294700,8.659294677734374,2.9482624530792236,2.2752227783203125,13.783163070678711
1700944959101289000,8.6762890625,2.420902729034424,3.474348545074463,11.966069221496582
1700944959118281700,8.69328173828125,1.7790367603302002,3.10239315032959,9.46561050415039
1700944959135275300,8.710275146484374,1.4717148542404175,1.503359317779541,7.489029884338379
1700944959152268000,8.72726806640625,1.539031744003296,-0.5561656951904297,6.051438808441162
1700944959169262600,8.7442626953125,1.329564094543457,-2.424163818359375,5.133621692657471
1700944959186255400,8.76125537109375,0.7929162979125977,-3.501081943511963,4.2187113761901855
1700944959203249200,8.778249267578126,0.22319602966308594,-3.909700393676758,2.8984413146972656
1700944959220242000,8.795241943359375,-0.22639808058738708,-3.9394588470458984,1.2043066024780273
1700944959237236500,8.812236572265626,-0.39074110984802246,-3.8525800704956055,-0.551203727722168
1700944959254218200,8.82921826171875,-0.10563802719116211,-3.3820676803588867,-2.033982276916504
1700944959271223000,8.84622314453125,0.7275640964508057,-2.8252625465393066,-2.7855663299560547
1700944959288215800,8.8632158203125,1.5024765729904175,-2.3685500621795654,-3.4409594535827637
1700944959305210000,8.880210205078125,1.875712513923645,-2.262280225753784,-3.963188648223877
1700944959322202400,8.897202392578125,1.8618055582046509,-2.684326410293579,-4.345348834991455
1700944959339196400,8.914196533203125,1.5555739402770996,-3.480719804763794,-4.578153610229492
1700944959356189000,8.93118896484375,1.4539788961410522,-3.757643938064575,-5.211208820343018
1700944959373181200,8.94818115234375,1.914277195930481,-3.4573211669921875,-5.894744873046875
1700944959390163200,8.9651630859375,2.437429428100586,-3.4635140895843506,-5.623736381530762
1700944959407169300,8.982169189453124,2.577939033508301,-4.118242263793945,-4.922257900238037
1700944959424163800,8.999163818359374,2.741213321685791,-4.841244220733643,-4.439813613891602
1700944959441155800,9.01615576171875,2.9345455169677734,-5.866879940032959,-3.9198250770568848
1700944959458150000,9.03314990234375,3.275907039642334,-6.546806335449219,-3.516423225402832
1700944959475144000,9.05014404296875,3.8140769004821777,-6.840662002563477,-3.205941677093506
1700944959492136400,9.067136474609375,4.145843505859375,-7.282291412353516,-2.487523078918457
1700944959509130800,9.084130859375,4.33936071395874,-7.669403076171875,-1.2201471328735352
1700944959526117600,9.10111767578125,4.365983009338379,-7.742755889892578,-0.26383399963378906
1700944959543117800,9.118117919921875,3.8076844215393066,-8.352670669555664,0.6986770629882812
1700944959560110300,9.1351103515625,2.914909601211548,-8.994478225708008,1.0212583541870117
1700944959577104600,9.152104736328125,1.6303081512451172,-9.138846397399902,0.4184379577636719
1700944959594097400,9.169097412109375,0.5708993673324585,-8.517477989196777,-0.5963115692138672
1700944959611091200,9.18609130859375,0.21753382682800293,-7.106053352355957,-1.4109153747558594
1700944959628083700,9.203083740234375,0.4088113307952881,-5.246228218078613,-2.030580520629883
1700944959645078000,9.220078125,0.3388019800186157,-4.07707405090332,-1.770359992980957
1700944959662071000,9.237071044921874,-0.2255176305770874,-3.2902870178222656,-1.0311193466186523
1700944959679063800,9.254063720703124,-1.3120830059051514,-2.6800501346588135,-0.6480903625488281
1700944959696058600,9.27105859375,-2.0884499549865723,-2.262968063354492,-0.756800651550293
1700944959713052000,9.288052001953124,-1.8657476902008057,-2.223806619644165,-1.0321531295776367
1700944959730044700,9.305044677734376,-1.0407007932662964,-1.7234833240509033,-1.589001178741455
1700944959747038500,9.32203857421875,-0.13175398111343384,-0.911020040512085,-2.0727553367614746
1700944959764031200,9.33903125,0.453059583902359,0.0020055770874023438,-2.118610382080078
1700944959781025800,9.35602587890625,0.4373584985733032,0.8322741985321045,-1.555945873260498
1700944959798018300,9.373018310546875,0.4105616807937622,1.6065685749053955,-0.8660955429077148
1700944959815012400,9.390012451171875,0.4655626118183136,2.499763011932373,-0.6391110420227051
1700944959832006000,9.407005859375,0.46727898716926575,2.972738027572632,-0.6712403297424316
1700944959848998400,9.423998291015625,0.6034832000732422,3.403517723083496,-0.6227350234985352
1700944959865992000,9.440991943359375,0.6941054463386536,3.6805977821350098,-0.18662691116333008
1700944959882985700,9.45798583984375,0.486156702041626,3.7619071006774902,0.7285332679748535
1700944959899978500,9.474978515625,0.32082659006118774,4.050810813903809,1.7530317306518555
1700944959916973000,9.49197314453125,-0.34311580657958984,4.035547256469727,2.9516372680664062
1700944959933965300,9.50896533203125,-1.2317233085632324,4.327439308166504,3.6574440002441406
1700944959950959600,9.525959716796875,-2.087911605834961,3.995154857635498,4.973036766052246
1700944959967952400,9.542952392578124,-2.9319047927856445,3.532137870788574,6.055979251861572
1700944959984942000,9.559942138671875,-3.350005626678467,3.047102928161621,6.864007472991943
1700944960001943800,9.57694384765625,-3.060431480407715,2.8677620887756348,7.172652244567871
1700944960018933200,9.593933349609374,-2.3226988315582275,2.829568862915039,7.218865871429443
1700944960035925800,9.61092578125,-1.8671950101852417,3.0349698066711426,7.650038242340088
1700944960052909600,9.62790966796875,-1.8079332113265991,2.914346694946289,8.598154067993164
1700944960069908200,9.644908203125,-0.9899663329124451,2.5980920791625977,9.457948684692383
1700944960086904600,9.661904541015625,0.31876879930496216,1.4218082427978516,10.695890426635742
1700944960103902200,9.678902099609376,1.4904545545578003,-0.022437095642089844,11.95880126953125
1700944960120890600,9.695890625,2.4154927730560303,-0.16814708709716797,12.500835418701172
1700944960137886700,9.71288671875,2.270512104034424,1.163034439086914,11.925105094909668
1700944960154880800,9.729880859375,1.8265453577041626,2.6873269081115723,11.143325805664062
1700944960171873300,9.746873291015625,0.9878948330879211,3.003368854522705,10.126829147338867
1700944960188867300,9.763867431640625,-0.025126397609710693,2.1963443756103516,8.655522346496582
1700944960205855700,9.780855712890625,-0.7920551896095276,0.7599544525146484,7.127225399017334
1700944960222858800,9.797858642578126,-0.9676270484924316,-0.7331943511962891,5.758767127990723
1700944960239847000,9.814846923828124,-0.4713488817214966,-1.7157645225524902,4.360091686248779
1700944960256841200,9.83184130859375,0.06428945064544678,-2.287112236022949,2.9860801696777344
1700944960273833700,9.848833740234374,0.8280687928199768,-2.2382798194885254,1.5025644302368164
1700944960290827800,9.865827880859374,1.2526886463165283,-2.1787757873535156,0.06395912170410156
1700944960307820000,9.882820068359376,1.3088825941085815,-2.1111879348754883,-1.5217270851135254
1700944960324815600,9.899815673828124,1.5225838422775269,-2.0384740829467773,-2.7928786277770996
1700944960341818600,9.916818603515624,1.6313674449920654,-2.005394220352173,-3.6911211013793945
1700944960358801700,9.9338017578125,1.7024288177490234,-2.08115553855896,-4.229115009307861
1700944960375794200,9.950794189453125,1.9481440782546997,-2.256181001663208,-4.339462757110596
1700944960392788700,9.967788818359375,2.5106067657470703,-2.5239768028259277,-3.8263182640075684
1700944960409781500,9.984781494140625,3.2732067108154297,-2.6696577072143555,-3.3275156021118164
1700944960426775300,10.001775390625,3.6236767768859863,-2.9504241943359375,-3.0728955268859863
1700944960443767600,10.018767578125,3.7024033069610596,-3.463454246520996,-2.737597942352295
1700944960460762600,10.0357626953125,4.1514410972595215,-4.1052374839782715,-2.200550079345703
1700944960477744400,10.052744384765624,4.930059432983398,-4.826831340789795,-1.2147512435913086
1700944960494748200,10.069748046875,5.788999557495117,-5.9706268310546875,0.21424388885498047
1700944960511742200,10.0867421875,6.707444190979004,-7.066396713256836,1.4002571105957031
1700944960528738600,10.103738525390625,7.518921852111816,-7.652396202087402,2.1893997192382812
1700944960545726000,10.120725830078126,7.732687473297119,-7.821960926055908,2.0225706100463867
1700944960562716000,10.1377158203125,6.651302337646484,-8.2807035446167,1.0861902236938477
1700944960579715000,10.154715087890626,4.990523338317871,-8.467878341674805,-0.6821928024291992
1700944960596709400,10.17170947265625,3.4267678260803223,-8.34358024597168,-2.7985315322875977
1700944960613702400,10.188702392578126,1.922580361366272,-8.111736297607422,-4.3659987449646
1700944960630696200,10.2056962890625,0.194785475730896,-7.766208648681641,-5.666313171386719
1700944960647688700,10.222688720703125,-1.4757256507873535,-6.916470050811768,-6.797117233276367
1700944960664683500,10.23968359375,-2.8413820266723633,-6.056920528411865,-7.5220513343811035
1700944960681675800,10.25667578125,-3.610581636428833,-5.312235355377197,-6.58713960647583
1700944960698638000,10.27363818359375,-4.101230621337891,-4.806838035583496,-3.9030585289001465
1700944960715662600,10.29066259765625,-4.491671562194824,-4.274806022644043,-2.121654510498047
1700944960732657000,10.307656982421875,-4.105172157287598,-3.6209988594055176,-1.625579833984375
1700944960749649700,10.324649658203125,-2.9731643199920654,-3.3788974285125732,-1.3682222366333008
1700944960766643700,10.341643798828125,-1.8259775638580322,-3.7534894943237305,-0.7769937515258789
1700944960783636200,10.35863623046875,-0.6925239562988281,-3.6079938411712646,-0.6190214157104492
1700944960800630300,10.37563037109375,-0.09412592649459839,-3.4208099842071533,-0.6651344299316406
1700944960817623000,10.392623046875,0.2670665979385376,-2.765770673751831,-0.6213645935058594
1700944960834617300,10.409617431640624,0.5344406366348267,-1.7101573944091797,-0.06514739990234375
1700944960851609900,10.42660986328125,0.6000161170959473,-0.48610782623291016,0.7606792449951172
1700944960868604400,10.4436044921875,0.20015853643417358,0.6651926040649414,1.5002498626708984
1700944960885597000,10.460596923828126,-0.13129675388336182,1.6366477012634277,2.195183753967285
1700944960902591000,10.477591064453126,-0.05429434776306152,2.4596147537231445,2.5142579078674316
1700944960919583000,10.4945830078125,0.21241426467895508,2.9704179763793945,2.5525760650634766
1700944960936578300,10.511578369140626,0.5753450989723206,3.2485158443450928,2.650528907775879
1700944960953570600,10.528570556640625,0.8107091188430786,3.4090688228607178,2.982114791870117
1700944960970564600,10.545564697265625,0.9296507239341736,3.402266263961792,3.6386237144470215
1700944960987557000,10.56255712890625,0.9626660346984863,3.9043867588043213,4.179265022277832
1700944961004551700,10.5795517578125,0.8882678747177124,4.43340539932251,4.6690897941589355
1700944961021554000,10.596553955078125,0.5452677011489868,4.444735050201416,5.012085437774658
1700944961038538200,10.613538330078125,0.15205097198486328,4.2420806884765625,5.397909641265869
1700944961055531000,10.630531005859375,-0.38734471797943115,4.070174217224121,5.793064117431641
1700944961072525000,10.647525146484375,-1.11602783203125,4.126219272613525,6.131043910980225
1700944961089517800,10.664517822265625,-1.623024344444275,4.167056083679199,6.32087516784668
1700944961106512000,10.681511962890625,-1.4486100673675537,3.9625816345214844,6.518324375152588
1700944961123504600,10.698504638671874,-0.6551055908203125,3.563689708709717,6.768621921539307
1700944961140499000,10.7154990234375,0.28592854738235474,3.300929069519043,6.727761268615723
1700944961157491500,10.732491455078126,0.5710663795471191,2.9343104362487793,7.079563140869141
1700944961174485500,10.749485595703124,0.0769854187965393,2.2829880714416504,7.63144588470459
1700944961191478000,10.76647802734375,-0.47141212224960327,1.5294480323791504,8.227388381958008
1700944961208473300,10.783473388671876,-0.5223668813705444,0.8231077194213867,8.450586318969727
1700944961225464000,10.800464111328125,-0.13334369659423828,0.36474084854125977,7.989048957824707
1700944961242450200,10.8174501953125,0.8160889148712158,0.43231964111328125,7.1896514892578125
1700944961259451600,10.83445166015625,1.6825660467147827,0.8335347175598145,6.810214042663574
1700944961276443600,10.851443603515625,2.288804054260254,1.5694527626037598,6.692221164703369
1700944961293441300,10.868441162109375,2.5811471939086914,1.7998981475830078,7.448765754699707
1700944961310425300,10.88542529296875,3.021052598953247,1.5760259628295898,8.34472370147705
1700944961327425300,10.90242529296875,3.2733352184295654,0.8739056587219238,8.243935585021973
1700944961344419600,10.919419677734375,3.530224323272705,-0.22921276092529297,7.238612651824951
1700944961361409800,10.936409912109376,4.339665412902832,-1.2155652046203613,6.037250995635986
1700944961378409200,10.9534091796875,4.593945503234863,-2.1852874755859375,5.1921892166137695
1700944961395399000,10.97039892578125,4.018199920654297,-2.894073009490967,4.956225395202637
1700944961412394200,10.987394287109375,3.056562662124634,-3.2894792556762695,4.944864273071289
1700944961429386200,11.00438623046875,2.0290682315826416,-3.525118827819824,3.9893312454223633
1700944961446380000,11.021380126953124,1.9343209266662598,-3.1866471767425537,2.507077217102051
1700944961463372800,11.038372802734376,2.210381507873535,-3.03739595413208,0.9209423065185547
1700944961480367400,11.055367431640626,2.8392512798309326,-2.94637393951416,-0.5007753372192383
1700944961497360000,11.07235986328125,3.5832202434539795,-3.039755344390869,-1.7084779739379883
1700944961514353700,11.089353759765626,4.274985313415527,-3.1501171588897705,-2.3054885864257812
1700944961531346400,11.106346435546875,4.932503700256348,-3.2129967212677,-2.450108528137207
1700944961548340700,11.1233408203125,4.927716255187988,-3.1580114364624023,-3.0176444053649902
1700944961565333500,11.14033349609375,4.594874858856201,-2.938889980316162,-3.991349220275879
1700944961582327300,11.157327392578125,4.130927085876465,-2.7130775451660156,-4.704439163208008
1700944961599320000,11.174320068359375,3.9290943145751953,-2.7050435543060303,-5.1729302406311035
1700944961616314400,11.191314453125,4.009398460388184,-2.6925199031829834,-5.553273677825928
1700944961633307400,11.208307373046875,4.095708847045898,-2.9204654693603516,-5.405735969543457
1700944961650301000,11.225301025390625,4.320052146911621,-3.0331335067749023,-5.405854225158691
1700944961667290000,11.2422900390625,4.753413200378418,-3.039322853088379,-5.715028285980225
1700944961684291800,11.259291748046875,4.945367336273193,-2.8765716552734375,-6.086511611938477
1700944961701281000,11.276281005859374,4.760240077972412,-2.728132724761963,-6.349716663360596
1700944961718277600,11.293277587890625,4.124262809753418,-2.715010404586792,-6.22845458984375
1700944961735264300,11.31026416015625,3.458383560180664,-2.8302431106567383,-5.55449104309082
1700944961752261600,11.32726171875,3.142526626586914,-2.9350547790527344,-4.152795314788818
1700944961769254400,11.34425439453125,2.899775505065918,-3.0917036533355713,-2.9464149475097656
1700944961786248400,11.36124853515625,2.4092013835906982,-3.3911490440368652,-2.424290180206299
1700944961803241000,11.378240966796875,2.0863187313079834,-3.9929473400115967,-2.3957505226135254
1700944961820238800,11.39523876953125,2.455801010131836,-4.591670513153076,-2.3932595252990723
1700944961837224700,11.412224609375,2.524752378463745,-4.781054973602295,-2.3529601097106934
1700944961854222000,11.42922216796875,1.6481739282608032,-5.133028030395508,-1.4873571395874023
1700944961871214800,11.44621484375,0.26903438568115234,-5.289013385772705,-0.48183631896972656
1700944961888209200,11.463209228515625,-0.5185692310333252,-5.25329065322876,0.009309768676757812
1700944961905202000,11.480201904296875,-0.5821176767349243,-5.103392124176025,0.20371627807617188
1700944961922195700,11.49719580078125,-0.6251498460769653,-4.916426181793213,0.06258869171142578
1700944961939188500,11.5141884765625,-1.012392282485962,-4.336616039276123,-0.32294273376464844
1700944961956180200,11.53118017578125,-0.9850443601608276,-3.38893461227417,-0.20807361602783203
1700944961973177900,11.548177734375,-0.5006104707717896,-2.2579128742218018,0.42408084869384766
1700944961990169300,11.56516943359375,-0.26296645402908325,-1.3074252605438232,1.0154762268066406
1700944962007161600,11.58216162109375,-0.4705773591995239,-0.6268420219421387,1.3452882766723633
1700944962024157000,11.599156982421874,-1.0376536846160889,-0.259462833404541,1.5339841842651367
1700944962041149200,11.616149169921876,-2.0921974182128906,-0.4428403377532959,1.707169532775879
1700944962058145000,11.63314501953125,-2.6763105392456055,-0.6999211311340332,2.1639089584350586
1700944962075133400,11.650133544921875,-2.566537857055664,-0.5101943016052246,2.801054000854492
1700944962092119600,11.66711962890625,-2.1547605991363525,-0.13812875747680664,3.347994804382324
1700944962109122800,11.684122802734375,-1.662682056427002,0.3433866500854492,3.5884151458740234
1700944962126116600,11.70111669921875,-1.1564337015151978,0.9008874893188477,3.6320886611938477
1700944962143109400,11.718109375,-0.7894178032875061,1.6703543663024902,3.435654640197754
1700944962160103400,11.735103515625,-0.9238523840904236,2.322448968887329,3.434147357940674
1700944962177096200,11.75209619140625,-1.3839764595031738,2.9428696632385254,3.3031458854675293
1700944962194090200,11.76909033203125,-1.6436634063720703,3.3436977863311768,3.2363619804382324
1700944962211082800,11.786082763671875,-1.3659332990646362,3.547520637512207,3.4477124214172363
1700944962228073500,11.803073486328126,-1.0053308010101318,3.7584588527679443,3.490812301635742
1700944962245069800,11.82006982421875,-0.9037827253341675,3.9947705268859863,3.5456738471984863
1700944962262063900,11.83706396484375,-1.707176685333252,4.253432273864746,3.5410451889038086
1700944962279056600,11.854056640625,-2.831273078918457,4.550121307373047,3.5280871391296387
1700944962296051000,11.871051025390624,-3.704615831375122,4.6751909255981445,3.776564598083496
1700944962313043500,11.88804345703125,-3.762721061706543,4.735543727874756,3.856049060821533
1700944962330035000,11.905034912109375,-3.0963430404663086,4.922000885009766,3.8242716789245605
1700944962347032800,11.92203271484375,-2.1316821575164795,4.907547950744629,4.028170108795166
1700944962364024300,11.9390244140625,-0.9064220786094666,4.765287399291992,4.381015300750732
1700944962381017000,11.95601708984375,-0.10009391605854034,4.326253890991211,4.747613906860352
1700944962398011100,11.97301123046875,0.3349080979824066,3.666722536087036,4.860607147216797
1700944962415004200,11.990004150390625,0.9559711217880249,3.2862446308135986,4.655040740966797
1700944962431998200,12.006998291015625,1.8781521320343018,3.002793788909912,4.731595039367676
1700944962448991000,12.023990966796875,3.039985179901123,2.651496410369873,5.238234519958496
1700944962465984800,12.04098486328125,3.781674385070801,1.9644417762756348,5.46809196472168
1700944962482977500,12.0579775390625,4.212798118591309,0.8286786079406738,5.601819038391113
1700944962499961000,12.074961181640624,4.64132022857666,-0.2868161201477051,5.426881313323975
1700944962516976600,12.0919765625,5.392053127288818,-0.8571286201477051,4.974614143371582
1700944962533958700,12.108958740234375,5.618587970733643,-1.1812286376953125,4.616571426391602
1700944962550951200,12.125951171875,5.213231086730957,-1.085035800933838,4.0945820808410645
1700944962567945700,12.14294580078125,4.868786334991455,-0.8779048919677734,3.5641660690307617
1700944962584938200,12.159938232421876,4.625644683837891,-1.0943489074707031,2.6304588317871094
1700944962601932300,12.176932373046874,4.604878902435303,-1.610590934753418,1.7522192001342773
1700944962618924500,12.193924560546876,4.754437446594238,-2.086526393890381,1.1000356674194336
1700944962635908600,12.21090869140625,5.036270618438721,-2.2282629013061523,1.1518430709838867
1700944962652911900,12.227911865234375,5.09942102432251,-1.5476469993591309,1.343888282775879
1700944962669901800,12.24490185546875,4.810267925262451,-0.6267657279968262,0.9941120147705078
1700944962686902500,12.261902587890624,4.036154747009277,0.30207204818725586,0.16741180419921875
1700944962703892700,12.278892822265625,3.4078481197357178,0.9081954956054688,-0.5491700172424316
1700944962720885200,12.29588525390625,3.3722143173217773,1.268052101135254,-1.0383844375610352
1700944962737869000,12.312869140625,4.011390686035156,1.427701711654663,-1.0221571922302246
1700944962754871800,12.329871826171875,4.551597595214844,1.2907304763793945,-0.7638497352600098
1700944962771866400,12.346866455078125,4.627407073974609,1.190230131149292,-0.954185962677002
1700944962788859100,12.363859130859375,4.26341438293457,1.0556039810180664,-1.5773415565490723
1700944962805849600,12.380849609375,3.9774534702301025,0.9895520210266113,-2.4846062660217285
1700944962822848800,12.397848876953125,4.0952935218811035,0.690542459487915,-3.0012693405151367
1700944962839840000,12.414840087890624,4.431380271911621,0.3401963710784912,-2.8181915283203125
1700944962856836400,12.43183642578125,4.730643272399902,-0.18365168571472168,-2.3573999404907227
1700944962873823000,12.448822998046875,5.0036211013793945,-0.5664045810699463,-2.417893886566162
1700944962890819000,12.465819091796876,5.108299255371094,-1.1523494720458984,-2.347667694091797
1700944962907801000,12.482801025390625,4.935735702514648,-2.0295250415802,-1.9023699760437012
1700944962924808400,12.499808349609374,4.12932825088501,-3.2426395416259766,-1.3901481628417969
1700944962941800200,12.51680029296875,3.749034881591797,-3.683741569519043,-1.6195306777954102
1700944962958792700,12.533792724609375,3.5086607933044434,-4.2744245529174805,-1.749556064605713
1700944962975787300,12.550787353515625,3.22701358795166,-5.140313148498535,-1.1292943954467773
1700944962992780000,12.567780029296875,2.7225542068481445,-5.440264701843262,-0.6154003143310547
1700944963009771300,12.584771240234375,1.1630220413208008,-5.742388725280762,-0.7877426147460938
1700944963026769200,12.60176904296875,-0.4301201105117798,-5.843465328216553,-2.021371841430664
1700944963043761000,12.618760986328125,-0.9351354837417603,-5.5973663330078125,-3.4017624855041504
1700944963060751000,12.635751220703124,-0.3973430395126343,-5.420957565307617,-3.7689666748046875
1700944963077750300,12.652750244140625,0.013454794883728027,-5.275251388549805,-3.4861068725585938
1700944963094740200,12.669740234375,-0.26105499267578125,-5.406413555145264,-3.0258946418762207
1700944963111734800,12.68673486328125,-0.8374481201171875,-5.637411594390869,-2.695382595062256
1700944963128727000,12.70372705078125,-1.0373040437698364,-5.563933849334717,-2.847167491912842
1700944963145721000,12.72072119140625,-0.5667248964309692,-4.9951629638671875,-3.368579387664795
1700944963162721500,12.737721435546876,0.3782888650894165,-4.029822826385498,-3.2113499641418457
1700944963179708200,12.754708251953126,1.0108332633972168,-3.2437903881073,-2.6649088859558105
1700944963196698600,12.77169873046875,1.516955018043518,-2.3381831645965576,-1.7942743301391602
1700944963213697300,12.788697265625,1.5396931171417236,-1.5050582885742188,-1.0084953308105469
1700944963230687200,12.805687255859375,1.2029162645339966,-0.774010181427002,-0.6061019897460938
1700944963247687200,12.822687255859375,0.7963725924491882,-0.1407480239868164,-0.44306278228759766
1700944963264675300,12.83967529296875,0.3908323645591736,0.38394641876220703,-0.2833538055419922
1700944963281668600,12.856668701171875,-0.10586154460906982,0.693547248840332,0.36693572998046875
1700944963298660600,12.87366064453125,-0.7019456624984741,0.9522404670715332,1.6629467010498047
1700944963315655700,12.89065576171875,-1.531564474105835,1.475658893585205,2.7900381088256836
1700944963332648200,12.907648193359375,-2.2186741828918457,2.0034427642822266,3.463768482208252
1700944963349642000,12.92464208984375,-2.6785402297973633,2.220855712890625,4.277407169342041
1700944963366635000,12.941635009765625,-3.148650884628296,2.729726791381836,4.845582008361816
1700944963383629000,12.958629150390625,-3.7713232040405273,3.2670536041259766,5.484775543212891
1700944963400618200,12.9756181640625,-4.343353271484375,3.9232594966888428,5.991740703582764
1700944963417619500,12.992619384765625,-4.6260666847229,4.218963623046875,6.56427526473999
1700944963434608400,13.0096083984375,-4.189488410949707,3.995525360107422,7.1103715896606445
1700944963451602700,13.026602783203124,-3.231827974319458,3.520270347595215,7.590428352355957
1700944963468595700,13.043595703125,-2.1628730297088623,3.0621719360351562,7.942652702331543
1700944963485589500,13.060589599609376,-1.3351432085037231,2.8742690086364746,8.114502906799316
1700944963502582000,13.07758203125,-0.9873952269554138,2.658414840698242,7.923157215118408
1700944963519576600,13.09457666015625,-0.51583331823349,2.3506598472595215,7.428748607635498
1700944963536568800,13.11156884765625,0.1480277180671692,1.2990612983703613,7.3468217849731445
1700944963553572000,13.128572021484375,0.9635100364685059,0.019931793212890625,7.505010604858398
1700944963570556000,13.145555908203125,1.9961615800857544,-0.8741540908813477,7.795510768890381
1700944963587546600,13.162546630859374,2.9861714839935303,-0.6726031303405762,7.614335536956787
1700944963604542500,13.17954248046875,3.741875410079956,0.2301774024963379,7.44861364364624
1700944963621534000,13.196533935546874,3.7794063091278076,1.0746111869812012,7.4784979820251465
1700944963638531600,13.213531494140625,2.9090843200683594,0.9376354217529297,7.353174209594727
1700944963655523800,13.23052392578125,1.9126503467559814,-0.019693374633789062,6.890611171722412
1700944963672516400,13.247516357421874,1.5067375898361206,-1.9003958702087402,6.6427106857299805
1700944963689510000,13.264510009765624,1.7060234546661377,-3.3267931938171387,6.140842437744141
1700944963706502700,13.281502685546876,1.988877534866333,-4.197298526763916,5.564770698547363
1700944963723497500,13.29849755859375,2.3847832679748535,-4.6245503425598145,4.794857025146484
1700944963740487400,13.3154873046875,2.7723441123962402,-4.7115936279296875,3.4568729400634766
1700944963757486300,13.332486328125,3.270592212677002,-4.976235866546631,2.143895149230957
1700944963774474000,13.349473876953125,3.297236680984497,-5.2807769775390625,0.7531518936157227
1700944963791473400,13.366473388671874,3.183774471282959,-5.304347515106201,-0.637202262878418
1700944963808453000,13.383453125,3.092233657836914,-5.076073169708252,-2.0271658897399902
1700944963825457700,13.400457763671875,3.2528319358825684,-4.813429355621338,-3.437124729156494
1700944963842447600,13.417447509765625,3.6300768852233887,-4.691133975982666,-4.382511615753174
1700944963859447000,13.434447021484376,3.993682384490967,-5.156091213226318,-4.3915581703186035
1700944963876437000,13.45143701171875,4.1946282386779785,-5.442726135253906,-4.487216472625732
1700944963893431300,13.468431396484375,4.441493034362793,-5.518910884857178,-4.802507400512695
1700944963910423800,13.485423828125,4.583199501037598,-5.566495895385742,-5.337911605834961
1700944963927418000,13.502418212890625,4.584735870361328,-5.8501434326171875,-5.844274520874023
1700944963944404500,13.519404541015625,4.4789533615112305,-6.552214622497559,-5.758188247680664
1700944963961405000,13.536405029296875,4.324450492858887,-7.2456207275390625,-5.586150169372559
1700944963978397700,13.553397705078124,4.349051475524902,-7.615933418273926,-5.546363830566406
1700944963995391700,13.570391845703124,4.5820465087890625,-7.991002559661865,-5.266924858093262
1700944964012382000,13.5873818359375,4.73140287399292,-8.560294151306152,-4.680224895477295
1700944964029381000,13.604381103515625,4.944589614868164,-9.200977325439453,-4.007759094238281
1700944964046370800,13.621370849609375,5.338953971862793,-9.417047500610352,-3.431936264038086
1700944964063365600,13.63836572265625,5.576539039611816,-9.643230438232422,-2.478158950805664
1700944964080353800,13.655353759765624,5.147221088409424,-10.026665687561035,-1.0412254333496094
1700944964097356300,13.672356201171874,4.114504814147949,-10.347871780395508,0.004605293273925781
1700944964114344700,13.6893447265625,2.435053825378418,-9.876909255981445,0.2247486114501953
1700944964131339300,13.70633935546875,0.7010238170623779,-8.59837818145752,-0.29367828369140625
1700944964148331800,13.723331787109375,-0.5972433090209961,-7.0431647300720215,-0.816737174987793
1700944964165325800,13.740325927734375,-1.2958142757415771,-5.894705772399902,-0.33374786376953125
1700944964182314800,13.757314697265626,-1.3161342144012451,-5.112948417663574,1.0901079177856445
1700944964199316200,13.774316162109375,-1.3936994075775146,-4.441943168640137,2.890223503112793
1700944964216305400,13.791305419921875,-1.6183898448944092,-3.6039493083953857,3.708857536315918
1700944964233299500,13.808299560546875,-2.2063474655151367,-3.0371265411376953,2.8944501876831055
1700944964250292200,13.825292236328124,-2.72778058052063,-2.72747802734375,1.484196662902832
1700944964267286000,13.8422861328125,-2.821458101272583,-2.469895362854004,0.49173641204833984
1700944964284286000,13.859285888671875,-2.365415096282959,-2.1245012283325195,0.34222888946533203
1700944964301270500,13.8762705078125,-1.4264616966247559,-1.445310115814209,0.8591890335083008
1700944964318268000,13.893267822265624,-0.9160933494567871,-0.6111087799072266,1.6736326217651367
1700944964335260000,13.910260009765626,-0.5142068862915039,0.5603418350219727,2.2379679679870605
1700944964352252700,13.927252685546875,-0.3190598487854004,1.6658515930175781,2.549182415008545
1700944964369246700,13.944246826171875,-0.5145866870880127,2.5479421615600586,2.5545454025268555
1700944964386239500,13.961239501953125,-0.4700435996055603,3.345911979675293,2.5858540534973145
1700944964403233300,13.9782333984375,-0.700199544429779,4.2226972579956055,2.651404857635498
1700944964420226800,13.995226806640625,-1.121193528175354,4.849208831787109,3.080519676208496
1700944964437220000,14.01222021484375,-1.52400803565979,5.558436393737793,3.6284303665161133
1700944964454212900,14.029212890625,-1.878659725189209,5.95590877532959,4.042536735534668
1700944964471207200,14.046207275390625,-2.160214424133301,6.182764053344727,4.2919921875
1700944964488197400,14.063197265625,-2.419469118118286,6.052271842956543,4.620959281921387
1700944964505196500,14.080196533203125,-2.6603994369506836,6.002760887145996,4.80978536605835
1700944964522186500,14.0971865234375,-2.4889333248138428,5.890354633331299,4.786656379699707
1700944964539181000,14.11418115234375,-2.276223659515381,5.07793664932251,4.972846984863281
1700944964556173600,14.131173583984374,-2.024171829223633,4.014682769775391,5.319492340087891
1700944964573167400,14.14816748046875,-2.026129961013794,2.9752402305603027,5.74483060836792
1700944964590160100,14.16516015625,-2.357255697250366,2.6573896408081055,5.883255958557129
1700944964607158000,14.182157958984375,-2.985672950744629,2.817890167236328,5.898212432861328
1700944964624144000,14.199143798828125,-2.8435661792755127,2.4756603240966797,6.905551433563232
1700944964641141200,14.216141357421876,-2.254755735397339,1.810204029083252,8.469305038452148
1700944964658133800,14.2331337890625,-1.6233878135681152,0.49538469314575195,9.916409492492676
1700944964675128000,14.250128173828125,-1.1231560707092285,-1.3233861923217773,10.716421127319336
1700944964692118500,14.267118408203125,-0.3277907371520996,-2.1380367279052734,10.057069778442383
1700944964709106200,14.284106201171875,0.9179792404174805,-1.7881112098693848,9.192955017089844
1700944964726107100,14.301107177734375,1.9339762926101685,-0.08587217330932617,8.410825729370117
1700944964743102000,14.31810205078125,1.7852047681808472,1.1250262260437012,7.805820465087891
1700944964760094500,14.335094482421875,1.3451693058013916,1.0902695655822754,7.253377914428711
1700944964777088500,14.352088623046875,0.9800076484680176,-0.3035731315612793,6.666543006896973
1700944964794079000,14.369078857421876,0.9002373218536377,-2.476646900177002,6.369222640991211
1700944964811077600,14.38607763671875,0.7882388830184937,-4.186673641204834,5.446049213409424
1700944964828067800,14.40306787109375,0.802137017250061,-5.059354305267334,3.948873519897461
1700944964845062100,14.420062255859374,1.085841417312622,-5.5771613121032715,2.4214344024658203
1700944964862054400,14.437054443359376,1.5830001831054688,-5.713033199310303,1.0798559188842773
1700944964879048700,14.454048583984376,1.9905261993408203,-5.452809810638428,-0.3079662322998047
1700944964896042000,14.4710419921875,2.3885364532470703,-5.144824981689453,-1.4528741836547852
1700944964913029000,14.488029052734374,2.4937026500701904,-4.881841659545898,-2.6319122314453125
1700944964930028300,14.5050283203125,2.4778523445129395,-4.778634548187256,-3.709524631500244
1700944964947022600,14.522022705078125,2.4357004165649414,-4.614992618560791,-4.976149559020996
1700944964964015400,14.539015380859375,2.3654072284698486,-4.442906379699707,-6.040184020996094
1700944964981009200,14.556009033203125,2.3120551109313965,-4.612297534942627,-6.535593032836914
1700944964998002000,14.573001953125,2.1543655395507812,-4.590685844421387,-6.947233200073242
1700944965014996200,14.589996337890625,2.181772470474243,-4.395122051239014,-6.990108489990234
1700944965031989000,14.606989013671875,2.36322021484375,-4.109976291656494,-6.867430686950684
1700944965048983000,14.623983154296875,2.48760986328125,-3.7582216262817383,-6.820956230163574
1700944965065957600,14.64095751953125,2.5717060565948486,-4.015815258026123,-6.689072608947754
1700944965082969900,14.657969970703125,3.001802444458008,-4.348336219787598,-6.469606399536133
1700944965099951900,14.674951904296876,3.461817502975464,-4.769345760345459,-6.088600158691406
1700944965116956200,14.6919560546875,3.7368357181549072,-5.1550164222717285,-5.571656227111816
1700944965133949000,14.708948974609376,3.89833402633667,-5.558695316314697,-4.956610202789307
1700944965150943500,14.725943603515624,3.7589588165283203,-6.316511154174805,-3.818007469177246
1700944965167936000,14.74293603515625,3.5651702880859375,-7.102774620056152,-2.2555947303771973
1700944965184930300,14.759930419921876,3.413705825805664,-7.76505708694458,-0.46392059326171875
1700944965201922800,14.7769228515625,3.2091541290283203,-8.312774658203125,0.5311737060546875
1700944965218916900,14.793916748046875,2.561983108520508,-8.692585945129395,1.2195758819580078
1700944965235909600,14.81090966796875,1.7475873231887817,-8.779611587524414,1.8346672058105469
1700944965252894500,14.82789453125,0.6107804775238037,-8.464001655578613,2.3666467666625977
1700944965269896200,14.844896240234375,-0.13091111183166504,-7.2295732498168945,2.6067543029785156
1700944965286890500,14.861890380859375,0.042905569076538086,-5.390505790710449,3.1141481399536133
1700944965303883500,14.878883544921875,-0.2252368927001953,-3.9565372467041016,3.676783561706543
1700944965320877000,14.895876953125,-0.744174599647522,-2.9330105781555176,3.8642473220825195
1700944965337869800,14.912869873046875,-0.8973727226257324,-2.408390998840332,3.2114648818969727
1700944965354863000,14.929863037109374,-0.53643798828125,-2.4871792793273926,2.2403106689453125
1700944965371857200,14.946857177734374,0.38017189502716064,-2.3922019004821777,0.9819402694702148
1700944965388833500,14.96383349609375,0.8805773854255676,-2.0156655311584473,-0.0252685546875
1700944965405845200,14.98084521484375,1.2008962631225586,-1.1745123863220215,-0.9427661895751953
1700944965422839000,14.997839111328124,1.2303217649459839,-0.18825101852416992,-1.6442723274230957
1700944965439830500,15.01483056640625,0.9180468320846558,0.6885709762573242,-1.8982195854187012
1700944965456824600,15.031824462890626,0.7398286461830139,1.524381399154663,-1.807591438293457
1700944965473817600,15.048817626953126,0.4981846809387207,2.105921983718872,-1.4313263893127441
1700944965490811100,15.06581103515625,0.5324670076370239,2.720682144165039,-1.0150799751281738
1700944965507810800,15.082810791015625,0.4924314022064209,3.120134115219116,-0.43117189407348633
1700944965524782600,15.099782470703126,0.3454558253288269,3.6226327419281006,-0.021492481231689453
1700944965541791000,15.116791015625,0.15820395946502686,3.7390336990356445,0.861691951751709
1700944965558785300,15.133785400390625,0.022391855716705322,3.988102674484253,1.5522613525390625
1700944965575777800,15.15077783203125,-0.0734521746635437,4.195620536804199,2.1114306449890137
1700944965592771800,15.167771728515625,-0.3243255615234375,4.162067413330078,2.9588537216186523
1700944965609764400,15.184764404296875,-0.8716733455657959,3.7609403133392334,4.155917167663574
1700944965626756400,15.20175634765625,-1.5415946245193481,3.4629364013671875,4.974978923797607
1700944965643743500,15.218743408203125,-2.8281991481781006,3.356428623199463,5.139412879943848
1700944965660730400,15.23573046875,-3.9574382305145264,3.416492462158203,5.227601528167725
1700944965677742800,15.252742919921875,-4.268487453460693,3.2183804512023926,5.630378246307373
1700944965694732500,15.269732666015624,-3.0972166061401367,2.9220352172851562,6.486466884613037
1700944965711725000,15.28672509765625,-1.4632519483566284,2.3904542922973633,7.709641933441162
1700944965728718800,15.30371875,-0.34068864583969116,1.8114237785339355,8.940630912780762
1700944965745709600,15.32070947265625,0.3433251976966858,0.8019719123840332,9.801493644714355
1700944965762699300,15.33769921875,0.9882044792175293,-0.44849586486816406,10.51434326171875
1700944965779696000,15.354696044921875,1.9914660453796387,-1.1037216186523438,11.242437362670898
1700944965796695300,15.3716953125,2.7005486488342285,-0.2212390899658203,11.826051712036133
1700944965813685200,15.388685302734375,2.575291633605957,1.6785626411437988,12.470216751098633
1700944965830679800,15.4056796875,2.0669424533843994,3.0911288261413574,12.691694259643555
1700944965847672000,15.422672119140625,1.3801451921463013,3.073026180267334,11.542644500732422
1700944965864666000,15.439666015625,0.5037177801132202,1.7044172286987305,9.183347702026367
1700944965881659100,15.4566591796875,0.21234214305877686,-0.18073558807373047,7.205843925476074
1700944965898653000,15.47365283203125,0.4027535915374756,-1.5627098083496094,5.536794185638428
1700944965915646000,15.49064599609375,0.9142798781394958,-2.5813698768615723,4.183828830718994
1700944965932639700,15.5076396484375,1.4969669580459595,-3.045388698577881,2.987760066986084
1700944965949632500,15.524632568359374,1.9398117065429688,-2.9701600074768066,1.5185065269470215
1700944965966627000,15.541626953125,2.0764853954315186,-2.6650538444519043,-0.1920323371887207
1700944965983609600,15.558609619140626,1.92409348487854,-2.2381720542907715,-1.792135238647461
1700944966000613400,15.57561328125,1.639650583267212,-1.624009132385254,-3.221397876739502
1700944966017595600,15.592595703125,1.4275662899017334,-1.2243576049804688,-4.103458404541016
1700944966034591500,15.609591552734376,1.2725796699523926,-1.089029312133789,-4.6971211433410645
1700944966051590400,15.62659033203125,1.365458369255066,-1.2815682888031006,-4.902681350708008
1700944966068589600,15.643589599609374,1.6276099681854248,-1.5211102962493896,-5.027593612670898
1700944966085579500,15.66057958984375,2.1957688331604004,-1.4921367168426514,-5.430063724517822
1700944966102574000,15.677573974609375,2.65496826171875,-1.6298456192016602,-5.708381652832031
1700944966119566800,15.69456689453125,2.8968396186828613,-2.005188226699829,-5.680718421936035
1700944966136560600,15.711560546875,2.829400062561035,-2.8088889122009277,-5.17434549331665
1700944966153553200,15.72855322265625,2.8713207244873047,-3.6036553382873535,-4.9112396240234375
1700944966170538200,15.745538330078125,2.962310791015625,-4.020367622375488,-5.069243431091309
1700944966187540000,15.7625400390625,2.7951858043670654,-4.8216447830200195,-4.933842658996582
1700944966204534500,15.779534423828125,2.9447197914123535,-6.1949262619018555,-4.375603675842285
1700944966221527000,15.796527099609374,3.920609951019287,-7.065482139587402,-3.696220874786377
1700944966238518800,15.813518798828126,4.815634727478027,-7.343588829040527,-2.8118648529052734
1700944966255516400,15.830516357421875,4.797345161437988,-7.526598930358887,-1.5241284370422363
1700944966272507600,15.847507568359376,4.134185314178467,-7.673524856567383,-0.9763412475585938
1700944966289500400,15.86450048828125,3.1201910972595215,-7.984679222106934,-0.9123458862304688
1700944966306495000,15.881494873046876,1.9601627588272095,-8.56922721862793,-0.7308425903320312
1700944966323487700,15.89848779296875,0.7525033950805664,-9.216300964355469,-0.7292966842651367
1700944966340481500,15.9154814453125,0.5150201320648193,-8.902545928955078,-0.9726028442382812
1700944966357474000,15.93247412109375,2.0201845169067383,-7.426257133483887,-1.3400278091430664
1700944966374468600,15.949468505859375,3.528815269470215,-5.521352291107178,-1.109807014465332
1700944966391461000,15.966461181640625,3.8790087699890137,-4.039885520935059,0.20064163208007812
1700944966408455000,15.983454833984375,3.0978572368621826,-2.859586000442505,1.2922449111938477
1700944966425447400,16.000447509765625,1.6151573657989502,-2.2828750610351562,1.750391960144043
1700944966442437000,16.01743701171875,0.5073066353797913,-1.7947053909301758,1.2267522811889648
1700944966459434800,16.034434814453125,0.16466456651687622,-1.2294559478759766,0.10374927520751953
1700944966476427800,16.051427734375,0.16673368215560913,-0.5973696708679199,-1.0574126243591309
1700944966493422000,16.068422119140624,0.5526522397994995,-0.01845073699951172,-1.7817611694335938
1700944966510415600,16.08541552734375,1.2112081050872803,0.6099729537963867,-1.6526250839233398
1700944966527408400,16.102408447265624,1.5909960269927979,1.4470934867858887,-0.8620147705078125
1700944966544402400,16.11940234375,1.1050686836242676,2.3508527278900146,0.10482168197631836
1700944966561395200,16.136395263671876,0.02785438299179077,3.127469778060913,0.7183480262756348
1700944966578387000,16.153386962890625,-0.870983362197876,3.84067702293396,0.5665502548217773
1700944966595384300,16.17038427734375,-1.164910912513733,4.1819329261779785,0.5885710716247559
1700944966612375800,16.187375732421874,-0.5897325873374939,4.4197306632995605,0.9756937026977539
1700944966629368300,16.204368408203123,0.32159942388534546,4.691649436950684,1.2994351387023926
1700944966646360800,16.22136083984375,1.1253993511199951,4.769269943237305,1.9286017417907715
1700944966663357700,16.238357666015624,0.8227233290672302,4.290640830993652,3.080575466156006
1700944966680349400,16.255349365234373,0.08914303779602051,4.145270347595215,4.025129318237305
1700944966697334300,16.272334228515625,-1.151467204093933,4.189448833465576,5.290520191192627
1700944966714336800,16.289336669921877,-2.752547025680542,4.343958854675293,6.147689342498779
1700944966731329300,16.306329345703126,-3.5361149311065674,4.488561630249023,6.75046968460083
1700944966748323300,16.3233232421875,-2.629950761795044,4.290760040283203,7.53181266784668
1700944966765315800,16.34031591796875,-0.9283395409584045,3.5355567932128906,8.53824234008789
1700944966782310100,16.35731005859375,0.9333536028862,2.418440818786621,9.498051643371582
1700944966799302700,16.374302734375,2.703204870223999,1.2707605361938477,9.9779691696167
1700944966816296700,16.391296630859376,3.7962989807128906,0.23090171813964844,10.458852767944336
1700944966833276200,16.408276123046875,4.507390975952148,-0.2114086151123047,11.008310317993164
1700944966850286300,16.425286376953125,4.885896682739258,0.14913654327392578,11.225931167602539
1700944966867276300,16.4422763671875,4.749011516571045,1.0838603973388672,10.793172836303711
1700944966884273000,16.45927294921875,3.800565242767334,1.7265219688415527,9.78598403930664
1700944966901263000,16.47626318359375,2.36484432220459,1.407447338104248,8.553072929382324
1700944966918257400,16.49325732421875,1.3181647062301636,0.7744097709655762,7.169551849365234
1700944966935250000,16.51025,0.8274221420288086,-0.101287841796875,5.9459710121154785
1700944966952244000,16.527243896484375,0.892645001411438,-0.9210152626037598,5.149494171142578
1700944966969236500,16.544236572265625,0.8523108959197998,-1.6223945617675781,4.491529941558838
1700944966986231000,16.56123095703125,0.6349166631698608,-1.9541759490966797,3.635251045227051
1700944967003223800,16.578223876953125,0.3824530243873596,-1.912539005279541,2.17854642868042
1700944967020217600,16.595217529296875,0.21065765619277954,-1.8304681777954102,0.6857233047485352
1700944967037210000,16.612210205078124,0.35564300417900085,-1.6354632377624512,-0.5767850875854492
1700944967054204400,16.629204345703126,1.014772653579712,-1.31150484085083,-1.5292253494262695
1700944967071197200,16.646197265625,1.9351667165756226,-0.9862804412841797,-1.999356746673584
1700944967088191200,16.663191162109374,2.59289288520813,-0.9547696113586426,-2.204629421234131
1700944967105179400,16.680179443359375,2.773484230041504,-1.0305368900299072,-2.6732797622680664
1700944967122182400,16.697182373046875,2.4821438789367676,-1.1834328174591064,-3.464552402496338
1700944967139160600,16.71416064453125,2.2449142932891846,-1.2543115615844727,-4.426963806152344
1700944967156164900,16.731164794921874,2.080350875854492,-1.3736300468444824,-4.917540073394775
1700944967173157000,16.7481572265625,2.2403907775878906,-1.5929086208343506,-4.908667087554932
1700944967190151200,16.765151123046873,2.6032955646514893,-1.769801139831543,-4.513003826141357
1700944967207142100,16.78214208984375,2.974454879760742,-1.7621995210647583,-4.135790824890137
1700944967224140800,16.799140869140626,3.124950647354126,-1.774623155593872,-4.107673168182373
1700944967241131000,16.816131103515627,2.948986530303955,-1.9904959201812744,-4.163426399230957
1700944967258125300,16.833125244140625,3.0254688262939453,-2.479571580886841,-4.0121541023254395
1700944967275118000,16.8501181640625,3.0617642402648926,-3.343193769454956,-3.499286651611328
1700944967292112100,16.867112060546877,3.2091050148010254,-3.967050552368164,-3.2339377403259277
1700944967309104400,16.8841044921875,3.6053411960601807,-4.233358860015869,-3.273806571960449
1700944967326100500,16.9011005859375,4.088514804840088,-4.953030109405518,-2.928157329559326
1700944967343091700,16.918091796875,4.342545509338379,-5.968116283416748,-2.101728916168213
1700944967360085500,16.93508544921875,4.210363864898682,-6.837968826293945,-1.670659065246582
1700944967377078300,16.952078369140626,3.2297942638397217,-7.079333305358887,-1.5127696990966797
1700944967394072600,16.969072509765624,1.5209532976150513,-6.9941487312316895,-1.581716537475586
1700944967411065000,16.986065185546874,-0.2324749231338501,-7.102870464324951,-2.1623477935791016
1700944967428059000,17.003058837890624,-0.4368457794189453,-7.126827239990234,-2.293935775756836
1700944967445051400,17.020051513671874,0.784109354019165,-6.724312782287598,-1.8218636512756348
1700944967462046200,17.037046142578124,1.8142368793487549,-5.852293491363525,-1.1943120956420898
1700944967479038700,17.054038818359373,2.003520965576172,-5.1161675453186035,-0.6393346786499023
1700944967496029200,17.071029296875,1.2888100147247314,-4.392219543457031,-0.16083526611328125
1700944967513025300,17.088025390625,0.012335032224655151,-3.3300108909606934,0.19354915618896484
1700944967530019800,17.105019775390623,-1.769421935081482,-2.4490966796875,0.6312131881713867
1700944967547008800,17.1220087890625,-3.4801809787750244,-1.973029613494873,1.4259400367736816
1700944967564009700,17.139009765625,-4.7228875160217285,-1.157364845275879,1.7911086082458496
1700944967580989400,17.155989501953126,-4.676228046417236,-0.4520702362060547,2.1097583770751953
1700944967597991000,17.172990966796874,-3.4273617267608643,0.10736274719238281,2.4627199172973633
1700944967614988800,17.18998876953125,-1.8069205284118652,0.44637632369995117,2.947021961212158
1700944967631979800,17.206979736328126,-0.05155828595161438,0.7443828582763672,3.4972925186157227
1700944967648972800,17.223972900390624,0.8067736029624939,1.2964653968811035,3.774491786956787
1700944967665966800,17.240966796875,0.6275910139083862,1.9837865829467773,3.3695197105407715
1700944967682959600,17.257959716796876,-0.15645873546600342,2.414675235748291,2.642284870147705
1700944967699953400,17.274953369140626,-0.6457410454750061,2.675678253173828,2.1091694831848145
1700944967716946000,17.29194580078125,-0.3727586567401886,2.8348731994628906,2.1670494079589844
1700944967733940500,17.3089404296875,0.6301248073577881,2.928318500518799,2.868378162384033
1700944967750933200,17.325933349609375,1.5451303720474243,3.312540054321289,3.416792392730713
1700944967767927000,17.342927001953125,1.7398626804351807,3.6922898292541504,3.8475890159606934
1700944967784917200,17.359917236328126,1.1520692110061646,4.174889087677002,3.9738755226135254
1700944967801911300,17.376911376953124,0.25661689043045044,4.487705230712891,4.228806495666504
1700944967818906600,17.39390673828125,-0.714645266532898,4.899741172790527,4.442633628845215
1700944967835900700,17.410900634765625,-1.4738613367080688,5.23917293548584,4.663843631744385
1700944967852893400,17.4278935546875,-1.893304705619812,5.359500408172607,4.862823486328125
1700944967869887700,17.4448876953125,-1.8710771799087524,5.344773769378662,4.871384620666504
1700944967886880300,17.46188037109375,-1.4652352333068848,4.958162784576416,4.821578025817871
1700944967903874300,17.478874267578124,-1.2605865001678467,4.370032787322998,4.487324237823486
1700944967920866800,17.49586669921875,-0.7253578901290894,3.890921115875244,3.939824104309082
1700944967937861000,17.512861083984376,0.1996384859085083,3.4421610832214355,3.8369197845458984
1700944967954854000,17.52985400390625,1.2104740142822266,2.761951446533203,4.113823890686035
1700944967971839200,17.546839111328126,1.4884308576583862,2.035165786743164,4.168007850646973
1700944967988840400,17.56384033203125,1.0649466514587402,1.3152542114257812,3.9470291137695312
1700944968005836500,17.58083642578125,0.3687479794025421,0.7594404220581055,3.147268772125244
1700944968022826000,17.597825927734377,0.2016201913356781,0.5422158241271973,2.4422855377197266
1700944968039821600,17.614821533203123,0.4562986493110657,0.4515705108642578,2.1378955841064453
1700944968056814300,17.631814453125,0.724987804889679,0.25509071350097656,2.0177865028381348
1700944968073808600,17.64880859375,0.43116649985313416,-0.144195556640625,1.910402774810791
1700944968090801000,17.66580078125,-0.5136504769325256,-0.48527097702026367,1.1120944023132324
1700944968107795000,17.682794921875,-1.3141790628433228,-0.7783560752868652,-0.08319425582885742
1700944968124787700,17.69978759765625,-1.6261659860610962,-0.8967571258544922,-1.172663688659668
1700944968141781800,17.71678173828125,-1.4745937585830688,-0.9196505546569824,-1.9989795684814453
1700944968158774800,17.73377490234375,-0.9665383696556091,-0.8767476081848145,-2.3939342498779297
1700944968175765800,17.750765869140626,-0.3488389253616333,-1.03452730178833,-2.3102645874023438
1700944968192764000,17.767763916015625,0.37699609994888306,-1.4179368019104004,-2.064030647277832
1700944968209755600,17.784755615234374,1.1700459718704224,-1.721114158630371,-1.7040352821350098
1700944968226748400,17.80174853515625,1.8820531368255615,-2.135005474090576,-0.9804019927978516
1700944968243742000,17.818741943359374,2.6107428073883057,-2.1944527626037598,-0.021333694458007812
1700944968260735000,17.83573486328125,3.2685160636901855,-1.734816551208496,1.1685371398925781
1700944968277729000,17.85272900390625,3.6575305461883545,-1.04888916015625,2.500631332397461
1700944968294721800,17.8697216796875,3.816213369369507,0.21605682373046875,3.709339141845703
1700944968311715800,17.8867158203125,3.5060107707977295,1.2474112510681152,4.748398303985596
1700944968328708400,17.903708251953127,2.8211123943328857,1.5762596130371094,4.777912616729736
1700944968345693000,17.92069287109375,2.5154199600219727,1.2383160591125488,4.0092926025390625
1700944968362695200,17.937695068359375,2.9197540283203125,0.6426630020141602,3.0237293243408203
1700944968379687200,17.954687255859376,4.088930130004883,0.38988542556762695,2.606879234313965
1700944968396681000,17.971680908203126,5.254488468170166,0.6681971549987793,2.6783390045166016
1700944968413676500,17.988676513671876,5.2484822273254395,1.1415290832519531,3.0755014419555664
1700944968430668800,18.005668701171874,3.988701105117798,1.8825101852416992,2.444167137145996
1700944968447663000,18.0226630859375,2.4010746479034424,2.2386322021484375,1.3691558837890625
1700944968464656000,18.03965576171875,1.856370449066162,2.365748405456543,0.5910530090332031
1700944968481647600,18.056647705078124,2.4754278659820557,2.431273937225342,0.40259265899658203
1700944968498634500,18.073634521484376,3.621873378753662,2.27071213722229,0.7917242050170898
1700944968515636500,18.090636474609376,4.387152671813965,2.2681164741516113,1.3285951614379883
1700944968532629200,18.107629150390625,4.166695594787598,2.1903769969940186,1.4243688583374023
1700944968549623600,18.12462353515625,3.4269471168518066,1.9756464958190918,1.4684181213378906
1700944968566616000,18.141615966796873,2.733872890472412,1.5809643268585205,1.3363094329833984
1700944968583610600,18.158610595703124,2.6554296016693115,1.1370956897735596,1.300389289855957
1700944968600599800,18.175599853515624,3.0450026988983154,0.7138819694519043,1.2655467987060547
1700944968617599700,18.192599853515624,3.6011085510253906,0.1985478401184082,1.1438398361206055
1700944968634581000,18.2095810546875,4.169916152954102,-0.4038057327270508,0.7964134216308594
1700944968651571200,18.2265712890625,4.523140907287598,-1.2172720432281494,0.5824794769287109
1700944968668576500,18.243576416015625,4.173000812530518,-2.066725969314575,0.1097707748413086
1700944968685570800,18.26057080078125,3.452878952026367,-2.8888978958129883,-0.41112422943115234
1700944968702563600,18.2775634765625,2.73553466796875,-3.6785995960235596,-0.8066091537475586
1700944968719557400,18.294557373046874,1.9494988918304443,-4.260333061218262,-1.3699941635131836
1700944968736550000,18.3115498046875,1.3729201555252075,-5.0486931800842285,-1.8224859237670898
1700944968753544200,18.328544189453126,1.1398775577545166,-5.641547679901123,-2.5117297172546387
1700944968770537200,18.345537109375,1.1120505332946777,-6.0655293464660645,-3.470712661743164
1700944968787531000,18.362531005859374,0.7616459131240845,-6.450559139251709,-3.8523364067077637
1700944968804523500,18.3795234375,0.44434618949890137,-6.490912914276123,-4.275949001312256
1700944968821517800,18.396517822265626,0.1953110694885254,-5.9409589767456055,-4.424079418182373
1700944968838506200,18.41350634765625,-0.6813741326332092,-5.01387882232666,-4.740118980407715
1700944968855509000,18.430509033203126,-1.3067348003387451,-4.217348098754883,-4.542336463928223
1700944968872497000,18.447496826171875,-1.362890362739563,-3.753314733505249,-3.6662020683288574
1700944968889481000,18.46448095703125,-1.1144160032272339,-3.64926815032959,-2.6961355209350586
1700944968906484200,18.481484130859375,-1.020455002784729,-3.537830352783203,-2.2070751190185547
1700944968923478000,18.49847802734375,-1.3207919597625732,-3.456268310546875,-2.107105255126953
1700944968940470800,18.515470703125,-1.6824619770050049,-3.2251408100128174,-2.3304495811462402
1700944968957465000,18.532465087890625,-1.9070217609405518,-2.7969956398010254,-2.34141206741333
1700944968974457600,18.54945751953125,-1.9947528839111328,-2.155186653137207,-2.0152549743652344
1700944968991451600,18.56645166015625,-2.1802878379821777,-1.3660705089569092,-1.7036490440368652
1700944969008444400,18.5834443359375,-2.360914707183838,-0.6167759895324707,-1.3431811332702637
1700944969025444400,18.6004443359375,-2.2867398262023926,-0.10251474380493164,-0.9457879066467285
1700944969042433800,18.617433837890626,-1.9002902507781982,0.31368303298950195,-0.6085114479064941
1700944969059425300,18.63442529296875,-1.2453879117965698,0.6730828285217285,-0.2385387420654297
1700944969076418000,18.65141796875,-0.6656242609024048,0.9420003890991211,0.030321121215820312
1700944969093401600,18.668401611328125,-0.006905913352966309,1.040112018585205,0.6233973503112793
1700944969110404900,18.68540478515625,0.9498379230499268,1.0495867729187012,1.7021541595458984
1700944969127398700,18.702398681640624,1.8838367462158203,1.2846498489379883,2.951465606689453
1700944969144391200,18.71939111328125,1.828245997428894,1.754859447479248,4.415478706359863
1700944969161385700,18.7363857421875,0.9427129030227661,2.4042086601257324,5.413973331451416
1700944969178378200,18.753378173828125,0.08313649892807007,3.1631669998168945,5.992608547210693
1700944969195372300,18.770372314453127,-0.31312596797943115,3.6697998046875,6.738958835601807
1700944969212365000,18.787364990234376,-0.13799268007278442,4.123067855834961,7.677065849304199
1700944969229359600,18.804359619140627,0.43173688650131226,4.29789400100708,8.680415153503418
1700944969246355200,18.821355224609373,0.9960168600082397,4.287949085235596,9.276723861694336
1700944969263343400,18.83834326171875,1.2511100769042969,4.095937728881836,8.734800338745117
1700944969280341000,18.855341064453125,1.057986855506897,3.7570505142211914,7.856263160705566
1700944969297330400,18.872330322265626,0.7626288533210754,3.3396825790405273,7.1837687492370605
1700944969314328300,18.889328369140625,0.9079478979110718,2.6510777473449707,6.823663711547852
1700944969331319800,18.90631982421875,1.706355333328247,1.4968934059143066,6.953068733215332
1700944969348312300,18.923312255859376,2.6559882164001465,0.6823725700378418,6.679057598114014
1700944969365306600,18.940306640625,3.4956157207489014,-0.12168598175048828,6.227221488952637
1700944969382299400,18.95729931640625,3.9742932319641113,-1.2806744575500488,5.581086158752441
1700944969399293200,18.974293212890625,4.205967903137207,-2.29807710647583,4.854915618896484
1700944969416292900,18.99129296875,4.094322204589844,-2.751892566680908,4.34915018081665
1700944969433280300,19.0082802734375,3.675168037414551,-2.881009578704834,4.177243709564209
1700944969450273000,19.02527294921875,3.8922226428985596,-2.6738123893737793,3.7794203758239746
1700944969467266600,19.0422666015625,3.983232021331787,-2.686188220977783,2.888213634490967
1700944969484259300,19.05925927734375,4.180339813232422,-3.400233268737793,3.0490036010742188
1700944969501253600,19.076253662109377,5.036750316619873,-4.310969352722168,3.9517250061035156
1700944969518246400,19.093246337890626,6.177931308746338,-5.11441707611084,4.6716413497924805
1700944969535240400,19.110240478515625,6.319913864135742,-6.0469889640808105,4.821573257446289
1700944969552233000,19.12723291015625,5.4240851402282715,-6.401810646057129,3.767828941345215
1700944969569227300,19.144227294921876,4.589303016662598,-6.051892280578613,2.113210678100586
1700944969586220000,19.161219970703126,4.314273834228516,-5.371406555175781,0.9738807678222656
1700944969603213800,19.1782138671875,3.758296251296997,-4.76090145111084,0.7922000885009766
1700944969620218000,19.195218017578124,2.6678080558776855,-4.858511924743652,1.421748161315918
1700944969637201200,19.212201171875,1.0731048583984375,-5.555772304534912,1.3732833862304688
1700944969654185500,19.229185546875,0.027769863605499268,-5.421045303344727,-0.1371316909790039
1700944969671187200,19.246187255859375,-0.11321485042572021,-4.960097312927246,-2.068937301635742
1700944969688169500,19.26316943359375,0.47126537561416626,-4.59011697769165,-3.422706127166748
1700944969705172000,19.280171875,1.3717716932296753,-4.297443389892578,-4.22377347946167
1700944969722166800,19.297166748046877,1.9434616565704346,-4.383565425872803,-4.295415878295898
1700944969739160800,19.314160888671875,1.8644777536392212,-4.497960090637207,-4.452008247375488
1700944969756153900,19.33115380859375,1.3278131484985352,-4.605708122253418,-5.007767677307129
1700944969773148200,19.348148193359375,0.9093466401100159,-4.524753570556641,-5.858516693115234
1700944969790143500,19.3651435546875,0.7783371210098267,-4.395199775695801,-6.705641746520996
1700944969807121400,19.382121337890624,0.8856120109558105,-4.327542304992676,-7.316362380981445
1700944969824127200,19.399127197265624,1.1734837293624878,-4.471566200256348,-7.570254325866699
1700944969841121800,19.416121826171874,1.5366590023040771,-4.947737693786621,-7.3982038497924805
1700944969858114300,19.4331142578125,1.7129343748092651,-5.970990180969238,-6.82251501083374
1700944969875108000,19.450108154296874,1.6550178527832031,-6.869171619415283,-6.003068923950195
1700944969892100900,19.467100830078124,1.090137004852295,-7.360205173492432,-5.299446105957031
1700944969909093000,19.484093017578125,0.266528844833374,-7.868433952331543,-4.818641185760498
1700944969926086100,19.501086181640623,0.39157289266586304,-8.832642555236816,-3.4894533157348633
1700944969943085600,19.51808544921875,1.2529293298721313,-9.553865432739258,-1.699131965637207
1700944969960074500,19.535074462890623,1.6833325624465942,-10.025300979614258,0.5482416152954102
1700944969977069000,19.552069091796874,1.113826870918274,-10.20275592803955,2.0653152465820312
1700944969994061600,19.5690615234375,-0.23441076278686523,-10.099529266357422,2.733062744140625
1700944970011054800,19.586054931640625,-1.1840732097625732,-9.65366268157959,3.3438243865966797
1700944970028048400,19.60304833984375,-1.1107765436172485,-8.351365089416504,3.9316043853759766
1700944970045042200,19.620042236328125,-0.2573949098587036,-6.356163024902344,4.476467132568359
1700944970062019600,19.63701953125,0.5041535496711731,-4.350494861602783,5.349042892456055
1700944970079029000,19.654029052734376,0.08266985416412354,-2.6344094276428223,5.8306474685668945
1700944970096021500,19.671021484375,-1.0139186382293701,-1.3575634956359863,5.309490203857422
1700944970113016000,19.68801611328125,-1.7657064199447632,-1.0301017761230469,4.501830101013184
1700944970130008300,19.70500830078125,-1.4172290563583374,-0.9979133605957031,3.410076141357422
1700944970146999800,19.721999755859375,-0.16224455833435059,-0.8398666381835938,2.3188705444335938
1700944970163979500,19.7389794921875,1.171756625175476,-0.3032665252685547,1.3822050094604492
1700944970180989700,19.75598974609375,2.235531806945801,0.7073349952697754,0.8410568237304688
1700944970197976800,19.772976806640624,2.345708131790161,1.864346981048584,0.5414581298828125
1700944970214976300,19.789976318359376,2.1282269954681396,2.6667494773864746,0.4910860061645508
1700944970231968800,19.80696875,1.9318692684173584,3.3992719650268555,0.29511594772338867
1700944970248963000,19.823963134765624,1.9069569110870361,4.114107131958008,-0.014389991760253906
1700944970265955600,19.84095556640625,1.6345105171203613,4.723753929138184,-0.2860398292541504
1700944970282949600,19.85794970703125,1.2655398845672607,5.094991683959961,-0.11672019958496094
1700944970299942100,19.874942138671877,1.131496787071228,5.295771598815918,0.6391425132751465
1700944970316936400,19.8919365234375,1.2328919172286987,5.544538974761963,1.4293246269226074
1700944970333929000,19.908928955078125,1.335683822631836,6.049291133880615,1.7721691131591797
1700944970350923300,19.92592333984375,0.8742631673812866,6.544522285461426,2.317873477935791
1700944970367915500,19.94291552734375,-0.19647490978240967,6.371423721313477,3.689296245574951
1700944970384910000,19.95991015625,-0.3128432035446167,5.734096527099609,4.895965099334717
1700944970401903000,19.976903076171876,0.28356826305389404,5.081136703491211,6.331995010375977
1700944970418897000,19.99389697265625,1.0270413160324097,4.1616315841674805,7.81326961517334
1700944970435879200,20.010879150390625,1.4303147792816162,3.7877871990203857,8.269464492797852
1700944970452883500,20.027883544921874,0.4575197100639343,3.3771562576293945,8.025479316711426
1700944970469876500,20.04487646484375,-0.5961201190948486,2.581361770629883,7.962153434753418
1700944970486870500,20.06187060546875,-0.21414494514465332,1.645909309387207,8.386444091796875
1700944970503862800,20.07886279296875,1.1117947101593018,0.3623199462890625,9.015301704406738
1700944970520854800,20.095854736328125,2.8194031715393066,-0.6550774574279785,9.483253479003906
1700944970537852700,20.112852783203124,4.039700508117676,-0.5912413597106934,9.414167404174805
1700944970554840800,20.1298408203125,3.741044759750366,-0.0666046142578125,8.955251693725586
1700944970571835400,20.14683544921875,2.4197652339935303,0.27353763580322266,8.178911209106445
1700944970588830000,20.163829833984376,0.6978909373283386,-0.03424263000488281,7.285279750823975
1700944970605821200,20.1808212890625,-0.25359445810317993,-1.0407137870788574,6.413753986358643
1700944970622820000,20.197820068359373,-0.08668076992034912,-2.206892967224121,5.435290336608887
1700944970639807700,20.214807861328126,-0.08876267075538635,-3.32228422164917,4.216477394104004
1700944970656804600,20.2318046875,-0.36143264174461365,-3.760629653930664,2.6672468185424805
1700944970673800000,20.248800048828127,-0.8245943784713745,-3.570113182067871,0.7201433181762695
1700944970690799900,20.2657998046875,-1.1795681715011597,-3.107875347137451,-1.0216140747070312
1700944970707783700,20.28278369140625,-1.1142460107803345,-2.8700897693634033,-1.9505009651184082
1700944970724778000,20.299778076171876,-0.6796949505805969,-3.015484094619751,-2.2601194381713867
1700944970741770800,20.316770751953126,-0.007504969835281372,-3.2027759552001953,-2.481658458709717
1700944970758764800,20.333764892578124,0.485565721988678,-3.393629550933838,-3.109435558319092
1700944970775757000,20.350757080078125,0.7729264497756958,-3.5154285430908203,-4.047909259796143
1700944970792751600,20.367751708984375,1.0410796403884888,-3.8732523918151855,-4.731350421905518
1700944970809744600,20.38474462890625,1.2128453254699707,-4.244143486022949,-5.102987289428711
1700944970826738000,20.401738037109375,1.3810629844665527,-4.41500997543335,-5.304833889007568
1700944970843731000,20.41873095703125,1.5391056537628174,-4.284470081329346,-5.477540493011475
1700944970860714500,20.435714599609376,1.7509549856185913,-4.180071830749512,-5.634014129638672
1700944970877718000,20.452718017578125,1.944878339767456,-4.402039051055908,-5.824426174163818
1700944970894711800,20.4697119140625,2.0648369789123535,-5.242239952087402,-5.673728942871094
1700944970911691000,20.48669091796875,2.2879371643066406,-6.165840148925781,-5.475269317626953
1700944970928701400,20.503701416015623,3.032212257385254,-6.619831085205078,-5.4055304527282715
1700944970945691100,20.520691162109376,3.8582308292388916,-6.926589488983154,-5.055464267730713
1700944970962685200,20.537685302734374,4.534879207611084,-7.527124404907227,-4.530580520629883
1700944970979683800,20.554683837890625,5.052301406860352,-8.459124565124512,-3.430968761444092
1700944970996672500,20.571672607421874,4.722023010253906,-8.856175422668457,-2.726292610168457
1700944971013664800,20.588664794921876,2.9411396980285645,-8.823570251464844,-2.062196731567383
1700944971030658800,20.605658935546874,0.7932981252670288,-8.594295501708984,-1.4417829513549805
1700944971047651300,20.6226513671875,-1.0592288970947266,-8.660511016845703,-0.9635705947875977
1700944971064646100,20.639646240234374,-1.2025699615478516,-8.385875701904297,-0.6828632354736328
1700944971081638400,20.656638427734375,-0.09609329700469971,-7.191344261169434,-0.7598056793212891
1700944971098625300,20.673625244140624,0.6868997812271118,-5.679330825805664,-0.30576610565185547
1700944971115625200,20.690625244140627,0.6140835881233215,-3.9690089225769043,0.6743984222412109
1700944971132619500,20.70761962890625,-0.7343877553939819,-2.9287796020507812,1.9712982177734375
1700944971149612300,20.7246123046875,-2.072850227355957,-2.092806816101074,2.839797019958496
1700944971166606000,20.741606201171876,-2.6600351333618164,-1.6232972145080566,3.049984931945801
1700944971183598800,20.758598876953126,-2.0538039207458496,-1.3149404525756836,2.5642032623291016
1700944971200583200,20.775583251953126,-0.8947427272796631,-1.0617294311523438,1.8839588165283203
1700944971217585700,20.792585693359374,0.31248360872268677,-0.5832552909851074,1.942530632019043
1700944971234579500,20.809579345703124,1.1912089586257935,0.35453081130981445,2.478787422180176
1700944971251572000,20.826572021484374,1.3167141675949097,1.640655517578125,2.361215591430664
1700944971268566500,20.84356640625,1.3157620429992676,2.840623617172241,2.355907440185547
1700944971285559300,20.860559326171874,0.9844341278076172,3.823378801345825,2.879812717437744
1700944971302552000,20.877552001953124,-0.011052131652832031,4.510313987731934,3.071141242980957
1700944971319547400,20.89454736328125,-0.8561996221542358,4.856161594390869,2.75419282913208
1700944971336540000,20.911539794921875,-1.1671433448791504,5.184309959411621,1.9878358840942383
1700944971353533000,20.928532958984373,-0.2496401071548462,5.139695167541504,1.654141902923584
1700944971370526700,20.945526611328123,1.0486769676208496,5.116316795349121,1.7719898223876953
1700944971387519200,20.962519287109377,1.7222126722335815,4.994619369506836,2.518134593963623
1700944971404513800,20.979513671875,1.4005759954452515,4.517276763916016,3.274724006652832
1700944971421506300,20.99650634765625,0.6896343231201172,3.94193434715271,3.8213443756103516
1700944971438500400,21.013500244140626,0.15868520736694336,3.304389476776123,3.8456273078918457
1700944971455493000,21.0304931640625,-0.08330029249191284,3.000636577606201,3.3061089515686035
1700944971472484400,21.047484375,0.029417872428894043,2.876187801361084,3.1440019607543945
1700944971489482800,21.064482666015625,0.3384169042110443,2.571364402770996,3.6374897956848145
1700944971506474000,21.081473876953126,0.6944725513458252,2.210671901702881,4.249504089355469
1700944971523456000,21.0984560546875,0.9293994903564453,2.0125741958618164,4.644525527954102
1700944971540460800,21.115460693359374,0.5174002051353455,1.688936710357666,5.2947468757629395
1700944971557453600,21.13245361328125,0.05450016260147095,1.475207805633545,6.3714518547058105
1700944971574447400,21.149447265625,0.2574593126773834,1.0251450538635254,7.715677261352539
1700944971591440100,21.166440185546875,0.9603303670883179,0.43373870849609375,8.920870780944824
1700944971608434400,21.183434326171874,1.5218474864959717,0.11950492858886719,9.195106506347656
1700944971625426700,21.2004267578125,1.758467197418213,0.4652080535888672,9.25197982788086
1700944971642413000,21.2174130859375,1.5632141828536987,1.424872875213623,9.250604629516602
1700944971659403000,21.234403076171876,0.9569099545478821,2.260284423828125,9.225103378295898
1700944971676408000,21.251407958984377,0.49530598521232605,2.2061386108398438,9.014657974243164
1700944971693400600,21.268400634765626,0.16304248571395874,1.3373332023620605,8.196252822875977
1700944971710394600,21.28539453125,0.04615689814090729,0.2917804718017578,6.9062652587890625
1700944971727392000,21.30239208984375,-0.038058847188949585,-0.6232433319091797,5.632521152496338
1700944971744381700,21.319381591796876,0.10902035236358643,-1.3320975303649902,4.646816253662109
1700944971761374200,21.336374267578126,0.32310861349105835,-1.869272232055664,3.703479766845703
1700944971778368300,21.3533681640625,0.5013172626495361,-2.339358329772949,2.780454635620117
1700944971795360800,21.37036083984375,0.6096286773681641,-2.723442554473877,1.4871482849121094
1700944971812355000,21.38735498046875,0.8348017930984497,-2.9817163944244385,-0.011697769165039062
1700944971829347800,21.404347900390626,1.1912256479263306,-2.9482548236846924,-1.59025239944458
1700944971846341600,21.421341552734376,1.4905657768249512,-2.873187303543091,-2.8730592727661133
1700944971863324000,21.438323974609375,1.7190611362457275,-2.8405590057373047,-3.725490093231201
1700944971880326000,21.455325927734375,1.9195654392242432,-2.880699634552002,-4.4241180419921875
1700944971897324000,21.472323974609374,2.025682210922241,-3.0525062084198,-5.078274726867676
1700944971914315300,21.489315185546875,2.013512372970581,-3.2871766090393066,-5.850583553314209
1700944971931308000,21.50630810546875,2.401500940322876,-3.2457964420318604,-6.186208724975586
1700944971948302300,21.52330224609375,2.465203285217285,-3.5646870136260986,-5.8438215255737305
1700944971965294800,21.540294921875,2.551067590713501,-3.9586007595062256,-5.215846538543701
1700944971982289000,21.557288818359375,2.640244245529175,-4.391502380371094,-4.675642490386963
1700944971999281200,21.57428125,2.5057334899902344,-4.7081685066223145,-4.426795959472656
1700944972016275700,21.591275634765626,2.212186813354492,-4.999042510986328,-4.202085018157959
1700944972033268500,21.6082685546875,1.6420245170593262,-5.585474014282227,-3.7502379417419434
1700944972050262300,21.62526220703125,1.4132729768753052,-6.030633926391602,-3.412374496459961
1700944972067254800,21.6422548828125,1.6585578918457031,-6.63393497467041,-2.7950501441955566
