time,seconds_elapsed,z,y,x
1700936698169716500,0.112716552734375,-0.7307686805725098,-0.9330520629882812,0.4240427017211914
1700936698186712000,0.129712158203125,-1.07893705368042,-2.1882941722869873,1.5643994808197021
1700936698203702000,0.146701904296875,-0.8567051887512207,-0.728330135345459,0.009235382080078125
1700936698220698400,0.163698486328125,-0.311647891998291,-0.5618252754211426,-1.250710368156433
1700936698237691400,0.18069140625,-0.7986483573913574,-2.453726053237915,0.2397444248199463
1700936698254686200,0.197686279296875,-2.5607008934020996,-2.7354736328125,1.550511360168457
1700936698271686700,0.214686767578125,-3.6745145320892334,-3.7874505519866943,1.6304638385772705
1700936698288669200,0.231669189453125,-3.3360366821289062,-4.710745334625244,-0.21861910820007324
1700936698305665800,0.248665771484375,-1.0869593620300293,-4.807168960571289,-3.3585805892944336
1700936698322662100,0.265662109375,0.24300813674926758,-5.969688415527344,-4.624753952026367
1700936698339657200,0.2826572265625,-2.425680637359619,-6.927309036254883,-4.256353378295898
1700936698356634400,0.29963427734375,-6.471421241760254,-6.963409900665283,-3.1330478191375732
1700936698373641700,0.316641845703125,-6.932795524597168,-7.63618278503418,-2.0191683769226074
1700936698390638600,0.333638671875,-3.0565764904022217,-7.119784832000732,-2.3235955238342285
1700936698407632600,0.350632568359375,0.13853049278259277,-7.262678146362305,-2.23215389251709
1700936698424623900,0.367623779296875,1.042434811592102,-7.3931074142456055,-1.7528085708618164
1700936698441621200,0.384621337890625,0.7051637172698975,-6.894997596740723,-0.25556373596191406
1700936698458616000,0.401615966796875,-1.299622893333435,-6.075849533081055,1.60491943359375
1700936698475605000,0.41860498046875,-2.2605297565460205,-5.16382360458374,2.3956260681152344
1700936698492604000,0.43560400390625,-2.1152279376983643,-4.73964786529541,2.8335084915161133
1700936698509594000,0.452593994140625,-0.571723222732544,-4.379322528839111,3.3649978637695312
1700936698526591200,0.46959130859375,1.6255929470062256,-3.91584849357605,4.2167558670043945
1700936698543581400,0.48658154296875,2.8965747356414795,-3.152463912963867,5.075647354125977
1700936698560577800,0.503577880859375,2.862480640411377,-2.501486301422119,6.01848030090332
1700936698577573400,0.520573486328125,2.371661424636841,-2.1829962730407715,5.870565414428711
1700936698594563000,0.53756298828125,2.332367181777954,-2.1376218795776367,5.159052848815918
1700936698611543300,0.554543212890625,2.398698568344116,-2.0427405834198,5.061470985412598
1700936698628555300,0.57155517578125,1.7270135879516602,-2.1398937702178955,5.081117630004883
1700936698645545200,0.588545166015625,1.5586674213409424,-1.7067289352416992,4.866228103637695
1700936698662542300,0.605542236328125,1.5114917755126953,-1.3439922332763672,4.912653923034668
1700936698679535400,0.622535400390625,1.2742277383804321,-1.09089994430542,5.769538879394531
1700936698696531200,0.63953125,1.124539852142334,-0.4671664237976074,7.376122951507568
1700936698713523000,0.65652294921875,1.3690965175628662,0.575446605682373,8.70815658569336
1700936698730515700,0.673515625,1.111327052116394,2.0388994216918945,8.696562767028809
1700936698747502600,0.690502685546875,0.022449016571044922,3.019972801208496,7.9446916580200195
1700936698764503000,0.7075029296875,-0.24212968349456787,3.6740474700927734,7.003525257110596
1700936698781499100,0.7244990234375,-0.6250214576721191,3.821776866912842,6.572099208831787
1700936698798494700,0.74149462890625,-1.098741888999939,3.701594829559326,7.767948150634766
1700936698815485000,0.75848486328125,-1.4955381155014038,4.079916954040527,7.642566204071045
1700936698832482000,0.77548193359375,-2.066425323486328,4.115237236022949,6.1518473625183105
1700936698849475000,0.79247509765625,-2.162034273147583,3.6009511947631836,4.537974834442139
1700936698866471000,0.809470947265625,-1.5296809673309326,2.9615683555603027,4.426387310028076
1700936698883456500,0.82645654296875,-1.0005075931549072,2.1913537979125977,5.169975280761719
1700936698900461000,0.8434609375,-1.004455327987671,1.8049325942993164,6.170891284942627
1700936698917452800,0.860452880859375,-1.99795663356781,1.889235019683838,6.9418439865112305
1700936698934442500,0.8774423828125,-3.1832118034362793,2.2086048126220703,6.751022815704346
1700936698951428600,0.8944287109375,-3.640120029449463,2.216982364654541,6.147372722625732
1700936698968434700,0.9114345703125,-2.718736410140991,1.9004788398742676,5.390230178833008
1700936698985424400,0.92842431640625,-1.0392570495605469,1.279109001159668,5.628298282623291
1700936699002421800,0.945421875,0.243474543094635,1.176630973815918,6.268458366394043
1700936699019415000,0.9624150390625,0.44820523262023926,1.4046473503112793,7.39548397064209
1700936699036410600,0.97941064453125,-0.514551043510437,1.3242573738098145,7.862570285797119
1700936699053400300,0.996400390625,-1.3932278156280518,0.3801913261413574,8.103527069091797
1700936699070397000,1.01339697265625,-1.6574610471725464,-0.5420780181884766,7.5419487953186035
1700936699087392800,1.030392822265625,-1.0388931035995483,-0.648564338684082,6.58538293838501
1700936699104382200,1.04738232421875,-0.11361366510391235,-0.2874150276184082,5.686064720153809
1700936699121378800,1.06437890625,1.2082178592681885,-1.0926246643066406,6.212628364562988
1700936699138378000,1.0813779296875,1.7798590660095215,-2.238950729370117,7.493990421295166
1700936699155360800,1.09836083984375,1.5420128107070923,-3.3440608978271484,8.640707969665527
1700936699172372200,1.115372314453125,0.7890870571136475,-3.8212032318115234,7.825342178344727
1700936699189357600,1.132357666015625,1.0949275493621826,-4.717611312866211,6.409076690673828
1700936699206347500,1.149347412109375,1.699141502380371,-6.293241500854492,5.133491516113281
1700936699223340300,1.16634033203125,2.3287370204925537,-6.614047050476074,3.227879524230957
1700936699240337000,1.1833369140625,2.9235970973968506,-6.039705276489258,2.117979049682617
1700936699257324800,1.20032470703125,3.436152219772339,-5.563460350036621,1.0504083633422852
1700936699274320600,1.217320556640625,3.2472727298736572,-5.495985984802246,0.40997982025146484
1700936699291320000,1.234320068359375,3.858689308166504,-5.862526893615723,-0.10994815826416016
1700936699308313900,1.25131396484375,4.426397323608398,-6.156037330627441,-1.5503106117248535
1700936699325304300,1.26830419921875,4.869614601135254,-5.989625453948975,-3.291959762573242
1700936699342291000,1.285291015625,5.153501987457275,-5.479581832885742,-4.679914951324463
1700936699359292400,1.30229248046875,5.294422149658203,-5.043736457824707,-5.057886123657227
1700936699376290300,1.319290283203125,4.885198593139648,-4.906035423278809,-4.814275741577148
1700936699393279700,1.33627978515625,4.298194885253906,-5.041776180267334,-4.036611557006836
1700936699410273000,1.35327294921875,4.153949737548828,-5.105868339538574,-3.953754425048828
1700936699427269600,1.37026953125,4.647374153137207,-5.110522270202637,-4.748786449432373
1700936699444264200,1.38726416015625,5.3255720138549805,-5.190807819366455,-5.660696506500244
1700936699461258200,1.40425830078125,6.041383266448975,-5.152637958526611,-6.068151950836182
1700936699478254000,1.421254150390625,6.201363563537598,-5.438284397125244,-5.7030487060546875
1700936699495243500,1.438243408203125,6.0521087646484375,-5.830699920654297,-4.821216106414795
1700936699512241200,1.4552412109375,5.869218349456787,-5.913492679595947,-3.6550960540771484
1700936699529234200,1.472234130859375,5.917070388793945,-6.045154571533203,-2.611417770385742
1700936699546229500,1.4892294921875,5.545198917388916,-6.448965549468994,-2.338432788848877
1700936699563230000,1.50622998046875,5.546045303344727,-7.124798774719238,-2.4444055557250977
1700936699580216000,1.523216064453125,5.600131988525391,-7.818220615386963,-2.5920066833496094
1700936699597214500,1.54021435546875,5.278256893157959,-8.550849914550781,-1.8562564849853516
1700936699614198800,1.55719873046875,4.3217291831970215,-8.83492374420166,-0.216278076171875
1700936699631202000,1.5742021484375,2.5275135040283203,-9.58874225616455,1.0228815078735352
1700936699648187100,1.591187255859375,0.12727642059326172,-10.70577335357666,0.31124305725097656
1700936699665172700,1.6081728515625,0.10689759254455566,-11.32076358795166,-2.010875701904297
1700936699682183700,1.62518359375,1.4915499687194824,-11.181020736694336,-2.691765308380127
1700936699699178200,1.64217822265625,2.8241376876831055,-10.862344741821289,0.8197622299194336
1700936699716170800,1.659170654296875,3.3443689346313477,-10.063840866088867,5.7993059158325195
1700936699733163800,1.676163818359375,3.194899082183838,-8.427824020385742,8.496262550354004
1700936699750158300,1.693158447265625,2.096285343170166,-6.724366188049316,8.758964538574219
1700936699767151400,1.7101513671875,0.7025566101074219,-4.876279354095459,6.7334394454956055
1700936699784141300,1.727141357421875,-0.3585638999938965,-3.36074161529541,4.07199764251709
1700936699801137700,1.7441376953125,-1.3725475072860718,-2.20595645904541,2.2274532318115234
1700936699818133200,1.76113330078125,-2.2656545639038086,-1.4967212677001953,3.534262180328369
1700936699835132000,1.7781318359375,-2.159670829772949,0.1028132438659668,6.228209018707275
1700936699852121000,1.79512109375,-2.2585196495056152,1.8662028312683105,6.620943069458008
1700936699869113000,1.812113037109375,-2.1751527786254883,3.3177032470703125,5.329382419586182
1700936699886109200,1.829109130859375,-2.2504358291625977,4.135112762451172,3.2851171493530273
1700936699903099400,1.846099365234375,-2.173455238342285,4.437692642211914,1.42887544631958
1700936699920085000,1.8630849609375,-1.6585174798965454,4.331301689147949,0.10792064666748047
1700936699937091000,1.880091064453125,-0.7648338079452515,4.285815238952637,-0.5179433822631836
1700936699954080800,1.897080810546875,0.07607805728912354,4.507171630859375,-0.2628459930419922
1700936699971077000,1.9140771484375,0.6157777905464172,4.820564270019531,0.6603512763977051
1700936699988073200,1.9310732421875,0.5423449873924255,5.378300189971924,1.136007308959961
1700936700005063000,1.94806298828125,-0.0930032730102539,5.353866100311279,1.124323844909668
1700936700022061000,1.96506103515625,-0.9050672054290771,5.1912078857421875,0.7114787101745605
1700936700039053300,1.98205322265625,-1.5425249338150024,5.037744522094727,0.43451452255249023
1700936700056039200,1.9990390625,-1.8259738683700562,4.597434043884277,1.180614948272705
1700936700073032200,2.0160322265625,-1.9756898880004883,4.0764641761779785,3.307037830352783
1700936700090035000,2.033034912109375,-1.9823898077011108,3.763721466064453,5.20558500289917
1700936700107029200,2.050029296875,-1.7836276292800903,3.5868682861328125,5.874045372009277
1700936700124027100,2.067027099609375,-1.1829913854599,3.815063953399658,5.774513244628906
1700936700141022500,2.0840224609375,-0.4154442548751831,3.54884672164917,6.133722305297852
1700936700158012700,2.1010126953125,0.4661130905151367,2.9961862564086914,7.276634693145752
1700936700175002600,2.118002685546875,1.1618149280548096,2.3684825897216797,8.686983108520508
1700936700191999700,2.134999755859375,1.4629693031311035,1.1231451034545898,10.06969165802002
1700936700208993000,2.151992919921875,1.3105369806289673,-0.23581695556640625,10.788381576538086
1700936700225988400,2.16898828125,1.3926013708114624,-1.4837446212768555,11.206058502197266
1700936700242978800,2.185978759765625,0.7186517119407654,-2.1137800216674805,11.00165843963623
1700936700259974700,2.202974609375,0.011973381042480469,-1.3322858810424805,10.327680587768555
1700936700276968000,2.219968017578125,-0.559576153755188,0.1905503273010254,9.547629356384277
1700936700293963000,2.236962890625,-0.2506972551345825,0.49950551986694336,9.400561332702637
1700936700310956800,2.253956787109375,0.34442102909088135,-1.2281079292297363,10.307577133178711
1700936700327952600,2.27095263671875,0.009524703025817871,-3.2693872451782227,10.22032642364502
1700936700344941600,2.287941650390625,-0.8214539289474487,-4.72208833694458,9.190589904785156
1700936700361937700,2.304937744140625,-0.9453209638595581,-5.2109222412109375,7.143000602722168
1700936700378933800,2.321933837890625,-0.17037177085876465,-5.668280124664307,5.094935417175293
1700936700395953700,2.33895361328125,0.6575485467910767,-6.77802848815918,3.567765235900879
1700936700412925200,2.35592529296875,1.0105901956558228,-7.061091423034668,1.807978630065918
1700936700429901800,2.37290185546875,1.7491891384124756,-6.771834373474121,-0.09148025512695312
1700936700446910200,2.38991015625,2.5106592178344727,-6.240912914276123,-1.927915096282959
1700936700463899400,2.4068994140625,3.3674323558807373,-5.697464942932129,-3.3854761123657227
1700936700480894500,2.42389453125,3.953481435775757,-5.52254581451416,-4.803082466125488
1700936700497889500,2.4408896484375,4.369373321533203,-5.679116249084473,-6.034469127655029
1700936700514872000,2.4578720703125,4.709373474121094,-5.865555763244629,-6.96677303314209
1700936700531880000,2.4748798828125,4.784964561462402,-5.741509437561035,-7.603039741516113
1700936700548870000,2.491869873046875,4.581846237182617,-5.533877372741699,-7.794066429138184
1700936700565866500,2.508866455078125,4.438884258270264,-5.3833160400390625,-7.59876823425293
1700936700582865400,2.525865478515625,4.13962459564209,-5.599480628967285,-7.254861831665039
1700936700599855400,2.54285546875,3.7292275428771973,-6.265537738800049,-6.892554759979248
1700936700616850400,2.559850341796875,3.573643684387207,-6.998571395874023,-6.585830211639404
1700936700633839900,2.57683984375,3.8234243392944336,-7.4827351570129395,-6.605751991271973
1700936700650836200,2.593836181640625,4.172625541687012,-7.9351019859313965,-6.375988960266113
1700936700667831800,2.610831787109375,4.254499435424805,-8.722227096557617,-4.962043762207031
1700936700684814300,2.627814453125,4.309666156768799,-9.518943786621094,-3.0074148178100586
1700936700701815800,2.64481591796875,4.266809940338135,-9.713004112243652,-1.1287012100219727
1700936700718815700,2.661815673828125,3.9167933464050293,-9.676535606384277,0.9601612091064453
1700936700735804000,2.678803955078125,3.295680046081543,-9.714007377624512,2.4116010665893555
1700936700752801000,2.695801025390625,2.539886236190796,-9.956575393676758,2.968782424926758
1700936700769794000,2.7127939453125,1.7865569591522217,-10.433977127075195,2.936112403869629
1700936700786788400,2.729788330078125,1.507768154144287,-10.047197341918945,2.614138603210449
1700936700803780900,2.74678076171875,1.8394536972045898,-8.165216445922852,2.452524185180664
1700936700820777700,2.76377783203125,1.9340569972991943,-5.912466049194336,2.7401981353759766
1700936700837771500,2.780771484375,1.489121675491333,-4.000165939331055,3.197951316833496
1700936700854761500,2.797761474609375,0.9170801639556885,-2.8837461471557617,3.3812265396118164
1700936700871758300,2.81475830078125,0.5772881507873535,-2.341285228729248,2.4372873306274414
1700936700888749800,2.831749755859375,0.6888914108276367,-2.1048693656921387,0.8645868301391602
1700936700905738800,2.84873876953125,0.6386276483535767,-1.9132566452026367,-0.3489246368408203
1700936700922740500,2.865740478515625,0.5655988454818726,-1.6641764640808105,-0.5514211654663086
1700936700939733500,2.8827333984375,0.5373955965042114,-0.7374482154846191,-0.09166431427001953
1700936700956729300,2.899729248046875,0.49284231662750244,0.5421566963195801,0.5188775062561035
1700936700973719000,2.916718994140625,0.2262892723083496,1.6147136688232422,0.8697762489318848
1700936700990715400,2.93371533203125,-0.12321746349334717,2.4381580352783203,0.9686179161071777
1700936701007711000,2.9507109375,-0.42243683338165283,2.9368534088134766,0.9063534736633301
1700936701024702200,2.9677021484375,-0.5534335374832153,3.5311102867126465,0.5096564292907715
1700936701041688800,2.984688720703125,-0.8179749846458435,3.854754686355591,0.6988253593444824
1700936701058690600,3.001690673828125,-0.9543525576591492,4.4157819747924805,1.3854455947875977
1700936701075682600,3.0186826171875,-0.9935591220855713,5.021422386169434,1.7654409408569336
1700936701092686800,3.035686767578125,-1.0630106925964355,5.337888240814209,1.9993829727172852
1700936701109673200,3.052673095703125,-0.9894968867301941,5.470858573913574,2.129485607147217
1700936701126668800,3.069668701171875,-1.0897717475891113,5.606148719787598,2.1128926277160645
1700936701143651300,3.0866513671875,-1.0165218114852905,5.645395278930664,2.13046932220459
1700936701160653600,3.103653564453125,-0.9151753187179565,5.475263595581055,2.5543718338012695
1700936701177652500,3.120652587890625,-0.8208742141723633,5.077271461486816,3.1890716552734375
1700936701194644000,3.13764404296875,-0.7607699632644653,4.653110504150391,3.7049665451049805
1700936701211638300,3.15463818359375,-0.7137932181358337,4.253977298736572,4.200627326965332
1700936701228631800,3.1716318359375,-0.76229327917099,4.112890243530273,4.586125373840332
1700936701245626000,3.188626220703125,-0.5253945589065552,3.800933361053467,5.2240190505981445
1700936701262620000,3.205619873046875,-0.11298012733459473,3.1418871879577637,5.778928756713867
1700936701279607000,3.22260693359375,0.18199801445007324,2.0715980529785156,6.626033306121826
1700936701296597200,3.23959716796875,0.6569357514381409,1.5475516319274902,7.021337509155273
1700936701313589000,3.256589111328125,0.86055988073349,1.1710176467895508,6.770730018615723
1700936701330587600,3.273587646484375,0.8164597749710083,0.5439634323120117,6.869580268859863
1700936701347590000,3.29058984375,0.7142925262451172,-0.702451229095459,7.8096923828125
1700936701364573400,3.307573486328125,0.9733756184577942,-1.8334250450134277,8.701166152954102
1700936701381567500,3.3245673828125,1.2791128158569336,-2.2555503845214844,9.135470390319824
1700936701398571800,3.34157177734375,1.1441950798034668,-2.23411226272583,9.34897518157959
1700936701415565800,3.35856591796875,0.8523130416870117,-1.8303236961364746,9.615765571594238
1700936701432559600,3.3755595703125,0.6326768398284912,-1.0313282012939453,9.151590347290039
1700936701449551000,3.392551025390625,0.5939900875091553,-0.5543184280395508,7.999368190765381
1700936701466550000,3.409550048828125,0.5807583928108215,-1.1403226852416992,7.18767786026001
1700936701483541800,3.426541748046875,0.7430227994918823,-2.0430665016174316,6.80763053894043
1700936701500535800,3.443535888671875,0.43300870060920715,-3.264889717102051,6.764856815338135
1700936701517529900,3.46052978515625,-0.11768686771392822,-4.348657131195068,5.7358903884887695
1700936701534523400,3.4775234375,0.13454782962799072,-4.8497772216796875,3.501008987426758
1700936701551517400,3.494517333984375,0.7637395262718201,-5.167577743530273,1.0377178192138672
1700936701568511200,3.51151123046875,1.6158349514007568,-4.8672003746032715,-1.086698055267334
1700936701585504500,3.52850439453125,2.0442256927490234,-4.240656852722168,-2.7696356773376465
1700936701602500000,3.5455,2.309709072113037,-3.7913289070129395,-3.8363633155822754
1700936701619493400,3.562493408203125,2.4041028022766113,-3.312052011489868,-4.848088264465332
1700936701636487400,3.5794873046875,2.586390972137451,-3.0348784923553467,-5.489594459533691
1700936701653481200,3.596481201171875,2.768749713897705,-2.9254913330078125,-5.976944923400879
1700936701670475300,3.613475341796875,2.8385934829711914,-2.980238914489746,-6.366819381713867
1700936701687458600,3.63045849609375,2.9099411964416504,-2.997567653656006,-6.82735013961792
1700936701704462800,3.647462890625,2.9525623321533203,-2.995387077331543,-7.17020320892334
1700936701721457200,3.66445703125,2.9043188095092773,-2.94126558303833,-7.415541648864746
1700936701738451000,3.681450927734375,2.7230448722839355,-3.0611677169799805,-7.382903099060059
1700936701755434200,3.698434326171875,2.7665257453918457,-3.3323328495025635,-7.040558338165283
1700936701772437000,3.71543701171875,3.140268564224243,-3.8336925506591797,-6.382877349853516
1700936701789435000,3.732434814453125,3.7219290733337402,-4.387014865875244,-6.116132736206055
1700936701806427000,3.749427001953125,4.2719597816467285,-5.09479284286499,-6.05397891998291
1700936701823421200,3.766421142578125,4.975749969482422,-5.819848537445068,-5.434929370880127
1700936701840414700,3.783414794921875,5.407759666442871,-6.37349796295166,-4.70008659362793
1700936701857409000,3.800408935546875,5.741008758544922,-6.889954566955566,-3.3174257278442383
1700936701874403000,3.817403076171875,5.56254243850708,-7.574634552001953,-1.3769850730895996
1700936701891397000,3.834397216796875,4.991732597351074,-8.022109985351562,0.08307456970214844
1700936701908392000,3.851391845703125,4.651644229888916,-8.021528244018555,1.2292861938476562
1700936701925383400,3.868383544921875,3.780123710632324,-8.114985466003418,2.851017951965332
1700936701942370600,3.88537060546875,1.6585110425949097,-8.730420112609863,4.347385406494141
1700936701959371500,3.90237158203125,-0.39467835426330566,-9.627667427062988,4.91441535949707
1700936701976367900,3.919367919921875,-0.8584005832672119,-9.684209823608398,4.52407169342041
1700936701993360600,3.936360595703125,0.7370402812957764,-8.050045013427734,3.5965051651000977
1700936702010354400,3.9533544921875,2.3330750465393066,-5.268359184265137,2.176173210144043
1700936702027335700,3.970335693359375,2.3948092460632324,-3.1342053413391113,1.651742935180664
1700936702044340000,3.987340087890625,1.9146889448165894,-2.183858871459961,1.644174575805664
1700936702061339100,4.004339111328125,1.4143965244293213,-1.8720340728759766,1.516402244567871
1700936702078319900,4.02131982421875,0.7443501353263855,-1.799670696258545,0.9241023063659668
1700936702095324700,4.03832470703125,-0.12815427780151367,-1.5168042182922363,0.21297645568847656
1700936702112318200,4.055318115234375,-1.0992405414581299,-1.1176776885986328,-0.0583949089050293
1700936702129312500,4.0723125,-1.702296495437622,-0.31590986251831055,0.23053455352783203
1700936702146306600,4.089306640625,-2.0228543281555176,0.6428070068359375,1.0859265327453613
1700936702163300400,4.10630029296875,-2.2191481590270996,1.894275188446045,2.0747761726379395
1700936702180297000,4.123296875,-2.4995131492614746,3.0489039421081543,2.2493162155151367
1700936702197285600,4.14028564453125,-2.7398440837860107,3.7819042205810547,2.189319610595703
1700936702214282000,4.157281982421875,-2.5754036903381348,4.246993064880371,2.2306761741638184
1700936702231273700,4.174273681640625,-2.211325168609619,4.720101356506348,2.2837343215942383
1700936702248262400,4.191262451171875,-2.107844352722168,5.408623695373535,2.3389172554016113
1700936702265266700,4.2082666015625,-2.1942532062530518,6.007616996765137,2.9312925338745117
1700936702282255600,4.225255615234375,-2.3694956302642822,6.287304401397705,3.329451560974121
1700936702299254500,4.242254638671875,-2.4542274475097656,6.33015251159668,3.217663288116455
1700936702316246000,4.25924609375,-2.5869178771972656,6.091058254241943,3.0345778465270996
1700936702333237500,4.276237548828125,-2.205028772354126,5.7509765625,2.7158474922180176
1700936702350236400,4.293236328125,-1.3969448804855347,5.339006423950195,2.508220672607422
1700936702367228200,4.310228271484375,-0.8368563652038574,4.779795169830322,2.5320706367492676
1700936702384222000,4.327221923828125,-0.4493303894996643,3.782792568206787,3.093545436859131
1700936702401215700,4.3442158203125,-0.37633341550827026,2.9827771186828613,3.696536064147949
1700936702418209500,4.36120947265625,-0.632563591003418,2.3268799781799316,4.208318710327148
1700936702435203600,4.37820361328125,-0.7253597974777222,1.8091397285461426,4.1735639572143555
1700936702452197600,4.39519775390625,-0.060662150382995605,1.3029413223266602,4.227833271026611
1700936702469189600,4.412189697265625,1.0028636455535889,0.6128830909729004,4.81104850769043
1700936702486186000,4.42918603515625,1.9195902347564697,-0.48791027069091797,6.055091381072998
1700936702503169000,4.4461689453125,2.1549415588378906,-1.8426036834716797,7.555206775665283
1700936702520173600,4.463173583984375,1.3886007070541382,-3.1509671211242676,8.371603012084961
1700936702537167600,4.480167724609375,0.713291347026825,-4.0622968673706055,7.974228858947754
1700936702554159400,4.497159423828125,1.102222204208374,-4.0508198738098145,6.7470622062683105
1700936702571155500,4.514155517578125,2.186403274536133,-3.830965042114258,6.165108680725098
1700936702588149500,4.5311494140625,3.2561349868774414,-2.3009390830993652,5.404894828796387
1700936702605143600,4.5481435546875,3.208786964416504,-0.9320554733276367,4.650608539581299
1700936702622137600,4.5651376953125,2.2195911407470703,-0.4229717254638672,4.171173095703125
1700936702639131100,4.582131103515625,1.2252020835876465,-0.921473503112793,3.8349428176879883
1700936702656125400,4.59912548828125,0.23429881036281586,-2.1016335487365723,3.386873722076416
1700936702673119200,4.616119140625,0.11670318245887756,-2.2620558738708496,1.2280197143554688
1700936702690103000,4.63310302734375,0.17550066113471985,-1.9312176704406738,-0.9177498817443848
1700936702707105800,4.650105712890625,0.528512716293335,-1.1512699127197266,-2.415898323059082
1700936702724102700,4.6671025390625,0.7858007550239563,-0.6206417083740234,-3.0645294189453125
1700936702741087500,4.68408740234375,0.8292447328567505,-0.6369819641113281,-3.090182304382324
1700936702758089200,4.701089111328125,0.9160335659980774,-0.48717737197875977,-3.049161434173584
1700936702775083000,4.7180830078125,1.2311750650405884,-0.10001897811889648,-3.4449996948242188
1700936702792077000,4.7350771484375,1.6536500453948975,0.3425407409667969,-4.376623153686523
1700936702809071400,4.7520712890625,2.0111279487609863,0.4551401138305664,-5.19947624206543
1700936702826065000,4.76906494140625,2.2619881629943848,0.2985811233520508,-5.758696556091309
1700936702843059200,4.78605908203125,2.445005178451538,0.13787031173706055,-6.143204689025879
1700936702860059600,4.8030595703125,2.8184359073638916,0.05831575393676758,-6.35456657409668
1700936702877028400,4.8200283203125,3.1561880111694336,0.06894350051879883,-6.15704345703125
1700936702894040600,4.83704052734375,3.7008957862854004,0.20112180709838867,-5.883837699890137
1700936702911035400,4.854035400390625,4.006558895111084,-0.0994253158569336,-5.508340835571289
1700936702928028700,4.871028564453125,4.133270263671875,-0.7964797019958496,-5.143072128295898
1700936702945023000,4.88802294921875,4.229506969451904,-1.4192991256713867,-4.808842182159424
1700936702962006300,4.90500634765625,4.416494369506836,-1.788398265838623,-4.536694526672363
1700936702979010800,4.9220107421875,4.592535972595215,-2.094878673553467,-3.737150192260742
1700936702996004900,4.9390048828125,4.598982334136963,-2.735501289367676,-1.7473297119140625
1700936703012998700,4.95599853515625,4.224384307861328,-3.6759800910949707,0.4393424987792969
1700936703029992700,4.97299267578125,3.630581855773926,-4.445796012878418,1.8245620727539062
1700936703046986500,4.989986572265625,2.856100082397461,-4.400755882263184,2.267975330352783
1700936703063969800,5.0069697265625,1.8751254081726074,-4.276224613189697,2.475381374359131
1700936703080971800,5.0239716796875,0.868384599685669,-4.501962184906006,3.472689628601074
1700936703097971000,5.040970947265625,0.0061414241790771484,-4.744436740875244,5.061756610870361
1700936703114962700,5.057962646484375,-1.0781716108322144,-5.017118453979492,6.173438549041748
1700936703131956500,5.07495654296875,-1.8395936489105225,-4.548089027404785,6.487358093261719
1700936703148950300,5.0919501953125,-2.4335923194885254,-3.080254554748535,6.492025852203369
1700936703165944300,5.1089443359375,-3.6036834716796875,-0.5648541450500488,6.175781726837158
1700936703182938400,5.1259384765625,-5.238505840301514,2.242499828338623,5.589744567871094
1700936703199932400,5.142932373046875,-6.372857093811035,4.331079483032227,4.943219184875488
1700936703216927500,5.159927490234375,-6.613927364349365,5.111865997314453,3.7848029136657715
1700936703233918700,5.176918701171875,-5.700666427612305,4.926408767700195,2.1249899864196777
1700936703250901500,5.193901611328125,-4.186794281005859,4.206427574157715,0.7863578796386719
1700936703267909600,5.21090966796875,-2.5303916931152344,3.1196255683898926,0.15553712844848633
1700936703284898000,5.22789794921875,-1.3646807670593262,2.221548080444336,0.050665855407714844
1700936703301898800,5.244898681640625,-0.5859427452087402,1.6496925354003906,0.15677356719970703
1700936703318890000,5.261889892578125,-0.05939757823944092,1.7282490730285645,0.14493894577026367
1700936703335884000,5.278884033203125,0.8291271328926086,2.1950082778930664,0.13294172286987305
1700936703352878000,5.295878173828125,1.7374718189239502,2.5959577560424805,0.5393376350402832
1700936703369864000,5.312864013671875,2.7479941844940186,2.7482285499572754,1.2139511108398438
1700936703386866000,5.329865966796875,3.7510290145874023,2.907245635986328,1.5790791511535645
1700936703403859700,5.346859619140625,4.431668758392334,2.8885531425476074,1.538313865661621
1700936703420860700,5.363860595703125,4.737344741821289,2.8912439346313477,1.1693472862243652
1700936703437847800,5.380847900390625,4.598031997680664,2.837495803833008,0.6047191619873047
1700936703454838500,5.397838623046875,3.9851367473602295,2.615482807159424,0.0013499259948730469
1700936703471835600,5.414835693359375,3.341834545135498,2.157857894897461,-0.3676323890686035
1700936703488829700,5.43182958984375,3.0927083492279053,1.9477405548095703,-0.7069835662841797
1700936703505823500,5.448823486328125,2.9412171840667725,1.764756202697754,-0.7736001014709473
1700936703522806800,5.465806884765625,2.8042783737182617,1.563197135925293,-0.7333159446716309
1700936703539808300,5.482808349609375,2.722379207611084,1.305908203125,-0.8051729202270508
1700936703556808700,5.49980859375,2.2696003913879395,0.676793098449707,-0.6576566696166992
1700936703573799700,5.516799560546875,1.7413997650146484,0.21327829360961914,-0.8330416679382324
1700936703590793500,5.53379345703125,1.1388238668441772,-0.27488231658935547,-1.2003488540649414
1700936703607780400,5.5507802734375,0.8708823919296265,-0.4862184524536133,-1.7110629081726074
1700936703624781600,5.567781494140625,0.9710228443145752,-0.42806005477905273,-2.275859832763672
1700936703641771500,5.584771484375,1.3683760166168213,-0.3281059265136719,-2.6389269828796387
1700936703658769400,5.601769287109375,1.528582215309143,-0.3534202575683594,-2.8063464164733887
1700936703675763500,5.618763427734375,1.4766600131988525,-0.2397618293762207,-3.016794204711914
1700936703692757200,5.63575732421875,1.3375508785247803,-0.1682753562927246,-3.190439224243164
1700936703709751300,5.652751220703125,1.2067400217056274,-0.4091663360595703,-3.2462215423583984
1700936703726745300,5.669745361328125,1.082185983657837,-1.018357753753662,-3.023195743560791
1700936703743739100,5.6867392578125,0.615858793258667,-1.673149585723877,-2.5293641090393066
1700936703760733200,5.703733154296875,-0.001179337501525879,-2.0600647926330566,-1.7921009063720703
1700936703777732000,5.720732177734375,-0.9237930774688721,-2.1275882720947266,-1.0979022979736328
1700936703794718700,5.73771875,-1.7024192810058594,-2.1228747367858887,-0.0153656005859375
1700936703811715000,5.754715087890625,-2.014688491821289,-2.6843953132629395,1.7177691459655762
1700936703828709000,5.771709228515625,-1.2601509094238281,-3.8361992835998535,3.533958911895752
1700936703845703000,5.788702880859375,0.4283914566040039,-3.920485019683838,4.62273645401001
1700936703862697000,5.805697021484375,1.686021089553833,-2.969440460205078,5.479071140289307
1700936703879690800,5.822690673828125,1.4427037239074707,-1.3792929649353027,6.5630927085876465
1700936703896684800,5.839684814453125,0.2778666019439697,0.16834449768066406,8.026636123657227
1700936703913680600,5.8566806640625,-0.8769097328186035,1.4701037406921387,8.60081672668457
1700936703930670800,5.8736708984375,-1.4859787225723267,2.089759349822998,7.7250075340271
1700936703947666700,5.890666748046875,-1.4456652402877808,2.0967679023742676,6.0267839431762695
1700936703964658200,5.907658203125,-0.8754204511642456,2.230380058288574,4.375304698944092
1700936703981657000,5.924656982421875,-0.18031847476959229,2.6781325340270996,3.031125545501709
1700936703998648600,5.941648681640625,0.04306995868682861,3.1418981552124023,2.204679489135742
1700936704015642400,5.958642333984375,0.0252455472946167,3.467672109603882,2.116318702697754
1700936704032636700,5.97563671875,0.2773476243019104,3.8953423500061035,1.596909999847412
1700936704049630500,5.99263037109375,0.5768672823905945,4.053518295288086,0.6411967277526855
1700936704066624800,6.009624755859375,1.0107557773590088,3.918652296066284,-0.3209552764892578
1700936704083618600,6.02661865234375,1.559360384941101,3.5189554691314697,-0.8503012657165527
1700936704100612400,6.0436123046875,2.3596580028533936,3.12939190864563,-0.909153938293457
1700936704117606400,6.0606064453125,3.0096874237060547,2.8261752128601074,-0.3276948928833008
1700936704134600200,6.07760009765625,3.4025096893310547,2.5168256759643555,0.7964839935302734
1700936704151594000,6.094593994140625,3.693662166595459,2.0692501068115234,1.5880250930786133
1700936704168588500,6.111588623046875,4.053442001342773,1.77227783203125,1.992227554321289
1700936704185582000,6.12858203125,4.4532575607299805,1.4177842140197754,2.3455095291137695
1700936704202576400,6.145576416015625,4.948107719421387,0.8959784507751465,3.1712160110473633
1700936704219570200,6.162570068359375,5.480118751525879,0.7010736465454102,3.9244799613952637
1700936704236567600,6.179567626953125,5.835709571838379,0.1605992317199707,4.913634777069092
1700936704253555000,6.196554931640625,6.377741813659668,-0.3976607322692871,5.544177532196045
1700936704270551800,6.2135517578125,6.957575798034668,-1.5006122589111328,5.779696464538574
1700936704287545900,6.2305458984375,7.3705573081970215,-2.0950913429260254,5.279240131378174
1700936704304537300,6.247537353515625,7.087314605712891,-2.3230819702148438,4.376093864440918
1700936704321536500,6.26453662109375,5.929416179656982,-2.503469944000244,3.3149566650390625
1700936704338518800,6.281518798828125,4.819389343261719,-2.801665782928467,2.259272575378418
1700936704355524400,6.2985244140625,4.057338237762451,-3.1009812355041504,0.9207720756530762
1700936704372513300,6.31551318359375,3.589634418487549,-3.1219429969787598,-0.7518868446350098
1700936704389509600,6.332509521484375,3.016927480697632,-3.0514793395996094,-2.5469279289245605
1700936704406503700,6.349503662109375,2.0417842864990234,-2.7797365188598633,-4.051521301269531
1700936704423487500,6.366487548828125,0.45741021633148193,-3.0105791091918945,-4.828737258911133
1700936704440481000,6.38348095703125,-1.4862916469573975,-3.653834819793701,-5.026963233947754
1700936704457483000,6.40048291015625,-3.111819267272949,-4.4213457107543945,-4.926111221313477
1700936704474482400,6.417482421875,-3.6989502906799316,-4.778805255889893,-4.670385360717773
1700936704491473400,6.434473388671875,-3.5151796340942383,-4.696165084838867,-4.625540733337402
1700936704508458000,6.4514580078125,-2.538501501083374,-4.004814624786377,-4.879850387573242
1700936704525463300,6.46846337890625,-0.8974622488021851,-2.846322536468506,-4.670709609985352
1700936704542445000,6.485445068359375,0.17393219470977783,-2.028374671936035,-3.7392683029174805
1700936704559449300,6.502449462890625,0.7937750816345215,-1.4667377471923828,-2.922093391418457
1700936704576441000,6.519441162109375,0.8271836638450623,-0.9491667747497559,-2.264956474304199
1700936704593439700,6.536439697265625,0.06125056743621826,-0.34795618057250977,-2.197136402130127
1700936704610431500,6.553431396484375,-0.9379005432128906,0.3094925880432129,-2.0229849815368652
1700936704627425000,6.570425048828125,-1.9253476858139038,0.7708911895751953,-1.4225754737854004
1700936704644414000,6.5874140625,-2.8117144107818604,1.2045774459838867,-0.7710323333740234
1700936704661413000,6.6044130859375,-3.405210256576538,1.5685582160949707,-0.2148728370666504
1700936704678407000,6.621406982421875,-3.297442674636841,1.712839126586914,0.5983524322509766
1700936704695401000,6.63840087890625,-2.6334240436553955,1.5148801803588867,1.5393695831298828
1700936704712395000,6.65539501953125,-1.7903579473495483,1.2496380805969238,2.4590516090393066
1700936704729389000,6.67238916015625,-1.2323920726776123,1.250009536743164,3.432788848876953
1700936704746383000,6.689383056640625,-1.0588905811309814,1.5539131164550781,4.280188083648682
1700936704763377200,6.706377197265625,-0.8665579557418823,2.1154088973999023,4.8661627769470215
1700936704780370700,6.72337060546875,-0.3249778747558594,2.4898252487182617,5.622235298156738
1700936704797364700,6.74036474609375,0.707064151763916,2.58762264251709,6.116142272949219
1700936704814359000,6.757359130859375,1.613262414932251,2.4062771797180176,6.102629661560059
1700936704831352600,6.7743525390625,1.857657790184021,2.4228758811950684,5.608104705810547
1700936704848329700,6.791329833984375,1.2689074277877808,2.3005266189575195,4.867645263671875
1700936704865329000,6.808328857421875,0.5569655299186707,2.152377128601074,4.350282192230225
1700936704882335000,6.8253349609375,0.30307263135910034,2.0986785888671875,3.935311794281006
1700936704899326000,6.842325927734375,0.6555085182189941,1.8036389350891113,3.995116710662842
1700936704916322600,6.859322509765625,1.1213206052780151,0.5619802474975586,5.079634666442871
1700936704933316600,6.876316650390625,2.008141040802002,-0.5365734100341797,6.116140842437744
1700936704950310700,6.893310546875,3.015350818634033,-1.0592565536499023,6.647432804107666
1700936704967304700,6.9103046875,3.590250015258789,-0.3125143051147461,6.665927410125732
1700936704984298200,6.92729833984375,2.943819522857666,0.7903351783752441,7.011374473571777
1700936705001282000,6.944281982421875,1.2550334930419922,1.1164684295654297,7.863379955291748
1700936705018286600,6.96128662109375,-0.6694065928459167,0.9318304061889648,8.500092506408691
1700936705035280100,6.978280029296875,-2.0555264949798584,0.39194679260253906,8.006608009338379
1700936705052274400,6.9952744140625,-1.7911005020141602,-0.3855876922607422,7.075990200042725
1700936705069268500,7.0122685546875,-0.12788939476013184,-1.6360387802124023,6.352692127227783
1700936705086262500,7.029262451171875,1.4125542640686035,-2.7686548233032227,5.530007362365723
1700936705103266800,7.046266845703125,2.3195714950561523,-3.0560812950134277,4.26338529586792
1700936705120250000,7.06325,3.023357391357422,-2.346133232116699,2.836009979248047
1700936705137244000,7.080243896484375,3.548269271850586,-1.6705741882324219,1.8674860000610352
1700936705154226200,7.09722607421875,3.6745128631591797,-1.4384698867797852,1.1583666801452637
1700936705171231700,7.114231689453125,3.7881219387054443,-1.390237808227539,0.2922840118408203
1700936705188225800,7.131225830078125,4.210691452026367,-1.7418770790100098,-0.5125455856323242
1700936705205225500,7.1482255859375,4.576091766357422,-2.210869312286377,-1.7873811721801758
1700936705222212000,7.165212158203125,5.292818069458008,-2.4473347663879395,-3.1700286865234375
1700936705239209700,7.182209716796875,5.995170593261719,-2.5221400260925293,-3.6738877296447754
1700936705256201700,7.19920166015625,6.082301139831543,-2.4822492599487305,-3.382452964782715
1700936705273195500,7.216195556640625,5.89363956451416,-2.5388050079345703,-2.2109241485595703
1700936705290191400,7.23319140625,5.966923713684082,-2.5542025566101074,-1.1405839920043945
1700936705307183400,7.250183349609375,5.7165069580078125,-3.468427896499634,-0.5040693283081055
1700936705324177400,7.267177490234375,5.7677741050720215,-4.555891036987305,-0.22989654541015625
1700936705341161500,7.284161376953125,6.119553565979004,-5.351130485534668,-0.10126495361328125
1700936705358165500,7.30116552734375,6.291092872619629,-6.030911445617676,0.08369255065917969
1700936705375159600,7.31815966796875,6.379794120788574,-6.738327503204346,0.5491905212402344
1700936705392153900,7.33515380859375,6.33146858215332,-7.1532745361328125,0.8748722076416016
1700936705409147600,7.352147705078125,5.37716007232666,-7.430486679077148,1.0670318603515625
1700936705426134000,7.369134033203125,4.277923107147217,-7.675233840942383,0.3799762725830078
1700936705443135200,7.38613525390625,3.045339822769165,-8.359450340270996,-1.1323227882385254
1700936705460129000,7.40312890625,1.948486566543579,-9.111775398254395,-3.324148654937744
1700936705477120000,7.4201201171875,1.4300131797790527,-8.926528930664062,-5.468230247497559
1700936705494117400,7.437117431640625,1.381730556488037,-8.101387977600098,-6.69284725189209
1700936705511111000,7.45411083984375,0.910381555557251,-7.173140525817871,-7.23542594909668
1700936705528105200,7.471105224609375,1.1289317607879639,-6.2700581550598145,-7.981387138366699
1700936705545099300,7.488099365234375,1.7116221189498901,-5.810634613037109,-7.882866382598877
1700936705562092800,7.5050927734375,1.9982194900512695,-6.086519241333008,-6.257904052734375
1700936705579087000,7.522087158203125,1.9814975261688232,-6.262303352355957,-3.8577680587768555
1700936705596081200,7.5390810546875,1.6857882738113403,-6.07124662399292,-1.2940516471862793
1700936705613074700,7.55607470703125,0.9060848951339722,-5.356403350830078,0.4196453094482422
1700936705630066200,7.573066162109375,0.5192599296569824,-3.9968557357788086,1.066354751586914
1700936705647065300,7.5900654296875,-0.31621110439300537,-2.708566665649414,1.4570913314819336
1700936705664056600,7.607056640625,-1.2112998962402344,-1.3776631355285645,2.0204014778137207
1700936705681047000,7.624047119140625,-1.7506135702133179,-0.05069541931152344,2.5425734519958496
1700936705698048300,7.64104833984375,-2.1882755756378174,1.069009780883789,2.891836166381836
1700936705715038700,7.658038818359375,-2.41519832611084,2.115118980407715,3.961780071258545
1700936705732032800,7.67503271484375,-2.231107711791992,3.1591176986694336,4.444985866546631
1700936705749026300,7.6920263671875,-2.312321901321411,4.030552387237549,4.112125873565674
1700936705766020600,7.7090205078125,-2.629549264907837,4.573980331420898,3.4500584602355957
1700936705783013600,7.726013671875,-2.6999270915985107,4.674288749694824,2.930887222290039
1700936705800009700,7.743009765625,-2.536634922027588,4.578178405761719,2.885179042816162
1700936705817002500,7.76000244140625,-2.212221384048462,4.401986598968506,3.131486415863037
1700936705833979100,7.776979248046875,-1.8882724046707153,4.203195095062256,4.0623087882995605
1700936705850990600,7.793990478515625,-2.0417394638061523,4.343983173370361,4.5696892738342285
1700936705867984400,7.810984375,-2.6966147422790527,4.1453423500061035,4.896214962005615
1700936705884978200,7.827978271484375,-3.00699782371521,3.8260278701782227,5.0132646560668945
1700936705901972500,7.844972412109375,-2.992084503173828,3.2144899368286133,5.175253391265869
1700936705918966000,7.861966064453125,-3.1208953857421875,2.6246418952941895,5.54299783706665
1700936705935960000,7.8789599609375,-2.6872928142547607,2.454885959625244,6.057852745056152
1700936705952951600,7.89595166015625,-2.0623111724853516,2.0825552940368652,6.717343807220459
1700936705969950700,7.91295068359375,-1.2569233179092407,1.1630654335021973,7.627272129058838
1700936705986942200,7.929942138671875,-0.3453553318977356,-0.3202667236328125,8.46583366394043
1700936706003936000,7.94693603515625,0.45850133895874023,-1.6518640518188477,8.661335945129395
1700936706020929800,7.9639296875,1.5808959007263184,-2.5374984741210938,9.390830993652344
1700936706037924000,7.980924072265625,2.2903528213500977,-1.691166877746582,9.804512023925781
1700936706054918100,7.997918212890625,2.222052574157715,0.2191314697265625,10.240360260009766
1700936706071912000,8.014911865234374,1.6265218257904053,1.7921757698059082,10.103126525878906
1700936706088910800,8.031910888671876,0.5456126928329468,1.9350943565368652,9.5922269821167
1700936706105899800,8.048899658203124,-0.3130659759044647,0.7760720252990723,8.418905258178711
1700936706122893800,8.065893798828125,-0.3365192115306854,-0.9266071319580078,6.830450057983398
1700936706139884500,8.082884521484376,0.030927911400794983,-2.5568580627441406,5.19008731842041
1700936706156884700,8.099884765625,0.26127946376800537,-3.5210084915161133,3.4085850715637207
1700936706173876700,8.116876708984375,0.9518245458602905,-3.745907783508301,1.89485502243042
1700936706190868500,8.133868408203124,1.6510932445526123,-3.533822536468506,0.508580207824707
1700936706207853800,8.150853759765624,2.031193256378174,-3.074713706970215,-0.8245053291320801
1700936706224857300,8.167857421875,2.1165833473205566,-2.483891487121582,-2.5409069061279297
1700936706241851400,8.184851318359375,2.291001796722412,-1.9411053657531738,-3.7566308975219727
1700936706258843400,8.201843505859374,2.393575668334961,-1.6743583679199219,-4.416711807250977
1700936706275839500,8.218839599609375,2.465846538543701,-1.5748190879821777,-4.836116790771484
1700936706292833300,8.235833251953125,2.5288197994232178,-1.651747226715088,-5.064520835876465
1700936706309827300,8.252827392578125,2.633730173110962,-1.66949462890625,-5.261878967285156
1700936706326810400,8.269810302734374,2.7607975006103516,-1.5500154495239258,-5.419052600860596
1700936706343815200,8.286815185546875,2.6961824893951416,-1.550206184387207,-5.587713241577148
1700936706360809000,8.30380908203125,2.420499086380005,-1.7296016216278076,-5.459074020385742
1700936706377803000,8.320802978515625,2.267369031906128,-2.239800214767456,-5.298370361328125
1700936706394797000,8.337797119140625,2.4541995525360107,-3.0978808403015137,-5.198006629943848
1700936706411791000,8.354791015625,3.0034022331237793,-3.9868178367614746,-5.416456699371338
1700936706428786700,8.37178662109375,3.8394598960876465,-4.5004119873046875,-5.575743198394775
1700936706445779000,8.388779052734375,4.391500473022461,-5.271936893463135,-4.952232360839844
1700936706462773000,8.40577294921875,4.492361545562744,-6.158848762512207,-3.4211206436157227
1700936706479766800,8.422766845703125,4.229250907897949,-6.48099422454834,-2.012749671936035
1700936706496760600,8.439760498046875,3.5229592323303223,-6.953473091125488,-0.8385992050170898
1700936706513744100,8.456744140625,2.6464879512786865,-7.5566864013671875,0.040474891662597656
1700936706530748700,8.473748779296875,1.728243112564087,-8.347018241882324,0.7271461486816406
1700936706547742500,8.490742431640625,1.4930533170700073,-8.999155044555664,1.3658294677734375
1700936706564734000,8.50773388671875,2.010624408721924,-9.317440032958984,2.075756072998047
1700936706581730600,8.52473046875,2.54792857170105,-8.527986526489258,2.3531455993652344
1700936706598727000,8.541726806640625,3.111248254776001,-6.293590545654297,1.9698467254638672
1700936706615718100,8.55871826171875,2.831490993499756,-4.066375732421875,1.5958881378173828
1700936706632712200,8.575712158203125,1.9771634340286255,-2.5934195518493652,1.178091049194336
1700936706649706200,8.592706298828125,1.1070599555969238,-2.0269155502319336,0.7783784866333008
1700936706666700300,8.6097001953125,0.5429521203041077,-1.7130966186523438,-0.11122608184814453
1700936706683683600,8.62668359375,0.15468239784240723,-1.456068515777588,-1.2052369117736816
1700936706700688100,8.643688232421875,-0.10448575019836426,-0.9590797424316406,-1.9790163040161133
1700936706717682200,8.66068212890625,-0.22714143991470337,-0.37516117095947266,-1.5863022804260254
1700936706734676200,8.67767626953125,-0.18647032976150513,0.4414186477661133,-0.3585391044616699
1700936706751659500,8.694659423828124,-0.22496303915977478,1.4001150131225586,0.5123262405395508
1700936706768664000,8.7116640625,-0.3803902864456177,2.2496700286865234,0.9906806945800781
1700936706785657900,8.728657958984375,-0.7416536211967468,3.0280113220214844,1.007524013519287
1700936706802651600,8.745651611328125,-1.188914179801941,3.762476921081543,0.9130620956420898
1700936706819646000,8.76264599609375,-2.277139902114868,4.313054084777832,1.3177103996276855
1700936706836639500,8.779639404296875,-3.4623355865478516,4.959988594055176,1.7185187339782715
1700936706853633800,8.7966337890625,-4.095958709716797,5.526486396789551,2.3963799476623535
1700936706870627600,8.813627685546875,-4.44119119644165,5.945480823516846,2.822272300720215
1700936706887621600,8.83062158203125,-4.480947494506836,6.054032325744629,3.0053253173828125
1700936706904615700,8.84761572265625,-4.125616550445557,5.967342376708984,3.696748733520508
1700936706921609700,8.864609619140625,-3.575467109680176,6.054162502288818,4.861835479736328
1700936706938603500,8.881603515625,-3.507180690765381,5.946109771728516,5.732471466064453
1700936706955595000,8.898594970703124,-3.5612692832946777,5.485917091369629,5.93941593170166
1700936706972583400,8.91558349609375,-3.509481430053711,4.614931583404541,5.789370536804199
1700936706989583400,8.932583251953124,-2.8369109630584717,3.2382469177246094,5.868727684020996
1700936707006581000,8.9495810546875,-1.6947507858276367,2.216907501220703,5.757766246795654
1700936707023573500,8.966573486328125,-0.19782143831253052,1.252016544342041,6.459331512451172
1700936707040567300,8.9835673828125,1.5453740358352661,1.0461640357971191,7.1341962814331055
1700936707057550600,9.000550537109374,2.8105762004852295,0.20086669921875,8.25046157836914
1700936707074555100,9.01755517578125,3.45709228515625,-0.8385915756225586,9.372798919677734
1700936707091549200,9.034549072265625,3.390127658843994,-2.672579765319824,10.466489791870117
1700936707108532500,9.051532470703124,2.7987983226776123,-4.677837371826172,11.486101150512695
1700936707125536800,9.068536865234375,2.1482434272766113,-4.968174934387207,11.322912216186523
1700936707142521300,9.085521240234375,1.234915852546692,-3.7924633026123047,10.917600631713867
1700936707159525000,9.102525146484375,-0.05919121205806732,-2.0239410400390625,9.83984375
1700936707176519000,9.119518798828125,-0.9883931279182434,-0.5829305648803711,8.659818649291992
1700936707193513500,9.136513427734375,-1.9810271263122559,-0.6490249633789062,7.388978004455566
1700936707210506000,9.153506103515625,-2.09594988822937,-1.5508489608764648,5.53164529800415
1700936707227500800,9.170500732421875,-1.5266863107681274,-3.057495594024658,3.7433791160583496
1700936707244492300,9.1874921875,-0.45901015400886536,-4.222431659698486,1.545022964477539
1700936707261491000,9.204490966796875,0.7399895191192627,-4.342567443847656,-0.38253307342529297
1700936707278468000,9.221468017578125,1.3879307508468628,-3.903651237487793,-1.7882866859436035
1700936707295476500,9.2384765625,1.4744480848312378,-2.8348445892333984,-2.7468419075012207
1700936707312470500,9.255470458984375,1.092609167098999,-1.9480395317077637,-3.3234829902648926
1700936707329464600,9.272464599609375,0.8480305075645447,-1.167309284210205,-3.8305516242980957
1700936707346455800,9.289455810546874,0.8540468215942383,-0.7381229400634766,-4.111886024475098
1700936707363455000,9.306455078125,1.2133805751800537,-0.5787630081176758,-4.426621913909912
1700936707380446500,9.323446533203125,1.8803094625473022,-0.6043148040771484,-4.648543834686279
1700936707397440300,9.340440185546875,2.410968780517578,-0.7132053375244141,-4.9457621574401855
1700936707414431700,9.357431640625,2.895190477371216,-0.8239598274230957,-5.159673690795898
1700936707431430700,9.3744306640625,3.165161609649658,-1.0655362606048584,-5.1799421310424805
1700936707448420400,9.39142041015625,3.650874137878418,-1.3263092041015625,-5.407374382019043
1700936707465416200,9.408416259765625,4.037600040435791,-1.7979655265808105,-5.595178127288818
1700936707482410000,9.425409912109375,4.583992004394531,-2.352647542953491,-5.601545333862305
1700936707499403800,9.44240380859375,5.255195617675781,-2.87345027923584,-5.550504207611084
1700936707516398000,9.459398193359375,5.831118106842041,-3.613508939743042,-5.021630764007568
1700936707533381600,9.476381591796875,6.1683526039123535,-4.490719795227051,-4.394440650939941
1700936707550382600,9.493382568359374,6.175614356994629,-5.673602104187012,-3.6176047325134277
1700936707567377000,9.510376953125,6.326614856719971,-6.750860214233398,-2.440934181213379
1700936707584373800,9.527373779296875,6.213018417358398,-7.197686195373535,-1.3348965644836426
1700936707601367800,9.544367919921875,5.802255153656006,-6.951234817504883,-0.8984971046447754
1700936707618361600,9.561361572265625,4.984484672546387,-6.9159836769104,0.043793678283691406
1700936707635355600,9.578355712890625,3.5837948322296143,-7.47261905670166,1.1650409698486328
1700936707652360700,9.595360595703125,2.1259167194366455,-8.211520195007324,1.914231300354004
1700936707669343200,9.61234326171875,1.2684500217437744,-8.97900390625,1.9314279556274414
1700936707686324500,9.629324462890626,1.5872714519500732,-8.53809928894043,1.2484664916992188
1700936707703328500,9.64632861328125,2.015960216522217,-6.381476879119873,0.6595439910888672
1700936707720314600,9.663314697265625,1.3264095783233643,-3.638949394226074,1.1332063674926758
1700936707737319400,9.6803193359375,-0.3870493173599243,-2.0480151176452637,2.2933359146118164
1700936707754313200,9.697313232421875,-2.0398895740509033,-0.9984517097473145,3.5008726119995117
1700936707771307000,9.71430712890625,-3.0535314083099365,-0.43074750900268555,3.443453788757324
1700936707788301000,9.731301025390625,-3.131416082382202,-0.39568281173706055,1.8475613594055176
1700936707805295000,9.748295166015625,-2.7322161197662354,-0.22230052947998047,-0.03216123580932617
1700936707822289000,9.765288818359375,-2.037163496017456,0.06590700149536133,-1.1647753715515137
1700936707839283200,9.782283203125,-1.0655502080917358,0.9221773147583008,-0.9701094627380371
1700936707856276700,9.79927685546875,-0.49643251299858093,2.0334343910217285,0.013751506805419922
1700936707873270800,9.816270751953125,-0.2480725646018982,3.1803646087646484,0.36560583114624023
1700936707890264800,9.833264892578125,-0.4283641576766968,4.018210411071777,0.4127330780029297
1700936707907258600,9.850258544921875,-0.8008744716644287,4.559703350067139,0.33482885360717773
1700936707924252700,9.867252685546875,-1.3051238059997559,4.912407875061035,0.32273006439208984
1700936707941247000,9.8842470703125,-1.8180408477783203,5.240317344665527,0.38451242446899414
1700936707958228700,9.901228759765624,-2.115636110305786,5.564069747924805,0.8635258674621582
1700936707975234600,9.918234619140625,-2.215458393096924,5.871866226196289,1.3562917709350586
1700936707992228600,9.935228515625,-2.263579845428467,5.803965091705322,1.883176326751709
1700936708009222400,9.952222412109375,-2.248843193054199,5.367825508117676,2.374464988708496
1700936708026216400,9.969216552734375,-2.032564163208008,4.644589424133301,2.8928847312927246
1700936708043210500,9.98621044921875,-1.9295783042907715,3.5576367378234863,3.453425407409668
1700936708060204500,10.00320458984375,-1.4543198347091675,2.8527121543884277,4.171438694000244
1700936708077198000,10.020197998046875,-0.9387965798377991,2.3343148231506348,4.889103889465332
1700936708094192000,10.037192138671875,-0.5937186479568481,1.6798453330993652,5.631660461425781
1700936708111186200,10.054186279296875,0.01814492605626583,1.0470547676086426,6.805211067199707
1700936708128178700,10.0711787109375,0.9695472121238708,0.5013284683227539,7.392436981201172
1700936708145175600,10.088175537109375,2.251736879348755,0.22945499420166016,7.330098628997803
1700936708162167800,10.105167724609375,3.2561450004577637,-0.38614368438720703,7.9491424560546875
1700936708179151400,10.1221513671875,3.9240028858184814,-1.5233078002929688,8.783937454223633
1700936708196156000,10.139156005859375,3.506575345993042,-3.4403018951416016,9.815139770507812
1700936708213150200,10.156150146484375,2.8690402507781982,-4.533840179443359,10.598569869995117
1700936708230144000,10.17314404296875,1.9795467853546143,-3.112809181213379,10.488088607788086
1700936708247138000,10.190137939453125,0.5044628381729126,-1.4086675643920898,9.953548431396484
1700936708264131800,10.2071318359375,-1.3230831623077393,0.16042423248291016,8.799150466918945
1700936708281126000,10.2241259765625,-2.961765766143799,0.6650090217590332,7.5558929443359375
1700936708298119400,10.241119384765625,-3.509737253189087,0.4004225730895996,6.022219181060791
1700936708315113500,10.258113525390625,-2.855109453201294,-0.2740640640258789,4.379697322845459
1700936708332107500,10.275107421875,-1.7775471210479736,-1.3125042915344238,2.7529006004333496
1700936708349101300,10.292101318359375,-0.5000382661819458,-1.916487693786621,1.0380229949951172
1700936708366095400,10.309095458984375,0.593409538269043,-1.6800127029418945,-0.3933267593383789
1700936708383089200,10.326089111328125,1.7510042190551758,-1.6182951927185059,-1.0265069007873535
1700936708400092700,10.3430927734375,2.4486968517303467,-0.9629793167114258,-1.8031439781188965
1700936708417077200,10.3600771484375,2.0495710372924805,-0.4567832946777344,-2.7744574546813965
1700936708434071000,10.377071044921875,0.9141908884048462,0.21901988983154297,-3.836974620819092
1700936708451065000,10.394065185546875,0.2715069651603699,1.0267963409423828,-4.504461288452148
1700936708468059100,10.41105908203125,0.19289422035217285,1.4365320205688477,-4.563974380493164
1700936708485055700,10.4280556640625,0.9226511716842651,1.5026111602783203,-4.407773017883301
1700936708502044400,10.44504443359375,1.9948797225952148,1.2846884727478027,-4.266735076904297
1700936708519036700,10.46203662109375,2.666210889816284,0.9362616539001465,-4.452581405639648
1700936708536021500,10.479021484375,2.75614333152771,0.7380895614624023,-4.8339362144470215
1700936708553031400,10.496031494140626,2.3266565799713135,0.571439266204834,-5.0562214851379395
1700936708570020400,10.513020263671875,2.10422420501709,0.5832557678222656,-4.942770004272461
1700936708587016700,10.5300166015625,2.172461748123169,0.43315839767456055,-4.405716896057129
1700936708604010800,10.5470107421875,2.6157822608947754,-0.03226280212402344,-3.7558693885803223
1700936708621004500,10.564004638671875,3.700350284576416,-0.8760433197021484,-3.2750768661499023
1700936708637995800,10.580995849609375,5.209870338439941,-1.9867286682128906,-2.6668787002563477
1700936708654997000,10.5979970703125,6.297567844390869,-2.864198684692383,-2.2317824363708496
1700936708671985000,10.61498486328125,6.940775394439697,-3.4262595176696777,-1.5844931602478027
1700936708688980500,10.63198046875,6.625073432922363,-4.003031253814697,-0.6399106979370117
1700936708705974000,10.64897412109375,6.457636833190918,-4.417381286621094,-0.28721046447753906
1700936708722968000,10.665968017578125,7.453340530395508,-4.6673407554626465,-0.1792902946472168
1700936708739962000,10.682962158203125,7.423039436340332,-5.260364532470703,0.5126843452453613
1700936708756956400,10.699956298828125,6.196784496307373,-5.697093486785889,1.6065921783447266
1700936708773950000,10.716949951171875,5.240907669067383,-5.445470809936523,2.43790864944458
1700936708790944000,10.733944091796875,4.688010215759277,-4.205982208251953,3.773627281188965
1700936708807938000,10.75093798828125,2.9209847450256348,-2.0317435264587402,4.610583782196045
1700936708824931800,10.767931884765625,-0.29123279452323914,0.15909290313720703,4.976963520050049
1700936708841918500,10.78491845703125,-3.8938755989074707,1.3223161697387695,4.352349758148193
1700936708858920000,10.801919921875,-6.522105693817139,1.7580747604370117,3.0644712448120117
1700936708875911200,10.8189111328125,-7.642526626586914,1.5377259254455566,2.172593593597412
1700936708892910300,10.835910400390626,-7.246218204498291,0.7960085868835449,2.6110548973083496
1700936708909900000,10.852900146484375,-5.854438304901123,0.36232519149780273,3.180403709411621
1700936708926887200,10.86988720703125,-4.702940464019775,0.1403665542602539,3.5424246788024902
1700936708943889700,10.8868896484375,-3.791152000427246,0.3489723205566406,3.6427664756774902
1700936708960873000,10.903873046875,-2.776512622833252,0.8470101356506348,3.5394163131713867
1700936708977877500,10.92087744140625,-1.4790483713150024,1.0849308967590332,3.273261070251465
1700936708994871600,10.93787158203125,-0.3360656499862671,1.1221837997436523,2.608954906463623
1700936709011855000,10.954855224609375,0.2555679678916931,1.3685250282287598,1.222879409790039
1700936709028859400,10.971859375,0.29340946674346924,1.5851364135742188,-0.051549434661865234
1700936709045853200,10.988853271484375,-0.0389670729637146,1.8417868614196777,-1.188866138458252
1700936709062847500,11.005847412109375,-0.5965225696563721,2.098848819732666,-1.8949952125549316
1700936709079841000,11.022841064453125,-1.2885011434555054,2.2115635871887207,-2.2595834732055664
1700936709096835000,11.0398349609375,-1.820731282234192,2.1318678855895996,-2.466649055480957
1700936709113829400,11.056829345703125,-2.162000894546509,2.1055703163146973,-3.0372018814086914
1700936709130823200,11.0738232421875,-2.1739063262939453,1.5780787467956543,-3.1762170791625977
1700936709147817000,11.09081689453125,-1.7730927467346191,1.3589401245117188,-3.369626522064209
1700936709164805400,11.107805419921876,-1.242323637008667,1.216721534729004,-3.162015438079834
1700936709181805000,11.12480517578125,-1.0306549072265625,1.1460413932800293,-2.8112540245056152
1700936709198798800,11.141798828125,-1.0361896753311157,1.274261474609375,-2.5196919441223145
1700936709215782400,11.158782470703125,-0.8395242691040039,0.9845824241638184,-1.9704780578613281
1700936709232776200,11.175776123046875,-0.21026524901390076,0.21336841583251953,-1.1948800086975098
1700936709249780700,11.19278076171875,0.8463479280471802,-0.20015382766723633,-0.8739743232727051
1700936709266774800,11.20977490234375,1.2081104516983032,-0.4276700019836426,-0.4723372459411621
1700936709283768600,11.2267685546875,0.6320980787277222,-0.1338815689086914,-0.8171086311340332
1700936709300762400,11.243762451171875,-0.33836960792541504,0.3503913879394531,-1.0957121849060059
1700936709317756700,11.260756591796875,-1.1329078674316406,0.8502345085144043,-1.1962862014770508
1700936709334750200,11.277750244140625,-1.2067338228225708,1.1203303337097168,-1.086184024810791
1700936709351744300,11.294744140625,-0.8578028678894043,1.2706761360168457,-0.654442310333252
1700936709368738000,11.311738037109375,-0.913133978843689,0.8576889038085938,-0.012972831726074219
1700936709385729800,11.328729736328125,-1.4004111289978027,0.2589864730834961,0.8887209892272949
1700936709402728700,11.345728759765626,-2.0900676250457764,0.008288383483886719,1.707822322845459
1700936709419720400,11.362720458984375,-1.8880772590637207,0.4318070411682129,2.675197124481201
1700936709436714800,11.37971484375,-1.2407703399658203,0.6196269989013672,4.028372764587402
1700936709453705700,11.396705810546875,-0.032666802406311035,0.24402523040771484,5.693829536437988
1700936709470704400,11.413704345703126,1.4256248474121094,-0.9642906188964844,7.600376129150391
1700936709487696100,11.430696044921875,2.993894100189209,-1.501016616821289,8.832088470458984
1700936709504687000,11.44768701171875,3.5088002681732178,-0.9510364532470703,9.704305648803711
1700936709521686300,11.464686279296876,3.0832271575927734,0.835604190826416,10.092451095581055
1700936709538675700,11.48167578125,2.0470221042633057,2.293647289276123,10.441722869873047
1700936709555663000,11.4986630859375,1.6153326034545898,3.0500869750976562,9.791935920715332
1700936709572663300,11.515663330078125,1.5342693328857422,2.6376490592956543,7.873109817504883
1700936709589662000,11.532661865234376,1.4060015678405762,1.6044845581054688,5.781252384185791
1700936709606653700,11.54965380859375,1.6589934825897217,0.6181316375732422,3.8501100540161133
1700936709623644700,11.566644775390625,2.3047704696655273,0.5705156326293945,2.297008514404297
1700936709640643800,11.583643798828126,2.6759777069091797,1.1032986640930176,1.8879122734069824
1700936709657635000,11.600635009765625,2.4508049488067627,1.9091095924377441,2.111666202545166
1700936709674629400,11.61762939453125,1.7453066110610962,2.783186912536621,1.9410958290100098
1700936709691623000,11.634622802734375,1.2121702432632446,3.292128562927246,1.2432680130004883
1700936709708617200,11.6516171875,1.4142569303512573,3.3572959899902344,0.5954723358154297
1700936709725611000,11.668611083984375,2.4454853534698486,2.908200740814209,0.1097869873046875
1700936709742605000,11.68560498046875,4.24208927154541,2.518126964569092,0.15761613845825195
1700936709759599400,11.702599365234375,5.841012001037598,2.329052448272705,0.9164462089538574
1700936709776593200,11.71959326171875,6.060016632080078,2.1727094650268555,1.5684523582458496
1700936709793587000,11.7365869140625,5.38665246963501,2.0505475997924805,1.169003963470459
1700936709810590700,11.7535908203125,5.02169942855835,1.6594104766845703,0.8079843521118164
1700936709827574800,11.77057470703125,5.62817907333374,1.2055459022521973,0.7416071891784668
1700936709844568800,11.78756884765625,6.595017910003662,0.6352376937866211,0.958594799041748
1700936709861562400,11.804562255859375,7.315934658050537,-0.12462234497070312,1.0409965515136719
1700936709878556700,11.821556640625,7.4980034828186035,-0.9106063842773438,0.8278684616088867
1700936709895550700,11.83855078125,7.191471576690674,-1.9080910682678223,0.4585227966308594
1700936709912544500,11.85554443359375,6.763372421264648,-2.9032392501831055,-0.2747039794921875
1700936709929538600,11.87253857421875,6.024294853210449,-4.038961410522461,-1.152970314025879
1700936709946532400,11.889532470703125,5.150562763214111,-5.267262935638428,-2.089069366455078
1700936709963526400,11.9065263671875,4.855800151824951,-5.795276165008545,-3.3663454055786133
1700936709980520400,11.9235205078125,4.886783599853516,-5.886223316192627,-4.384292125701904
1700936709997511400,11.940511474609375,4.951810836791992,-5.853119373321533,-4.993847846984863
1700936710014500600,11.95750048828125,4.718122482299805,-5.849442481994629,-5.1465301513671875
1700936710031502000,11.974502197265625,3.243576765060425,-6.142360210418701,-4.548666477203369
1700936710048494300,11.991494384765625,0.43743234872817993,-5.914626598358154,-3.794830322265625
1700936710065492000,12.008491943359376,-3.1881158351898193,-5.293679714202881,-3.367158889770508
1700936710082483700,12.025483642578125,-6.286280632019043,-4.463251113891602,-3.144622802734375
1700936710099475500,12.042475341796875,-7.665800094604492,-3.5490856170654297,-2.939289093017578
1700936710116474400,12.059474365234376,-6.650388240814209,-3.0005102157592773,-2.5176515579223633
1700936710133465600,12.076465576171875,-3.95058012008667,-2.4482483863830566,-2.1104331016540527
1700936710150462700,12.093462646484374,-1.9935317039489746,-1.9063587188720703,-1.5530328750610352
1700936710167453400,12.110453369140625,-0.7800320982933044,-1.1516118049621582,-1.116797924041748
1700936710184447700,12.12744775390625,-0.2556740641593933,-0.13930511474609375,-0.7406039237976074
1700936710201441500,12.144441650390625,-0.29959696531295776,0.9762473106384277,-0.3172473907470703
1700936710218435300,12.161435302734375,-0.7502614855766296,1.8333849906921387,0.1580662727355957
1700936710235422500,12.17842236328125,-1.0864324569702148,2.248478412628174,0.276334285736084
1700936710252423200,12.195423095703125,-0.9804694652557373,2.42256498336792,-0.07850933074951172
1700936710269414700,12.21241455078125,-0.7776029706001282,2.3614659309387207,-0.16205787658691406
1700936710286413600,12.22941357421875,-0.5521234273910522,2.3376736640930176,-0.11602926254272461
1700936710303405300,12.2464052734375,-0.3157776892185211,2.5909547805786133,0.2679738998413086
1700936710320399400,12.2633994140625,-0.340665340423584,2.7852349281311035,1.2601747512817383
1700936710337393000,12.280392822265625,-0.7725287675857544,2.974853038787842,2.1454010009765625
1700936710354387200,12.29738720703125,-1.4536124467849731,2.763298511505127,2.9502997398376465
1700936710371381000,12.314381103515625,-2.050602436065674,2.3687968254089355,3.427859306335449
1700936710388375000,12.331375,-2.457536220550537,1.529231071472168,3.69791316986084
1700936710405368600,12.34836865234375,-2.017198085784912,0.6435399055480957,3.843804359436035
1700936710422363100,12.365363037109375,-1.3487917184829712,0.1197042465209961,4.050990104675293
1700936710439356700,12.382356689453125,-0.4471522569656372,0.021366119384765625,4.149875640869141
1700936710456350500,12.3993505859375,0.48076125979423523,-0.18163490295410156,4.28941011428833
1700936710473334800,12.416334716796875,1.377324104309082,-0.31507110595703125,4.078616142272949
1700936710490338600,12.433338623046875,2.2081308364868164,-0.6734371185302734,3.807666778564453
1700936710507330600,12.45033056640625,2.8195533752441406,-0.8181123733520508,4.322361469268799
1700936710524328700,12.46732861328125,3.1008799076080322,-0.09839725494384766,4.570224761962891
1700936710541320400,12.484320556640625,2.9337258338928223,0.33750295639038086,5.231163024902344
1700936710558314500,12.501314453125,2.940974712371826,0.031725406646728516,5.738830089569092
1700936710575308300,12.518308349609375,3.2517473697662354,-0.919013500213623,6.302668571472168
1700936710592302300,12.53530224609375,4.023405075073242,-1.0126667022705078,6.583090305328369
1700936710609296100,12.552296142578125,4.711776256561279,0.09410429000854492,6.833090305328369
1700936710626290200,12.569290283203125,4.712821006774902,1.508089542388916,7.394496917724609
1700936710643273200,12.586273193359375,3.8504397869110107,1.9448785781860352,8.335250854492188
1700936710660277800,12.60327783203125,3.1215362548828125,1.08845853805542,8.64508056640625
1700936710677271800,12.620271728515625,3.1777400970458984,-0.7313661575317383,7.805079936981201
1700936710694263800,12.637263916015625,3.3736371994018555,-2.2172842025756836,6.467685222625732
1700936710711262000,12.654261962890626,2.9043750762939453,-2.640455722808838,5.284053802490234
1700936710728253700,12.671253662109375,1.8534139394760132,-2.6449384689331055,4.655183792114258
1700936710745247700,12.688247802734375,1.343177080154419,-2.6624937057495117,4.088663101196289
1700936710762241500,12.705241455078125,1.2079538106918335,-3.229283332824707,3.1100339889526367
1700936710779235600,12.722235595703125,1.5364975929260254,-3.6529526710510254,1.2611360549926758
1700936710796229400,12.7392294921875,2.3119735717773438,-3.6382992267608643,-0.29285335540771484
1700936710813223400,12.756223388671875,2.707791805267334,-3.4820985794067383,-1.3079280853271484
1700936710830216400,12.773216552734375,2.7315945625305176,-3.342007875442505,-2.0352087020874023
1700936710847212000,12.7902119140625,2.72761869430542,-3.4847774505615234,-2.978188991546631
1700936710864205300,12.807205322265625,2.9424829483032227,-3.891254425048828,-4.085900783538818
1700936710881206800,12.824206787109375,3.3556621074676514,-4.292433738708496,-5.047554969787598
1700936710898193000,12.84119287109375,3.70011568069458,-4.564814567565918,-5.720424652099609
1700936710915187000,12.85818701171875,4.153041362762451,-4.637592315673828,-6.288760185241699
1700936710932169200,12.875169189453125,4.551008701324463,-4.907837867736816,-6.287961006164551
1700936710949172500,12.89217236328125,4.433718204498291,-5.35880184173584,-5.931571006774902
1700936710966171100,12.909171142578124,4.199178695678711,-5.674023151397705,-5.754654884338379
1700936710983162600,12.92616259765625,3.9450526237487793,-5.910422325134277,-5.708225250244141
1700936711000139000,12.943138916015625,3.8540072441101074,-6.088239669799805,-5.614903450012207
1700936711017150700,12.960150634765625,3.872819423675537,-6.411455154418945,-5.266380786895752
1700936711034144500,12.97714453125,3.719271421432495,-7.276167392730713,-4.284486293792725
1700936711051138600,12.994138671875,3.4509849548339844,-7.607283592224121,-3.8318076133728027
1700936711068132400,13.01113232421875,3.274312734603882,-7.5217437744140625,-3.474186420440674
1700936711085126400,13.02812646484375,2.9561829566955566,-7.512792110443115,-3.314950942993164
1700936711102120200,13.0451201171875,2.8431766033172607,-7.527117729187012,-2.7728652954101562
1700936711119114000,13.062114013671875,3.0469701290130615,-8.038738250732422,-2.0771403312683105
1700936711136106000,13.07910595703125,3.0924463272094727,-7.790474891662598,-1.0887908935546875
1700936711153102300,13.096102294921875,2.2827041149139404,-6.420280456542969,0.0652008056640625
1700936711170095900,13.113095947265625,0.16556048393249512,-5.161787033081055,1.0858697891235352
1700936711187090000,13.13008984375,-1.6703994274139404,-3.9676108360290527,1.6283197402954102
1700936711204084200,13.147084228515626,-2.5370397567749023,-3.3257384300231934,2.138491630554199
1700936711221075500,13.164075439453125,-2.125882148742676,-3.7880911827087402,2.8456125259399414
1700936711238073900,13.181073974609374,-0.6520406007766724,-4.287267208099365,2.6516284942626953
1700936711255064000,13.19806396484375,0.7930548787117004,-4.236833095550537,2.1598081588745117
1700936711272062200,13.215062255859374,1.8548208475112915,-3.4182896614074707,1.8532443046569824
1700936711289053400,13.232053466796875,2.788766860961914,-2.2973899841308594,1.538177490234375
1700936711306047500,13.249047607421875,3.6048622131347656,-1.119370937347412,1.5795507431030273
1700936711323030800,13.26603076171875,3.9403939247131348,-0.1480083465576172,1.735093116760254
1700936711340035600,13.28303564453125,3.4988667964935303,0.7096343040466309,1.4919238090515137
1700936711357029400,13.300029296875,2.499544143676758,1.4923701286315918,0.9103479385375977
1700936711374023400,13.3170234375,1.1686897277832031,2.1968955993652344,0.49869823455810547
1700936711391017500,13.334017578125,-0.051511675119400024,2.7496914863586426,0.34769535064697266
1700936711408011500,13.351011474609376,-1.1277447938919067,3.077092170715332,1.00095796585083
1700936711425005000,13.368005126953125,-2.0592432022094727,3.4910454750061035,1.639885425567627
1700936711441999000,13.3849990234375,-2.720221757888794,3.9683761596679688,1.9135031700134277
1700936711458993200,13.4019931640625,-3.3940649032592773,4.181975841522217,2.2750654220581055
1700936711475987200,13.4189873046875,-4.18538236618042,4.695799827575684,2.5906620025634766
1700936711492978200,13.435978271484375,-4.998384952545166,5.083221912384033,2.9900760650634766
1700936711509975000,13.45297509765625,-5.530016899108887,5.440911769866943,3.4246091842651367
1700936711526971100,13.46997119140625,-5.556491374969482,5.601802825927734,4.285458087921143
1700936711543952100,13.4869521484375,-5.051307678222656,5.431663513183594,5.385537147521973
1700936711560956400,13.503956298828125,-4.10738468170166,4.426522254943848,6.532864570617676
1700936711577950500,13.520950439453125,-3.0148844718933105,2.9791102409362793,7.744174480438232
1700936711594944500,13.537944580078126,-2.0770585536956787,0.9401860237121582,9.807478904724121
1700936711611938300,13.554938232421875,-1.2049864530563354,-1.2875499725341797,12.128595352172852
1700936711628932400,13.571932373046875,-0.4445990025997162,-2.7008514404296875,13.79859733581543
1700936711645926400,13.588926513671876,0.23162022233009338,-2.085397720336914,14.603052139282227
1700936711662920200,13.605920166015625,0.4649720788002014,0.20197391510009766,13.821846008300781
1700936711679914200,13.622914306640626,0.33201900124549866,2.041520595550537,12.212265014648438
1700936711696908000,13.639907958984375,-0.5414570569992065,1.0641579627990723,10.857507705688477
1700936711713891300,13.656891357421875,-1.1691995859146118,-1.1309785842895508,9.35422134399414
1700936711730896000,13.673895751953125,-1.3538107872009277,-3.5410804748535156,7.7377705574035645
1700936711747890000,13.690889892578125,-0.07226665318012238,-4.6249518394470215,5.633971691131592
1700936711764884000,13.707884033203126,0.918872594833374,-5.086253643035889,3.647226333618164
1700936711781877800,13.724877685546875,1.2617037296295166,-4.679623603820801,2.0323143005371094
1700936711798861300,13.741861328125,1.3785892724990845,-4.276066780090332,1.0442214012145996
1700936711815865600,13.758865478515625,1.5752032995224,-3.6013646125793457,-0.20191574096679688
1700936711832844500,13.775844482421874,1.9090650081634521,-3.2816991806030273,-1.6025519371032715
1700936711849853700,13.792853759765626,2.6759564876556396,-3.047504425048828,-3.2330007553100586
1700936711866847200,13.80984716796875,3.547211170196533,-2.8268892765045166,-4.495595455169678
1700936711883841500,13.826841552734376,4.3160552978515625,-2.7784245014190674,-5.17513370513916
1700936711900835000,13.8438349609375,5.028759002685547,-2.570098876953125,-5.632132530212402
1700936711917818600,13.860818603515625,5.337682723999023,-2.556471824645996,-5.676892280578613
1700936711934823000,13.877822998046875,5.370909690856934,-2.6992554664611816,-5.151119709014893
1700936711951817000,13.89481689453125,5.172905921936035,-2.7597715854644775,-4.791906356811523
1700936711968811000,13.91181103515625,4.686681747436523,-3.203821897506714,-4.86575174331665
1700936711985804800,13.9288046875,4.428066253662109,-4.1518168449401855,-4.986997604370117
1700936712002798800,13.945798828125,4.775262355804443,-5.109964370727539,-5.18704891204834
1700936712019793200,13.962793212890626,5.331230163574219,-6.07519006729126,-4.985533237457275
1700936712036783400,13.979783447265625,5.52220344543457,-6.777426242828369,-4.055355548858643
1700936712053784300,13.996784423828124,5.665079593658447,-6.984614849090576,-2.8691678047180176
1700936712070774800,14.01377490234375,5.3301544189453125,-7.3009490966796875,-1.9246816635131836
1700936712087768600,14.0307685546875,4.754106521606445,-7.691775321960449,-1.0602617263793945
1700936712104757500,14.047757568359375,4.144886016845703,-8.049177169799805,-0.45627403259277344
1700936712121756700,14.064756591796876,3.545170783996582,-8.50924301147461,-0.46503448486328125
1700936712138750500,14.08175048828125,3.5162906646728516,-8.77387523651123,-1.0388102531433105
1700936712155740400,14.098740478515625,4.060985088348389,-8.400577545166016,-1.2900629043579102
1700936712172742700,14.11574267578125,4.211896896362305,-7.0388994216918945,-0.7783117294311523
1700936712189732400,14.132732421875,2.7097902297973633,-5.041660785675049,0.0018138885498046875
1700936712206726100,14.14972607421875,-0.11277008056640625,-3.517160415649414,0.5459871292114258
1700936712223717400,14.16671728515625,-2.3788673877716064,-2.6381711959838867,0.6559295654296875
1700936712240716500,14.183716552734374,-3.041353225708008,-2.5898263454437256,0.5043478012084961
1700936712257708000,14.2007080078125,-2.243988275527954,-2.5899481773376465,-0.042293548583984375
1700936712274702000,14.2177021484375,-1.3405791521072388,-2.3442492485046387,-0.7609333992004395
1700936712291695900,14.23469580078125,-0.9477076530456543,-1.862447738647461,-1.068833351135254
1700936712308690000,14.25168994140625,-0.5638948678970337,-1.2335758209228516,-0.8054304122924805
1700936712325684000,14.26868408203125,-0.2744371294975281,-0.3896913528442383,-0.37883853912353516
1700936712342677800,14.285677734375,-0.2563934922218323,0.574272632598877,-0.09157323837280273
1700936712359660800,14.302660888671875,-0.5165198445320129,1.6008849143981934,0.06927871704101562
1700936712376665600,14.31966552734375,-1.4387785196304321,2.4089231491088867,0.4026064872741699
1700936712393659600,14.33665966796875,-2.565433979034424,3.3905937671661377,0.4572477340698242
1700936712410653200,14.353653076171875,-3.392221212387085,3.987839460372925,0.14728403091430664
1700936712427648500,14.3706484375,-3.3940529823303223,4.114979267120361,0.6452383995056152
1700936712444630000,14.387630126953125,-2.9480438232421875,4.400857925415039,1.7733817100524902
1700936712461635000,14.404635009765625,-2.787595748901367,4.509277820587158,2.535127639770508
1700936712478629000,14.421629150390626,-3.037550687789917,4.597763538360596,3.3131213188171387
1700936712495606800,14.438606689453126,-3.6353509426116943,4.420012474060059,3.5764060020446777
1700936712512616700,14.45561669921875,-4.086701393127441,3.9369235038757324,3.7564406394958496
1700936712529610800,14.47261083984375,-4.107199668884277,3.30521297454834,4.359054088592529
1700936712546604800,14.489604736328126,-3.4357051849365234,3.1827645301818848,4.666758060455322
1700936712563602200,14.506602294921874,-2.8553311824798584,2.8951878547668457,5.335839748382568
1700936712580589600,14.523589599609375,-2.168154001235962,2.3804407119750977,6.625035285949707
1700936712597586400,14.54058642578125,-1.493302345275879,1.6377062797546387,8.053895950317383
1700936712614580500,14.55758056640625,-0.7355296015739441,0.6640024185180664,9.269304275512695
1700936712631565300,14.5745654296875,0.19252842664718628,-1.1157169342041016,10.606110572814941
1700936712648567600,14.591567626953125,1.4688348770141602,-2.7116928100585938,11.977069854736328
1700936712665554200,14.60855419921875,2.4445650577545166,-3.10382080078125,13.070788383483887
1700936712682556400,14.625556396484376,3.2231945991516113,-0.5969028472900391,12.759349822998047
1700936712699550500,14.642550537109376,2.4540443420410156,1.4885449409484863,12.540637969970703
1700936712716544300,14.659544189453126,0.9559226632118225,2.2373547554016113,11.985569953918457
1700936712733538000,14.6765380859375,-0.6026855707168579,1.3462228775024414,10.513956069946289
1700936712750531800,14.69353173828125,-1.4473748207092285,-0.3078269958496094,8.078014373779297
1700936712767523600,14.710523681640625,-1.2445995807647705,-2.0132713317871094,5.346809387207031
1700936712784522800,14.727522705078124,-0.19417649507522583,-3.2769041061401367,3.184109687805176
1700936712801511200,14.74451123046875,1.2735083103179932,-3.5882511138916016,1.4969964027404785
1700936712818508000,14.761508056640626,2.1855525970458984,-3.4594717025756836,0.3060417175292969
1700936712835504400,14.77850439453125,2.0860531330108643,-2.766312599182129,-0.9843134880065918
1700936712852495400,14.795495361328125,1.5738930702209473,-1.9701128005981445,-2.157540798187256
1700936712869485600,14.812485595703125,1.399715781211853,-1.2679352760314941,-3.1459836959838867
1700936712886481000,14.82948095703125,1.577986240386963,-1.0177206993103027,-3.7457966804504395
1700936712903477500,14.8464775390625,1.8660430908203125,-1.0027475357055664,-4.019198417663574
1700936712920471300,14.86347119140625,2.080098867416382,-1.2047405242919922,-4.21597146987915
1700936712937465600,14.880465576171876,2.2876718044281006,-1.499009132385254,-4.460137844085693
1700936712954459400,14.89745947265625,2.3927383422851562,-1.9188756942749023,-4.830875873565674
1700936712971453000,14.914452880859375,2.4093563556671143,-2.3366663455963135,-4.9661149978637695
1700936712988447000,14.931447021484376,2.289527177810669,-3.013685941696167,-4.851642608642578
1700936713005441000,14.94844091796875,2.1958115100860596,-3.87480092048645,-4.607789516448975
1700936713022434800,14.965434814453126,2.370436191558838,-5.032706260681152,-3.7124218940734863
1700936713039429000,14.98242919921875,2.8631534576416016,-5.952045440673828,-2.899758815765381
1700936713056422700,14.999422607421875,3.5050549507141113,-6.544744491577148,-2.5814032554626465
1700936713073417000,15.0164169921875,3.9917044639587402,-7.28558349609375,-2.2139549255371094
1700936713090410800,15.03341064453125,4.400717735290527,-7.810544490814209,-2.0860939025878906
1700936713107404800,15.05040478515625,4.293715476989746,-8.355928421020508,-1.9052600860595703
1700936713124398300,15.0673984375,3.226407289505005,-8.654289245605469,-2.3931832313537598
1700936713141382000,15.0843818359375,1.8108899593353271,-8.860953330993652,-3.382812976837158
1700936713158386200,15.10138623046875,0.728846549987793,-8.832905769348145,-5.217526435852051
1700936713175380200,15.118380126953125,0.9132664203643799,-8.169384002685547,-6.497013092041016
1700936713192374300,15.135374267578126,1.860612392425537,-7.188004493713379,-6.183942794799805
1700936713209365800,15.15236572265625,2.7817671298980713,-6.307708740234375,-4.388541221618652
1700936713226364400,15.169364501953124,3.412181854248047,-5.354922294616699,-2.5821003913879395
1700936713243356000,15.18635595703125,3.0698673725128174,-4.54549503326416,-1.159766674041748
1700936713260349700,15.203349609375,2.221503973007202,-3.737212657928467,-0.46295881271362305
1700936713277343700,15.22034375,1.053387999534607,-3.0547924041748047,-0.6679959297180176
1700936713294338000,15.237338134765626,0.13774079084396362,-2.8025074005126953,-0.7043943405151367
1700936713311331800,15.254331787109376,0.11993813514709473,-2.401723861694336,-0.5995907783508301
1700936713328325600,15.27132568359375,0.49010851979255676,-1.826540470123291,0.18331575393676758
1700936713345320000,15.28831982421875,0.9212403297424316,-0.9017124176025391,1.4268569946289062
1700936713362313500,15.3053134765625,0.9846057891845703,0.3415069580078125,2.659519672393799
1700936713379307500,15.3223076171875,0.527648389339447,1.5313796997070312,3.4858498573303223
1700936713396301300,15.33930126953125,-0.24257892370224,2.868600845336914,4.131659984588623
1700936713413292800,15.356292724609375,-1.0462379455566406,4.013259410858154,4.608320713043213
1700936713430291700,15.373291748046874,-1.6055576801300049,5.0404253005981445,4.77045202255249
1700936713447283000,15.390282958984375,-1.8569068908691406,5.552369117736816,5.139247417449951
1700936713464277200,15.40727734375,-2.0026700496673584,5.856739521026611,5.585898399353027
1700936713481270800,15.424270751953125,-1.9619066715240479,6.112727165222168,5.806143283843994
1700936713498265000,15.44126513671875,-2.294492721557617,6.216843605041504,5.785771369934082
1700936713515259000,15.4582587890625,-2.8086671829223633,5.805137634277344,5.465244293212891
1700936713532252700,15.475252685546875,-2.810720682144165,4.837214469909668,5.921696662902832
1700936713549247000,15.4922470703125,-2.45639705657959,3.923466205596924,7.035316467285156
1700936713566240800,15.50924072265625,-1.8829554319381714,2.9708328247070312,8.062235832214355
1700936713583234800,15.52623486328125,-0.8765668272972107,1.921064853668213,8.86592960357666
1700936713600226000,15.54322607421875,0.46567171812057495,0.9487133026123047,9.481369018554688
1700936713617225200,15.56022509765625,1.6610779762268066,-0.27332401275634766,10.236051559448242
1700936713634216200,15.57721630859375,2.6069717407226562,-1.6867084503173828,11.19033432006836
1700936713651210200,15.594210205078125,2.9605650901794434,-2.9933252334594727,12.180770874023438
1700936713668206800,15.611206787109374,2.902451992034912,-3.7614917755126953,12.501934051513672
1700936713685198300,15.6281982421875,2.8982880115509033,-3.13836669921875,11.211158752441406
1700936713702192400,15.6451923828125,2.534003257751465,-1.646866798400879,9.079927444458008
1700936713719186000,15.66218603515625,1.915837049484253,-0.25049781799316406,7.194940567016602
1700936713736180000,15.679179931640626,1.1149300336837769,-0.00789642333984375,5.98848295211792
1700936713753174000,15.696174072265626,0.3874685764312744,-0.3737926483154297,4.851824760437012
1700936713770167600,15.71316748046875,0.02384418249130249,-0.9988670349121094,3.729283332824707
1700936713787161900,15.730161865234376,-0.25348684191703796,-1.7322187423706055,2.2795143127441406
1700936713804155400,15.7471552734375,-0.14081516861915588,-2.1318678855895996,0.7776370048522949
1700936713821149700,15.764149658203126,0.42168235778808594,-2.087338924407959,-0.23175716400146484
1700936713838140700,15.781140625,1.0544486045837402,-1.7241830825805664,-0.8854565620422363
1700936713855138000,15.798137939453126,1.501739501953125,-1.304396629333496,-1.341339111328125
1700936713872131300,15.81513134765625,1.7342939376831055,-1.072129726409912,-1.722266674041748
1700936713889125400,15.83212548828125,1.987213373184204,-0.9284348487854004,-2.3085904121398926
1700936713906116600,15.84911669921875,2.3904507160186768,-0.7684431076049805,-2.9042019844055176
1700936713923115500,15.866115478515624,2.83062481880188,-0.6372933387756348,-3.2066078186035156
1700936713940107000,15.88310693359375,3.1042191982269287,-0.5012693405151367,-3.3803114891052246
1700936713957101000,15.90010107421875,3.2292556762695312,-0.5500750541687012,-3.3555760383605957
1700936713974095000,15.91709521484375,3.071789026260376,-1.2260212898254395,-3.036893844604492
1700936713991086300,15.93408642578125,2.7688534259796143,-2.2448625564575195,-2.971043109893799
1700936714008085500,15.95108544921875,3.035884380340576,-2.8551974296569824,-3.3163037300109863
1700936714025076500,15.968076416015625,3.7278547286987305,-3.0843725204467773,-3.6539998054504395
1700936714042070500,15.985070556640625,4.372340202331543,-3.071976661682129,-3.677548408508301
1700936714059054300,16.002054443359373,4.547651290893555,-3.2288384437561035,-3.5099096298217773
1700936714076058400,16.019058349609374,4.290220260620117,-3.5135440826416016,-3.4239330291748047
1700936714093051000,16.03605078125,3.7727291584014893,-3.899670124053955,-3.7592053413391113
1700936714110048300,16.05304833984375,3.1299328804016113,-4.364457130432129,-4.4033203125
1700936714127040500,16.07004052734375,3.0213961601257324,-4.084167957305908,-5.289071083068848
1700936714144034000,16.087033935546874,2.5145092010498047,-3.744934558868408,-5.615979194641113
1700936714161028400,16.1040283203125,1.421647548675537,-3.465024471282959,-5.413447856903076
1700936714178011400,16.121011474609375,0.18686997890472412,-3.4521284103393555,-4.827270030975342
1700936714195016000,16.138015869140624,-0.48929333686828613,-3.8870325088500977,-4.070191860198975
1700936714212010000,16.155010009765626,-0.07005506753921509,-3.861510753631592,-3.4857211112976074
1700936714229004000,16.172004150390624,0.4016121029853821,-3.374197483062744,-2.5685253143310547
1700936714245997600,16.18899755859375,0.10507667064666748,-2.5936975479125977,-0.45297908782958984
1700936714262992000,16.205991943359376,-1.148813009262085,-1.621654987335205,1.933866024017334
1700936714279985700,16.222985595703125,-2.9095890522003174,-0.6670575141906738,3.250368118286133
1700936714296979500,16.2399794921875,-4.212883472442627,0.02268362045288086,4.082916259765625
1700936714313973200,16.25697314453125,-5.099438667297363,0.09601879119873047,4.074254512786865
1700936714330967600,16.273967529296876,-4.7470855712890625,-0.29111242294311523,3.353148937225342
1700936714347961300,16.29096142578125,-2.670368194580078,-0.3428964614868164,2.6459813117980957
1700936714364955400,16.307955322265624,-0.6233553290367126,-0.26169538497924805,2.377589225769043
1700936714381946600,16.324946533203125,0.9756535291671753,0.15668582916259766,2.7188897132873535
1700936714398945500,16.341945556640624,1.799652099609375,0.7988181114196777,3.081587314605713
1700936714415937000,16.35893701171875,1.986046552658081,1.5207595825195312,2.987400531768799
1700936714432931300,16.375931396484376,1.526601791381836,1.9615464210510254,2.509547710418701
1700936714449924600,16.392924560546874,1.0385544300079346,2.5077266693115234,1.8348679542541504
1700936714466918700,16.409918701171875,0.6566975712776184,3.016022205352783,1.4510931968688965
1700936714483912400,16.426912353515625,0.1462569236755371,3.451502799987793,1.4116806983947754
1700936714500896000,16.44389599609375,-0.5248845815658569,3.8696885108947754,1.6521458625793457
1700936714517900500,16.460900634765625,-1.1484241485595703,4.3521833419799805,1.5211358070373535
1700936714534894300,16.477894287109375,-1.6652247905731201,4.507352828979492,1.3958430290222168
1700936714551888400,16.494888427734374,-1.926666259765625,4.522696495056152,1.3077106475830078
1700936714568882200,16.511882080078124,-2.0944266319274902,4.547592639923096,1.1282310485839844
1700936714585876200,16.528876220703125,-2.189606189727783,4.248010635375977,1.0454988479614258
1700936714602870300,16.545870361328124,-1.793975830078125,4.197752475738525,0.8217811584472656
1700936714619864000,16.562864013671874,-1.490333080291748,3.7232470512390137,0.891176700592041
1700936714636856600,16.579856689453123,-1.1480278968811035,3.338805675506592,0.787595272064209
1700936714653853700,16.596853759765626,-1.0937095880508423,2.9761409759521484,0.7467527389526367
1700936714670846200,16.61384619140625,-1.1254973411560059,2.686387062072754,0.48343706130981445
1700936714687839700,16.63083984375,-0.8643523454666138,2.2829933166503906,0.2338118553161621
1700936714704833500,16.64783349609375,-0.25916826725006104,1.8845653533935547,0.004400730133056641
1700936714721827800,16.664827880859374,0.5877110362052917,1.5700554847717285,-0.2881584167480469
1700936714738821400,16.6818212890625,1.4351903200149536,1.5177927017211914,-0.7581596374511719
1700936714755805400,16.698805419921875,1.9061007499694824,1.1454644203186035,-0.9810390472412109
1700936714772809200,16.715809326171875,2.09806227684021,0.8707513809204102,-0.9302468299865723
1700936714789803800,16.7328037109375,1.7676453590393066,0.44412851333618164,-0.47626829147338867
1700936714806797300,16.74979736328125,0.964600682258606,0.008856773376464844,0.27281999588012695
1700936714823791000,16.766791015625,0.3908064365386963,-0.0896148681640625,1.3507075309753418
1700936714840785200,16.78378515625,0.25798699259757996,-0.26702260971069336,2.8206958770751953
1700936714857778700,16.80077880859375,0.9484349489212036,-0.7170000076293945,4.350043296813965
1700936714874770700,16.817770751953127,2.260134220123291,-1.1623454093933105,6.005908489227295
1700936714891769300,16.834769287109374,3.3763275146484375,-1.5674586296081543,7.795018672943115
1700936714908763400,16.851763427734376,3.990476608276367,-0.9566230773925781,8.634637832641602
1700936714925752300,16.86875244140625,3.346404552459717,0.30851221084594727,8.739603042602539
1700936714942748700,16.885748779296875,1.5124037265777588,0.9703679084777832,8.632501602172852
1700936714959742500,16.902742431640625,0.35269826650619507,0.9623422622680664,8.013267517089844
1700936714976736800,16.91973681640625,0.7774658203125,0.16070127487182617,6.916265964508057
1700936714993730300,16.936730224609374,1.7205674648284912,-0.7915663719177246,5.327085971832275
1700936715010724400,16.953724365234375,2.8199920654296875,-1.1064553260803223,3.423058032989502
1700936715027717400,16.97071728515625,3.632294178009033,-0.7554268836975098,1.8142004013061523
1700936715044713500,16.98771337890625,3.6547255516052246,-0.16006803512573242,0.5971789360046387
1700936715061706200,17.004706298828125,3.454697608947754,0.547386646270752,-0.2807159423828125
1700936715078700300,17.0217001953125,3.141186475753784,0.874605655670166,-0.9101963043212891
1700936715095693800,17.03869384765625,3.3856306076049805,0.9816899299621582,-1.608485221862793
1700936715112688000,17.055688232421875,4.1399922370910645,0.8827657699584961,-2.4347081184387207
1700936715129682000,17.072681884765625,5.3112263679504395,0.7462015151977539,-2.9273500442504883
1700936715146676000,17.089676025390624,6.108462810516357,0.5340456962585449,-3.1106481552124023
1700936715163669200,17.106669189453125,6.303997993469238,0.5101675987243652,-3.0333023071289062
1700936715180664000,17.1236640625,5.764450550079346,0.5205807685852051,-2.4757919311523438
1700936715197657600,17.14065771484375,5.013210296630859,0.4878506660461426,-2.0688204765319824
1700936715214651100,17.157651123046875,4.325371742248535,0.33264827728271484,-1.9162049293518066
1700936715231642600,17.174642578125,4.1182661056518555,0.08243799209594727,-1.7300748825073242
1700936715248641800,17.191641845703124,4.153083801269531,-0.15639352798461914,-1.561178207397461
1700936715265633000,17.208633056640625,4.097307205200195,-0.5898838043212891,-1.1731839179992676
1700936715282627300,17.22562744140625,3.8591647148132324,-1.1228885650634766,-0.6258611679077148
1700936715299621000,17.24262109375,3.5415842533111572,-1.7260513305664062,-0.3009462356567383
1700936715316615000,17.259614990234375,3.086592197418213,-2.2349061965942383,-0.43670225143432617
1700936715333609000,17.27660888671875,2.6500186920166016,-2.668994903564453,-0.6729140281677246
1700936715350602800,17.293602783203124,1.8389248847961426,-3.0967354774475098,-0.712468147277832
1700936715367594200,17.31059423828125,0.6977469325065613,-3.389221668243408,-1.260500431060791
1700936715384582700,17.327582763671874,-0.250461220741272,-3.142314910888672,-1.9395222663879395
1700936715401584600,17.344584716796874,-1.197394609451294,-3.070221424102783,-1.8217005729675293
1700936715418578700,17.36157861328125,-1.4951343536376953,-2.964787483215332,-1.5875787734985352
1700936715435572500,17.378572509765625,-1.107092022895813,-2.9903345108032227,-1.3240303993225098
1700936715452566500,17.39556640625,-0.4409092664718628,-2.5842819213867188,-1.3882341384887695
1700936715469560000,17.41256005859375,0.005441427230834961,-1.6599678993225098,-1.3226652145385742
1700936715486554000,17.42955419921875,-0.14347630739212036,-0.5591268539428711,-0.9884848594665527
1700936715503548200,17.446548095703125,-0.6609244346618652,0.18149566650390625,-0.4611244201660156
1700936715520542200,17.463542236328124,-1.405919075012207,0.46172189712524414,-0.17990779876708984
1700936715537536300,17.480536376953125,-1.7771015167236328,0.3585014343261719,-0.29523563385009766
1700936715554527200,17.49752734375,-1.8533155918121338,-0.34343862533569336,-0.5004482269287109
1700936715571526400,17.5145263671875,-1.5993609428405762,-0.8180127143859863,-1.0966072082519531
1700936715588517600,17.531517578125,-1.1339261531829834,-0.8588781356811523,-1.3860793113708496
1700936715605511400,17.548511474609374,-0.3810510039329529,-0.5475616455078125,-1.022545337677002
1700936715622505500,17.56550537109375,0.27543017268180847,-0.03208112716674805,-0.18960189819335938
1700936715639499500,17.58249951171875,0.8045383095741272,0.48290491104125977,0.5234870910644531
1700936715656493300,17.599493408203124,1.1848492622375488,0.7613706588745117,0.9571466445922852
1700936715673487400,17.6164873046875,1.5625466108322144,0.7352166175842285,1.1094059944152832
1700936715690481400,17.6334814453125,1.8893039226531982,0.7454190254211426,1.0784835815429688
1700936715707475200,17.65047509765625,1.8120133876800537,0.9087104797363281,0.9269051551818848
1700936715724474600,17.667474609375,1.4013267755508423,1.0348258018493652,1.0598158836364746
1700936715741463000,17.684463134765625,1.0780253410339355,1.396054744720459,1.2300419807434082
1700936715758458600,17.701458740234376,0.9753744602203369,1.7305097579956055,1.4369888305664062
1700936715775449000,17.718448974609377,1.1034553050994873,2.0290017127990723,1.819197654724121
1700936715792445000,17.73544482421875,1.1769644021987915,2.3455395698547363,2.569986343383789
1700936715809438000,17.75243798828125,0.7272557616233826,2.697916030883789,3.1393861770629883
1700936715826433300,17.769433349609375,-0.09469319134950638,2.71917724609375,3.6927876472473145
1700936715843426600,17.786426513671874,-1.080066204071045,2.6317081451416016,4.1774115562438965
1700936715860420400,17.80342041015625,-1.927669644355774,2.361820697784424,4.617427349090576
1700936715877414400,17.820414306640625,-2.1957430839538574,1.8679571151733398,4.841969013214111
1700936715894408700,17.83740869140625,-1.8300260305404663,1.2052021026611328,4.8170928955078125
1700936715911402000,17.854402099609374,-1.328285813331604,0.5432968139648438,4.389784812927246
1700936715928396000,17.87139599609375,-0.4233883023262024,0.08786630630493164,3.598741054534912
1700936715945390300,17.888390380859374,0.4213733375072479,-0.25089073181152344,2.642219066619873
1700936715962384100,17.905384033203124,0.9957844614982605,-0.44289588928222656,2.018397808074951
1700936715979377700,17.922377685546873,1.1256073713302612,-0.5432276725769043,2.0298566818237305
1700936715996371700,17.939371826171875,0.8246321678161621,-0.4284186363220215,2.2687273025512695
1700936716013364000,17.956364013671877,0.3215920329093933,-0.5768284797668457,2.4068803787231445
1700936716030359800,17.97335986328125,0.22908949851989746,-1.0664072036743164,2.761157989501953
1700936716047353900,17.990353759765625,0.5555119514465332,-2.1094398498535156,3.845003128051758
1700936716064347600,18.00734765625,0.9791471362113953,-2.5683069229125977,4.43571138381958
1700936716081341200,18.024341064453125,1.3455686569213867,-2.1395187377929688,5.453507423400879
1700936716098335200,18.041335205078123,1.648500680923462,-1.0795397758483887,6.586223125457764
1700936716115319800,18.05831982421875,1.825029730796814,-0.13869476318359375,7.6403584480285645
1700936716132323300,18.0753232421875,1.1312967538833618,-0.3665595054626465,8.697900772094727
1700936716149317000,18.092317138671874,-0.28550398349761963,-1.0970954895019531,8.596857070922852
1700936716166311200,18.109311279296875,-0.7824772000312805,-1.652259349822998,7.186252593994141
1700936716183300600,18.126300537109376,0.271415114402771,-2.0221242904663086,5.690669059753418
1700936716200299000,18.143299072265624,1.8370370864868164,-3.062856674194336,4.825349807739258
1700936716217292800,18.160292724609373,3.031564474105835,-4.4451985359191895,4.4499311447143555
1700936716234286600,18.17728662109375,3.4871153831481934,-4.5633649826049805,3.4606056213378906
1700936716251280400,18.1942802734375,3.4944777488708496,-4.193080425262451,1.8176069259643555
1700936716268273200,18.211273193359375,3.5875210762023926,-3.857633113861084,0.4730567932128906
1700936716285269500,18.22826953125,4.050185680389404,-3.5911245346069336,-1.0141000747680664
1700936716302262300,18.24526220703125,4.500022888183594,-3.7731235027313232,-2.4300599098205566
1700936716319256600,18.262256591796874,4.9934492111206055,-3.955545425415039,-3.8662009239196777
1700936716336250400,18.27925048828125,5.312973976135254,-4.098610877990723,-4.980038166046143
1700936716353244200,18.296244140625,5.659788608551025,-4.17179012298584,-5.600312232971191
1700936716370238200,18.31323828125,6.20743989944458,-4.205911159515381,-6.41754150390625
1700936716387233300,18.3302333984375,6.807112216949463,-4.056550025939941,-7.368010520935059
1700936716404232700,18.347232666015625,7.412221908569336,-4.055780410766602,-7.312420845031738
1700936716421219800,18.3642197265625,7.531670570373535,-4.2127685546875,-6.709323883056641
1700936716438211000,18.381211181640627,7.338233470916748,-4.361315727233887,-5.638937950134277
1700936716455208000,18.3982080078125,6.8852152824401855,-4.571078300476074,-4.28712272644043
1700936716472204000,18.4152041015625,6.436379432678223,-4.785574436187744,-3.1565232276916504
1700936716489185000,18.43218505859375,5.758060455322266,-5.1678900718688965,-2.325439453125
1700936716506189300,18.449189208984375,5.186675071716309,-5.612397193908691,-1.987637996673584
1700936716523183400,18.466183349609373,4.808926582336426,-5.9746294021606445,-2.1424717903137207
1700936716540177400,18.483177490234375,4.362848281860352,-6.471066474914551,-2.058770179748535
1700936716557171500,18.50017138671875,3.7432639598846436,-7.0386786460876465,-1.4628410339355469
1700936716574165200,18.517165283203123,2.714423179626465,-7.758610725402832,-0.7266511917114258
1700936716591159000,18.534158935546873,1.7146992683410645,-8.089674949645996,0.14450931549072266
1700936716608150500,18.551150634765627,0.3447427749633789,-8.851810455322266,1.3861417770385742
1700936716625149700,18.568149658203126,-1.5115606784820557,-9.357797622680664,2.4976186752319336
1700936716642140700,18.585140625,-2.894028663635254,-9.558475494384766,2.244426727294922
1700936716659122400,18.602122314453126,-2.879089117050171,-9.595623970031738,1.144430160522461
1700936716676128800,18.619128662109375,-1.8048701286315918,-8.935550689697266,-0.6236162185668945
1700936716693122600,18.63612255859375,0.5060803890228271,-7.643927574157715,-1.4322433471679688
1700936716710116600,18.65311669921875,2.386610507965088,-6.154376029968262,-0.8860273361206055
1700936716727110400,18.6701103515625,2.5341596603393555,-5.216156482696533,1.2630414962768555
1700936716744104200,18.687104248046875,1.4210880994796753,-3.924628257751465,2.361800193786621
1700936716761098200,18.70409814453125,0.19129014015197754,-2.7350752353668213,1.7178478240966797
1700936716778092300,18.72109228515625,-1.3157130479812622,-2.292363405227661,0.6406955718994141
1700936716795075300,18.738075439453127,-2.207659959793091,-2.0958805084228516,-0.1814403533935547
1700936716812080000,18.755080078125,-2.2578797340393066,-2.0375194549560547,-0.16507625579833984
1700936716829063200,18.772063232421875,-1.485832929611206,-1.6094369888305664,0.4144620895385742
1700936716846068000,18.78906787109375,-0.7523541450500488,-0.8609843254089355,2.1175308227539062
1700936716863061800,18.806061767578125,0.09919345378875732,0.15538883209228516,4.041125297546387
1700936716880055600,18.8230556640625,0.16192269325256348,1.114290714263916,5.428225994110107
1700936716897049300,18.84004931640625,-0.8368740081787109,2.4504904747009277,4.962917327880859
1700936716914043600,18.857043701171875,-1.518563985824585,3.9580001831054688,3.429288387298584
1700936716931037400,18.874037353515625,-0.67828369140625,4.855086326599121,2.846376895904541
1700936716948031500,18.891031494140623,0.941686749458313,5.151213645935059,3.0087456703186035
1700936716965025300,18.908025390625,2.2104713916778564,4.949795722961426,3.518711566925049
1700936716982019000,18.92501904296875,2.684570789337158,5.15899658203125,4.037559986114502
1700936716999013000,18.94201318359375,2.2936322689056396,5.386088848114014,4.693215370178223
1700936717016007200,18.959007080078123,1.0083377361297607,5.780683994293213,5.352167129516602
1700936717033000700,18.976000732421873,-0.6012351512908936,6.245065689086914,6.093970775604248
1700936717049991200,18.9929912109375,-1.7344799041748047,6.337593078613281,6.981617450714111
1700936717066988800,19.00998876953125,-1.990227460861206,5.939736366271973,8.051998138427734
1700936717083982600,19.026982666015623,-1.8070868253707886,5.145774841308594,9.054058074951172
1700936717100970000,19.043969970703124,-1.0807057619094849,4.199659824371338,9.318643569946289
1700936717117970700,19.060970703125,0.47946345806121826,3.3265585899353027,8.872042655944824
1700936717134964500,19.077964599609373,2.110781192779541,2.336045265197754,8.373808860778809
1700936717151958300,19.094958251953123,3.3834338188171387,1.2319140434265137,8.127103805541992
1700936717168949500,19.111949462890625,4.183690547943115,-0.09788894653320312,8.0645170211792
1700936717185935600,19.128935546875,4.223965167999268,-1.5474376678466797,7.952129364013672
1700936717202940000,19.14593994140625,4.077122688293457,-2.3502988815307617,7.649347305297852
1700936717219934000,19.162933837890623,3.6125574111938477,-2.0912628173828125,7.268819332122803
1700936717236930300,19.179930419921874,2.758302688598633,-0.8965725898742676,7.482515811920166
1700936717253911800,19.196911865234377,1.94600248336792,0.23035907745361328,8.060094833374023
1700936717270918000,19.21391796875,1.676557183265686,0.3465304374694824,8.246604919433594
1700936717287909400,19.230909423828123,1.4897358417510986,-1.3451905250549316,8.78799819946289
1700936717304903700,19.247903564453125,1.0610339641571045,-2.620425224304199,7.736695766448975
1700936717321897500,19.2648974609375,0.3968786597251892,-3.806065559387207,6.231897830963135
1700936717338891500,19.2818916015625,0.09934055805206299,-4.694439888000488,4.423518180847168
1700936717355885300,19.29888525390625,0.08115953207015991,-5.636198043823242,3.35186767578125
1700936717372879400,19.31587939453125,-0.4067555069923401,-5.716983795166016,1.9148674011230469
1700936717389873200,19.332873046875,-1.3934575319290161,-5.394994258880615,0.08475971221923828
1700936717406867000,19.349866943359373,-2.024951934814453,-4.73421573638916,-2.094494342803955
1700936717423858700,19.366858642578126,-2.116581678390503,-4.25694465637207,-3.951498031616211
1700936717440846600,19.3838466796875,-1.5469352006912231,-4.137136459350586,-5.114201545715332
1700936717457838800,19.4008388671875,-0.9352297186851501,-4.008096218109131,-6.206422805786133
1700936717474846500,19.417846435546874,-0.19823241233825684,-3.806640386581421,-6.770648956298828
1700936717491826000,19.434825927734376,0.3819775879383087,-3.5519955158233643,-7.092133045196533
1700936717508830700,19.451830810546873,0.765623152256012,-3.401803970336914,-7.166494369506836
1700936717525824500,19.468824462890623,0.9678501486778259,-3.399494171142578,-7.359096527099609
1700936717542818300,19.485818359375,1.3771207332611084,-3.7807199954986572,-7.515094757080078
1700936717559812000,19.50281201171875,1.7353341579437256,-4.529378414154053,-7.612716197967529
1700936717576795600,19.519795654296875,2.071209669113159,-5.07413911819458,-7.608423709869385
1700936717593800200,19.53680029296875,2.3321285247802734,-5.549935817718506,-6.917519569396973
1700936717610794000,19.5537939453125,2.5465774536132812,-6.874072074890137,-5.479892253875732
1700936717627787800,19.570787841796875,4.258209228515625,-8.389423370361328,-4.196094036102295
1700936717644781800,19.58778173828125,5.0388264656066895,-8.799626350402832,-2.5457777976989746
1700936717661765000,19.60476513671875,3.4446909427642822,-8.660550117492676,-0.31705665588378906
1700936717678769400,19.621769287109377,1.3286998271942139,-8.532480239868164,2.6235151290893555
1700936717695763500,19.638763427734375,0.650418758392334,-8.964550971984863,5.313405990600586
1700936717712757800,19.6557578125,1.3296170234680176,-10.52842903137207,7.588830947875977
1700936717729749200,19.672749267578126,2.9227957725524902,-11.111472129821777,6.470251083374023
1700936717746747600,19.68974755859375,4.479257583618164,-10.152740478515625,3.196063995361328
1700936717763739400,19.706739501953123,5.553182125091553,-7.200251579284668,0.5238924026489258
1700936717780733400,19.7237333984375,5.260369777679443,-5.334324836730957,0.047153472900390625
1700936717797727200,19.740727294921875,5.337817192077637,-4.0732622146606445,0.5649871826171875
1700936717814720800,19.757720703125,5.04292106628418,-3.458888053894043,1.0157976150512695
1700936717831714800,19.77471484375,4.031956672668457,-3.0315909385681152,1.1661663055419922
1700936717848708900,19.791708984375,2.5600552558898926,-2.4488892555236816,0.44759464263916016
1700936717865703000,19.808702880859375,1.144181728363037,-1.7265968322753906,-0.6572728157043457
1700936717882696700,19.82569677734375,-0.43297815322875977,-0.9298272132873535,-1.2518558502197266
1700936717899690500,19.8426904296875,-1.827532172203064,0.12517642974853516,-1.2990837097167969
1700936717916684300,19.859684326171877,-2.914307117462158,1.0358285903930664,-0.22463321685791016
1700936717933678300,19.87667822265625,-3.1079556941986084,2.1734442710876465,1.1996216773986816
1700936717950672100,19.893672119140625,-2.957207679748535,3.145949363708496,1.7855501174926758
1700936717967656000,19.910656005859376,-3.6442766189575195,3.946401596069336,1.944939136505127
1700936717984657200,19.9276572265625,-4.397556781768799,4.511686325073242,1.8265881538391113
1700936718001656600,19.944656494140624,-4.82279109954834,4.988335132598877,1.842203140258789
1700936718018647800,19.961647705078125,-5.18925142288208,5.512521743774414,2.3682079315185547
1700936718035641600,19.9786416015625,-5.178502082824707,5.923647403717041,3.3421072959899902
1700936718052636400,19.995636474609373,-4.4894609451293945,6.2524871826171875,4.1932244300842285
1700936718069629000,20.01262890625,-3.5893001556396484,5.956482887268066,5.112246513366699
1700936718086623500,20.02962353515625,-3.1610310077667236,5.565000534057617,5.398052215576172
1700936718103617300,20.0466171875,-2.3865084648132324,4.646972179412842,5.753717422485352
1700936718120611300,20.063611328125,-1.6995866298675537,4.06577730178833,6.148268699645996
1700936718137605000,20.080605224609375,-0.9827694892883301,3.3304882049560547,7.210592269897461
1700936718154599000,20.097598876953125,0.25609534978866577,3.129089832305908,8.174553871154785
1700936718171593200,20.11459326171875,1.0741840600967407,2.460052967071533,9.493562698364258
1700936718188587300,20.131587158203125,0.8699799180030823,1.6571707725524902,10.737215042114258
1700936718205570300,20.1485703125,0.33704981207847595,0.5189962387084961,11.998957633972168
1700936718222575000,20.1655751953125,-0.0983310341835022,-0.9402580261230469,12.869760513305664
1700936718239569200,20.182569091796875,0.10364538431167603,-2.0113525390625,12.93521785736084
1700936718256562700,20.199562744140625,0.6506991982460022,-2.286189079284668,12.569116592407227
1700936718273556700,20.216556640625,0.803033173084259,-1.4210920333862305,11.417494773864746
1700936718290548000,20.2335478515625,0.5379343032836914,-0.7057104110717773,10.090600967407227
1700936718307547100,20.250547119140624,0.2582419514656067,-1.0951571464538574,8.916797637939453
1700936718324538000,20.2675380859375,0.026451289653778076,-2.5623865127563477,7.581295967102051
1700936718341532400,20.284532470703127,0.05924785137176514,-4.551468372344971,6.4001383781433105
1700936718358517200,20.301517333984375,0.2233053743839264,-5.659054279327393,4.4244303703308105
1700936718375522600,20.3185224609375,0.36315128207206726,-5.952429294586182,2.2568774223327637
1700936718392514000,20.33551416015625,0.6052321791648865,-5.631335258483887,0.4853849411010742
1700936718409508000,20.352508056640627,1.120092511177063,-5.223132610321045,-1.225111961364746
1700936718426501600,20.369501708984377,1.9747438430786133,-4.5151824951171875,-2.6026687622070312
1700936718443496000,20.386495849609375,2.5418567657470703,-4.021951198577881,-3.4635891914367676
1700936718460489500,20.403489501953125,2.988748073577881,-3.4042117595672607,-4.24937105178833
1700936718477483500,20.4204833984375,3.2045609951019287,-2.9825499057769775,-4.6473259925842285
1700936718494477600,20.4374775390625,3.2110800743103027,-2.6472785472869873,-5.272719383239746
1700936718511469000,20.454468994140626,3.097071647644043,-2.4747462272644043,-5.7791948318481445
1700936718528465000,20.47146484375,3.0147013664245605,-2.4103801250457764,-6.2220563888549805
1700936718545459500,20.48845947265625,3.1844515800476074,-2.358116388320923,-6.670926094055176
1700936718562450400,20.505450439453124,3.353217601776123,-2.370103359222412,-7.093996524810791
1700936718579450000,20.5224501953125,3.2729601860046387,-2.465287923812866,-7.333244323730469
1700936718596448800,20.53944873046875,2.8905887603759766,-2.5854368209838867,-7.400844097137451
1700936718613432000,20.55643212890625,2.7176759243011475,-2.9637134075164795,-7.316695213317871
1700936718630421200,20.573421142578123,2.987579345703125,-3.5053281784057617,-7.191258430480957
1700936718647422700,20.590422607421875,3.4904279708862305,-4.158251762390137,-6.778256416320801
1700936718664414200,20.607414306640624,4.074174880981445,-4.938312530517578,-5.976775169372559
1700936718681413000,20.6244130859375,4.2445831298828125,-6.020183563232422,-5.096634864807129
1700936718698404600,20.641404541015625,3.91646146774292,-8.000534057617188,-3.5661067962646484
1700936718715398100,20.658398193359375,3.2939820289611816,-8.830999374389648,-1.9499497413635254
1700936718732392200,20.67539208984375,2.5269954204559326,-8.751635551452637,-0.18085193634033203
1700936718749389800,20.692389892578124,2.372696876525879,-8.552230834960938,1.2867136001586914
1700936718766380000,20.709380126953125,1.5877255201339722,-9.056891441345215,2.694098472595215
1700936718783374000,20.7263740234375,1.0686935186386108,-9.415891647338867,2.8753089904785156
1700936718800368000,20.7433681640625,1.5846176147460938,-9.106014251708984,2.2164306640625
1700936718817362000,20.76036181640625,2.501781702041626,-7.721179962158203,1.4342899322509766
1700936718834355700,20.777355712890625,3.12412428855896,-5.610998153686523,1.7576732635498047
1700936718851349800,20.794349853515627,2.495386838912964,-3.967710494995117,3.0646400451660156
1700936718868343800,20.81134375,1.4372764825820923,-2.5531978607177734,4.368448257446289
1700936718885339400,20.82833935546875,-0.14808690547943115,-1.5158557891845703,4.175313472747803
1700936718902329600,20.84532958984375,-1.3929009437561035,-0.9919266700744629,2.625483512878418
1700936718919325200,20.8623251953125,-1.8852224349975586,-0.8435454368591309,0.7647242546081543
1700936718936319200,20.8793193359375,-1.6063940525054932,-0.5487585067749023,-0.3957033157348633
1700936718953310500,20.896310546875,-0.8976826667785645,0.08885383605957031,-0.656165599822998
1700936718970297300,20.91329736328125,-0.1265679895877838,1.0742497444152832,0.4374380111694336
1700936718987301000,20.930301025390627,0.0799696296453476,2.2303972244262695,1.4581007957458496
1700936719004295000,20.947294921875,-0.21419993042945862,3.484497547149658,2.251077175140381
1700936719021288700,20.964288818359375,-0.7973669767379761,4.358656883239746,2.89725923538208
1700936719038280400,20.981280517578124,-1.4684851169586182,5.19529914855957,3.11289644241333
1700936719055278800,20.99827880859375,-2.616696357727051,5.4246673583984375,3.387300491333008
1700936719072270300,21.015270263671876,-3.609402894973755,5.579813480377197,3.6913561820983887
1700936719089264400,21.032264404296875,-4.176146984100342,5.641802787780762,4.042395114898682
1700936719106258200,21.049258056640625,-4.197469234466553,5.364599227905273,4.7892374992370605
1700936719123252000,21.066251953125,-3.4139366149902344,4.978490352630615,5.5728044509887695
1700936719140238600,21.083238525390627,-2.2305562496185303,4.7712225914001465,6.074875831604004
1700936719157240000,21.100239990234375,-1.3912336826324463,4.284445762634277,6.492393493652344
1700936719174233900,21.11723388671875,-0.5697456002235413,3.733822822570801,6.165853500366211
1700936719191227600,21.1342275390625,0.2993113398551941,2.8510398864746094,5.876909255981445
1700936719208222000,21.151221923828125,1.487135410308838,1.86393404006958,5.867672920227051
1700936719225213200,21.168213134765626,2.594918727874756,1.1800055503845215,6.163175582885742
1700936719242212400,21.18521240234375,3.443331480026245,0.8322048187255859,6.677763938903809
1700936719259203300,21.202203369140626,3.926934242248535,0.20731163024902344,7.646603107452393
1700936719276197600,21.21919775390625,3.4245476722717285,-0.8356552124023438,8.866740226745605
1700936719293191200,21.236191162109375,2.185920238494873,-2.342860221862793,9.713502883911133
1700936719310185200,21.253185302734376,1.6625592708587646,-3.5961055755615234,9.696252822875977
1700936719327179300,21.27017919921875,1.6772404909133911,-3.5189294815063477,9.154674530029297
1700936719344173300,21.28717333984375,1.9098358154296875,-2.0005664825439453,8.045924186706543
1700936719361166800,21.304166748046875,1.5526570081710815,-0.697321891784668,7.178720951080322
1700936719378158000,21.321157958984376,0.7510256171226501,-0.42266178131103516,6.608520030975342
1700936719395157200,21.3381572265625,-0.4448383152484894,-0.9661679267883301,5.819611072540283
1700936719412148500,21.3551484375,-1.3146007061004639,-1.537431240081787,4.308627128601074
1700936719429142800,21.372142822265626,-1.5599339008331299,-2.4380688667297363,2.479006290435791
1700936719446136600,21.389136474609376,-0.8905171155929565,-2.8221988677978516,0.5938177108764648
1700936719463120100,21.4061201171875,-0.05611014366149902,-2.906796455383301,-1.0819287300109863
1700936719480124400,21.42312451171875,0.6041133403778076,-2.278273105621338,-2.6219587326049805
1700936719497118200,21.4401181640625,0.4396301209926605,-1.6453194618225098,-3.590597152709961
1700936719514112300,21.4571123046875,0.3643232583999634,-1.0434088706970215,-4.718092441558838
1700936719531101200,21.47410107421875,0.4199801981449127,-0.563300609588623,-5.4412336349487305
1700936719548100600,21.4911005859375,0.5051748752593994,-0.18104028701782227,-5.635701656341553
1700936719565094000,21.508093994140626,0.5880634188652039,-0.10899925231933594,-5.412544250488281
1700936719582088000,21.525087890625,0.8411200046539307,-0.13007593154907227,-5.394953727722168
1700936719599081500,21.54208154296875,1.1508002281188965,-0.2493891716003418,-5.612792491912842
1700936719616086000,21.5590859375,1.4969699382781982,-0.3404688835144043,-5.750568389892578
1700936719633069300,21.5760693359375,1.7827805280685425,-0.551152229309082,-5.457365036010742
1700936719650063400,21.5930634765625,2.146390438079834,-0.9601616859436035,-5.172392845153809
1700936719667057400,21.610057373046875,2.509578227996826,-1.5663654804229736,-4.826478481292725
1700936719684051200,21.62705126953125,2.7660298347473145,-2.456538438796997,-4.24425745010376
