time,seconds_elapsed,z,y,x
1701104715311315000,0.14531494140625,-0.30178356170654297,-0.3718905448913574,1.2925236225128174
1701104715328310300,0.162310302734375,-0.8988304138183594,0.1175537109375,0.13556203246116638
1701104715345297700,0.179297607421875,-1.3600835800170898,1.1914238929748535,-1.3105618953704834
1701104715362293500,0.19629345703125,-1.7654657363891602,2.448348045349121,-2.151982307434082
1701104715379286500,0.21328662109375,-1.6119813919067383,2.8975400924682617,-2.5707545280456543
1701104715396276000,0.23027587890625,-2.295591354370117,2.1183881759643555,-2.042335033416748
1701104715413270500,0.2472705078125,-3.673752784729004,1.313488483428955,-1.0594046115875244
1701104715430263300,0.26426318359375,-4.103786468505859,0.366640567779541,-0.23169782757759094
1701104715447256600,0.281256591796875,-3.613741397857666,-0.09991884231567383,0.6620413661003113
1701104715464249000,0.2982490234375,0.4478445053100586,1.7061214447021484,-1.6717368364334106
1701104715481236700,0.31523681640625,1.0628843307495117,1.8409132957458496,-0.9487161636352539
1701104715498232300,0.332232421875,0.027164459228515625,0.9304757118225098,0.016517966985702515
1701104715515217400,0.349217529296875,-0.7707500457763672,0.41610288619995117,0.17613455653190613
1701104715532220700,0.366220703125,-1.3997068405151367,0.29094696044921875,0.10591039061546326
1701104715549200400,0.383200439453125,-1.78255033493042,0.42166900634765625,-0.07450340688228607
1701104715566193700,0.400193603515625,-2.1807918548583984,0.587104320526123,-0.11255118250846863
1701104715583192300,0.4171923828125,-3.1598453521728516,1.0032868385314941,-0.7889033555984497
1701104715600184300,0.434184326171875,-3.400446891784668,0.6878223419189453,-1.1804258823394775
1701104715617173000,0.451173095703125,-2.0459136962890625,0.46160411834716797,-1.2516629695892334
1701104715634168800,0.4681689453125,-1.6506032943725586,0.21088886260986328,-0.5761392712593079
1701104715651154700,0.48515478515625,-2.418163776397705,-0.15747785568237305,-0.15298354625701904
1701104715668148700,0.502148681640625,-2.9892382621765137,-0.3220705986022949,-0.23332536220550537
1701104715685139700,0.5191396484375,-2.643338203430176,-0.20809459686279297,-0.3976116180419922
1701104715702136000,0.536135986328125,-1.6184196472167969,-0.01355123519897461,-0.06034421920776367
1701104715719126000,0.5531259765625,-0.8206453323364258,-0.06673192977905273,0.8094265460968018
1701104715736127700,0.570127685546875,-0.6684064865112305,-0.7209057807922363,1.0764567852020264
1701104715753117400,0.587117431640625,-1.0057272911071777,-0.9300317764282227,0.7633061408996582
1701104715770099700,0.604099609375,-0.9147253036499023,-0.3099794387817383,0.21651697158813477
1701104715787105800,0.621105712890625,-1.041689395904541,0.6801934242248535,0.3018617630004883
1701104715804095000,0.638094970703125,-0.019768714904785156,1.093902587890625,0.387998104095459
1701104715821078800,0.655078857421875,0.7568650245666504,1.0169663429260254,0.27525806427001953
1701104715838081800,0.672081787109375,0.9514579772949219,0.8457527160644531,0.3517622947692871
1701104715855071000,0.689071044921875,0.6216220855712891,1.020772933959961,0.8599457740783691
1701104715872065800,0.706065673828125,0.42462635040283203,1.216583251953125,1.7867870330810547
1701104715889060400,0.723060302734375,0.5341324806213379,1.1082282066345215,1.938018798828125
1701104715906050000,0.740050048828125,1.0268292427062988,0.803234338760376,1.1592121124267578
1701104715923044900,0.757044921875,1.3516898155212402,0.6674587726593018,0.23143529891967773
1701104715940037000,0.774037109375,1.051384449005127,0.7576909065246582,-0.18657541275024414
1701104715957030400,0.791030517578125,0.4400620460510254,1.392944574356079,-0.22780418395996094
1701104715974020000,0.80802001953125,0.10027694702148438,2.1359829902648926,-0.43482542037963867
1701104715991003100,0.825003173828125,-0.33151912689208984,2.644084930419922,-0.7273068428039551
1701104716008006100,0.842006103515625,-0.8354959487915039,2.9651341438293457,-0.4626331329345703
1701104716024999700,0.858999755859375,-1.0347747802734375,3.12042236328125,0.06965446472167969
1701104716041981700,0.875981689453125,-1.0363826751708984,2.7505805492401123,0.09913206100463867
1701104716058979600,0.8929794921875,-0.5288176536560059,2.3288333415985107,-0.23917245864868164
1701104716075977700,0.909977783203125,-0.08423471450805664,1.6935219764709473,-0.8732213973999023
1701104716092970000,0.926969970703125,-0.0259857177734375,0.6315948963165283,-1.7329630851745605
1701104716109967000,0.943967041015625,-0.7468471527099609,-0.6137971878051758,-2.693021297454834
1701104716126956000,0.9609560546875,-1.1914291381835938,-2.420710563659668,-3.6667137145996094
1701104716143944400,0.9779443359375,-1.823578119277954,-3.6090540885925293,-5.452141761779785
1701104716160938500,0.9949384765625,-1.3972885608673096,-4.936934471130371,-7.017739295959473
1701104716177933600,1.01193359375,-1.6458842754364014,-6.598927974700928,-7.306817054748535
1701104716194921000,1.0289208984375,-1.922553539276123,-7.4158782958984375,-6.472349643707275
1701104716211916500,1.04591650390625,-0.856392502784729,-7.874945640563965,-4.2571868896484375
1701104716228902400,1.06290234375,0.7174668908119202,-7.656098365783691,-1.590914249420166
1701104716245898200,1.079898193359375,1.8357510566711426,-6.933481216430664,0.03688526153564453
1701104716262895400,1.096895263671875,2.5991218090057373,-6.341456413269043,0.8091287612915039
1701104716279883500,1.113883544921875,2.7260327339172363,-5.8703460693359375,1.2479448318481445
1701104716296882700,1.130882568359375,2.902873992919922,-4.819514274597168,2.141913414001465
1701104716313863000,1.14786279296875,3.961695909500122,-3.368833065032959,4.340022087097168
1701104716330862800,1.16486279296875,4.522127151489258,-2.281716823577881,7.696166038513184
1701104716347858200,1.181858154296875,3.5572423934936523,-1.387110710144043,10.288987159729004
1701104716364845800,1.198845703125,2.513245105743408,-0.6728835105895996,10.228121757507324
1701104716381841400,1.21584130859375,1.4587316513061523,1.4974496364593506,7.324723243713379
1701104716398834400,1.23283447265625,1.135887622833252,2.1845688819885254,6.602019309997559
1701104716415824000,1.249823974609375,1.4176948070526123,2.9747142791748047,6.9301862716674805
1701104716432813000,1.26681298828125,2.2534711360931396,4.751389980316162,8.151944160461426
1701104716449813800,1.283813720703125,2.318976402282715,6.554656982421875,9.867341995239258
1701104716466793200,1.300793212890625,1.928055763244629,7.28081750869751,11.94369888305664
1701104716483791400,1.317791259765625,1.3890814781188965,8.755444526672363,11.354438781738281
1701104716500790000,1.3347900390625,2.7855358123779297,11.09164810180664,8.856842994689941
1701104716517782500,1.351782470703125,4.60196590423584,11.97128677368164,9.127718925476074
1701104716534770400,1.3687705078125,5.138159275054932,11.542863845825195,11.302774429321289
1701104716551766000,1.38576611328125,7.143688201904297,10.968501091003418,13.29080581665039
1701104716568759800,1.402759765625,9.477121353149414,10.762889862060547,11.960132598876953
1701104716585742300,1.419742431640625,11.044244766235352,10.600255012512207,9.331336975097656
1701104716602745000,1.4367451171875,11.007624626159668,9.193374633789062,7.818016529083252
1701104716619731700,1.453731689453125,10.257991790771484,6.56297492980957,8.242948532104492
1701104716636742000,1.470741943359375,9.4143648147583,3.54073429107666,8.958828926086426
1701104716653724000,1.487723876953125,8.823229789733887,1.3120269775390625,9.114091873168945
1701104716670711800,1.5047119140625,8.039898872375488,-0.5291318893432617,9.334298133850098
1701104716687717600,1.521717529296875,6.782082557678223,-2.1102919578552246,10.044620513916016
1701104716704684800,1.538684814453125,5.749319553375244,-3.626136064529419,10.939661026000977
1701104716721697300,1.555697265625,5.211904048919678,-5.998264312744141,11.840023040771484
1701104716738682000,1.57268212890625,5.007777214050293,-8.52782154083252,12.115649223327637
1701104716755674000,1.589674072265625,4.84335994720459,-10.095414161682129,11.3695650100708
1701104716772665600,1.60666552734375,4.171468257904053,-11.07699966430664,9.7816743850708
1701104716789657600,1.62365771484375,3.0768704414367676,-11.946503639221191,7.002379417419434
1701104716806652000,1.64065185546875,1.334949016571045,-12.897018432617188,2.8823776245117188
1701104716823649000,1.65764892578125,-0.42710188031196594,-13.365571022033691,-1.8824024200439453
1701104716840637400,1.674637451171875,-1.9728808403015137,-13.382413864135742,-6.251462936401367
1701104716857621800,1.691621826171875,-2.881007194519043,-13.498260498046875,-8.852516174316406
1701104716874619400,1.708619384765625,-3.5071723461151123,-14.552651405334473,-10.002249717712402
1701104716891615200,1.725615234375,-4.150958061218262,-16.256027221679688,-10.38328742980957
1701104716908602000,1.74260205078125,-4.320929527282715,-16.993911743164062,-11.292852401733398
1701104716925591300,1.75959130859375,-3.9961795806884766,-16.61573600769043,-11.392335891723633
1701104716942592800,1.7765927734375,-4.276810169219971,-15.527374267578125,-9.534992218017578
1701104716959585300,1.793585205078125,-5.317854881286621,-14.700690269470215,-6.519899845123291
1701104716976575000,1.810574951171875,-6.647186756134033,-14.399621963500977,-3.7007031440734863
1701104716993570800,1.82757080078125,-6.682088375091553,-14.107915878295898,-2.6575164794921875
1701104717010561500,1.8445615234375,-5.223753929138184,-13.62940502166748,-2.001155376434326
1701104717027556600,1.861556640625,-2.6645779609680176,-11.975760459899902,0.04653167724609375
1701104717044537000,1.878537109375,-0.5944634675979614,-10.038938522338867,3.2225570678710938
1701104717061538300,1.895538330078125,1.4960684776306152,-8.11619758605957,6.8740081787109375
1701104717078534700,1.91253466796875,2.4305121898651123,-7.415855407714844,11.47528076171875
1701104717095523800,1.92952392578125,2.5516276359558105,-6.530776023864746,14.03369140625
1701104717112515600,1.946515625,3.01717209815979,-5.221494197845459,14.087081909179688
1701104717129510000,1.963510009765625,3.693942070007324,-2.8716065883636475,13.782706260681152
1701104717146499600,1.98049951171875,4.505355358123779,-0.4600393772125244,15.774869918823242
1701104717163495400,1.997495361328125,5.302255630493164,1.6344389915466309,19.416234970092773
1701104717180486100,2.014486083984375,6.39716911315918,4.155616760253906,21.17243766784668
1701104717197481200,2.031481201171875,7.6743388175964355,8.308004379272461,18.138710021972656
1701104717214468900,2.04846875,9.199379920959473,12.545602798461914,11.975499153137207
1701104717231464400,2.06546435546875,11.122190475463867,15.049850463867188,6.051171779632568
1701104717248457700,2.082457763671875,13.120180130004883,16.404611587524414,1.3119091987609863
1701104717265447200,2.099447265625,14.413763999938965,17.66767120361328,-2.1097946166992188
1701104717282448600,2.11644873046875,14.658829689025879,18.696578979492188,-4.199764728546143
1701104717299434500,2.1334345703125,14.239072799682617,19.5239315032959,-4.763832092285156
1701104717316423400,2.15042333984375,13.200420379638672,19.316579818725586,-3.8086118698120117
1701104717333414000,2.167413818359375,12.098310470581055,18.292997360229492,-2.757747173309326
1701104717350410000,2.184409912109375,11.206914901733398,16.535053253173828,-2.0105085372924805
1701104717367407900,2.201407958984375,11.425040245056152,13.988664627075195,-0.6075148582458496
1701104717384399600,2.218399658203125,12.544309616088867,11.006444931030273,1.92726469039917
1701104717401386800,2.23538671875,12.893852233886719,8.496960639953613,6.358181953430176
1701104717418384100,2.252384033203125,11.819280624389648,6.86956787109375,12.366534233093262
1701104717435372000,2.2693720703125,9.809920310974121,4.646926403045654,19.15326690673828
1701104717452365600,2.286365478515625,7.564207553863525,1.1833078861236572,24.14605712890625
1701104717469360600,2.303360595703125,5.277866840362549,-2.562317371368408,26.048324584960938
1701104717486348300,2.320348388671875,3.966325283050537,-6.817727088928223,25.5533447265625
1701104717503345000,2.337344970703125,3.3455448150634766,-9.659269332885742,23.17514419555664
1701104717520335400,2.35433544921875,2.5863475799560547,-11.216338157653809,20.3642635345459
1701104717537330700,2.37133056640625,1.3364403247833252,-13.309919357299805,17.746475219726562
1701104717554317800,2.38831787109375,-0.16552549600601196,-14.472822189331055,14.365981101989746
1701104717571314000,2.40531396484375,-0.6122985482215881,-13.971917152404785,10.104545593261719
1701104717588297500,2.42229736328125,-1.0516600608825684,-13.537261962890625,5.646418571472168
1701104717605296600,2.439296630859375,-2.2917697429656982,-13.935580253601074,1.1172475814819336
1701104717622290200,2.456290283203125,-3.5462822914123535,-14.587379455566406,-3.7898731231689453
1701104717639285200,2.47328515625,-3.7005133628845215,-14.552444458007812,-7.759071350097656
1701104717656272600,2.490272705078125,-3.664661407470703,-15.25163459777832,-8.792302131652832
1701104717673267000,2.507266845703125,-3.880035400390625,-16.67197036743164,-8.507428169250488
1701104717690262800,2.5242626953125,-3.5630459785461426,-17.92068099975586,-8.712360382080078
1701104717707255000,2.541255126953125,-2.3990390300750732,-17.18682289123535,-9.2732572555542
1701104717724242700,2.55824267578125,-1.2559634447097778,-15.986083984375,-8.564576148986816
1701104717741238800,2.57523876953125,-1.1965407133102417,-15.665221214294434,-5.703924179077148
1701104717758231600,2.5922314453125,-2.1326370239257812,-15.896434783935547,-2.5876235961914062
1701104717775221000,2.609220947265625,-3.2785184383392334,-15.549688339233398,-1.207611083984375
1701104717792214800,2.62621484375,-3.6505093574523926,-14.323800086975098,-1.1851615905761719
1701104717809209900,2.6432099609375,-3.501087188720703,-12.885428428649902,-1.2750473022460938
1701104717826197500,2.660197509765625,-3.105886459350586,-11.534056663513184,-0.21363449096679688
1701104717843191600,2.677191650390625,-2.7639076709747314,-10.006927490234375,2.025515556335449
1701104717860185300,2.694185302734375,-2.4274299144744873,-8.945837020874023,5.447875022888184
1701104717877181700,2.711181640625,-2.407413959503174,-8.440720558166504,8.828461647033691
1701104717894167300,2.728167236328125,-2.105489492416382,-7.019192218780518,10.949566841125488
1701104717911163100,2.7451630859375,-1.3127437829971313,-5.426767349243164,12.733880043029785
1701104717928156400,2.762156494140625,-0.14908117055892944,-3.044167995452881,15.21281623840332
1701104717945139000,2.779138916015625,1.5664763450622559,-0.9973945617675781,18.769941329956055
1701104717962140000,2.796139892578125,2.8162178993225098,0.3209857940673828,21.958274841308594
1701104717979134500,2.813134521484375,3.659924030303955,3.2506351470947266,21.2171630859375
1701104717996122000,2.8301220703125,4.7833476066589355,8.21441650390625,16.80459213256836
1701104718013118700,2.84711865234375,6.887886047363281,12.972749710083008,12.634346008300781
1701104718030109400,2.864109375,8.39016342163086,16.209400177001953,10.267044067382812
1701104718047104800,2.881104736328125,9.046876907348633,18.061363220214844,7.208734512329102
1701104718064092000,2.898091796875,9.216747283935547,19.314029693603516,2.6485257148742676
1701104718081087700,2.915087646484375,10.564674377441406,21.501358032226562,-2.023128032684326
1701104718098080800,2.932080810546875,11.631974220275879,22.426115036010742,-2.9032740592956543
1701104718115070500,2.949070556640625,11.20593547821045,21.925256729125977,-1.2931852340698242
1701104718132064300,2.966064208984375,10.10037612915039,20.92690086364746,0.315549373626709
1701104718149059300,2.983059326171875,8.996835708618164,18.897869110107422,1.0185160636901855
1701104718166046700,3.000046630859375,8.878541946411133,15.77406120300293,1.62298583984375
1701104718183043300,3.017043212890625,9.317066192626953,12.232437133789062,3.4982352256774902
1701104718200020200,3.034020263671875,9.559636116027832,9.168025970458984,8.020777702331543
1701104718217026800,3.05102685546875,8.48781967163086,6.564271450042725,14.108322143554688
1701104718234019000,3.06801904296875,6.922700881958008,3.365119695663452,20.852794647216797
1701104718251012400,3.085012451171875,4.796016693115234,-1.1277742385864258,24.328468322753906
1701104718268005600,3.102005615234375,3.942138195037842,-6.1433939933776855,23.935489654541016
1701104718284999700,3.118999755859375,3.7175450325012207,-9.596477508544922,21.547805786132812
1701104718301978600,3.135978515625,3.2403359413146973,-11.787699699401855,18.553447723388672
1701104718318979600,3.1529794921875,2.2349753379821777,-13.256217002868652,15.408004760742188
1701104718335974700,3.169974609375,0.9292121529579163,-13.670072555541992,12.285782814025879
1701104718352968400,3.186968505859375,-0.6103216409683228,-13.678504943847656,8.696977615356445
1701104718369947000,3.20394677734375,-2.309246063232422,-14.017890930175781,4.15242862701416
1701104718386951700,3.22095166015625,-3.921250820159912,-14.3953218460083,-0.9869518280029297
1701104718403935500,3.237935546875,-5.131350517272949,-14.811530113220215,-6.1994853019714355
1701104718420930000,3.254929931640625,-5.926347732543945,-15.400651931762695,-10.387146949768066
1701104718437928700,3.2719287109375,-5.5884857177734375,-15.798456192016602,-12.511673927307129
1701104718454923800,3.288923828125,-3.958125114440918,-15.816036224365234,-12.305411338806152
1701104718471914500,3.30591455078125,-2.348353862762451,-14.850659370422363,-10.774053573608398
1701104718488908000,3.322907958984375,-1.102774977684021,-12.785902976989746,-8.356240272521973
1701104718505899500,3.3398994140625,-0.9999356269836426,-11.229899406433105,-4.9098711013793945
1701104718522903600,3.356903564453125,-1.893905520439148,-10.574769020080566,-0.9973201751708984
1701104718539881700,3.3738818359375,-2.9880990982055664,-10.611984252929688,2.2334537506103516
1701104718556880100,3.390880126953125,-3.370283603668213,-10.141701698303223,2.4294261932373047
1701104718573869300,3.407869384765625,-2.105621576309204,-8.979665756225586,0.5963201522827148
1701104718590862600,3.424862548828125,-0.9776105284690857,-7.723275184631348,-0.5573158264160156
1701104718607857000,3.44185693359375,0.09302037954330444,-6.438335418701172,-0.5514297485351562
1701104718624845000,3.458844970703125,1.0425941944122314,-5.310123920440674,0.0859832763671875
1701104718641822000,3.475822021484375,1.5011823177337646,-4.831710338592529,1.379399299621582
1701104718658829800,3.492829833984375,1.5790400505065918,-4.349350929260254,2.558551788330078
1701104718675826700,3.50982666015625,1.9073081016540527,-3.393883228302002,3.2468929290771484
1701104718692829700,3.52682958984375,2.4665000438690186,-2.0934183597564697,3.4374914169311523
1701104718709798000,3.5437978515625,3.009002208709717,-0.3587646484375,2.961153030395508
1701104718726792700,3.560792724609375,3.6940371990203857,1.251953363418579,2.7505664825439453
1701104718743796500,3.57779638671875,4.005535125732422,2.3406031131744385,3.568539619445801
1701104718760787200,3.594787109375,3.6943492889404297,3.1754040718078613,5.074498176574707
1701104718777778700,3.61177880859375,3.4317164421081543,4.04654598236084,5.837674617767334
1701104718794772500,3.6287724609375,3.201630115509033,5.086675643920898,5.761873245239258
1701104718811770400,3.645770263671875,3.33070969581604,6.018293380737305,5.851324558258057
1701104718828757200,3.66275732421875,3.5436244010925293,6.599405288696289,6.644031524658203
1701104718845738500,3.679738525390625,3.9224069118499756,7.079685211181641,8.212722778320312
1701104718862751700,3.696751708984375,4.580857276916504,7.772775173187256,9.486502647399902
1701104718879731000,3.71373095703125,5.610922813415527,8.40260124206543,10.018884658813477
1701104718896729600,3.7307294921875,6.6999430656433105,8.646032333374023,9.943078994750977
1701104718913717500,3.747717529296875,7.219570159912109,7.887866497039795,9.858688354492188
1701104718930712000,3.764712158203125,7.184869766235352,6.718994140625,9.740710258483887
1701104718947692800,3.78169287109375,7.175039291381836,6.105779647827148,9.55759048461914
1701104718964699400,3.798699462890625,7.444591522216797,6.061038970947266,9.226970672607422
1701104718981689600,3.815689697265625,7.534317970275879,6.155482769012451,8.959147453308105
1701104718998664700,3.832664794921875,7.095616340637207,5.966542720794678,9.064521789550781
1701104719015662800,3.849662841796875,6.159271717071533,5.506681442260742,8.573728561401367
1701104719032669200,3.866669189453125,5.511251926422119,4.9686598777771,7.5771403312683105
1701104719049647600,3.883647705078125,5.18912410736084,4.255767822265625,6.608168601989746
1701104719066643500,3.9006435546875,4.809977054595947,3.253798246383667,6.109919548034668
1701104719083635200,3.91763525390625,4.1481781005859375,2.1656761169433594,5.9778032302856445
1701104719100633600,3.934633544921875,3.5284664630889893,1.1819682121276855,5.792001724243164
1701104719117622000,3.9516220703125,2.690936803817749,-0.02642345428466797,5.354607582092285
1701104719134618400,3.968618408203125,1.9899101257324219,-1.2955565452575684,4.771303176879883
1701104719151608800,3.98560888671875,1.4261720180511475,-2.0431714057922363,3.92630672454834
1701104719168597800,4.00259765625,1.1025335788726807,-2.3541064262390137,3.0869264602661133
1701104719185587200,4.019587158203125,0.6908535361289978,-3.048522472381592,2.4823741912841797
1701104719202582800,4.036582763671875,0.1567363739013672,-4.152288913726807,1.9678277969360352
1701104719219580700,4.05358056640625,-0.32736584544181824,-5.12197732925415,1.3903274536132812
1701104719236571400,4.0705712890625,-0.6210341453552246,-6.112516403198242,1.1049127578735352
1701104719253566200,4.087566162109375,-0.7917287349700928,-7.324098587036133,1.4135122299194336
1701104719270557700,4.1045576171875,-0.764602780342102,-8.279306411743164,1.7009382247924805
1701104719287542300,4.121542236328125,-0.5456005930900574,-8.887138366699219,2.1476831436157227
1701104719304533800,4.13853369140625,-0.48966777324676514,-9.756272315979004,2.972881317138672
1701104719321534000,4.155533935546875,-0.5820635557174683,-10.853428840637207,4.027726173400879
1701104719338522000,4.172522216796875,-0.8028945922851562,-11.786317825317383,4.68949031829834
1701104719355513300,4.189513427734375,-0.9876187443733215,-12.156855583190918,3.8365182876586914
1701104719372507600,4.206507568359375,-1.0480377674102783,-11.641962051391602,1.6275968551635742
1701104719389509400,4.22350927734375,-1.1463069915771484,-11.151727676391602,-0.8844528198242188
1701104719406500900,4.2405009765625,-1.4070582389831543,-11.599016189575195,-1.85609769821167
1701104719423492400,4.257492431640625,-1.864495038986206,-11.831219673156738,-2.0492935180664062
1701104719440486100,4.274486083984375,-1.7715134620666504,-11.940853118896484,-1.0738239288330078
1701104719457477600,4.2914775390625,-1.5755281448364258,-11.846006393432617,0.425048828125
1701104719474471000,4.308470947265625,-1.1839487552642822,-10.894159317016602,1.489400863647461
1701104719491459800,4.3254599609375,-0.7688539028167725,-9.36078929901123,2.0146923065185547
1701104719508458500,4.34245849609375,-0.7655627131462097,-7.983057975769043,2.333770751953125
1701104719525447400,4.359447509765625,-1.0340631008148193,-6.91129732131958,2.459376335144043
1701104719542430500,4.376430419921875,-1.2921199798583984,-6.1336669921875,2.1389102935791016
1701104719559432200,4.39343212890625,-1.4036178588867188,-5.457595348358154,1.3123159408569336
1701104719576425700,4.41042578125,-1.2156034708023071,-4.752196788787842,0.2587251663208008
1701104719593417200,4.427417236328125,-0.9988633394241333,-3.8771891593933105,-0.8084421157836914
1701104719610410500,4.444410400390625,-0.9137998223304749,-2.95100736618042,-1.3510112762451172
1701104719627399000,4.46139892578125,-0.7240316271781921,-2.4201269149780273,-0.7823219299316406
1701104719644399400,4.4783994140625,-0.42805224657058716,-2.0817980766296387,0.594294548034668
1701104719661389300,4.495389404296875,0.04543423652648926,-1.4774084091186523,2.4424028396606445
1701104719678378200,4.512378173828125,0.652610719203949,-0.6712565422058105,4.382143974304199
1701104719695361500,4.529361572265625,1.3733264207839966,0.10826635360717773,6.654489517211914
1701104719712364800,4.54636474609375,2.443808078765869,0.6805028915405273,9.136831283569336
1701104719729359400,4.563359375,3.2244277000427246,1.4905548095703125,11.294565200805664
1701104719746350300,4.580350341796875,3.993650197982788,3.249553680419922,12.491235733032227
1701104719763341800,4.597341796875,4.871848106384277,5.369640350341797,12.834450721740723
1701104719780324600,4.61432470703125,6.176164627075195,7.277728080749512,12.604434967041016
1701104719797326600,4.63132666015625,7.860113143920898,8.61667537689209,12.155108451843262
1701104719814321700,4.64832177734375,9.25649642944336,9.20391845703125,11.72891616821289
1701104719831310000,4.66531005859375,9.554052352905273,9.410249710083008,10.325784683227539
1701104719848294400,4.68229443359375,9.024476051330566,9.259195327758789,8.38624095916748
1701104719865296600,4.699296630859375,8.425946235656738,9.323862075805664,6.581111431121826
1701104719882290000,4.7162900390625,8.059432983398438,9.618697166442871,5.713259220123291
1701104719899281400,4.733281494140625,7.820710182189941,9.252931594848633,6.806200981140137
1701104719916275000,4.75027490234375,7.668490409851074,8.889559745788574,8.4918794631958
1701104719933266400,4.767266357421875,8.231934547424316,8.56766128540039,9.836760520935059
1701104719950259700,4.784259765625,8.46001148223877,7.884721755981445,10.457901000976562
1701104719967251500,4.80125146484375,8.236257553100586,6.820562839508057,10.375664710998535
1701104719984242200,4.8182421875,7.346412181854248,4.9260759353637695,10.238396644592285
1701104720001239300,4.8352392578125,6.2571210861206055,2.9744179248809814,9.927314758300781
1701104720018229800,4.852229736328125,5.490302562713623,1.2428264617919922,10.081050872802734
1701104720035221200,4.86922119140625,4.656164646148682,-0.4086570739746094,10.866202354431152
1701104720052201000,4.886200927734375,3.3460025787353516,-2.2335424423217773,11.714426040649414
1701104720069206300,4.903206298828125,2.069723129272461,-3.858968734741211,11.093029975891113
1701104720086189800,4.92018994140625,1.3515489101409912,-5.064790725708008,8.972347259521484
1701104720103190300,4.937190185546875,1.041753888130188,-5.644364356994629,6.423708915710449
1701104720120181800,4.954181640625,1.2174431085586548,-5.372751235961914,3.8858327865600586
1701104720137178600,4.9711787109375,1.4756027460098267,-5.133095741271973,2.059051513671875
1701104720154169600,4.988169677734375,1.2221516370773315,-5.721377372741699,0.7767400741577148
1701104720171160800,5.005160888671875,0.8053857088088989,-6.183725833892822,-0.32144737243652344
1701104720188154600,5.022154541015625,0.6540952920913696,-6.43613338470459,-0.8725185394287109
1701104720205145900,5.039145751953125,0.5618394613265991,-6.575883865356445,-1.2605924606323242
1701104720222136600,5.056136474609375,0.5060001611709595,-6.92691707611084,-1.1964454650878906
1701104720239133200,5.07313330078125,0.1571124792098999,-7.623981952667236,-0.9156398773193359
1701104720256121600,5.09012158203125,-0.5394783020019531,-8.317508697509766,-0.7344388961791992
1701104720273118500,5.107118408203125,-1.2056645154953003,-8.93111801147461,-0.7784223556518555
1701104720290109200,5.124109130859375,-1.4200553894042969,-9.7864990234375,-0.25675392150878906
1701104720307100700,5.1411005859375,-1.6806871891021729,-10.753439903259277,0.6854133605957031
1701104720324094000,5.158093994140625,-2.0090126991271973,-11.031169891357422,1.1069841384887695
1701104720341085400,5.17508544921875,-1.489003300666809,-10.50738525390625,0.7963905334472656
1701104720358079000,5.192078857421875,-0.9963992238044739,-10.059525489807129,0.3054533004760742
1701104720375061000,5.20906103515625,-0.8947616815567017,-9.752763748168945,-0.0042743682861328125
1701104720392048400,5.22604833984375,-0.9583482146263123,-9.555906295776367,-0.0929708480834961
1701104720409055500,5.243055419921875,-1.0347453355789185,-9.709749221801758,0.07340717315673828
1701104720426049000,5.260049072265625,-0.9639745950698853,-9.897451400756836,0.12755298614501953
1701104720443040300,5.277040283203125,-0.8249552845954895,-9.884197235107422,0.27924442291259766
1701104720460033800,5.29403369140625,-0.8305930495262146,-9.687976837158203,0.6748733520507812
1701104720477008600,5.311008544921875,-0.8813281059265137,-9.080546379089355,1.092362403869629
1701104720494019000,5.32801904296875,-0.9548124670982361,-8.167313575744629,1.3001070022583008
1701104720511010000,5.345010009765625,-1.0611437559127808,-7.132264614105225,1.5238561630249023
1701104720528001300,5.362001220703125,-1.4839839935302734,-6.3819580078125,2.025998115539551
1701104720544997600,5.37899755859375,-1.9383883476257324,-5.857272148132324,2.652705192565918
1701104720561988600,5.395988525390625,-2.2041537761688232,-5.294818878173828,3.165769577026367
1701104720578979800,5.412979736328125,-2.3114755153656006,-4.805448055267334,3.384366989135742
1701104720595973400,5.429973388671875,-2.050122022628784,-4.239448070526123,3.3363866806030273
1701104720612962000,5.446962158203125,-1.4388710260391235,-3.543562173843384,3.408985137939453
1701104720629958400,5.46395849609375,-0.7367151975631714,-2.956982135772705,3.867424964904785
1701104720646951200,5.480951171875,-0.10702002048492432,-2.2968530654907227,4.620682716369629
1701104720663943200,5.497943115234375,0.7032755613327026,-1.3774571418762207,5.590051651000977
1701104720680932400,5.514932373046875,1.092992901802063,-0.306429386138916,6.531245231628418
1701104720697930800,5.5319306640625,1.2787487506866455,1.1625049114227295,7.24759578704834
1701104720714919700,5.548919677734375,1.6748720407485962,2.5757951736450195,7.468911647796631
1701104720731913200,5.565913330078125,2.6939291954040527,3.2350707054138184,7.540863037109375
1701104720748904700,5.58290478515625,3.5704307556152344,4.28154182434082,7.667244911193848
1701104720765898200,5.599898193359375,4.559596538543701,5.538694381713867,7.971691131591797
1701104720782889000,5.616888916015625,5.294632911682129,6.328915119171143,8.094603538513184
1701104720799879200,5.633879150390625,5.875086784362793,6.613368034362793,8.269241333007812
1701104720816879000,5.650879150390625,6.297321319580078,6.471729278564453,8.325333595275879
1701104720833867800,5.66786767578125,6.690183639526367,6.016315460205078,8.055018424987793
1701104720850859300,5.684859375,6.904554843902588,5.700908660888672,7.382448196411133
1701104720867852800,5.701852783203125,6.960887908935547,5.7217631340026855,6.525026321411133
1701104720884844300,5.71884423828125,7.115550518035889,6.013916015625,5.748680114746094
1701104720901835000,5.7358349609375,7.148458957672119,6.739305019378662,5.094791412353516
1701104720918831600,5.75283154296875,7.329061985015869,7.580883026123047,4.917240142822266
1701104720935822600,5.769822509765625,7.395190715789795,8.072996139526367,5.148008346557617
1701104720952814300,5.786814453125,7.315365791320801,8.068716049194336,5.61373233795166
1701104720969808000,5.803807861328125,7.322080135345459,7.517721652984619,6.673408031463623
1701104720986799000,5.820799072265625,7.458562850952148,6.714689254760742,8.21379280090332
1701104721003792600,5.837792724609375,7.960184097290039,6.065661907196045,9.923669815063477
1701104721020783900,5.854783935546875,8.460969924926758,5.461185932159424,11.728900909423828
1701104721037777400,5.87177734375,8.018560409545898,4.909956932067871,12.526312828063965
1701104721054769000,5.888768798828125,6.989589691162109,4.092376708984375,11.729113578796387
1701104721071762400,5.905762451171875,5.790563583374023,3.0078983306884766,10.326133728027344
1701104721088754000,5.92275390625,4.8352203369140625,1.8127985000610352,9.179120063781738
1701104721105736700,5.93973681640625,4.3410491943359375,0.42636680603027344,8.908381462097168
1701104721122738700,5.95673876953125,4.342626571655273,-1.3065590858459473,9.505474090576172
1701104721139732200,5.973732177734375,3.8168230056762695,-3.5104312896728516,10.120217323303223
1701104721156723700,5.9907236328125,2.4829211235046387,-5.707747936248779,9.661040306091309
1701104721173717000,6.007717041015625,1.0460233688354492,-7.045351982116699,7.48819637298584
1701104721190708500,6.02470849609375,-0.030520081520080566,-7.162342071533203,4.253416061401367
1701104721207702300,6.041702392578125,-1.011104941368103,-5.781342029571533,1.4584245681762695
1701104721224693800,6.05869384765625,-1.364046573638916,-4.826013088226318,0.02504444122314453
1701104721241685800,6.075685791015625,-1.6396236419677734,-5.212924480438232,-0.28198909759521484
1701104721258681000,6.09268115234375,-1.7671083211898804,-5.703611373901367,-0.6778888702392578
1701104721275670500,6.10967041015625,-1.6575287580490112,-6.281590938568115,-1.4706497192382812
1701104721292663300,6.126663330078125,-1.3688180446624756,-6.748374938964844,-1.9814586639404297
1701104721309657000,6.143656982421875,-0.8413300514221191,-7.124412536621094,-1.952652931213379
1701104721326645800,6.160645751953125,-0.4686545133590698,-7.561142444610596,-1.3927884101867676
1701104721343644400,6.17764453125,-0.3879525661468506,-8.348775863647461,-0.7124309539794922
1701104721360633000,6.194633056640625,-0.37573957443237305,-9.238513946533203,0.1406116485595703
1701104721377626600,6.211626708984375,-0.6152658462524414,-10.203455924987793,1.3025007247924805
1701104721394618000,6.2286181640625,-1.0652118921279907,-10.802030563354492,1.963144302368164
1701104721411611600,6.245611572265625,-1.145782470703125,-10.678348541259766,1.3423881530761719
1701104721428603400,6.262603271484375,-0.8681508302688599,-10.017635345458984,-0.1240682601928711
1701104721445592000,6.279592041015625,-0.8370801210403442,-9.231287956237793,-1.6379327774047852
1701104721462590500,6.296590576171875,-1.0192450284957886,-8.616775512695312,-2.4673404693603516
1701104721479581700,6.313581787109375,-1.279456377029419,-8.554205894470215,-2.3244314193725586
1701104721496573200,6.3305732421875,-1.4999696016311646,-8.87358570098877,-1.408205509185791
1701104721513566200,6.347566162109375,-1.690768837928772,-9.086116790771484,-0.46010494232177734
1701104721530557400,6.364557373046875,-1.9082403182983398,-8.789855003356934,-0.2996053695678711
1701104721547551700,6.3815517578125,-1.9024430513381958,-8.386323928833008,-0.22736835479736328
1701104721564532200,6.3985322265625,-1.9246830940246582,-8.044869422912598,0.24161624908447266
1701104721581523500,6.4155234375,-1.7645502090454102,-7.5662031173706055,1.1497888565063477
1701104721598520800,6.432520751953125,-1.430393099784851,-6.833233833312988,2.0579023361206055
1701104721615511300,6.44951123046875,-0.9899248480796814,-5.978248596191406,2.9155712127685547
1701104721632512500,6.466512451171875,-0.6990361213684082,-5.081982135772705,3.620370864868164
1701104721649506000,6.483506103515625,-0.5711163282394409,-4.323962211608887,4.065174102783203
1701104721666497500,6.50049755859375,-0.43859240412712097,-4.024106025695801,4.472289085388184
1701104721683488300,6.51748828125,0.24744747579097748,-3.7510528564453125,4.782473564147949
1701104721700482300,6.534482421875,1.412025809288025,-3.2001237869262695,5.24763298034668
1701104721717478400,6.551478515625,2.526904582977295,-2.5998470783233643,6.616426467895508
1701104721734467300,6.56846728515625,3.099348545074463,-1.9073805809020996,8.576831817626953
1701104721751460900,6.5854609375,3.1909897327423096,-0.6969542503356934,10.13490104675293
1701104721768452000,6.6024521484375,3.6671741008758545,1.2861676216125488,10.06694221496582
1701104721785457200,6.61945703125,4.242138862609863,3.93709397315979,8.575721740722656
1701104721802437000,6.63643701171875,4.737069129943848,6.4742112159729,6.58995246887207
1701104721819430700,6.6534306640625,5.084562301635742,7.716835021972656,4.794315338134766
1701104721836422100,6.670422119140625,5.170611381530762,7.892351150512695,4.1288323402404785
1701104721853415400,6.68741552734375,5.292550086975098,7.7085676193237305,4.573980331420898
1701104721870407000,6.704406982421875,4.689866542816162,7.498875141143799,4.67303991317749
1701104721887399700,6.721399658203125,4.115212440490723,7.295091152191162,4.26643705368042
1701104721904404200,6.738404296875,3.8500914573669434,7.189756393432617,3.8150577545166016
1701104721921379300,6.75537939453125,3.6673197746276855,6.86885404586792,3.5635738372802734
1701104721938379500,6.772379638671875,3.602226734161377,6.38409423828125,3.932771682739258
1701104721955370200,6.789370361328125,3.7741270065307617,6.280161380767822,4.837922096252441
1701104721972362000,6.806362060546875,3.997997283935547,6.569939136505127,6.010609149932861
1701104721989346800,6.823346923828125,4.30519962310791,7.029452323913574,6.929892539978027
1701104722006346800,6.8403466796875,5.131546974182129,7.515997409820557,7.368958473205566
1701104722023340000,6.857340087890625,6.306216239929199,8.029291152954102,7.688075542449951
1701104722040332000,6.87433203125,7.064449310302734,8.306612014770508,8.08529281616211
1701104722057324500,6.891324462890625,6.920510768890381,7.675097942352295,8.706533432006836
1701104722074316500,6.908316650390625,6.422738075256348,6.216487884521484,9.919290542602539
1701104722091310000,6.92531005859375,5.586178779602051,4.625988960266113,11.130624771118164
1701104722108301600,6.942301513671875,4.406834602355957,3.7646124362945557,11.43118667602539
1701104722125295000,6.959295166015625,3.683220624923706,3.3932366371154785,10.695277214050293
1701104722142286300,6.976286376953125,3.158376932144165,2.9806647300720215,9.72207260131836
1701104722159279600,6.993279541015625,2.3921799659729004,2.388298511505127,8.842933654785156
1701104722176271000,7.01027099609375,1.8214082717895508,1.4806618690490723,8.400291442871094
1701104722193252000,7.027252197265625,1.9302334785461426,0.2479267120361328,8.430810928344727
1701104722210248000,7.044248046875,2.2125136852264404,-0.7898192405700684,8.88257122039795
1701104722227242000,7.061241943359375,2.208895683288574,-2.007215976715088,9.355149269104004
1701104722244241200,7.0782412109375,1.9020473957061768,-3.141796112060547,8.734237670898438
1701104722261234400,7.095234375,1.5121766328811646,-3.6162493228912354,6.911715507507324
1701104722278226000,7.112225830078125,1.391842246055603,-3.9904727935791016,4.3404035568237305
1701104722295208700,7.129208740234375,1.144765853881836,-4.296483039855957,1.7920446395874023
1701104722312211200,7.146211181640625,1.4410048723220825,-4.221920013427734,-0.33238887786865234
1701104722329204500,7.16320458984375,1.6783307790756226,-4.288891792297363,-1.7502202987670898
1701104722346196000,7.180196044921875,1.5396479368209839,-4.900722026824951,-2.3117237091064453
1701104722363189200,7.197189208984375,1.2098904848098755,-5.838587284088135,-2.0328807830810547
1701104722380179200,7.21417919921875,0.7867006063461304,-6.941919803619385,-1.3135643005371094
1701104722397175800,7.23117578125,0.5093744993209839,-8.002379417419434,-0.6395759582519531
1701104722414165500,7.24816552734375,0.3317279815673828,-8.712793350219727,-0.11028671264648438
1701104722431159000,7.265158935546875,0.13603651523590088,-9.183963775634766,0.04570770263671875
1701104722448150800,7.28215087890625,0.0024871826171875,-9.649070739746094,0.28422069549560547
1701104722465144000,7.29914404296875,-0.14329564571380615,-10.243185043334961,0.6961069107055664
1701104722482135600,7.316135498046875,-0.3541136384010315,-10.645040512084961,0.7791042327880859
1701104722499126300,7.333126220703125,-0.4722120761871338,-10.547304153442383,0.2385845184326172
1701104722516111000,7.350111083984375,-0.398464560508728,-9.930675506591797,-1.026099681854248
1701104722533128200,7.367128173828125,-0.2687923312187195,-9.098430633544922,-2.213193893432617
1701104722550093800,7.38409375,-0.3721507787704468,-8.609363555908203,-2.7930140495300293
1701104722567091200,7.40109130859375,-0.6187314987182617,-8.60842227935791,-2.666741371154785
1701104722584080600,7.41808056640625,-0.6298789381980896,-8.683320999145508,-2.1897926330566406
1701104722601078300,7.435078369140625,-0.4172059893608093,-8.784786224365234,-1.4516429901123047
1701104722618067200,7.452067138671875,-0.30244171619415283,-9.045907974243164,-0.4157295227050781
1701104722635059500,7.4690595703125,-0.5725191235542297,-9.307308197021484,0.514744758605957
1701104722652052700,7.486052734375,-1.1195279359817505,-9.244144439697266,0.9151287078857422
1701104722669044200,7.503044189453125,-1.5530221462249756,-8.752833366394043,0.8728561401367188
1701104722686035500,7.520035400390625,-1.5795321464538574,-7.958966255187988,0.9454221725463867
1701104722703030500,7.537030517578125,-1.4023778438568115,-7.220437049865723,1.5402021408081055
1701104722720022300,7.554022216796875,-0.9322987198829651,-6.546415328979492,2.4544734954833984
1701104722737016300,7.571016357421875,-0.26758795976638794,-5.770854949951172,3.3264713287353516
1701104722754007800,7.5880078125,0.09711849689483643,-5.105703830718994,4.255096435546875
1701104722771000300,7.605000244140625,0.2232356071472168,-4.227732181549072,4.933934211730957
1701104722787990500,7.621990478515625,0.5194804668426514,-3.3059275150299072,5.3938751220703125
1701104722804976400,7.638976318359375,0.8546892404556274,-2.2580318450927734,5.759125709533691
1701104722821987600,7.655987548828125,1.2591822147369385,-0.9880011081695557,6.231052398681641
1701104722838978000,7.67297802734375,1.5756324529647827,0.16838574409484863,6.685944557189941
1701104722855969500,7.689969482421875,1.7366931438446045,1.2369129657745361,7.114289283752441
1701104722872962800,7.706962890625,1.910888910293579,2.555746555328369,7.506060600280762
1701104722889954600,7.72395458984375,2.399275541305542,4.27874231338501,7.306148052215576
1701104722906947800,7.74094775390625,3.2447547912597656,6.23988151550293,7.311983108520508
1701104722923939300,7.757939208984375,3.5340843200683594,7.95164680480957,7.625736236572266
1701104722940932900,7.774932861328125,3.240760326385498,8.891218185424805,7.853629112243652
1701104722957924400,7.79192431640625,2.529296636581421,9.027384757995605,7.6116743087768555
1701104722974917600,7.808917724609375,1.8093223571777344,8.391711235046387,6.788483142852783
1701104722991902700,7.82590283203125,1.4330639839172363,7.463223934173584,6.091083526611328
1701104723008902400,7.84290234375,1.8887180089950562,6.586205959320068,5.667546272277832
1701104723025894400,7.859894287109375,2.813793659210205,6.132486343383789,5.363265037536621
1701104723042885400,7.876885498046875,3.9463706016540527,6.024603366851807,5.594968795776367
1701104723059880000,7.8938798828125,4.928837776184082,5.955996990203857,6.623722553253174
1701104723076873500,7.91087353515625,5.556548118591309,5.951218605041504,7.841869354248047
1701104723093863700,7.92786376953125,5.813225269317627,6.185910224914551,8.497468948364258
1701104723110857200,7.944857177734375,6.04103946685791,6.645365238189697,8.024003982543945
1701104723127848700,7.9618486328125,5.936088562011719,7.004632472991943,6.812036514282227
1701104723144842200,7.97884228515625,5.436618804931641,6.967848777770996,5.537990570068359
1701104723161828000,7.995828125,4.8635053634643555,6.613432884216309,4.86731481552124
1701104723178827000,8.012826904296874,4.372898578643799,6.216731071472168,4.926689624786377
1701104723195818500,8.029818603515626,4.080709934234619,5.286055564880371,5.936031818389893
1701104723212812000,8.04681201171875,3.5516726970672607,4.146207809448242,6.657759189605713
1701104723229806800,8.063806884765626,3.24208664894104,3.199657917022705,6.621588230133057
1701104723246793700,8.080793701171874,3.0485000610351562,2.1869444847106934,6.304198265075684
1701104723263788300,8.097788330078124,2.819484233856201,0.8018956184387207,5.797761917114258
1701104723280781800,8.11478173828125,2.7886109352111816,-0.27130746841430664,4.969908714294434
1701104723297770000,8.13177001953125,3.0066421031951904,-0.9557404518127441,3.9128336906433105
1701104723314766800,8.148766845703125,3.3676886558532715,-1.467379093170166,3.088131904602051
1701104723331758000,8.165758056640625,3.8779046535491943,-1.6702351570129395,2.454159736633301
1701104723348752000,8.182751953125,4.431460857391357,-1.7251172065734863,2.2061548233032227
1701104723365732400,8.199732421875,4.734941005706787,-1.8729090690612793,2.058887481689453
1701104723382736600,8.216736572265624,4.789815902709961,-1.8426222801208496,1.867793083190918
1701104723399727900,8.233727783203125,4.549100875854492,-2.0000600814819336,1.7793645858764648
1701104723416721400,8.250721435546875,4.18231201171875,-2.1724753379821777,1.5080432891845703
1701104723433713000,8.267712890625,3.6385016441345215,-2.0239288806915283,0.9332008361816406
1701104723450706400,8.28470654296875,2.9365522861480713,-1.9736008644104004,0.3118267059326172
1701104723467688700,8.301688720703124,2.2684929370880127,-2.1642065048217773,-0.44463253021240234
1701104723484691200,8.318691162109374,1.6052581071853638,-2.306535243988037,-1.4991960525512695
1701104723501682700,8.3356826171875,1.0328214168548584,-2.2753660678863525,-2.639460563659668
1701104723518676200,8.35267626953125,0.5773581862449646,-2.233234405517578,-3.57157564163208
1701104723535667700,8.369667724609375,0.2269655466079712,-2.323305606842041,-4.313024520874023
1701104723552661200,8.3866611328125,-0.011380195617675781,-2.644566297531128,-4.600645065307617
1701104723569652700,8.40365283203125,-0.15382099151611328,-3.1454849243164062,-4.579687595367432
1701104723586646000,8.42064599609375,-0.23978698253631592,-3.686673164367676,-4.388216972351074
1701104723603637500,8.437637451171875,-0.12870991230010986,-4.082403659820557,-4.3747100830078125
1701104723620630800,8.454630859375,0.3607443571090698,-3.925736904144287,-4.556209564208984
1701104723637622300,8.471622314453125,0.9073984622955322,-3.6398701667785645,-4.509580135345459
1701104723654615800,8.48861572265625,1.0334177017211914,-3.53515362739563,-3.9900999069213867
1701104723671607300,8.505607177734374,0.6929782629013062,-3.4958033561706543,-3.1813316345214844
1701104723688596000,8.522595947265625,0.23635220527648926,-3.510244131088257,-2.407374382019043
1701104723705595000,8.539594970703124,-0.17106997966766357,-3.431546211242676,-1.8699464797973633
1701104723722583000,8.5565830078125,-0.29408371448516846,-3.2366912364959717,-1.234724998474121
1701104723739579600,8.57357958984375,-0.27063846588134766,-3.011044502258301,-0.64801025390625
1701104723756570400,8.5905703125,-0.29021143913269043,-2.9429500102996826,0.01671314239501953
1701104723773561900,8.607561767578124,-0.2516881227493286,-3.086021661758423,0.7885265350341797
1701104723790555400,8.624555419921874,-0.13705593347549438,-3.2870945930480957,1.4724111557006836
1701104723807547100,8.641547119140625,0.2006920576095581,-3.2901198863983154,1.9865798950195312
1701104723824530000,8.658530029296875,0.7773207426071167,-2.837188482284546,2.29238224029541
1701104723841529000,8.675529052734374,1.2672590017318726,-2.4571709632873535,3.0846166610717773
1701104723858522400,8.6925224609375,1.219048261642456,-2.829552173614502,4.456022262573242
1701104723875516700,8.7095166015625,0.3093273341655731,-3.2700257301330566,4.705142974853516
1701104723892507600,8.726507568359375,-0.39400890469551086,-2.157099723815918,2.314443588256836
1701104723909504300,8.743504150390624,-0.18580466508865356,-0.058096885681152344,-0.9779481887817383
1701104723926484700,8.760484619140625,0.07069498300552368,1.4738482236862183,-2.7173714637756348
1701104723943486700,8.77748681640625,-0.0447806715965271,1.9577242136001587,-2.590113639831543
1701104723960479700,8.794479736328125,-0.4792749881744385,1.9317030906677246,-1.086970329284668
1701104723977471200,8.81147119140625,-0.9473367929458618,1.7193796634674072,0.24092960357666016
1701104723994464800,8.82846484375,-0.9797124266624451,1.4726189374923706,0.6944055557250977
1701104724011456300,8.845456298828125,-0.9115922451019287,1.1074974536895752,0.5349016189575195
1701104724028449800,8.86244970703125,-0.7997841835021973,0.8430757522583008,0.2900991439819336
1701104724045441300,8.879441162109375,-0.4111297130584717,1.0510854721069336,-0.31377601623535156
1701104724062434600,8.8964345703125,0.27515703439712524,1.4545984268188477,-0.5210161209106445
1701104724079426000,8.913426025390624,0.8522162437438965,1.731719970703125,-0.0919637680053711
1701104724096419600,8.930419677734376,1.0634208917617798,2.0785505771636963,0.726405143737793
1701104724113409000,8.947408935546875,1.1165448427200317,2.4559085369110107,1.4478225708007812
1701104724130406400,8.964406494140626,1.276772141456604,2.877379894256592,1.849283218383789
1701104724147396000,8.98139599609375,1.3997471332550049,3.464470624923706,2.044386863708496
1701104724164395800,8.998395751953124,1.4056261777877808,3.945873737335205,2.4989213943481445
1701104724181378300,9.01537841796875,1.1831177473068237,4.181519031524658,2.979663848876953
1701104724198377000,9.032376953125,0.8111444115638733,4.413534164428711,3.0597639083862305
1701104724215365600,9.04936572265625,0.49636977910995483,4.786904335021973,2.7895374298095703
1701104724232359200,9.066359130859375,0.14359921216964722,5.173818588256836,2.475945472717285
1701104724249350700,9.0833505859375,-0.11718197911977768,5.416153430938721,2.1915884017944336
1701104724266344200,9.10034423828125,-0.14150020480155945,5.524316310882568,1.8985795974731445
1701104724283335400,9.11733544921875,-0.03023621439933777,5.41654634475708,1.582798957824707
1701104724300325600,9.13432568359375,0.10822123289108276,4.943115234375,1.2825393676757812
1701104724317320200,9.1513203125,0.28000378608703613,4.328299045562744,0.9839353561401367
1701104724334312700,9.168312744140625,0.6114926338195801,3.626089572906494,0.7617950439453125
1701104724351306800,9.185306640625,1.0453777313232422,2.9734599590301514,0.26837730407714844
1701104724368299000,9.202299072265625,1.5544148683547974,2.5503368377685547,-0.5457429885864258
1701104724385289500,9.21928955078125,1.9880677461624146,2.10809326171875,-1.0924043655395508
1701104724402284300,9.2362841796875,2.418407440185547,1.1828830242156982,-0.7841987609863281
1701104724419275000,9.25327490234375,3.1100947856903076,-0.21716952323913574,0.616943359375
1701104724436268800,9.270268798828125,4.051425457000732,-1.6163914203643799,2.5987348556518555
1701104724453260000,9.287260009765625,4.947591781616211,-2.567747116088867,4.337566375732422
1701104724470253600,9.304253662109375,5.288707256317139,-2.855745553970337,5.388842582702637
1701104724487245000,9.3212451171875,5.1237077713012695,-3.0751702785491943,5.373574256896973
1701104724504238300,9.33823828125,4.721207141876221,-3.276517152786255,4.504619598388672
1701104724521229800,9.355229736328125,4.112393856048584,-3.038926124572754,3.366269111633301
1701104724538225000,9.372224853515625,3.654287576675415,-2.636948347091675,2.4463510513305664
1701104724555212000,9.3892119140625,3.4801502227783203,-2.470660924911499,1.9997072219848633
1701104724572210700,9.406210693359375,3.233248710632324,-2.3606605529785156,1.5930328369140625
1701104724589199600,9.42319970703125,2.7626094818115234,-2.2029409408569336,0.9458389282226562
1701104724606192400,9.4401923828125,2.1478230953216553,-2.0859556198120117,0.12161540985107422
1701104724623185400,9.457185302734375,1.575109839439392,-2.106393337249756,-0.7471237182617188
1701104724640174800,9.4741748046875,1.0898468494415283,-2.251009941101074,-1.456660270690918
1701104724657172500,9.49117236328125,0.861167311668396,-2.5818846225738525,-1.919926643371582
1701104724674162700,9.50816259765625,0.6643861532211304,-3.0688705444335938,-2.163022994995117
1701104724691154400,9.525154541015626,0.302021861076355,-3.5814554691314697,-2.1966819763183594
1701104724708148000,9.54214794921875,-0.0016112327575683594,-3.8394081592559814,-2.3841261863708496
1701104724725139200,9.55913916015625,-0.30759572982788086,-3.9988415241241455,-2.39108943939209
1701104724742132700,9.5761328125,-0.5294440984725952,-4.254896640777588,-1.9873108863830566
1701104724759124200,9.593124267578125,-0.626771092414856,-4.603883743286133,-1.2308979034423828
1701104724776116200,9.6101162109375,-0.6124091148376465,-5.015625476837158,-0.3183937072753906
1701104724793109800,9.62710986328125,-0.6114252805709839,-5.5871992111206055,0.25366687774658203
1701104724810102500,9.6441025390625,-0.8097913265228271,-6.217015266418457,0.3395090103149414
1701104724827091500,9.661091552734375,-1.1081420183181763,-6.905632972717285,0.2243480682373047
1701104724844074800,9.67807470703125,-1.3184682130813599,-7.349214553833008,-0.06902408599853516
1701104724861081300,9.695081298828125,-1.4110486507415771,-7.410965919494629,-0.4340810775756836
1701104724878072000,9.712072021484374,-1.4617496728897095,-7.459596633911133,-0.4153118133544922
1701104724895063800,9.729063720703126,-1.5087178945541382,-7.68408727645874,0.5451393127441406
1701104724912057000,9.74605712890625,-1.724142074584961,-8.095714569091797,1.7196226119995117
1701104724929048800,9.763048828125,-2.1133763790130615,-8.304862976074219,1.6952781677246094
1701104724946042000,9.7800419921875,-2.2500243186950684,-7.322638034820557,0.03590869903564453
1701104724963033300,9.797033447265624,-1.8586413860321045,-5.626396179199219,-1.8906021118164062
1701104724980027000,9.81402685546875,-1.6461167335510254,-4.4589948654174805,-2.64200496673584
1701104724997018400,9.831018310546876,-1.756850004196167,-4.120997905731201,-2.065324306488037
1701104725014012000,9.848011962890626,-2.022991895675659,-3.947343111038208,-1.1301355361938477
1701104725031003100,9.865003173828125,-2.2301812171936035,-3.704908609390259,-0.6517601013183594
1701104725047997000,9.881996826171875,-2.1078646183013916,-3.2810258865356445,-0.603973388671875
1701104725064988200,9.89898828125,-1.7491190433502197,-2.7002944946289062,-0.41722869873046875
1701104725081981700,9.915981689453124,-1.148881196975708,-1.891829013824463,-0.006928443908691406
1701104725098973000,9.932972900390626,-0.5779138803482056,-0.9132568836212158,0.564478874206543
1701104725115966700,9.949966796875,-0.3342132568359375,0.18662452697753906,1.2106266021728516
1701104725132958000,9.9669580078125,-0.37772926688194275,1.228344440460205,2.2115964889526367
1701104725149951500,9.983951416015625,-0.6501188278198242,2.0522661209106445,3.186389923095703
1701104725166943000,10.00094287109375,-0.8753049373626709,2.648128032684326,3.6914968490600586
1701104725183936500,10.0179365234375,-0.8625644445419312,3.2761425971984863,3.6505117416381836
1701104725200927700,10.034927734375,-0.5110335350036621,3.661019802093506,3.6066150665283203
1701104725217919200,10.051919189453125,0.12271683663129807,3.8258159160614014,4.166736602783203
1701104725234914800,10.068914794921875,0.877317488193512,4.02823543548584,5.0774993896484375
1701104725251893200,10.085893310546876,1.2869009971618652,4.454059600830078,5.698480606079102
1701104725268897500,10.1028974609375,1.2327970266342163,5.215600967407227,5.458849906921387
1701104725285891000,10.11989111328125,0.9301191568374634,5.946817874908447,4.642983913421631
1701104725302882600,10.136882568359376,0.5999460220336914,6.276408672332764,3.888789176940918
1701104725319875800,10.153875732421875,0.3999630808830261,6.077497959136963,3.1878104209899902
1701104725336867300,10.170867431640625,0.5604286193847656,5.538086891174316,2.6561379432678223
1701104725353860900,10.18786083984375,1.0900235176086426,4.872239589691162,2.521477699279785
1701104725370852400,10.204852294921874,1.8088411092758179,3.975069284439087,2.992837905883789
1701104725387845600,10.221845703125,2.4515950679779053,2.656022071838379,3.999566078186035
1701104725404837400,10.23883740234375,3.132326602935791,1.2150602340698242,5.038869857788086
1701104725421830700,10.25583056640625,3.9781484603881836,0.44168758392333984,5.921703338623047
1701104725438820400,10.2728203125,4.783580303192139,0.451657772064209,6.7920331954956055
1701104725455817200,10.289817138671875,5.393974781036377,0.47046709060668945,7.760071754455566
1701104725472807000,10.306806884765624,5.277945041656494,0.3209681510925293,7.914811134338379
1701104725489800700,10.32380078125,4.7189764976501465,0.16913700103759766,6.906599998474121
1701104725506792000,10.3407919921875,3.858447790145874,-0.09925699234008789,5.433328628540039
1701104725523785200,10.35778515625,3.033686637878418,-0.6516385078430176,4.337120056152344
1701104725540776700,10.374776611328125,2.8813343048095703,-1.907017707824707,4.317220687866211
1701104725557770200,10.391770263671875,2.7672152519226074,-3.3558223247528076,4.920920372009277
1701104725574761700,10.40876171875,2.462932825088501,-4.211455345153809,5.3118486404418945
1701104725591755300,10.42575537109375,2.0064797401428223,-4.637964725494385,4.874955177307129
1701104725608746500,10.44274658203125,1.5289874076843262,-4.747546672821045,3.4221887588500977
1701104725625729500,10.4597294921875,1.1102194786071777,-4.693929672241211,1.729111671447754
1701104725642731500,10.4767314453125,0.8892766833305359,-4.813190460205078,0.5560121536254883
1701104725659724800,10.493724853515625,0.7127734422683716,-5.372249603271484,-0.1729564666748047
1701104725676706000,10.5107060546875,0.4210253953933716,-6.093194007873535,-0.7131013870239258
1701104725693704000,10.527703857421875,0.0324474573135376,-6.873822212219238,-1.3745126724243164
1701104725710693400,10.544693359375,-0.2511407136917114,-7.606606483459473,-1.8772163391113281
1701104725727697400,10.561697509765626,-0.48939812183380127,-8.019814491271973,-2.4688854217529297
1701104725744674600,10.578674560546874,-0.5486736297607422,-8.296215057373047,-2.748000144958496
1701104725761680100,10.59568017578125,-0.6408712863922119,-8.9105224609375,-2.1106162071228027
1701104725778671000,10.612671142578124,-0.856940507888794,-9.857818603515625,-0.6720046997070312
1701104725795664400,10.629664306640626,-1.1859748363494873,-10.89383316040039,0.8626022338867188
1701104725812655900,10.64665576171875,-1.5854939222335815,-11.429551124572754,1.721327304840088
1701104725829650000,10.66364990234375,-1.6564397811889648,-11.314584732055664,1.6557598114013672
1701104725846640600,10.680640625,-1.6865347623825073,-10.965042114257812,1.3075146675109863
1701104725863626800,10.697626708984375,-2.0342700481414795,-10.70699691772461,0.8252401351928711
1701104725880623900,10.714623779296875,-2.4671034812927246,-10.194878578186035,0.1518840789794922
1701104725897621000,10.73162109375,-2.6523892879486084,-9.830954551696777,-0.11652898788452148
1701104725914611000,10.74861083984375,-2.6536221504211426,-9.705320358276367,0.07275056838989258
1701104725931604000,10.76560400390625,-2.4027538299560547,-9.866755485534668,0.94390869140625
1701104725948595500,10.782595458984375,-2.294280767440796,-10.124738693237305,2.013467788696289
1701104725965595100,10.79959521484375,-2.2019617557525635,-10.01229476928711,2.844649314880371
1701104725982582800,10.816582763671875,-2.114767074584961,-9.470430374145508,3.0792551040649414
1701104725999572700,10.83357275390625,-1.9866917133331299,-8.592548370361328,2.811629295349121
1701104726016551200,10.85055126953125,-1.8662775754928589,-7.492572784423828,2.339493751525879
1701104726033551400,10.86755126953125,-1.737914800643921,-6.582620620727539,2.22519588470459
1701104726050538800,10.884538818359376,-1.7199764251708984,-6.0076494216918945,2.4530763626098633
1701104726067532300,10.9015322265625,-1.7169134616851807,-5.628701686859131,2.6676130294799805
1701104726084524000,10.91852392578125,-1.494753360748291,-5.091263771057129,2.54805850982666
1701104726101519000,10.93551904296875,-1.0323143005371094,-4.561622142791748,2.110468864440918
1701104726118513700,10.952513671875,-0.6794999241828918,-3.9458367824554443,1.5769052505493164
1701104726135507200,10.969507080078126,-0.23078949749469757,-3.185168743133545,1.0591363906860352
1701104726152496600,10.98649658203125,0.7426257729530334,-2.432858467102051,1.0652751922607422
1701104726169490000,11.003489990234375,1.7531923055648804,-1.872955560684204,2.0321474075317383
1701104726186478600,11.020478515625,2.157574415206909,-1.2845568656921387,3.21738338470459
1701104726203474400,11.037474365234376,1.810349702835083,-0.3138763904571533,4.143866539001465
1701104726220466200,11.054466064453125,1.4887275695800781,0.9422917366027832,4.367610931396484
1701104726237468700,11.07146875,1.3411756753921509,2.156876564025879,4.294827461242676
1701104726254452200,11.0884521484375,1.1411218643188477,3.411773681640625,4.4611968994140625
1701104726271445800,11.10544580078125,1.0410469770431519,4.36083984375,5.049198627471924
1701104726288435200,11.122435302734376,0.9146161675453186,4.905976295471191,6.184282302856445
1701104726305427700,11.139427734375,0.967403769493103,5.378968715667725,7.439456939697266
1701104726322419500,11.15641943359375,1.24248468875885,5.938426971435547,8.35595703125
1701104726339414800,11.173414794921875,1.37394118309021,6.777143478393555,8.190692901611328
1701104726356414200,11.190414306640625,1.5452079772949219,7.5924272537231445,7.584207534790039
1701104726373407700,11.20740771484375,1.5732264518737793,8.044556617736816,7.078884601593018
1701104726390386000,11.224385986328125,1.6333848237991333,8.255014419555664,6.562249183654785
1701104726407395600,11.2413955078125,1.7615605592727661,8.367238998413086,5.809794902801514
1701104726424395500,11.2583955078125,1.8553357124328613,8.01511001586914,5.389045715332031
1701104726441375700,11.275375732421875,1.8809237480163574,7.018629550933838,5.690830230712891
1701104726458370800,11.292370849609375,1.8409054279327393,5.766847133636475,6.316772937774658
1701104726475362300,11.3093623046875,1.9801149368286133,4.590304374694824,6.850343227386475
1701104726492353800,11.326353759765626,2.2829480171203613,3.7839906215667725,7.237315654754639
1701104726509347300,11.343347412109376,2.6415576934814453,3.327220916748047,7.530106067657471
1701104726526328300,11.360328369140625,2.9875330924987793,2.8911845684051514,7.6184234619140625
1701104726543332000,11.37733203125,2.870756149291992,2.587858200073242,7.422378063201904
1701104726560314400,11.394314453125,2.5066070556640625,2.283714532852173,6.873238563537598
1701104726577316400,11.41131640625,2.161362886428833,1.7631797790527344,6.10244083404541
1701104726594308400,11.428308349609376,1.8351620435714722,1.1365070343017578,5.476648330688477
1701104726611302000,11.445302001953126,1.707061529159546,0.20511245727539062,5.395449638366699
1701104726628295200,11.462295166015625,1.7145315408706665,-1.2784152030944824,5.780085563659668
1701104726645287000,11.479286865234375,1.7123878002166748,-2.909837007522583,6.254093170166016
1701104726662278100,11.496278076171874,1.8015503883361816,-3.934340715408325,6.374025344848633
1701104726679269000,11.51326904296875,1.4994674921035767,-4.485309600830078,5.716353416442871
1701104726696265700,11.530265625,0.7817193865776062,-4.7556586265563965,4.418006896972656
1701104726713259800,11.547259765625,0.34496814012527466,-5.080233573913574,2.791971206665039
1701104726730244900,11.564244873046874,-0.3885669708251953,-5.428994655609131,1.220320701599121
1701104726747241500,11.581241455078125,-0.7438881397247314,-5.640713214874268,-0.02576160430908203
1701104726764227300,11.598227294921875,-0.5335127115249634,-5.887186050415039,-0.92730712890625
1701104726781226200,11.615226318359374,-0.23016297817230225,-6.400393962860107,-1.1769723892211914
1701104726798218200,11.63221826171875,-0.13992488384246826,-7.14399528503418,-1.0267772674560547
1701104726815211300,11.649211181640625,-0.2880224585533142,-7.892642021179199,-0.9997930526733398
1701104726832202800,11.66620263671875,-0.4029676914215088,-8.5792875289917,-0.8016128540039062
1701104726849198000,11.683197998046875,-0.5293201804161072,-9.439176559448242,-0.16795825958251953
1701104726866187800,11.700187744140624,-0.550876796245575,-10.432682991027832,0.8694391250610352
1701104726883181000,11.71718115234375,-0.6177998781204224,-11.042970657348633,1.320608139038086
1701104726900171500,11.734171630859375,-0.5116685032844543,-11.03380012512207,0.945164680480957
1701104726917167400,11.75116748046875,-0.15500497817993164,-10.77111530303955,0.17771148681640625
1701104726934157800,11.76815771484375,-0.20319914817810059,-10.61490249633789,-0.6055593490600586
1701104726951150800,11.78515087890625,-0.3464488983154297,-10.349075317382812,-1.3227286338806152
1701104726968142300,11.802142333984374,-0.3545551300048828,-9.9968900680542,-1.7925639152526855
1701104726985135900,11.819135986328124,-0.34845876693725586,-9.810541152954102,-1.5808429718017578
1701104727002127000,11.836127197265625,-0.8101593255996704,-10.14083480834961,-0.7179851531982422
1701104727019120600,11.85312060546875,-1.3672183752059937,-10.50706672668457,-0.06173563003540039
1701104727036112100,11.870112060546875,-1.513527512550354,-10.731036186218262,0.4127016067504883
1701104727053105200,11.887105224609375,-1.5494962930679321,-10.626617431640625,0.6335983276367188
1701104727070097000,11.904096923828124,-1.3854767084121704,-9.983022689819336,0.6810102462768555
1701104727087090700,11.921090576171874,-1.1938469409942627,-9.026043891906738,0.8510608673095703
1701104727104082000,11.93808203125,-1.2623145580291748,-8.037734985351562,1.3074321746826172
1701104727121075500,11.955075439453125,-1.276378870010376,-7.272207260131836,2.3179550170898438
1701104727138067000,11.97206689453125,-1.323648452758789,-6.78873872756958,3.6582040786743164
1701104727155060200,11.989060302734375,-1.36543869972229,-6.463412284851074,4.749445915222168
1701104727172051700,12.0060517578125,-1.1980849504470825,-6.138975143432617,5.222789764404297
1701104727189055500,12.023055419921874,-0.7694698572158813,-5.382787227630615,5.082878112792969
1701104727206036700,12.04003662109375,-0.21310469508171082,-4.304096221923828,4.448032379150391
1701104727223027500,12.05702734375,-0.03573119640350342,-3.1938624382019043,3.910369873046875
1701104727240038100,12.0740380859375,-0.05658499896526337,-2.240557909011841,3.9350881576538086
1701104727257002800,12.091002685546876,-0.12384602427482605,-1.3512208461761475,4.248163223266602
1701104727274006300,12.10800634765625,-0.06733213365077972,-0.13802599906921387,4.794731140136719
1701104727290999800,12.124999755859376,0.020268402993679047,1.286445140838623,5.034506797790527
1701104727307991300,12.1419912109375,0.34334614872932434,2.773491621017456,4.787901878356934
1701104727324984800,12.15898486328125,0.8202702403068542,4.135248184204102,4.592652320861816
1701104727341976300,12.175976318359375,1.243919849395752,4.856468677520752,4.368027210235596
1701104727358969600,12.192969482421875,1.7249224185943604,5.07781457901001,4.156551361083984
1701104727375958300,12.209958251953125,2.1390740871429443,5.028090476989746,4.219149589538574
1701104727392957200,12.226957275390625,2.5858607292175293,4.774920463562012,4.628518581390381
1701104727409946400,12.2439462890625,3.339757204055786,4.569108963012695,5.400543689727783
1701104727426939600,12.260939697265625,3.9705300331115723,4.812512397766113,5.988404273986816
1701104727443931000,12.277930908203125,4.5393218994140625,5.461217403411865,6.537491321563721
1701104727460924200,12.294924072265625,4.766602516174316,6.352557182312012,7.207205772399902
1701104727477915600,12.31191552734375,4.939543724060059,7.174742221832275,7.726531028747559
1701104727494909200,12.3289091796875,5.201426982879639,7.967662811279297,7.990086555480957
1701104727511900700,12.345900634765625,5.200928211212158,8.625840187072754,8.306221008300781
1701104727528894500,12.36289453125,4.582536697387695,8.394990921020508,8.418390274047852
1701104727545892000,12.37989208984375,3.7984447479248047,7.120957374572754,8.77842903137207
1701104727562879000,12.39687890625,3.090113878250122,5.980743408203125,9.116987228393555
1701104727579870500,12.413870361328126,2.748180389404297,5.202630043029785,9.302139282226562
1701104727596863700,12.43086376953125,2.8893842697143555,4.63311243057251,9.078283309936523
1701104727613855200,12.447855224609375,2.961289882659912,4.052399158477783,8.682271957397461
1701104727630844000,12.464843994140624,2.5175576210021973,3.1352460384368896,8.02706241607666
1701104727647840300,12.48184033203125,2.079188585281372,2.107485771179199,7.2061028480529785
1701104727664833800,12.498833740234375,1.7527862787246704,1.084197998046875,6.429011344909668
1701104727681825000,12.515824951171876,1.8412712812423706,-0.06062602996826172,5.989418983459473
1701104727698818600,12.532818603515626,1.9721269607543945,-1.1776881217956543,5.992007255554199
1701104727715810000,12.54981005859375,2.2072010040283203,-2.355685234069824,6.501429557800293
1701104727732803300,12.56680322265625,2.21127986907959,-3.5404551029205322,7.190616607666016
1701104727749795000,12.583795166015625,1.7440228462219238,-4.417034149169922,7.113109588623047
1701104727766788400,12.600788330078124,1.0877773761749268,-4.829985618591309,5.966679573059082
1701104727783777500,12.617777587890625,0.7098637223243713,-5.041274070739746,4.105865478515625
1701104727800777700,12.63477783203125,0.46905040740966797,-5.456746578216553,2.4583730697631836
1701104727817762300,12.65176220703125,0.4391927719116211,-5.737803936004639,0.9743919372558594
1701104727834758400,12.66875830078125,0.593819260597229,-5.987936019897461,-0.009125709533691406
1701104727851749000,12.6857490234375,0.30135631561279297,-6.592113494873047,-0.06237506866455078
1701104727868743000,12.702742919921874,-0.5756406188011169,-7.36748743057251,0.1922311782836914
1701104727885724000,12.719723876953125,-1.2528891563415527,-8.057737350463867,0.3096323013305664
1701104727902728000,12.73672802734375,-1.5242395401000977,-8.763310432434082,0.13370704650878906
1701104727919719200,12.75371923828125,-1.4001436233520508,-9.279823303222656,-0.14933204650878906
1701104727936712700,12.770712646484375,-0.8439707159996033,-9.656694412231445,-0.3306770324707031
1701104727953693200,12.787693115234376,-0.14036881923675537,-10.154762268066406,-0.23623085021972656
1701104727970692900,12.80469287109375,0.5028855204582214,-10.563486099243164,-0.31706809997558594
1701104727987688200,12.821688232421875,0.4787769913673401,-10.707010269165039,-0.6134819984436035
1701104728004683500,12.83868359375,0.0390704870223999,-10.820110321044922,-0.979184627532959
1701104728021671400,12.85567138671875,-0.3992534875869751,-10.763727188110352,-1.3910679817199707
1701104728038670000,12.872670166015626,-0.5577835440635681,-10.471597671508789,-1.749584674835205
1701104728055658800,12.88965869140625,-0.5810844898223877,-10.245100021362305,-1.695037841796875
1701104728072651500,12.906651611328124,-0.3858010172843933,-10.408376693725586,-0.8900909423828125
1701104728089644800,12.923644775390626,-0.2203536033630371,-10.788244247436523,0.23065900802612305
1701104728106626800,12.940626708984375,-0.7442579865455627,-10.952376365661621,0.9873824119567871
1701104728123628500,12.957628662109375,-1.1948904991149902,-11.008082389831543,1.1557388305664062
1701104728140622000,12.9746220703125,-1.4580644369125366,-10.734375,0.7658405303955078
1701104728157613600,12.991613525390624,-1.621411919593811,-10.175026893615723,0.4851417541503906
1701104728174606800,13.00860693359375,-1.862647294998169,-9.564899444580078,0.3091573715209961
1701104728191598300,13.025598388671876,-1.9413028955459595,-8.957778930664062,0.30278778076171875
1701104728208594700,13.0425947265625,-2.096968412399292,-8.547039031982422,0.6964826583862305
1701104728225592300,13.05959228515625,-2.108088493347168,-8.376338958740234,1.4986047744750977
1701104728242576600,13.07657666015625,-1.7510496377944946,-8.312817573547363,2.4225339889526367
1701104728259568000,13.093568115234374,-1.0813758373260498,-8.228951454162598,3.550334930419922
1701104728276558600,13.11055859375,-0.4069715738296509,-7.9722394943237305,4.4801225662231445
1701104728293529000,13.127529052734374,0.3889498710632324,-7.408276557922363,5.284577369689941
1701104728310539800,13.144539794921876,1.1456042528152466,-6.483307838439941,5.842887878417969
1701104728327538200,13.1615380859375,1.7736396789550781,-5.24716854095459,6.265691757202148
1701104728344521000,13.17852099609375,2.1650471687316895,-3.784141778945923,6.684337615966797
1701104728361520400,13.195520263671876,1.9572762250900269,-2.075655698776245,6.988600730895996
1701104728378519300,13.212519287109375,1.3704861402511597,-0.4478440284729004,6.8889007568359375
1701104728395507700,13.2295078125,1.0769250392913818,1.4750418663024902,5.973609924316406
1701104728412501200,13.246501220703125,1.4378480911254883,3.204697608947754,5.163159370422363
1701104728429492700,13.26349267578125,1.948340892791748,4.374181270599365,5.144925594329834
1701104728446486300,13.280486328125,2.642871141433716,4.689826965332031,6.598499298095703
1701104728463475000,13.297474853515626,3.123335361480713,4.884300231933594,8.67376708984375
1701104728480473600,13.3144736328125,2.7714130878448486,5.2635087966918945,9.837627410888672
1701104728497462300,13.331462158203125,2.0014963150024414,5.511326789855957,9.37993049621582
1701104728514455800,13.348455810546875,2.1424317359924316,5.522461891174316,8.062963485717773
1701104728531444700,13.36544482421875,2.2470204830169678,5.39555549621582,6.437438488006592
1701104728548443400,13.382443359375,2.461547613143921,5.166470527648926,5.232804298400879
1701104728565432000,13.39943212890625,2.972661018371582,4.872018814086914,4.826053619384766
1701104728582425900,13.41642578125,3.707914113998413,4.8393449783325195,4.760227203369141
1701104728599416600,13.43341650390625,4.6440019607543945,5.304730415344238,4.86470365524292
1701104728616411100,13.4504111328125,5.2540388107299805,6.008561134338379,4.924239158630371
1701104728633402000,13.467402099609375,5.512076377868652,6.660140514373779,4.89227294921875
1701104728650395400,13.4843955078125,5.680330276489258,7.119755744934082,5.1225385665893555
1701104728667387100,13.50138720703125,5.565688133239746,6.85861873626709,5.965898036956787
1701104728684370000,13.518369873046876,5.164783000946045,5.665623664855957,7.606453895568848
1701104728701369000,13.535369140625,4.6018781661987305,4.252931594848633,9.005037307739258
1701104728718367700,13.55236767578125,4.239069938659668,3.4163155555725098,9.283626556396484
1701104728735356700,13.569356689453125,4.237124443054199,3.2837724685668945,8.617006301879883
1701104728752350200,13.58635009765625,4.0259013175964355,3.224801778793335,7.886905193328857
1701104728769341700,13.603341796875,3.597561836242676,2.644043445587158,7.569947719573975
1701104728786335000,13.6203349609375,2.7715563774108887,1.6449604034423828,7.514461040496826
1701104728803326500,13.637326416015625,2.160989761352539,0.4501934051513672,7.308609485626221
1701104728820317400,13.6543173828125,1.8506207466125488,-0.7649478912353516,7.170994758605957
1701104728837314300,13.671314208984375,1.6790895462036133,-1.912508487701416,7.569766998291016
1701104728854304800,13.6883046875,1.1384438276290894,-3.002804756164551,7.955193519592285
1701104728871296500,13.705296630859374,0.5184231996536255,-4.032171726226807,8.137807846069336
1701104728888289800,13.722289794921876,-0.10424649715423584,-4.893991947174072,7.767031669616699
1701104728905278500,13.739278564453125,-0.7902160286903381,-5.59287166595459,6.84114933013916
1701104728922277000,13.756277099609376,-0.9932742118835449,-6.37073278427124,5.497091293334961
1701104728939265800,13.773265869140625,-0.7840632200241089,-7.196352005004883,3.9992761611938477
1701104728956259300,13.79025927734375,-0.63411545753479,-7.774482250213623,2.3887834548950195
1701104728973250800,13.807250732421876,-0.570921778678894,-7.9772186279296875,0.5883197784423828
1701104728990244400,13.824244384765626,-0.3948032855987549,-7.822415828704834,-1.1209745407104492
1701104729007235800,13.84123583984375,-0.368119478225708,-7.55361795425415,-2.424833297729492
1701104729024229400,13.8582294921875,-0.5624837875366211,-7.348250389099121,-3.255009651184082
1701104729041210400,13.87521044921875,-0.6672613620758057,-7.371197700500488,-3.405056953430176
1701104729058221800,13.892221923828124,-0.7004439830780029,-7.812042236328125,-2.9129343032836914
1701104729075205400,13.909205322265626,-0.8462756872177124,-8.362075805664062,-2.462740421295166
1701104729092199000,13.926198974609376,-0.9490280151367188,-8.70988655090332,-2.1726479530334473
1701104729109190700,13.943190673828125,-1.1583110094070435,-9.032970428466797,-1.7836055755615234
1701104729126184000,13.960183837890625,-1.6912429332733154,-9.474092483520508,-1.3469743728637695
1701104729143175400,13.977175537109375,-2.2048044204711914,-9.744840621948242,-1.2668828964233398
1701104729160168700,13.994168701171875,-2.3260862827301025,-9.832286834716797,-1.4304542541503906
1701104729177147400,14.0111474609375,-2.206160545349121,-10.126232147216797,-1.2255501747131348
1701104729194152200,14.028152099609375,-2.2015721797943115,-10.467966079711914,-0.9974484443664551
1701104729211135200,14.04513525390625,-2.1364405155181885,-10.333457946777344,-1.0941619873046875
1701104729228129000,14.06212890625,-2.0718488693237305,-10.00527572631836,-1.217268466949463
1701104729245119700,14.07911962890625,-2.146911144256592,-9.954551696777344,-0.5767712593078613
1701104729262126000,14.0961259765625,-2.4449195861816406,-10.36721420288086,0.7666749954223633
1701104729279114800,14.11311474609375,-2.5914463996887207,-10.679672241210938,1.629953384399414
1701104729296108500,14.130108642578126,-2.46530818939209,-10.553577423095703,1.692397117614746
1701104729313099800,14.147099853515625,-2.3406267166137695,-10.01118278503418,1.3091859817504883
1701104729330091000,14.164091064453125,-2.0831501483917236,-9.19553279876709,1.1912202835083008
1701104729347087000,14.181087158203125,-1.6642078161239624,-8.293777465820312,1.5517311096191406
1701104729364079400,14.198079345703125,-1.1364710330963135,-7.553766250610352,2.4573869705200195
1701104729381068500,14.215068603515626,-0.7927011847496033,-6.817669868469238,3.611042022705078
1701104729398063000,14.23206298828125,-0.44252026081085205,-6.180445194244385,4.967042922973633
1701104729415054300,14.249054443359375,-0.20021837949752808,-5.653219223022461,6.300580978393555
1701104729432047900,14.2660478515625,0.09788164496421814,-4.7334065437316895,7.018206596374512
1701104729449035500,14.283035400390625,0.2566683888435364,-3.460968017578125,6.867009162902832
1701104729466033000,14.300032958984374,0.47211983799934387,-2.177584171295166,6.332691192626953
1701104729483024100,14.317024169921876,0.6201077103614807,-1.1234853267669678,5.818729400634766
1701104729500017400,14.334017333984375,0.8705583810806274,-0.03422212600708008,5.1779680252075195
1701104729516996400,14.350996337890624,1.4313089847564697,1.1685924530029297,4.734734535217285
1701104729533995300,14.367995361328125,1.6338366270065308,2.4808974266052246,4.638216972351074
1701104729550983400,14.3849833984375,1.563571810722351,3.7138187885284424,4.585671424865723
1701104729567977000,14.40197705078125,1.7286765575408936,4.579122066497803,4.3475494384765625
1701104729584969500,14.418969482421875,1.8595460653305054,5.0800018310546875,3.9474897384643555
1701104729601962500,14.43596240234375,1.959087610244751,5.269017696380615,3.417111873626709
1701104729618958300,14.452958251953126,2.254340410232544,5.274526596069336,3.20855712890625
1701104729635949600,14.469949462890625,2.666203498840332,5.005277156829834,3.482638359069824
1701104729652944000,14.48694384765625,3.1556954383850098,4.648460388183594,4.116617679595947
1701104729669941000,14.50394091796875,3.663346529006958,4.662551403045654,4.702582359313965
1701104729686925800,14.52092578125,4.026045799255371,4.9500579833984375,5.360053062438965
1701104729703918000,14.53791796875,4.20918607711792,5.490728378295898,5.689313888549805
1701104729720908800,14.55490869140625,4.117305755615234,6.30666971206665,5.622632026672363
1701104729737907000,14.571906982421876,4.112160682678223,7.148534297943115,5.465917110443115
1701104729754896600,14.588896728515625,3.9296886920928955,7.824377536773682,5.1611647605896
1701104729771890700,14.605890625,3.720008373260498,8.148863792419434,4.6751837730407715
1701104729788885200,14.62288525390625,3.635807991027832,7.6887712478637695,4.325503349304199
1701104729805872600,14.63987255859375,3.7303342819213867,6.708186626434326,4.3217339515686035
1701104729822866200,14.6568662109375,4.177521705627441,5.458125114440918,4.725870609283447
1701104729839857400,14.673857421875,4.7674713134765625,4.156344890594482,5.516228199005127
1701104729856851500,14.6908515625,5.551197052001953,3.2344021797180176,6.445374488830566
1701104729873847000,14.707846923828125,6.091952323913574,2.841792583465576,7.382051467895508
1701104729890844700,14.7248447265625,6.160560607910156,2.7731192111968994,8.018465042114258
1701104729907836400,14.74183642578125,5.653404712677002,2.723287343978882,8.094877243041992
1701104729924817200,14.758817138671875,4.678348064422607,2.6712965965270996,7.333198070526123
1701104729941821200,14.7758212890625,3.6746554374694824,2.3789384365081787,6.276988506317139
1701104729958812400,14.7928125,3.0042102336883545,1.6370794773101807,5.687808990478516
1701104729975806000,14.809805908203124,2.7822506427764893,0.5298209190368652,5.6165618896484375
1701104729992797400,14.82679736328125,2.889134645462036,-0.7477273941040039,6.21047306060791
1701104730009791000,14.843791015625,2.7797482013702393,-2.040186882019043,7.237114906311035
1701104730026782200,14.8607822265625,2.3492791652679443,-3.509329080581665,7.844640731811523
1701104730043782000,14.877781982421874,1.7806637287139893,-4.687067985534668,7.251943588256836
1701104730060767200,14.894767333984374,1.25547456741333,-5.241275787353516,5.642999649047852
1701104730077760500,14.911760498046876,0.5509082078933716,-5.705829620361328,3.9785804748535156
1701104730094752000,14.928751953125,-0.28611189126968384,-6.140280723571777,2.1145286560058594
1701104730111745500,14.94574560546875,-0.7611292600631714,-6.244522571563721,0.16660785675048828
1701104730128737000,14.962737060546875,-1.0563511848449707,-6.082729339599609,-1.4487123489379883
1701104730145719800,14.9797197265625,-1.3961272239685059,-5.87363338470459,-2.4380178451538086
1701104730162707700,14.996707763671875,-1.4951472282409668,-5.676093101501465,-3.0593671798706055
1701104730179719000,15.013718994140625,-1.227897047996521,-5.55490779876709,-3.4037704467773438
1701104730196706800,15.030706787109375,-0.7248713970184326,-5.634844779968262,-3.105276107788086
1701104730213697500,15.047697509765625,-0.4690737724304199,-5.964879035949707,-2.7066650390625
1701104730230694100,15.064694091796875,-0.9215700626373291,-6.380265235900879,-2.190093517303467
1701104730247685000,15.08168505859375,-1.6378105878829956,-6.994342803955078,-1.9413847923278809
1701104730264676600,15.098676513671874,-2.053497076034546,-7.558511257171631,-1.6274194717407227
1701104730281670000,15.115669921875,-2.16847562789917,-7.7771806716918945,-1.3125152587890625
1701104730298661000,15.1326611328125,-1.9426206350326538,-7.944472312927246,-0.5691995620727539
1701104730315655000,15.149655029296875,-1.5113238096237183,-8.243253707885742,0.22414493560791016
1701104730332646100,15.166646240234375,-0.954571008682251,-8.366097450256348,0.4466581344604492
1701104730349639700,15.1836396484375,-0.6845681667327881,-8.49608039855957,0.3468923568725586
1701104730366631200,15.200631103515626,-0.6576859951019287,-8.477897644042969,0.15814495086669922
1701104730383624400,15.21762451171875,-0.6093313694000244,-8.369073867797852,0.44504833221435547
1701104730400616000,15.234615966796875,-0.7039433121681213,-8.458290100097656,1.1184930801391602
1701104730417609500,15.251609375,-0.9551330804824829,-8.579360008239746,1.637364387512207
1701104730434600700,15.2686005859375,-1.3594822883605957,-9.059225082397461,1.5621318817138672
1701104730451594200,15.28559423828125,-1.4644818305969238,-9.125604629516602,0.8766450881958008
1701104730468583200,15.302583251953125,-0.9734899401664734,-8.33642578125,0.19358539581298828
1701104730485592800,15.3195927734375,-0.6669909954071045,-7.312372207641602,0.12008190155029297
1701104730502573600,15.336573486328126,-0.6644097566604614,-6.321353912353516,0.4664745330810547
1701104730519561000,15.35356103515625,-0.616336464881897,-5.342082977294922,0.9374752044677734
1701104730536555500,15.370555419921875,-0.5634379386901855,-4.541011810302734,1.5068435668945312
1701104730553549000,15.387549072265625,-0.6507334113121033,-4.0248823165893555,2.0685834884643555
1701104730570540300,15.404540283203126,-0.7599620819091797,-3.7808456420898438,2.2565317153930664
1701104730587534000,15.4215341796875,-0.6673146486282349,-3.5087826251983643,1.8115520477294922
1701104730604514800,15.438514892578125,-0.2734995484352112,-2.9827723503112793,1.302042007446289
1701104730621505500,15.455505615234374,0.27079689502716064,-2.3385679721832275,1.0535154342651367
1701104730638512600,15.4725126953125,0.5323275923728943,-1.7620503902435303,1.0419502258300781
1701104730655503600,15.489503662109374,0.6849982142448425,-1.078524112701416,0.9673681259155273
1701104730672495000,15.5064951171875,0.8319938778877258,-0.21672964096069336,1.2336673736572266
1701104730689488400,15.52348828125,1.0015249252319336,0.5342538356781006,1.8175287246704102
1701104730706474800,15.540474853515626,0.8754147887229919,1.1846261024475098,2.432260513305664
1701104730723470600,15.557470703125,0.3851661682128906,2.031921863555908,2.2544326782226562
1701104730740454000,15.574453857421876,0.2042233645915985,3.0790908336639404,1.6546525955200195
1701104730757458200,15.591458251953124,0.24113716185092926,3.8509411811828613,1.0567340850830078
1701104730774449700,15.60844970703125,0.4790503978729248,4.083658218383789,1.072697639465332
1701104730791443200,15.625443115234376,0.6143473386764526,4.269901275634766,1.666874885559082
1701104730808434700,15.6424345703125,1.117404818534851,4.1177473068237305,3.35072660446167
1701104730825428000,15.659427978515625,1.4535503387451172,3.7398228645324707,4.824248313903809
1701104730842419700,15.676419677734375,1.9712984561920166,3.856900453567505,5.507961750030518
1701104730859415800,15.693415771484375,2.5345351696014404,4.375794410705566,5.877600193023682
1701104730876404200,15.710404296875,2.9174180030822754,5.002236366271973,6.300765037536621
1701104730893397800,15.727397705078126,3.0846266746520996,5.724271297454834,6.816144943237305
1701104730910389000,15.744388916015625,3.0544209480285645,6.5512495040893555,6.872659683227539
1701104730927380200,15.761380126953124,2.8285727500915527,7.134805202484131,6.425124168395996
1701104730944371000,15.778370849609376,2.6185007095336914,7.193196773529053,5.768204212188721
1701104730961354800,15.795354736328125,2.49662446975708,7.284903526306152,5.069446563720703
1701104730978361300,15.812361328125,2.526775360107422,7.285990238189697,5.036304473876953
1701104730995352300,15.829352294921875,2.426090717315674,6.658908367156982,5.785113334655762
1701104731012326700,15.84632666015625,2.408461570739746,5.658493995666504,6.911169052124023
1701104731029337000,15.863337158203125,2.388579845428467,4.977583885192871,7.395214080810547
1701104731046328800,15.880328857421874,2.3981540203094482,4.849484443664551,7.102874755859375
1701104731063322400,15.897322265625,2.4410574436187744,4.553305625915527,6.43086576461792
1701104731080317000,15.91431689453125,1.995474934577942,3.9687116146087646,5.825118541717529
1701104731097303600,15.931303466796875,1.362261176109314,3.3448805809020996,5.160194396972656
1701104731114298400,15.94829833984375,0.7681403160095215,2.647853374481201,4.413125038146973
1701104731131292000,15.9652919921875,0.5382040739059448,1.8932604789733887,3.9034643173217773
1701104731148273000,15.98227294921875,0.7550902962684631,0.7500443458557129,3.835763931274414
1701104731165277000,15.99927685546875,1.0808004140853882,-0.8385965824127197,3.7589731216430664
1701104731182268200,16.01626806640625,1.7004406452178955,-1.6920394897460938,3.307074546813965
1701104731199261700,16.03326171875,2.4112443923950195,-1.8649468421936035,3.0706615447998047
1701104731216253200,16.050253173828125,2.4490835666656494,-2.5169150829315186,3.1465110778808594
1701104731233246500,16.06724658203125,2.4274284839630127,-3.3357036113739014,3.1007165908813477
1701104731250238000,16.084238037109376,2.5231382846832275,-3.5421977043151855,2.5111942291259766
1701104731267231500,16.1012314453125,2.4228522777557373,-3.2665295600891113,1.3326244354248047
1701104731284218600,16.118218505859375,2.141517162322998,-3.1493239402770996,0.1077871322631836
1701104731301216000,16.135216064453125,1.756143569946289,-3.16636323928833,-0.9474153518676758
1701104731318210000,16.1522099609375,1.3881844282150269,-3.212750196456909,-1.725327491760254
1701104731335201000,16.169200927734376,1.0407252311706543,-3.4119811058044434,-2.2802419662475586
1701104731352188000,16.18618798828125,0.8658714890480042,-3.762683153152466,-2.7003087997436523
1701104731369185800,16.203185791015624,0.8188140988349915,-4.0778913497924805,-3.0553951263427734
1701104731386177500,16.220177490234374,0.9660570025444031,-4.426417350769043,-3.197925090789795
1701104731403170800,16.2371708984375,0.9038230776786804,-5.066799163818359,-3.3339614868164062
1701104731420147700,16.254147705078125,0.8227128982543945,-5.612454891204834,-3.6944451332092285
1701104731437159400,16.271159423828124,0.940608561038971,-6.153318405151367,-3.7895560264587402
1701104731454147000,16.28814697265625,1.0211408138275146,-6.998388767242432,-3.32216739654541
1701104731471140900,16.305140869140626,0.9314647912979126,-7.798215866088867,-2.746933937072754
1701104731488132000,16.322132080078124,0.9699662923812866,-8.1159029006958,-2.5405325889587402
1701104731505125600,16.339125732421873,1.3496193885803223,-7.987607955932617,-1.9937324523925781
1701104731522114300,16.3561142578125,1.3918293714523315,-7.910089492797852,-1.3831968307495117
1701104731539095600,16.373095458984373,1.0328298807144165,-7.336813926696777,-0.9951553344726562
1701104731556101600,16.3901015625,0.4163927137851715,-6.695464134216309,-0.36083126068115234
1701104731573095200,16.40709521484375,-0.9075950980186462,-6.305524826049805,0.35079288482666016
1701104731590084000,16.424083984375,-2.346142292022705,-6.676301002502441,1.2178382873535156
1701104731607082800,16.441082763671876,-3.684324264526367,-8.127437591552734,1.1404743194580078
1701104731624071700,16.45807177734375,-4.059670448303223,-9.172078132629395,0.058836936950683594
1701104731641065000,16.47506494140625,-2.676356792449951,-8.182327270507812,-0.4582023620605469
1701104731658057000,16.492056884765624,-0.2531176805496216,-6.223822116851807,1.2937641143798828
1701104731675050000,16.509050048828126,1.5689873695373535,-4.430372714996338,5.335834503173828
1701104731692041200,16.526041259765623,2.085641622543335,-2.760751485824585,9.336896896362305
1701104731709034800,16.54303466796875,1.8051234483718872,-0.9134767055511475,11.327718734741211
1701104731726026200,16.560026123046875,1.8164587020874023,1.0799534320831299,10.397686958312988
1701104731743019800,16.577019775390625,2.2010819911956787,2.6722779273986816,7.443727493286133
1701104731760011000,16.594010986328126,2.166365623474121,3.5163745880126953,4.109431266784668
1701104731777004300,16.61100439453125,1.7786825895309448,3.672767400741577,1.6135988235473633
1701104731793994000,16.627993896484377,1.4563169479370117,3.254176616668701,0.6993255615234375
1701104731810991000,16.6449912109375,1.480603814125061,2.4124271869659424,0.4684925079345703
1701104731827981000,16.66198095703125,1.7105624675750732,1.716679573059082,0.4948539733886719
1701104731844974300,16.678974365234374,1.9779555797576904,1.7215808629989624,1.1353635787963867
1701104731861965600,16.695965576171876,2.0793936252593994,2.2299599647521973,0.9600734710693359
1701104731878959000,16.712958984375,1.777746558189392,3.016191244125366,0.04728507995605469
1701104731895945200,16.7299453125,1.4080216884613037,3.8995113372802734,-1.091775894165039
1701104731912942800,16.74694287109375,0.7706871032714844,4.441587448120117,-1.7668662071228027
1701104731929936400,16.763936279296875,0.0005438327789306641,4.586670875549316,-1.7740039825439453
1701104731946929000,16.780928955078124,-0.7332546710968018,4.5839056968688965,-1.5002069473266602
1701104731963920400,16.79792041015625,-1.2575914859771729,4.579883575439453,-1.5081610679626465
1701104731980910800,16.814910888671875,-1.3482513427734375,4.321746349334717,-1.4949517250061035
1701104731997907500,16.831907470703126,-1.079136848449707,3.9100308418273926,-1.272850513458252
1701104732014898400,16.8488984375,-0.754793643951416,3.576374053955078,-0.9997982978820801
1701104732031890200,16.86589013671875,-0.38403624296188354,3.532299757003784,-1.132756233215332
1701104732048883200,16.88288330078125,-0.029320284724235535,3.4927568435668945,-0.985802173614502
1701104732065864200,16.8998642578125,0.22215062379837036,3.2404839992523193,-0.272430419921875
1701104732082868200,16.9168681640625,0.5282741189002991,2.7539515495300293,0.8607149124145508
1701104732099859700,16.933859619140627,0.7833434343338013,2.5124282836914062,1.8935909271240234
1701104732116853000,16.95085302734375,0.7964646816253662,2.4179489612579346,2.666354179382324
1701104732133844500,16.967844482421874,0.5350739359855652,2.138206958770752,3.209864616394043
1701104732150838000,16.984838134765624,0.377397745847702,1.8113579750061035,3.2227630615234375
1701104732167829500,17.00182958984375,0.15856322646141052,1.5518879890441895,2.516878128051758
1701104732184822800,17.01882275390625,0.10580754280090332,1.3978028297424316,1.6226491928100586
1701104732201805000,17.03580517578125,0.11913418769836426,1.330066204071045,0.5999221801757812
1701104732218807600,17.0528076171875,0.14272445440292358,1.5486698150634766,-0.5376348495483398
1701104732235797800,17.0697978515625,0.3076156675815582,2.00616717338562,-1.411982536315918
1701104732252793900,17.0867939453125,0.5285828113555908,2.3279037475585938,-1.6981072425842285
1701104732269773800,17.10377392578125,0.8481611609458923,2.664053440093994,-1.528831958770752
1701104732286777600,17.120777587890625,1.198935866355896,2.865699529647827,-0.8757152557373047
1701104732303768800,17.137768798828127,1.42722749710083,2.7577857971191406,-0.06808662414550781
1701104732320752400,17.15475244140625,1.6784905195236206,2.309436798095703,0.6933355331420898
1701104732337753600,17.171753662109374,2.0870437622070312,1.7543668746948242,1.1856632232666016
1701104732354747100,17.1887470703125,2.659684658050537,1.2128071784973145,1.6279401779174805
1701104732371738600,17.205738525390625,3.5632219314575195,0.32421064376831055,2.61995792388916
1701104732388732200,17.222732177734375,4.493791103363037,-0.7914333343505859,3.913088798522949
1701104732405717200,17.23971728515625,5.171019554138184,-1.7093968391418457,5.021958351135254
1701104732422717000,17.256717041015627,5.205941200256348,-2.128683090209961,5.180201530456543
1701104732439704600,17.27370458984375,4.80794095993042,-2.1168572902679443,4.258087158203125
1701104732456701700,17.29070166015625,4.405406475067139,-1.9997727870941162,2.5311279296875
1701104732473693200,17.307693115234375,4.01878547668457,-1.6280145645141602,0.6914529800415039
1701104732490687000,17.32468701171875,3.7712886333465576,-0.9113023281097412,-0.7515010833740234
1701104732507678200,17.34167822265625,3.9193170070648193,-0.35393357276916504,-1.4651880264282227
1701104732524671500,17.35867138671875,3.9612903594970703,-0.17786073684692383,-1.3829660415649414
1701104732541662700,17.375662841796874,3.5538740158081055,-0.2829911708831787,-0.7977380752563477
1701104732558656300,17.39265625,2.9130756855010986,-0.40845680236816406,-0.44278812408447266
1701104732575647700,17.409647705078125,2.304908037185669,-0.45818209648132324,-0.6137533187866211
1701104732592641000,17.42664111328125,2.0036063194274902,-0.5894999504089355,-0.9761171340942383
1701104732609632500,17.443632568359376,2.028226137161255,-0.7758347988128662,-1.3395605087280273
1701104732626626300,17.460626220703126,2.198880434036255,-0.9912662506103516,-1.397972583770752
1701104732643615700,17.47761572265625,2.337798595428467,-1.3576600551605225,-1.1623506546020508
1701104732660612900,17.49461279296875,2.5172011852264404,-1.70863676071167,-0.9205293655395508
1701104732677590500,17.511590576171876,2.6242101192474365,-1.8933289051055908,-1.0312728881835938
1701104732694586400,17.52858642578125,2.7646403312683105,-1.8192732334136963,-1.4238929748535156
1701104732711578600,17.54557861328125,2.907841920852661,-1.7750468254089355,-1.6288814544677734
1701104732728580600,17.56258056640625,2.8995206356048584,-1.979637622833252,-1.4942750930786133
1701104732745584400,17.57958447265625,2.8658251762390137,-2.223430633544922,-1.2303476333618164
1701104732762565400,17.5965654296875,2.7846951484680176,-2.40799880027771,-1.059469223022461
1701104732779556900,17.613556884765625,2.6581716537475586,-2.65516996383667,-0.8211374282836914
1701104732796550100,17.630550048828123,2.2792112827301025,-3.0565407276153564,-0.5949077606201172
1701104732813542100,17.647542236328125,1.8773574829101562,-3.33528470993042,-0.6222105026245117
1701104732830525000,17.66452490234375,1.5487438440322876,-3.4306769371032715,-0.5046358108520508
1701104732847527000,17.68152685546875,1.3008508682250977,-3.504089832305908,0.21073055267333984
1701104732864512000,17.698511962890624,0.9897854924201965,-3.566866159439087,1.0170354843139648
1701104732881508600,17.715508544921875,1.0507252216339111,-3.522305727005005,1.8781623840332031
1701104732898497800,17.732497802734375,1.4889475107192993,-3.915943145751953,3.51900577545166
1701104732915496400,17.749496337890626,1.1062581539154053,-4.751601219177246,4.849611282348633
1701104732932493000,17.7664931640625,0.2184423804283142,-4.882147789001465,3.7560319900512695
1701104732949478000,17.783477783203125,-0.15736383199691772,-3.8028955459594727,0.7086544036865234
1701104732966474800,17.800474853515624,-0.5252382159233093,-2.328213691711426,-2.6087722778320312
1701104732983466000,17.817466064453125,-0.7407784461975098,-1.567084789276123,-4.450989723205566
1701104733000459500,17.83445947265625,-0.7546920776367188,-1.3540663719177246,-4.951253414154053
1701104733017438200,17.851438232421874,-0.516883373260498,-1.1069802045822144,-4.414829730987549
1701104733034435000,17.86843505859375,-0.14362084865570068,-0.9951528310775757,-3.3520708084106445
1701104733051430700,17.8854306640625,-0.03647470474243164,-1.2538702487945557,-2.1580190658569336
1701104733068419600,17.902419677734375,-0.10981237888336182,-1.5489964485168457,-1.3644781112670898
1701104733085410600,17.91941064453125,-0.22842979431152344,-1.5117284059524536,-0.9967117309570312
1701104733102407700,17.93640771484375,-0.44526511430740356,-1.2346454858779907,-1.0228195190429688
1701104733119400200,17.953400146484373,-0.4254502058029175,-0.7575846910476685,-1.1323232650756836
1701104733136392400,17.970392333984375,-0.2424943745136261,-0.06431078910827637,-0.9498195648193359
1701104733153386000,17.987385986328125,0.09727531671524048,0.6641504764556885,-0.5529308319091797
1701104733170378800,18.004378662109374,0.5070620775222778,1.225398302078247,0.09603023529052734
1701104733187366700,18.02136669921875,0.8530737161636353,1.7092205286026,0.6510095596313477
1701104733204359200,18.038359130859376,1.174088716506958,2.103240489959717,1.075026512145996
1701104733221349000,18.05534912109375,1.2854543924331665,2.3556671142578125,1.3993635177612305
1701104733238346800,18.0723466796875,1.1324596405029297,2.5361976623535156,1.5083341598510742
1701104733255338000,18.089337890625,0.7401056289672852,2.686554193496704,1.3505210876464844
1701104733272330800,18.106330810546876,0.31518468260765076,2.8055548667907715,1.1138906478881836
1701104733289321700,18.12332177734375,-0.0038682296872138977,2.971010208129883,0.8949050903320312
1701104733306314000,18.14031396484375,-0.0899464413523674,3.0478992462158203,0.8224706649780273
1701104733323306000,18.157305908203124,-0.018173499032855034,2.940242290496826,0.9593820571899414
1701104733340298000,18.174298095703126,0.17980808019638062,2.720996379852295,1.011505126953125
1701104733357291300,18.191291259765624,0.6410690546035767,2.445098400115967,1.0339250564575195
1701104733374295000,18.208294921875,0.8064094185829163,2.238086223602295,0.7740278244018555
1701104733391284200,18.2252841796875,0.7816361784934998,2.080873727798462,0.14422130584716797
1701104733408278000,18.242278076171875,0.9883889555931091,2.0415494441986084,-0.6525135040283203
1701104733425269200,18.259269287109376,1.4012598991394043,2.038210391998291,-1.2359380722045898
1701104733442262500,18.276262451171874,1.8827502727508545,1.7528295516967773,-1.128952980041504
1701104733459254000,18.29325390625,2.3020873069763184,0.9604208469390869,-0.028883934020996094
1701104733476247600,18.31024755859375,2.890507936477661,0.0010378360748291016,1.5681171417236328
1701104733493238800,18.32723876953125,3.8178839683532715,-0.21670794486999512,2.7648534774780273
1701104733510232300,18.344232421875,4.853699684143066,0.22451066970825195,3.49459171295166
1701104733527223800,18.361223876953126,5.552592754364014,0.29626893997192383,4.172417640686035
1701104733544207600,18.37820751953125,5.696393013000488,-0.25927138328552246,4.799471855163574
1701104733561208000,18.3952080078125,5.360759735107422,-0.6522150039672852,4.93366813659668
1701104733578199300,18.41219921875,5.017691612243652,-0.6209094524383545,4.674844741821289
1701104733595196000,18.42919580078125,4.511462688446045,-0.5386359691619873,4.200204849243164
1701104733612187100,18.446187255859375,3.898484230041504,-0.4267416000366211,3.4090375900268555
1701104733629178400,18.463178466796876,3.208460807800293,-0.30384182929992676,2.379047393798828
1701104733646172000,18.480171875,2.432309627532959,-0.26955556869506836,1.3207321166992188
1701104733663163100,18.4971630859375,1.6940945386886597,-0.43006324768066406,0.4809694290161133
1701104733680154400,18.514154296875,1.3067717552185059,-0.9351094961166382,-0.07284164428710938
1701104733697150200,18.531150146484375,1.1727190017700195,-1.6245167255401611,-0.5177001953125
1701104733714121700,18.548121826171876,1.2923853397369385,-2.338006019592285,-0.6596832275390625
1701104733731134700,18.565134765625,1.3914117813110352,-3.1184744834899902,-0.46714019775390625
1701104733748128800,18.582128662109376,1.3192218542099,-3.8361382484436035,-0.20219898223876953
1701104733765115600,18.59911572265625,1.2430835962295532,-4.219501495361328,-0.17592906951904297
1701104733782111200,18.616111328125,1.1758453845977783,-4.507075309753418,-0.005249977111816406
1701104733799102700,18.633102783203125,1.0292949676513672,-4.95122766494751,0.30254650115966797
1701104733816096000,18.650095947265626,0.9940585494041443,-5.4667863845825195,0.7612848281860352
1701104733833090600,18.667090576171876,1.0673030614852905,-5.9415130615234375,1.056992530822754
1701104733850077700,18.68407763671875,1.173192024230957,-6.344159126281738,1.0431747436523438
1701104733867072300,18.701072265625,1.0660086870193481,-6.840954780578613,1.0883865356445312
1701104733884065800,18.718065673828125,0.763202428817749,-7.502690315246582,1.1015005111694336
1701104733901057000,18.73505712890625,0.4063662886619568,-8.041641235351562,0.8471345901489258
1701104733918050600,18.752050537109376,0.27680504322052,-8.371574401855469,0.5154752731323242
1701104733935042000,18.7690419921875,0.3450750410556793,-8.801289558410645,0.41098594665527344
1701104733952035300,18.786035400390624,0.21189701557159424,-9.53518295288086,0.5308980941772461
1701104733969024800,18.803024658203125,-0.16182388365268707,-10.396973609924316,0.26219749450683594
1701104733986023000,18.82002294921875,-0.172002375125885,-10.621793746948242,-0.3455533981323242
1701104734003001300,18.83700146484375,0.1934267282485962,-9.956632614135742,-1.0589427947998047
1701104734020005000,18.854005126953126,0.5793164372444153,-8.81919002532959,-1.3861198425292969
1701104734036996600,18.87099658203125,0.6459721922874451,-7.896472454071045,-1.0879144668579102
1701104734053990000,18.887989990234374,0.44620245695114136,-7.042258262634277,-0.30911731719970703
1701104734070981400,18.9049814453125,0.04368311166763306,-6.26027250289917,0.44115257263183594
1701104734087975000,18.921974853515625,-0.573100209236145,-5.469967842102051,0.9693641662597656
1701104734104966400,18.93896630859375,-0.8909590840339661,-4.945754051208496,1.2423133850097656
1701104734121960000,18.9559599609375,-0.8569055795669556,-4.391230583190918,1.231353759765625
1701104734138951200,18.972951171875,-0.5698854923248291,-3.713653326034546,1.4958124160766602
1701104734155946200,18.9899462890625,-0.3157176375389099,-3.052429676055908,2.029346466064453
1701104734172936000,19.00693603515625,0.19415314495563507,-2.483386278152466,2.848743438720703
1701104734189926400,19.023926513671874,0.7845505475997925,-1.7951531410217285,3.4793710708618164
1701104734206924000,19.040924072265625,1.2946794033050537,-0.7040817737579346,3.6055994033813477
1701104734223914200,19.057914306640626,1.863050103187561,0.5741562843322754,3.3409976959228516
1701104734240906000,19.074906005859376,2.280632734298706,1.9485199451446533,3.1989612579345703
1701104734257899000,19.09189892578125,2.410329818725586,3.295294761657715,3.4364309310913086
1701104734274890500,19.108890380859375,2.345492362976074,4.587944984436035,3.7293543815612793
1701104734291884300,19.12588427734375,2.044283390045166,5.829774856567383,3.6890015602111816
1701104734308872400,19.14287255859375,1.5837440490722656,6.679586887359619,3.602273941040039
1701104734325859000,19.159859130859374,1.3092073202133179,7.085595607757568,3.6207709312438965
1701104734342854100,19.176854248046876,1.416006326675415,7.403745651245117,3.712411880493164
1701104734359853600,19.193853515625,1.8342866897583008,7.526735305786133,4.222123146057129
1701104734376848400,19.210848388671874,2.4942333698272705,7.493269443511963,4.685505390167236
1701104734393836800,19.2278369140625,3.332754373550415,7.433577537536621,5.0580549240112305
1701104734410829800,19.244829833984376,4.0941972732543945,7.305427551269531,5.267887592315674
1701104734427823600,19.26182373046875,4.839722633361816,7.273304462432861,5.357846736907959
1701104734444812300,19.278812255859375,5.447880744934082,7.45192289352417,5.360572814941406
1701104734461811000,19.29581103515625,5.694510459899902,7.5503621101379395,5.2966227531433105
1701104734478799600,19.312799560546875,5.57670783996582,7.371817588806152,5.125990390777588
1701104734495793000,19.32979296875,5.579958915710449,6.824946880340576,5.058823108673096
1701104734512784400,19.346784423828126,5.6256632804870605,6.137777328491211,5.463443756103516
1701104734529778000,19.36377783203125,5.467771053314209,5.537436008453369,6.566037654876709
1701104734546769400,19.380769287109374,5.314907073974609,4.679538726806641,8.474567413330078
1701104734563762700,19.3977626953125,4.834512233734131,3.7145817279815674,10.669677734375
1701104734580754400,19.41475439453125,4.036260604858398,3.0304651260375977,12.207032203674316
1701104734597747500,19.43174755859375,3.2272231578826904,2.376206398010254,12.66659164428711
1701104734614739000,19.448739013671876,2.6359074115753174,1.1714024543762207,12.557003021240234
1701104734631732500,19.465732421875,2.2305004596710205,-0.0026345252990722656,11.478238105773926
1701104734648724000,19.482723876953123,1.9398746490478516,-1.1970529556274414,10.262532234191895
1701104734665717200,19.49971728515625,1.8309259414672852,-2.467268943786621,9.318342208862305
1701104734682708700,19.516708740234375,2.202019453048706,-3.8237757682800293,9.087812423706055
1701104734699702000,19.533701904296876,2.6972343921661377,-5.363658428192139,9.324152946472168
1701104734716693500,19.550693603515626,3.1502091884613037,-7.078159332275391,8.982854843139648
1701104734733687000,19.56768701171875,3.206326484680176,-8.593774795532227,7.414602279663086
1701104734750678300,19.58467822265625,3.1364428997039795,-9.192063331604004,5.064567565917969
1701104734767672000,19.601672119140623,2.5761265754699707,-9.384556770324707,2.472348213195801
1701104734784663600,19.61866357421875,1.7151192426681519,-9.780803680419922,0.31586647033691406
1701104734801646000,19.63564599609375,1.018622875213623,-9.925580024719238,-1.5006046295166016
1701104734818641000,19.652640869140626,0.6783522963523865,-9.614750862121582,-3.082477569580078
1701104734835641600,19.6696416015625,0.6610000133514404,-9.008606910705566,-4.132410526275635
1701104734852632800,19.6866328125,0.5601583123207092,-8.874724388122559,-4.394493103027344
1701104734869626400,19.70362646484375,0.0007956027984619141,-9.519780158996582,-4.353664398193359
1701104734886617900,19.720617919921875,-0.4268801510334015,-9.927395820617676,-4.646563529968262
1701104734903611100,19.737611083984376,-0.36322325468063354,-9.660050392150879,-4.980352878570557
1701104734920602600,19.7546025390625,-0.10420376062393188,-9.327435493469238,-4.752312183380127
1701104734937599500,19.771599609375,0.06136453151702881,-9.119513511657715,-3.9509525299072266
1701104734954587600,19.788587646484373,0.12542378902435303,-9.176751136779785,-2.895562171936035
1701104734971581000,19.805580810546875,0.03926199674606323,-9.467065811157227,-1.7226676940917969
1701104734988572400,19.822572509765624,0.024221986532211304,-9.720369338989258,-0.827003002166748
1701104735005562400,19.839562255859374,-0.09513694047927856,-9.652466773986816,-0.25896501541137695
1701104735022557000,19.856556884765624,-0.22007334232330322,-9.362390518188477,-0.06224536895751953
1701104735039556400,19.873556396484375,-0.4074831008911133,-8.997193336486816,-0.10674762725830078
1701104735056542000,19.8905419921875,-0.5413762331008911,-8.803205490112305,0.3307313919067383
1701104735073535500,19.907535400390625,-0.6484044790267944,-8.834053039550781,1.403738021850586
1701104735090527000,19.92452685546875,-0.7742759585380554,-9.015737533569336,2.3285722732543945
1701104735107520300,19.941520263671876,-0.8326586484909058,-9.165145874023438,2.5191240310668945
1701104735124501200,19.958501220703123,-0.8293243050575256,-8.960352897644043,2.09696102142334
1701104735141502500,19.97550244140625,-0.6092560291290283,-8.59522819519043,1.9822664260864258
1701104735158499000,19.9924990234375,-0.46741989254951477,-8.067198753356934,2.297530174255371
1701104735175490000,20.009489990234375,-0.41337358951568604,-7.310629844665527,2.557598114013672
1701104735192481300,20.026481201171876,-0.3741167187690735,-6.333920955657959,2.648890495300293
1701104735209474800,20.043474853515626,-0.34366536140441895,-5.614191055297852,2.8342418670654297
1701104735226463700,20.060463623046875,-0.10775682330131531,-5.131360054016113,3.1822729110717773
1701104735243462100,20.077462158203126,-0.016175925731658936,-4.64547061920166,3.7089967727661133
1701104735260450800,20.094450927734375,-0.3563545048236847,-4.066573619842529,4.143333435058594
1701104735277429500,20.111429443359373,-0.8002750873565674,-3.5923964977264404,4.019990921020508
1701104735294438400,20.1284384765625,-0.5819752216339111,-3.1040782928466797,3.658061981201172
1701104735311426800,20.1454267578125,-0.1419987827539444,-2.538137435913086,3.5155820846557617
1701104735328420900,20.1624208984375,0.5333117246627808,-1.6416866779327393,3.4036169052124023
1701104735345414400,20.179414306640624,1.1819400787353516,-0.23160696029663086,3.329867362976074
1701104735362403000,20.196403076171876,1.3794615268707275,1.4707927703857422,3.510836601257324
1701104735379401500,20.2134013671875,0.9227995872497559,3.152562379837036,4.026479721069336
1701104735396390400,20.230390380859376,0.4883621037006378,4.583307266235352,4.517678260803223
1701104735413384000,20.247384033203126,0.5441928505897522,5.8181962966918945,4.610541343688965
1701104735430375200,20.264375244140624,1.5146539211273193,6.684251308441162,4.172529697418213
1701104735447352800,20.281352783203126,3.076984167098999,6.631951808929443,4.1400275230407715
1701104735464352500,20.2983525390625,4.488104820251465,6.0931901931762695,4.391215801239014
1701104735481351700,20.3153515625,5.040709018707275,5.682422161102295,5.387358665466309
1701104735498346500,20.332346435546874,4.725390911102295,5.173052787780762,5.766540050506592
1701104735515328300,20.349328369140625,4.3861212730407715,4.999704360961914,5.841724872589111
1701104735532329700,20.366329833984373,3.714629650115967,5.093908786773682,5.629244804382324
1701104735549322000,20.383322021484375,3.1820991039276123,5.123879432678223,5.2815423011779785
1701104735566315800,20.400315673828125,3.298457145690918,5.722437858581543,4.985413074493408
1701104735583308000,20.41730810546875,3.729942560195923,6.606347560882568,4.840900897979736
1701104735600296700,20.434296630859375,3.990598678588867,7.309962749481201,5.248536109924316
1701104735617295400,20.45129541015625,3.8574652671813965,7.935496807098389,5.830779552459717
1701104735634284300,20.4682841796875,3.56007719039917,8.134239196777344,6.404018402099609
1701104735651277800,20.48527783203125,3.6691861152648926,7.375039577484131,7.0520548820495605
1701104735668269300,20.502269287109375,3.919179677963257,6.307651519775391,7.6340227127075195
1701104735685262600,20.5192626953125,4.374616622924805,5.0898237228393555,8.32188606262207
1701104735702253600,20.536253662109374,4.804518699645996,3.918830156326294,8.882303237915039
1701104735719248000,20.553247802734376,4.939390182495117,3.1586761474609375,9.136180877685547
1701104735736238800,20.57023876953125,4.633029460906982,2.778872489929199,8.776123046875
1701104735753232000,20.58723193359375,4.1924614906311035,2.3734068870544434,8.126246452331543
1701104735770224000,20.60422412109375,3.495872735977173,1.839751958847046,7.255046844482422
1701104735787214800,20.62121484375,2.9486594200134277,1.1335840225219727,6.619476318359375
1701104735804220200,20.63822021484375,2.439185857772827,0.14414548873901367,6.40255069732666
1701104735821202000,20.655201904296874,1.7346230745315552,-0.7647504806518555,6.305842399597168
1701104735838193200,20.672193115234375,1.0034897327423096,-1.6854546070098877,6.2046003341674805
1701104735855186700,20.689186767578125,0.64436936378479,-2.8480937480926514,5.800707817077637
1701104735872178200,20.70617822265625,0.7366070747375488,-3.5829317569732666,4.977306365966797
1701104735889171700,20.723171630859376,0.927233099937439,-3.8147149085998535,3.9910888671875
1701104735906163200,20.7401630859375,0.9307682514190674,-4.238023281097412,3.1504831314086914
1701104735923156200,20.75715625,0.674140453338623,-4.8016886711120605,2.3179473876953125
1701104735940145200,20.774145263671876,0.3204880952835083,-5.197870254516602,1.3325138092041016
1701104735957143800,20.791143798828124,0.1426992416381836,-5.428691387176514,0.26175689697265625
1701104735974132500,20.808132568359376,0.10868668556213379,-5.627212047576904,-0.6210174560546875
1701104735991126000,20.8251259765625,0.005827784538269043,-6.089963436126709,-1.0995397567749023
1701104736008117800,20.84211767578125,-0.15806663036346436,-6.8897857666015625,-1.2244501113891602
1701104736025111000,20.859111083984374,-0.31748926639556885,-7.541955471038818,-1.6717939376831055
1701104736042102300,20.876102294921875,-0.43578946590423584,-7.775461196899414,-2.546532154083252
1701104736059095800,20.893095703125,-0.5127261877059937,-7.835921287536621,-3.294466972351074
1701104736076087000,20.910087158203126,-0.4835233688354492,-7.98374605178833,-3.599665641784668
1701104736093080600,20.92708056640625,-0.4945634603500366,-8.274757385253906,-3.3587307929992676
1701104736110072000,20.944072021484374,-0.6065243482589722,-8.450057983398438,-3.0941238403320312
1701104736127065600,20.961065673828124,-0.7630850672721863,-8.350955963134766,-3.001964569091797
1701104736144056800,20.978056884765625,-1.0492992401123047,-8.264656066894531,-2.9275083541870117
1701104736161037600,20.99503759765625,-1.3840709924697876,-8.171682357788086,-2.741342544555664
1701104736178036200,21.0120361328125,-1.4428772926330566,-8.16634750366211,-2.2568469047546387
1701104736195024400,21.0290244140625,-1.3126132488250732,-8.006063461303711,-1.9780268669128418
1701104736212019000,21.04601904296875,-0.8944900035858154,-7.777907371520996,-1.49045991897583
1701104736229020200,21.063020263671874,-0.9075905680656433,-7.738318920135498,-1.1475028991699219
1701104736246011600,21.08001171875,-1.4014869928359985,-7.872143745422363,-0.4103231430053711
1701104736263005000,21.0970048828125,-1.7878005504608154,-8.102659225463867,0.43841552734375
1701104736279996200,21.11399609375,-2.072587013244629,-8.492709159851074,1.1806983947753906
1701104736296989700,21.13098974609375,-2.188399314880371,-9.057737350463867,1.6504325866699219
1701104736313981000,21.14798095703125,-2.3514904975891113,-9.292877197265625,1.7586870193481445
1701104736330974500,21.164974365234375,-1.8553955554962158,-8.672515869140625,1.926436424255371
1701104736347966000,21.181966064453125,-0.9860497117042542,-7.439276695251465,2.754497528076172
1701104736364959500,21.19895947265625,-0.2666529417037964,-6.172396659851074,4.146707534790039
1701104736381950700,21.21595068359375,0.0917510986328125,-5.073802947998047,5.9806365966796875
1701104736398944300,21.2329443359375,0.20120960474014282,-3.952918529510498,7.480323791503906
1701104736415935500,21.249935546875,0.1797715425491333,-2.821047782897949,8.071738243103027
1701104736432929000,21.266928955078125,0.22570091485977173,-1.6579573154449463,7.279882431030273
1701104736449920300,21.283920166015626,0.3990093767642975,-0.4278000593185425,5.986600875854492
1701104736466914000,21.3009140625,0.28219565749168396,0.439068078994751,4.512506484985352
1701104736483905300,21.3179052734375,0.41421234607696533,0.7350709438323975,3.821563720703125
1701104736500898600,21.334898681640624,1.0961748361587524,0.807758092880249,4.50581169128418
1701104736517887500,21.351887451171876,1.7837027311325073,1.2581725120544434,4.799015045166016
1701104736534879500,21.36887939453125,2.0403618812561035,2.405259847640991,3.9850101470947266
1701104736551866000,21.3858662109375,1.9588254690170288,3.8467600345611572,2.5175180435180664
1701104736568863200,21.40286328125,1.8628886938095093,4.676324844360352,1.1069707870483398
1701104736585851600,21.4198515625,1.8758859634399414,4.942203044891357,0.23289966583251953
1701104736602841000,21.436841064453127,1.6057850122451782,5.277866840362549,-0.18268775939941406
1701104736619840000,21.453840087890626,1.5350003242492676,5.488011360168457,-0.26714563369750977
1701104736636833500,21.47083349609375,1.6300581693649292,5.548954010009766,0.3476138114929199
1701104736653820400,21.4878203125,1.5818147659301758,5.326835632324219,1.558577537536621
1701104736670816000,21.50481591796875,1.4639264345169067,4.888236045837402,2.698270320892334
1701104736687805000,21.521804931640624,1.8399981260299683,4.626672744750977,3.1181488037109375
1701104736704799000,21.538799072265626,2.666135549545288,4.564274311065674,3.3319449424743652
1701104736721788400,21.555788330078126,3.539050579071045,4.453646659851074,3.9986062049865723
1701104736738788900,21.572788818359374,4.386015892028809,4.629044532775879,4.670206546783447
1701104736755775700,21.589775634765626,5.215633869171143,5.368928909301758,5.122920989990234
1701104736772766000,21.606765869140624,5.61036491394043,6.088531970977783,5.6383819580078125
1701104736789761000,21.623760986328126,5.468244552612305,6.555738925933838,5.865847110748291
1701104736806753800,21.64075390625,5.010226249694824,6.50483512878418,5.920650482177734
1701104736823749400,21.657749267578126,4.420238971710205,5.70908784866333,6.300488471984863
1701104736840736500,21.674736572265626,4.019045829772949,4.63273811340332,6.761666774749756
1701104736857729800,21.691729736328124,3.7485311031341553,3.6924562454223633,6.963625431060791
1701104736874723800,21.708723876953126,3.5783939361572266,3.1905274391174316,6.795137405395508
