time,seconds_elapsed,z,y,x
1701104962015136300,0.17313623046875,-1.3012821674346924,-4.845329284667969,3.179905891418457
1701104962032131800,0.1901318359375,-0.34048449993133545,-4.523698806762695,3.4062538146972656
1701104962049123000,0.207123046875,0.7007425427436829,-4.4199724197387695,3.251887321472168
1701104962066118000,0.224117919921875,1.9255588054656982,-4.746059894561768,3.118189811706543
1701104962083106800,0.24110693359375,3.000178575515747,-4.818275451660156,4.686519622802734
1701104962100100900,0.258100830078125,3.1241235733032227,-3.8835408687591553,6.18354606628418
1701104962117090300,0.27509033203125,2.1689274311065674,-2.931304454803467,6.047163009643555
1701104962134085400,0.29208544921875,1.6446952819824219,-2.1347193717956543,4.761017799377441
1701104962151080200,0.309080078125,1.402116060256958,-1.6446244716644287,4.115411758422852
1701104962168072400,0.326072509765625,2.0154471397399902,-1.4272875785827637,5.734642028808594
1701104962185054500,0.343054443359375,3.575474500656128,-0.29558396339416504,7.988377571105957
1701104962202055700,0.3600556640625,4.894449710845947,1.2829523086547852,8.795343399047852
1701104962219047200,0.377047119140625,6.364562034606934,2.9013922214508057,8.550124168395996
1701104962236041200,0.394041259765625,7.4286394119262695,4.028234004974365,7.9794416427612305
1701104962253037800,0.411037841796875,7.755130767822266,4.861639499664307,7.040794372558594
1701104962270023400,0.4280234375,7.327427864074707,5.461643695831299,5.936259746551514
1701104962287016400,0.445016357421875,6.749445915222168,5.746077060699463,5.89605188369751
1701104962304009000,0.462009033203125,6.288417339324951,6.052096843719482,6.671883583068848
1701104962321005000,0.479005126953125,5.616745948791504,6.33787202835083,7.067152500152588
1701104962337998000,0.495998046875,4.634762763977051,6.536075115203857,7.010878562927246
1701104962354986000,0.512986083984375,4.079980850219727,6.6907267570495605,7.114894866943359
1701104962371977000,0.52997705078125,3.2941246032714844,6.842958450317383,7.880727767944336
1701104962388976600,0.5469765625,2.417724847793579,6.849625587463379,8.994000434875488
1701104962405963300,0.56396337890625,1.6429961919784546,6.866122245788574,9.929237365722656
1701104962422955300,0.580955322265625,1.254554033279419,6.965900421142578,10.244446754455566
1701104962439950800,0.597950927734375,1.2716670036315918,6.9318671226501465,10.063163757324219
1701104962456945400,0.6149453125,2.117607831954956,6.937387943267822,9.754166603088379
1701104962473932000,0.63193212890625,3.26415753364563,6.898637771606445,9.534435272216797
1701104962490927000,0.648927001953125,3.955378532409668,6.795315742492676,9.80965518951416
1701104962507911000,0.665910888671875,3.472135543823242,6.568037033081055,10.436294555664062
1701104962524909600,0.68290966796875,2.7072505950927734,6.338038921356201,11.012971878051758
1701104962541900800,0.69990087890625,2.4688358306884766,6.033323287963867,10.953987121582031
1701104962558891000,0.71689111328125,3.524580955505371,5.70812463760376,10.214197158813477
1701104962575888000,0.733887939453125,5.220859527587891,4.776841163635254,9.892614364624023
1701104962592882200,0.750882080078125,5.988306999206543,3.3346056938171387,11.119288444519043
1701104962609865700,0.76786572265625,5.204049587249756,1.3659124374389648,12.878898620605469
1701104962626868500,0.784868408203125,4.00435733795166,-0.5873475074768066,12.897599220275879
1701104962643857700,0.801857666015625,3.4286670684814453,-2.611630439758301,11.297369003295898
1701104962660851500,0.8188515625,3.9805991649627686,-5.265059471130371,9.722344398498535
1701104962677845500,0.835845458984375,4.762494087219238,-7.471207618713379,8.277067184448242
1701104962694834000,0.852833984375,5.147032260894775,-8.808765411376953,6.511185646057129
1701104962711832800,0.869832763671875,4.585467338562012,-9.204113006591797,4.786094665527344
1701104962728819500,0.8868193359375,3.198951005935669,-9.111308097839355,3.064387321472168
1701104962745804000,0.903803955078125,1.6457066535949707,-9.072148323059082,1.4421463012695312
1701104962762806300,0.92080615234375,0.7758445739746094,-9.103845596313477,-0.20827102661132812
1701104962779799800,0.9377998046875,0.11939859390258789,-9.132071495056152,-1.7895402908325195
1701104962796794400,0.95479443359375,-0.4090704917907715,-8.71176815032959,-3.677000045776367
1701104962813779200,0.971779296875,-1.076646089553833,-8.11620807647705,-5.265644550323486
1701104962830766800,0.988766845703125,-1.8747825622558594,-7.561781883239746,-5.920080661773682
1701104962847767800,1.005767822265625,-3.046870708465576,-7.190457820892334,-6.192621231079102
1701104962864760300,1.02276025390625,-3.942963123321533,-6.857958793640137,-6.478052139282227
1701104962881744400,1.039744384765625,-4.543756008148193,-6.584031581878662,-6.8089447021484375
1701104962898748000,1.056747802734375,-4.758005619049072,-6.388279914855957,-7.289729595184326
1701104962915735800,1.07373583984375,-4.559696674346924,-6.31850528717041,-7.765089511871338
1701104962932731100,1.090731201171875,-3.987947463989258,-6.175214767456055,-7.998146057128906
1701104962949723400,1.107723388671875,-3.361304759979248,-5.909768104553223,-7.731400012969971
1701104962966717400,1.124717529296875,-3.097158193588257,-5.877230644226074,-7.046144485473633
1701104962983706000,1.1417060546875,-3.0512843132019043,-5.846240997314453,-6.919614315032959
1701104963000700400,1.158700439453125,-2.1838083267211914,-6.101319313049316,-6.961977481842041
1701104963017692200,1.175692138671875,-0.38886451721191406,-6.652294635772705,-6.714625835418701
1701104963034679300,1.19267919921875,1.094498634338379,-7.040389060974121,-6.208746433258057
1701104963051682000,1.20968212890625,1.322249412536621,-7.664817810058594,-4.730026721954346
1701104963068672800,1.2266728515625,1.0551334619522095,-8.21164321899414,-2.412716865539551
1701104963085651700,1.243651611328125,1.2438912391662598,-8.64108657836914,0.07133197784423828
1701104963102656000,1.260656005859375,1.449106216430664,-9.28800106048584,2.666769027709961
1701104963119648000,1.27764794921875,1.0112559795379639,-9.805912017822266,4.641407012939453
1701104963136641500,1.2946416015625,0.728445827960968,-9.121956825256348,5.944598197937012
1701104963153632500,1.311632568359375,0.49129992723464966,-7.301876544952393,6.145745277404785
1701104963170622700,1.328622802734375,0.0799713134765625,-5.0699567794799805,6.7104339599609375
1701104963187619600,1.34561962890625,0.5852582454681396,-3.437950611114502,8.381357192993164
1701104963204607700,1.362607666015625,1.580254077911377,-2.2495803833007812,9.305276870727539
1701104963221604600,1.3796044921875,2.316481590270996,-1.4441919326782227,8.9617919921875
1701104963238597400,1.396597412109375,2.542649269104004,-0.9029302597045898,8.130596160888672
1701104963255583200,1.413583251953125,2.317094564437866,-0.23753118515014648,7.368009090423584
1701104963272582100,1.43058203125,1.765817642211914,0.5742354393005371,6.765731334686279
1701104963289572400,1.447572265625,1.4904941320419312,1.3230395317077637,7.060127258300781
1701104963306566700,1.464566650390625,1.8712992668151855,2.4778900146484375,7.403719425201416
1701104963323554800,1.481554931640625,2.603151798248291,3.632204532623291,7.62489128112793
1701104963340549400,1.49854931640625,3.0820655822753906,4.7634687423706055,7.266077995300293
1701104963357543700,1.515543701171875,3.3698253631591797,5.787209510803223,6.467849254608154
1701104963374532000,1.532531982421875,2.7283244132995605,6.542757034301758,5.891006946563721
1701104963391527200,1.549527099609375,1.9055793285369873,6.737154483795166,6.292031764984131
1701104963408520700,1.566520751953125,1.6022627353668213,7.332768440246582,7.0196356773376465
1701104963425509600,1.583509521484375,1.1769169569015503,7.681087493896484,7.494442939758301
1701104963442505000,1.6005048828125,0.5846644639968872,7.933937072753906,7.517374038696289
1701104963459497000,1.6174970703125,0.09552055597305298,8.196359634399414,7.354846000671387
1701104963476490800,1.63449072265625,-0.5057840943336487,8.296274185180664,7.61597204208374
1701104963493479200,1.651479248046875,-1.0465370416641235,8.15861988067627,8.16704273223877
1701104963510474200,1.66847412109375,-0.8945030570030212,7.90435791015625,8.908173561096191
1701104963527468500,1.685468505859375,-0.18553835153579712,7.375816822052002,10.54519271850586
1701104963544449000,1.702448974609375,0.07223951816558838,7.054550647735596,11.69063949584961
1701104963561449000,1.719448974609375,-0.41813063621520996,6.740492820739746,11.414077758789062
1701104963578448100,1.7364482421875,-0.6979812383651733,6.115472793579102,10.713022232055664
1701104963595434200,1.753434326171875,0.4927283525466919,4.975757122039795,11.352275848388672
1701104963612429000,1.770428955078125,2.5489957332611084,3.3360047340393066,13.06776237487793
1701104963629421300,1.78742138671875,3.900029420852661,1.7087907791137695,14.381134033203125
1701104963646415600,1.80441552734375,4.010941505432129,1.318608283996582,14.040453910827637
1701104963663401500,1.8214013671875,3.495246410369873,2.097203254699707,13.156490325927734
1701104963680403700,1.83840380859375,2.9536514282226562,3.2010135650634766,12.457752227783203
1701104963697392600,1.855392578125,2.8414649963378906,3.338585376739502,11.644941329956055
1701104963714380800,1.872380859375,3.1732616424560547,1.7572407722473145,11.102807998657227
1701104963731365600,1.88936572265625,3.606440544128418,-0.4533271789550781,10.084234237670898
1701104963748367000,1.9063671875,3.6667823791503906,-2.486149311065674,8.239714622497559
1701104963765361000,1.92336083984375,3.4025044441223145,-3.697686195373535,5.974996089935303
1701104963782355500,1.94035546875,3.1390583515167236,-4.110530376434326,3.732111930847168
1701104963799354400,1.957354248046875,3.1200196743011475,-4.104125499725342,1.8082189559936523
1701104963816355300,1.974355224609375,3.174175262451172,-3.764883041381836,0.14864349365234375
1701104963833323800,1.99132373046875,3.1167194843292236,-3.267944812774658,-1.2998080253601074
1701104963850322700,2.00832275390625,2.8046281337738037,-2.6631455421447754,-2.6447343826293945
1701104963867320600,2.025320556640625,2.521908760070801,-2.375659465789795,-3.0280189514160156
1701104963884291600,2.04229150390625,2.1953752040863037,-2.216912031173706,-3.0868616104125977
1701104963901307100,2.05930712890625,2.0192153453826904,-2.059072256088257,-3.2709693908691406
1701104963918294500,2.07629443359375,1.7810814380645752,-1.9690172672271729,-3.9731950759887695
1701104963935283500,2.093283447265625,1.5415968894958496,-1.9671461582183838,-4.952249050140381
1701104963952267800,2.110267822265625,1.522559642791748,-2.0929269790649414,-5.690923690795898
1701104963969270300,2.127270263671875,1.79245924949646,-2.2698779106140137,-5.93754243850708
1701104963986264600,2.1442646484375,2.060804843902588,-2.5727438926696777,-5.579368591308594
1701104964003253000,2.1612529296875,2.409374713897705,-3.017404079437256,-4.767482757568359
1701104964020245500,2.17824560546875,3.1424055099487305,-3.5185770988464355,-3.7682552337646484
1701104964037243600,2.19524365234375,3.8609633445739746,-4.283198356628418,-2.678722381591797
1701104964054230000,2.21222998046875,4.259976863861084,-4.90247917175293,-1.9680852890014648
1701104964071214800,2.22921484375,4.416127681732178,-5.6272358894348145,-1.2551984786987305
1701104964088209000,2.246208984375,4.529733657836914,-6.296100616455078,-0.8159074783325195
1701104964105210000,2.263210205078125,4.284778594970703,-7.0177531242370605,-0.5573406219482422
1701104964122203000,2.280202880859375,4.030256271362305,-7.66707706451416,-0.49825477600097656
1701104964139195000,2.29719482421875,3.620077133178711,-8.457795143127441,-0.37201499938964844
1701104964156188700,2.314188720703125,3.0483641624450684,-9.195953369140625,-0.09239006042480469
1701104964173177000,2.331177001953125,2.554529905319214,-9.143247604370117,0.18118667602539062
1701104964190161700,2.34816162109375,1.8699932098388672,-8.242000579833984,0.5063543319702148
1701104964207166500,2.36516650390625,1.2497913837432861,-6.8937602043151855,0.8518733978271484
1701104964224159200,2.3821591796875,1.5524555444717407,-5.3760175704956055,1.2496767044067383
1701104964241149400,2.3991494140625,2.182990550994873,-4.143824577331543,1.5179119110107422
1701104964258143500,2.4161435546875,2.5638587474823,-3.169900417327881,1.8380680084228516
1701104964275132000,2.4331318359375,2.527163028717041,-2.7195839881896973,2.3553829193115234
1701104964292127500,2.45012744140625,2.309786796569824,-2.21720552444458,2.7273216247558594
1701104964309119200,2.467119140625,1.601065754890442,-1.5377240180969238,3.1857590675354004
1701104964326113500,2.484113525390625,0.647979736328125,-0.6961526870727539,3.824949264526367
1701104964343096000,2.501095947265625,0.2483919858932495,0.4299159049987793,4.4942097663879395
1701104964360097500,2.51809765625,0.35684382915496826,1.6704111099243164,5.002336502075195
1701104964377086700,2.535086669921875,0.573329746723175,2.8545212745666504,5.054671764373779
1701104964394079200,2.552079345703125,0.8186444044113159,3.8137149810791016,4.849608898162842
1701104964411078100,2.569078125,1.0549448728561401,4.290270805358887,5.0168633460998535
1701104964428068000,2.586068115234375,1.4538919925689697,4.577740669250488,6.440861701965332
1701104964445057000,2.60305712890625,2.070632219314575,5.349681854248047,7.952740669250488
1701104964462048000,2.620048095703125,2.065420389175415,6.189835548400879,8.357477188110352
1701104964479046100,2.637046142578125,1.580554723739624,6.804239749908447,8.27950382232666
1701104964496035600,2.65403564453125,1.2771790027618408,7.053091049194336,8.30801010131836
1701104964513027600,2.671027587890625,1.5960078239440918,7.0733442306518555,8.768835067749023
1701104964530016500,2.6880166015625,2.479551076889038,6.805920600891113,9.999664306640625
1701104964547014700,2.7050146484375,3.622796058654785,6.765758991241455,10.867158889770508
1701104964564004400,2.72200439453125,3.8597235679626465,6.575347900390625,10.405473709106445
1701104964581001500,2.73900146484375,3.33541202545166,6.509487152099609,9.265893936157227
1701104964597993200,2.7559931640625,3.157653331756592,6.639169692993164,8.747249603271484
1701104964614980000,2.77297998046875,3.619682788848877,6.595248222351074,9.51108169555664
1701104964631977000,2.78997705078125,4.2158098220825195,6.141057968139648,10.92782974243164
1701104964648968700,2.80696875,4.4336771965026855,5.518030166625977,11.361129760742188
1701104964665959000,2.823958984375,4.324865818023682,4.380756855010986,11.000478744506836
1701104964682954200,2.840954345703125,4.5717339515686035,3.0632495880126953,10.573182106018066
1701104964699943400,2.857943359375,5.383373260498047,2.5077662467956543,10.591837882995605
1701104964716941300,2.87494140625,5.989840984344482,2.918452739715576,10.943605422973633
1701104964733928000,2.891927978515625,6.036953926086426,3.7215943336486816,11.216385841369629
1701104964750923300,2.90892333984375,5.943908214569092,4.006414413452148,11.060201644897461
1701104964767916800,2.925916748046875,5.713493347167969,3.005096912384033,11.126962661743164
1701104964784903400,2.9429033203125,4.865317344665527,1.3508806228637695,11.074466705322266
1701104964801903000,2.959903076171875,3.645169734954834,-0.1305379867553711,10.523401260375977
1701104964818897200,2.976897216796875,2.9771547317504883,-1.1335692405700684,9.5611572265625
1701104964835883000,2.993883056640625,3.2318825721740723,-1.8162837028503418,8.34693717956543
1701104964852881700,3.010881591796875,3.7001540660858154,-2.6726107597351074,7.49252462387085
1701104964869866800,3.02786669921875,3.6229751110076904,-3.2651100158691406,6.378673553466797
1701104964886854000,3.04485400390625,2.975566864013672,-3.35451602935791,4.6072821617126465
1701104964903852300,3.061852294921875,2.195321559906006,-3.164215087890625,2.6261801719665527
1701104964920847000,3.07884716796875,1.7780207395553589,-2.9659647941589355,0.8817691802978516
1701104964937841400,3.09584130859375,1.8651331663131714,-3.1485376358032227,-0.10772514343261719
1701104964954821000,3.112821044921875,2.2203660011291504,-3.314573287963867,-1.0210275650024414
1701104964971825200,3.1298251953125,2.7141518592834473,-3.3232617378234863,-2.1231155395507812
1701104964988818200,3.146818115234375,2.910010814666748,-3.3037784099578857,-3.173492431640625
1701104965005800000,3.163800048828125,2.9944143295288086,-3.2684133052825928,-4.133884429931641
1701104965022801000,3.18080078125,3.0359795093536377,-3.305598020553589,-4.959763526916504
1701104965039797500,3.197797607421875,3.22690749168396,-3.736213207244873,-5.16113805770874
1701104965056787700,3.21478759765625,3.6830716133117676,-4.462203025817871,-4.942054748535156
1701104965073770200,3.231770263671875,4.383083820343018,-5.0075578689575195,-4.949437141418457
1701104965090769400,3.248769287109375,4.998734474182129,-5.535682678222656,-4.882875919342041
1701104965107752200,3.265752197265625,5.211398124694824,-6.217327117919922,-4.52744197845459
1701104965124757800,3.2827578125,5.267786026000977,-6.830183506011963,-4.027373790740967
1701104965141750000,3.29975,5.342307090759277,-7.111642360687256,-3.147732734680176
1701104965158742800,3.31674267578125,4.986452102661133,-7.332938194274902,-1.4993181228637695
1701104965175734500,3.333734619140625,4.186575889587402,-7.64940071105957,-0.20311927795410156
1701104965192727300,3.350727294921875,3.2340540885925293,-8.182116508483887,0.1685953140258789
1701104965209719800,3.3677197265625,2.6583356857299805,-8.507424354553223,-0.49993228912353516
1701104965226712600,3.384712646484375,2.560253858566284,-8.200922012329102,-1.5327339172363281
1701104965243714800,3.40171484375,2.57486891746521,-7.132922649383545,-1.8843178749084473
1701104965260697000,3.418697021484375,2.205306053161621,-5.957612991333008,-0.7821483612060547
1701104965277689600,3.435689697265625,1.0937155485153198,-4.942662715911865,0.9249696731567383
1701104965294682400,3.452682373046875,-0.5216844081878662,-4.123032093048096,2.1441144943237305
1701104965311674000,3.469674072265625,-1.8374196290969849,-3.392676830291748,2.3229331970214844
1701104965328667100,3.486667236328125,-2.322079658508301,-2.725257396697998,1.633549690246582
1701104965345658000,3.503658203125,-2.0865163803100586,-2.051048755645752,0.6117105484008789
1701104965362652400,3.52065234375,-1.2130484580993652,-1.2832674980163574,0.1332998275756836
1701104965379644000,3.537643798828125,-0.18155670166015625,-0.6195621490478516,0.7059593200683594
1701104965396624000,3.554623779296875,0.8457461595535278,0.20357227325439453,1.528029441833496
1701104965413625300,3.571625244140625,1.4720232486724854,1.0986762046813965,1.874922275543213
1701104965430620200,3.5886201171875,1.68217134475708,1.9480013847351074,2.0605716705322266
1701104965447616300,3.6056162109375,1.5620980262756348,2.61427640914917,2.507317543029785
1701104965464599000,3.62259912109375,1.2832804918289185,3.2116713523864746,3.1490259170532227
1701104965481588500,3.63958837890625,1.2176361083984375,3.777157783508301,4.1289496421813965
1701104965498581800,3.656581787109375,1.4498376846313477,4.203706741333008,5.5363945960998535
1701104965515576000,3.673576171875,1.4935543537139893,4.815036773681641,7.097989559173584
1701104965532567600,3.690567626953125,1.2800321578979492,5.453596115112305,8.519649505615234
1701104965549564000,3.70756396484375,0.7823656797409058,6.035724639892578,9.329314231872559
1701104965566552600,3.724552490234375,0.540543794631958,6.066039562225342,9.79306411743164
1701104965583551500,3.741551513671875,1.2300692796707153,5.850959777832031,10.09172248840332
1701104965600547800,3.7585478515625,2.501847743988037,5.6620097160339355,10.885428428649902
1701104965617528300,3.7755283203125,3.4969162940979004,5.916454315185547,11.87063980102539
1701104965634520300,3.792520263671875,3.64324951171875,6.515786170959473,12.171134948730469
1701104965651520300,3.809520263671875,3.426299810409546,6.787837982177734,12.191061019897461
1701104965668511200,3.82651123046875,3.446349620819092,6.562383651733398,12.24613094329834
1701104965685499400,3.84349951171875,4.0372819900512695,5.815125942230225,12.664475440979004
1701104965702498300,3.860498291015625,4.891565799713135,4.785480976104736,13.560578346252441
1701104965719493000,3.8774931640625,5.644989967346191,4.359427452087402,14.672133445739746
1701104965736480000,3.89447998046875,5.768858909606934,4.794249534606934,15.12244987487793
1701104965753478000,3.911477783203125,4.946437835693359,5.145583152770996,14.699716567993164
1701104965770471200,3.92847119140625,3.5103394985198975,4.838812351226807,13.577230453491211
1701104965787462700,3.945462646484375,2.3386905193328857,3.814763069152832,12.294748306274414
1701104965804445000,3.96244482421875,1.6822683811187744,2.364609718322754,11.2365083694458
1701104965821443600,3.979443603515625,1.373565673828125,0.9454140663146973,10.402921676635742
1701104965838444800,3.99644482421875,1.4613819122314453,-0.09413719177246094,9.727630615234375
1701104965855432400,4.013432373046875,1.6529560089111328,-0.9340529441833496,8.904064178466797
1701104965872425200,4.03042529296875,1.9657461643218994,-1.5763301849365234,7.826136112213135
1701104965889417500,4.04741748046875,2.209054708480835,-1.9912734031677246,6.189288139343262
1701104965906410200,4.06441015625,2.4109292030334473,-2.160369873046875,4.110614776611328
1701104965923402200,4.08140234375,2.5402121543884277,-2.1913671493530273,1.9466047286987305
1701104965940395000,4.09839501953125,2.8162713050842285,-2.0477094650268555,0.20811176300048828
1701104965957387300,4.11538720703125,2.956916332244873,-1.9737873077392578,-0.9972615242004395
1701104965974380000,4.132380126953125,3.0660343170166016,-1.9583749771118164,-1.819930076599121
1701104965991372000,4.1493720703125,3.2247819900512695,-2.0141701698303223,-2.523364543914795
1701104966008364800,4.16636474609375,3.2297329902648926,-2.062145233154297,-3.4458723068237305
1701104966025357300,4.183357421875,3.31681489944458,-2.0825746059417725,-4.298600673675537
1701104966042349800,4.200349853515625,3.460921049118042,-2.27593731880188,-4.464997291564941
1701104966059341600,4.217341552734375,3.7334249019622803,-2.4924325942993164,-4.09430456161499
1701104966076334600,4.23433447265625,3.9712817668914795,-2.894650936126709,-3.3250856399536133
1701104966093326800,4.251326904296875,4.094448089599609,-3.406055212020874,-2.534848213195801
1701104966110319600,4.268319580078125,4.074928283691406,-4.340816020965576,-1.6269493103027344
1701104966127311600,4.2853115234375,4.221266269683838,-5.336447715759277,-0.7071266174316406
1701104966144298200,4.30229833984375,4.664430141448975,-6.152288436889648,0.20389175415039062
1701104966161296600,4.319296630859375,4.964303016662598,-7.060050964355469,1.3356828689575195
1701104966178289400,4.336289306640625,5.1165313720703125,-7.449082374572754,2.2254257202148438
1701104966195281400,4.353281494140625,5.054250717163086,-7.654529571533203,2.703245162963867
1701104966212274000,4.37027392578125,4.531495094299316,-7.736966609954834,2.26418399810791
1701104966229266700,4.3872666015625,3.654921054840088,-8.2089262008667,1.16339111328125
1701104966246259200,4.40425927734375,2.8293614387512207,-8.616128921508789,-0.7480916976928711
1701104966263247000,4.4212470703125,2.4757580757141113,-8.353379249572754,-3.4255475997924805
1701104966280245200,4.438245361328125,2.6512084007263184,-7.093891143798828,-5.8747782707214355
1701104966297238800,4.45523876953125,2.445841073989868,-5.463517189025879,-6.895260334014893
1701104966314229000,4.47222900390625,1.8424224853515625,-4.224943161010742,-5.9086503982543945
1701104966331221000,4.489220947265625,1.0101587772369385,-3.4976022243499756,-4.058547496795654
1701104966348213800,4.5062138671875,0.3281618356704712,-3.186732292175293,-2.7301855087280273
1701104966365206000,4.5232060546875,0.36197924613952637,-3.2739925384521484,-2.2073488235473633
1701104966382198800,4.54019873046875,1.0453816652297974,-3.252549886703491,-1.9455804824829102
1701104966399190800,4.557190673828125,1.516092300415039,-3.1054725646972656,-1.3002901077270508
1701104966416183300,4.574183349609375,1.178609013557434,-2.808408260345459,-0.2220287322998047
1701104966433175800,4.59117578125,0.6383064389228821,-2.2221474647521973,0.9517583847045898
1701104966450168600,4.60816845703125,0.33037781715393066,-1.6885600090026855,2.28983736038208
1701104966467160600,4.62516064453125,0.7097426652908325,-1.0176692008972168,3.6785402297973633
1701104966484163000,4.6421630859375,1.4557933807373047,-0.2733135223388672,5.179952144622803
1701104966501145600,4.6591455078125,2.3181185722351074,0.5166893005371094,6.8115105628967285
1701104966518138000,4.67613818359375,3.127570152282715,1.307194709777832,8.439903259277344
1701104966535130400,4.69313037109375,3.3051528930664062,2.3333940505981445,9.641641616821289
1701104966552123000,4.710122802734375,2.7230401039123535,3.4342641830444336,10.06396770477295
1701104966569115400,4.727115478515625,2.2436976432800293,4.322459697723389,9.99759292602539
1701104966586097700,4.74409765625,2.528928279876709,4.7599334716796875,10.452507019042969
1701104966603097900,4.761097900390625,3.004241943359375,4.929399490356445,11.594444274902344
1701104966620092200,4.778092041015625,2.8842272758483887,5.1475019454956055,12.93710994720459
1701104966637087700,4.795087646484375,1.8578941822052002,5.571498870849609,13.474549293518066
1701104966654077700,4.81207763671875,0.7408499121665955,6.23814582824707,13.414324760437012
1701104966671069700,4.829069580078125,0.2083357572555542,6.651566028594971,13.692644119262695
1701104966688062500,4.8460625,0.6132436394691467,6.462155818939209,14.61574935913086
1701104966705055000,4.863054931640625,1.512618064880371,6.282627105712891,15.55739974975586
1701104966722047700,4.8800478515625,2.334137201309204,5.488391876220703,16.480695724487305
1701104966739039500,4.89703955078125,3.0735459327697754,4.591724872589111,16.99285125732422
1701104966756032300,4.9140322265625,3.453047275543213,4.282694339752197,16.792015075683594
1701104966773024800,4.931024658203125,3.2520506381988525,4.7120537757873535,15.928664207458496
1701104966790017300,4.948017333984375,2.5513529777526855,5.162100315093994,15.07300090789795
1701104966807009300,4.96500927734375,1.8157579898834229,4.732388496398926,14.371641159057617
1701104966824002000,4.982001953125,1.3813862800598145,3.3380489349365234,13.445070266723633
1701104966840994600,4.99899462890625,1.3907557725906372,1.3632917404174805,12.36886215209961
1701104966857987000,5.015987060546875,1.6428561210632324,-0.6280460357666016,11.295209884643555
1701104966874979000,5.03297900390625,1.939889669418335,-2.098505973815918,10.208841323852539
1701104966891972000,5.04997216796875,2.3842196464538574,-2.7866907119750977,8.967187881469727
1701104966908964000,5.066964111328125,2.63417649269104,-2.886223793029785,7.573226451873779
1701104966925956900,5.083956787109375,2.715928077697754,-2.617194652557373,5.849381923675537
1701104966942948900,5.100948974609375,2.6526942253112793,-2.4590158462524414,4.045779228210449
1701104966959938800,5.117938720703125,2.7469141483306885,-2.418447494506836,2.2103257179260254
1701104966976936700,5.134936767578125,2.962991237640381,-2.577599048614502,0.7365865707397461
1701104966993922800,5.1519228515625,3.2985329627990723,-2.7387685775756836,-0.41542768478393555
1701104967010922500,5.168922607421875,3.5002059936523438,-3.0084071159362793,-1.1077446937561035
1701104967027911400,5.185911376953125,3.3996777534484863,-3.3083295822143555,-1.6084480285644531
1701104967044904000,5.202904052734375,3.3501832485198975,-3.63931941986084,-2.149860382080078
1701104967061898000,5.21989794921875,3.5407562255859375,-3.9100797176361084,-3.0177135467529297
1701104967078876200,5.236876220703125,3.80692458152771,-4.143312454223633,-3.661708354949951
1701104967095881000,5.253880859375,4.0545430183410645,-4.5280046463012695,-3.6023011207580566
1701104967112873500,5.27087353515625,4.193547248840332,-5.1758317947387695,-2.99552059173584
1701104967129866200,5.2878662109375,4.347630500793457,-5.938071250915527,-2.2418012619018555
1701104967146858200,5.304858154296875,4.652690410614014,-6.4992475509643555,-1.7241334915161133
1701104967163850800,5.321850830078125,5.1653547286987305,-6.884448528289795,-1.586625576019287
1701104967180846800,5.338846923828125,5.980498313903809,-7.16164493560791,-1.8162336349487305
1701104967197836000,5.3558359375,6.602643966674805,-7.519725799560547,-1.8313641548156738
1701104967214827800,5.372827880859375,6.637290000915527,-7.876044750213623,-1.742814064025879
1701104967231820500,5.389820556640625,6.024100303649902,-8.341954231262207,-1.960005760192871
1701104967248813000,5.40681298828125,5.193305015563965,-8.605770111083984,-3.1568784713745117
1701104967265795300,5.42379541015625,4.72576379776001,-8.14721965789795,-4.982600212097168
1701104967282797600,5.440797607421875,4.366186141967773,-6.809919834136963,-6.261224746704102
1701104967299790300,5.457790283203125,3.4518351554870605,-5.374779224395752,-5.77017879486084
1701104967316782800,5.474782958984375,1.9829814434051514,-4.355230331420898,-3.8673386573791504
1701104967333775400,5.491775390625,0.4569786787033081,-3.695326089859009,-2.0701684951782227
1701104967350751000,5.5087509765625,-0.6247110366821289,-3.220324993133545,-1.0608234405517578
1701104967367760100,5.525760009765625,-1.2087208032608032,-2.948406934738159,-0.7431221008300781
1701104967384752600,5.542752685546875,-1.2920552492141724,-2.6615543365478516,-0.973139762878418
1701104967401745400,5.559745361328125,-1.0330177545547485,-2.206965923309326,-1.0180635452270508
1701104967418737200,5.576737060546875,-0.6776338815689087,-1.6361241340637207,-0.4541950225830078
1701104967435729700,5.593729736328125,-0.379158616065979,-0.9690275192260742,0.43161582946777344
1701104967452712000,5.6107119140625,-0.01415407657623291,-0.30964183807373047,1.4135866165161133
1701104967469715200,5.627715087890625,0.4196527600288391,0.3775162696838379,2.1860804557800293
1701104967486707200,5.644707275390625,1.0063668489456177,1.0924625396728516,2.9420580863952637
1701104967503699700,5.66169970703125,1.7107540369033813,1.859208106994629,3.8647313117980957
1701104967520692200,5.678692138671875,2.0187275409698486,2.7286953926086426,5.3576178550720215
1701104967537684700,5.695684814453125,1.5219063758850098,3.603160858154297,6.881128787994385
1701104967554676700,5.7126767578125,0.6131267547607422,4.448620796203613,8.092105865478516
1701104967571669500,5.72966943359375,-0.3439406752586365,5.2201924324035645,9.011863708496094
1701104967588649700,5.746649658203125,-1.0447484254837036,5.599273681640625,9.779569625854492
1701104967605642800,5.763642822265625,-1.2574141025543213,5.703766822814941,10.240833282470703
1701104967622635300,5.78063525390625,-0.9528604745864868,5.485735893249512,10.60812759399414
1701104967639641300,5.797641357421875,-0.39577746391296387,5.136004447937012,11.134271621704102
1701104967656631600,5.814631591796875,0.10456079244613647,4.657392501831055,11.90509033203125
1701104967673624300,5.831624267578125,0.43051326274871826,4.298218727111816,12.240405082702637
1701104967690616000,5.848615966796875,0.8572496771812439,4.139305114746094,12.092934608459473
1701104967707609300,5.865609375,1.8107695579528809,3.517056941986084,12.325304985046387
1701104967724598800,5.882598876953125,2.947781801223755,2.831423759460449,12.580758094787598
1701104967741593900,5.89959375,3.923468828201294,2.137631893157959,13.454803466796875
1701104967758588700,5.916588623046875,4.482147216796875,1.890481948852539,14.662681579589844
1701104967775571500,5.933571533203125,4.443145751953125,2.5905628204345703,15.113005638122559
1701104967792569600,5.950569580078125,3.543333053588867,3.742020606994629,14.530960083007812
1701104967809565200,5.967565185546875,2.1696133613586426,4.603970527648926,13.006326675415039
1701104967826548700,5.984548828125,1.0944738388061523,4.669709205627441,11.0336275100708
1701104967843539000,6.0015390625,0.6558951139450073,3.917466163635254,9.155746459960938
1701104967860537000,6.018537109375,0.8051008582115173,2.581223964691162,7.453683376312256
1701104967877528800,6.03552880859375,1.3844555616378784,1.189645767211914,6.016194820404053
1701104967894526700,6.052526611328125,2.0688259601593018,0.17789649963378906,4.891486644744873
1701104967911520000,6.06952001953125,2.5104761123657227,-0.5384688377380371,4.215960502624512
1701104967928506400,6.08650634765625,2.290151834487915,-0.7735323905944824,3.6807141304016113
1701104967945503500,6.10350341796875,1.6627957820892334,-0.6873302459716797,2.8935885429382324
1701104967962487300,6.1204873046875,1.1588891744613647,-0.41561365127563477,1.8387413024902344
1701104967979488000,6.137488037109375,1.1676229238510132,-0.5565814971923828,0.9014439582824707
1701104967996480300,6.154480224609375,1.739467978477478,-0.9699020385742188,-0.24477386474609375
1701104968013473000,6.17147314453125,2.878943920135498,-1.6781625747680664,-1.533071517944336
1701104968030465000,6.188465087890625,3.9637956619262695,-2.7134079933166504,-2.440516471862793
1701104968047457800,6.205457763671875,4.649713516235352,-3.193551540374756,-3.451374053955078
1701104968064439600,6.222439453125,4.87095308303833,-3.108368396759033,-4.6572747230529785
1701104968081445000,6.239445068359375,4.564810276031494,-2.9751546382904053,-5.553067207336426
1701104968098432500,6.2564326171875,4.127614498138428,-2.9667463302612305,-6.280006408691406
1701104968115427600,6.273427490234375,4.295469760894775,-3.0476126670837402,-6.896544456481934
1701104968132419800,6.290419921875,4.864335536956787,-3.253126859664917,-7.1088762283325195
1701104968149410000,6.30741015625,4.782782077789307,-3.514955997467041,-7.037379264831543
1701104968166404600,6.324404541015625,3.683332681655884,-3.8349862098693848,-6.806764602661133
1701104968183400000,6.34139990234375,2.144944667816162,-4.192382335662842,-6.276986598968506
1701104968200389600,6.3583896484375,0.7506071329116821,-4.660568714141846,-5.290801048278809
1701104968217382700,6.375382568359375,-0.18957343697547913,-5.204445838928223,-4.0966620445251465
1701104968234374100,6.3923740234375,-0.4192829430103302,-5.471524715423584,-3.0743255615234375
1701104968251367000,6.409366943359375,-0.29334521293640137,-5.574338436126709,-2.5869483947753906
1701104968268359400,6.426359375,-0.27683988213539124,-5.793237686157227,-2.109577178955078
1701104968285339100,6.443339111328125,-0.49955716729164124,-5.949275016784668,-1.327763557434082
1701104968302347000,6.460346923828125,-0.7084616422653198,-5.89748477935791,-0.16465473175048828
1701104968319337000,6.4773369140625,-0.8705790638923645,-5.842069625854492,1.3089714050292969
1701104968336329200,6.4943291015625,-1.0222381353378296,-5.73185396194458,2.5798540115356445
1701104968353321700,6.51132177734375,-0.8816578388214111,-5.132028579711914,3.3859987258911133
1701104968370314200,6.528314208984375,-0.37343430519104004,-3.707456588745117,3.9421215057373047
1701104968387309800,6.545309814453125,0.14326146245002747,-1.9125919342041016,4.888219833374023
1701104968404295200,6.562295166015625,0.008072197437286377,-0.4029698371887207,6.690810203552246
1701104968421291800,6.579291748046875,-1.0862356424331665,0.9005236625671387,8.323503494262695
1701104968438283500,6.596283447265625,-2.795161247253418,1.9459505081176758,9.219714164733887
1701104968455275800,6.61327587890625,-4.915785312652588,3.0393319129943848,8.67108154296875
1701104968472269000,6.63026904296875,-7.266515731811523,3.8963184356689453,7.217715740203857
1701104968489261300,6.64726123046875,-8.03563117980957,4.628948211669922,6.227965831756592
1701104968506253300,6.66425341796875,-6.668295383453369,4.830900192260742,6.703207969665527
1701104968523246000,6.68124609375,-4.174707412719727,4.844665050506592,7.920920372009277
1701104968540235800,6.69823583984375,-2.1921989917755127,4.961056709289551,9.159854888916016
1701104968557231600,6.715231689453125,-1.1078627109527588,5.234464168548584,9.370637893676758
1701104968574225200,6.73222509765625,-1.0209918022155762,5.455090045928955,8.436737060546875
1701104968591215600,6.749215576171875,-1.105400562286377,5.474259853363037,7.370542526245117
1701104968608208100,6.7662080078125,-0.8675791621208191,5.433539390563965,6.5768232345581055
1701104968625197600,6.783197509765625,-0.32031530141830444,5.505647659301758,5.943792819976807
1701104968642186200,6.800186279296875,0.173150897026062,5.6882781982421875,5.266752243041992
1701104968659185400,6.817185302734375,0.7097865343093872,5.795124530792236,4.720545768737793
1701104968676167700,6.834167724609375,1.1413934230804443,5.553600788116455,4.398487091064453
1701104968693170700,6.851170654296875,1.154093861579895,5.096816062927246,3.877584934234619
1701104968710162700,6.86816259765625,0.7130241394042969,4.479114532470703,3.0983147621154785
1701104968727155500,6.885155517578125,0.050513386726379395,3.6753830909729004,2.3012542724609375
1701104968744130000,6.902130126953125,-0.34907853603363037,2.7649941444396973,1.3463678359985352
1701104968761140200,6.91914013671875,-0.42498958110809326,1.8708953857421875,0.32971858978271484
1701104968778132200,6.93613232421875,-0.5039983987808228,1.4213743209838867,-0.874359130859375
1701104968795125000,6.953125,-0.8208003640174866,1.1771798133850098,-1.7404451370239258
1701104968812101400,6.970101318359375,-1.5810258388519287,0.8041810989379883,-2.0800557136535645
1701104968829110300,6.9871103515625,-2.492954730987549,0.38675737380981445,-2.3565149307250977
1701104968846099700,7.004099609375,-2.9275219440460205,0.42725515365600586,-2.697075366973877
1701104968863097600,7.02109765625,-2.8436903953552246,0.9133596420288086,-2.808554172515869
1701104968880085800,7.038085693359375,-2.226516008377075,1.4026398658752441,-1.9761643409729004
1701104968897077000,7.055076904296875,-1.7516239881515503,1.6053385734558105,-0.5685195922851562
1701104968914067700,7.072067626953125,-1.5354080200195312,1.6668148040771484,1.076645851135254
1701104968931059200,7.08905908203125,-1.8587543964385986,1.8731436729431152,1.9759521484375
1701104968948054300,7.10605419921875,-2.5049495697021484,2.1939644813537598,2.315145492553711
1701104968965039900,7.123039794921875,-2.912523031234741,2.460659980773926,2.8702597618103027
1701104968982037500,7.14003759765625,-2.840618133544922,2.3947343826293945,4.116741180419922
1701104968999031300,7.15703125,-2.6688108444213867,1.631500244140625,5.921013832092285
1701104969016017000,7.174016845703125,-2.5104260444641113,1.2221479415893555,7.239737510681152
1701104969033014000,7.191013916015625,-2.2087957859039307,0.6713962554931641,8.692621231079102
1701104969050012400,7.208012451171875,-1.0684468746185303,0.3487248420715332,9.966781616210938
1701104969066995200,7.2249951171875,0.7378981113433838,0.5364418029785156,11.196435928344727
1701104969083992000,7.241991943359375,2.058779001235962,1.2563128471374512,12.312966346740723
1701104969100983000,7.258983154296875,2.325423002243042,2.40472412109375,12.698784828186035
1701104969117975300,7.275975341796875,1.5619244575500488,3.3165459632873535,12.31129264831543
1701104969134975000,7.29297509765625,0.498227596282959,3.466829299926758,11.259729385375977
1701104969151966200,7.30996630859375,0.05187416076660156,3.020725727081299,9.546123504638672
1701104969168959000,7.326958984375,0.29298925399780273,2.284419536590576,7.431093692779541
1701104969185950700,7.34395068359375,1.017183780670166,1.7419347763061523,5.271076679229736
1701104969202932700,7.3609326171875,2.1722283363342285,1.4972577095031738,3.747833728790283
1701104969219933200,7.37793310546875,3.215726375579834,1.299635410308838,2.9837307929992676
1701104969236931300,7.394931396484375,3.4905192852020264,0.9893665313720703,2.419543743133545
1701104969253912800,7.411912841796875,3.042520523071289,0.47390270233154297,1.3686285018920898
1701104969270908700,7.42890869140625,2.681589126586914,-0.06686639785766602,0.13890314102172852
1701104969287908000,7.445908203125,3.4023683071136475,-0.22766351699829102,-0.9725675582885742
1701104969304898300,7.462898193359375,4.9648847579956055,-0.14603328704833984,-1.248082160949707
1701104969321887500,7.479887451171875,6.223667144775391,-0.19777488708496094,-0.7857542037963867
1701104969338885600,7.4968857421875,6.4723734855651855,-0.35648298263549805,-0.46567630767822266
1701104969355875300,7.513875244140625,5.835650444030762,-0.6419918537139893,-0.8277826309204102
1701104969372868000,7.5308681640625,5.131778717041016,-0.6075878143310547,-1.7117204666137695
1701104969389860000,7.547860107421875,4.809635639190674,-0.6444456577301025,-2.3699331283569336
1701104969406847700,7.56484765625,5.01279878616333,-0.7745306491851807,-2.444166660308838
1701104969423844900,7.581844970703125,5.3485846519470215,-1.194894790649414,-1.8249311447143555
1701104969440838000,7.598837890625,5.511350631713867,-1.7157903909683228,-1.1081571578979492
1701104969457829600,7.61582958984375,5.318459510803223,-2.385576009750366,-0.7635354995727539
1701104969474822400,7.632822509765625,4.763889312744141,-2.9906578063964844,-0.9842033386230469
1701104969491810600,7.649810546875,4.019695281982422,-3.5031259059906006,-1.150054931640625
1701104969508807400,7.666807373046875,2.9863994121551514,-4.111663341522217,-1.051243782043457
1701104969525789200,7.6837890625,1.7818505764007568,-4.670114517211914,-1.4273920059204102
1701104969542792200,7.700792236328125,0.4056167006492615,-5.154197692871094,-2.5828027725219727
1701104969559784400,7.717784423828125,-0.6384655237197876,-5.557807922363281,-4.112251281738281
1701104969576777200,7.734777099609375,-1.2988536357879639,-5.752475738525391,-5.273938179016113
1701104969593769200,7.751769287109375,-2.0562262535095215,-5.959051132202148,-5.445500373840332
1701104969610762000,7.768761962890625,-3.2374391555786133,-6.256460189819336,-5.012185573577881
1701104969627754200,7.785754150390625,-4.210815906524658,-6.180591106414795,-4.680625915527344
1701104969644747000,7.8027470703125,-4.512079238891602,-5.6207075119018555,-4.059060096740723
1701104969661735000,7.81973486328125,-4.207777976989746,-5.022751808166504,-3.0696792602539062
1701104969678731500,7.8367314453125,-3.9871177673339844,-4.623408317565918,-2.07515811920166
1701104969695724300,7.853724365234375,-3.9262025356292725,-4.459845542907715,-1.3045597076416016
1701104969712716500,7.870716552734375,-3.694371223449707,-4.37562370300293,-0.7303991317749023
1701104969729708800,7.887708740234375,-3.2384939193725586,-4.2984232902526855,0.04977989196777344
1701104969746698800,7.90469873046875,-2.9537222385406494,-3.8112716674804688,0.6221132278442383
1701104969763696400,7.9216962890625,-2.942854881286621,-2.781836986541748,0.7904148101806641
1701104969780686300,7.938686279296875,-3.045437812805176,-1.5356497764587402,0.8678703308105469
1701104969797678300,7.95567822265625,-3.1380419731140137,-0.3774247169494629,1.1807384490966797
1701104969814671000,7.972671142578125,-3.0458312034606934,0.45409297943115234,1.8814678192138672
1701104969831663400,7.989663330078125,-2.7148118019104004,1.2301111221313477,2.247835159301758
1701104969848656100,8.00665625,-2.5258069038391113,1.6886506080627441,2.106555938720703
1701104969865650700,8.023650634765625,-2.3034512996673584,2.145897388458252,1.860671043395996
1701104969882641000,8.040640869140624,-2.128225803375244,2.514460563659668,1.9288744926452637
1701104969899633200,8.057633056640626,-2.202580690383911,2.816066265106201,2.3934121131896973
1701104969916626000,8.0746259765625,-2.3847579956054688,3.2180724143981934,2.9938297271728516
1701104969933617700,8.09161767578125,-2.7961387634277344,3.472867965698242,3.9396543502807617
1701104969950610400,8.1086103515625,-3.1777405738830566,3.751528739929199,4.803673267364502
1701104969967603000,8.12560302734375,-3.4837164878845215,3.528407335281372,5.629990577697754
1701104969984596700,8.1425966796875,-3.456392765045166,2.930386543273926,6.358130931854248
1701104970001583600,8.15958349609375,-3.1071949005126953,2.4208579063415527,6.719844341278076
1701104970018582800,8.176582763671876,-2.6212401390075684,2.135272979736328,7.028796195983887
1701104970035572700,8.19357275390625,-1.9063507318496704,2.02925968170166,7.048731803894043
1701104970052560400,8.210560302734375,-0.7416468858718872,1.7383999824523926,6.711743354797363
1701104970069555500,8.227555419921876,0.7067673206329346,1.131624698638916,6.397308349609375
1701104970086552000,8.244552001953124,1.4912898540496826,0.45580291748046875,5.814694404602051
1701104970103535400,8.261535400390626,1.3319487571716309,0.3038015365600586,4.460040092468262
1701104970120532500,8.278532470703125,0.7731001377105713,-0.06576395034790039,3.1025514602661133
1701104970137529600,8.295529541015625,0.6414148807525635,-0.921299934387207,2.5603814125061035
1701104970154519800,8.312519775390625,1.4876283407211304,-1.5273628234863281,2.704555034637451
1701104970171512000,8.329511962890624,2.5928215980529785,-1.8206086158752441,3.570366382598877
1701104970188504800,8.3465048828125,3.088773727416992,-1.7992796897888184,4.024224281311035
1701104970205496800,8.363496826171875,3.0147593021392822,-1.7170052528381348,3.5841622352600098
1701104970222489300,8.3804892578125,2.7959136962890625,-2.0338521003723145,2.987466335296631
1701104970239482000,8.397482177734375,2.9101781845092773,-2.2997002601623535,2.8569202423095703
1701104970256474600,8.414474609375,3.4431519508361816,-2.357481002807617,3.576268196105957
1701104970273466600,8.431466552734374,4.109901428222656,-2.6050829887390137,4.99281120300293
1701104970290449200,8.44844921875,4.606104850769043,-3.3778786659240723,5.383907318115234
1701104970307451600,8.46545166015625,4.888994216918945,-4.806502342224121,4.700279235839844
1701104970324433700,8.48243359375,4.946647644042969,-5.951108455657959,3.0679140090942383
1701104970341422800,8.4994228515625,4.865751266479492,-6.277705669403076,1.4786863327026367
1701104970358431500,8.516431396484375,4.5980682373046875,-6.410449028015137,0.6310997009277344
1701104970375419600,8.533419677734376,4.0592942237854,-6.4254560470581055,-0.39313316345214844
1701104970392415500,8.55041552734375,3.1929242610931396,-7.009955406188965,-1.202061653137207
1701104970409406000,8.567406005859375,1.8552149534225464,-7.6179046630859375,-2.313586711883545
1701104970426398700,8.584398681640625,1.1498572826385498,-7.4955830574035645,-3.9608001708984375
1701104970443391000,8.601390869140625,0.957655668258667,-7.177885055541992,-5.171090126037598
1701104970460383700,8.6183837890625,1.1112449169158936,-7.063182830810547,-5.739727020263672
1701104970477374000,8.6353740234375,1.2781403064727783,-7.385217666625977,-5.561636447906494
1701104970494369800,8.652369873046876,1.4503281116485596,-8.072622299194336,-5.023351192474365
1701104970511360800,8.66936083984375,1.7000038623809814,-8.320935249328613,-5.038512229919434
1701104970528349700,8.686349609375,1.912344217300415,-8.435781478881836,-5.159823894500732
1701104970545349000,8.70334912109375,1.9189294576644897,-8.89230728149414,-4.844468116760254
1701104970562338000,8.720338134765624,1.9192074537277222,-9.551742553710938,-4.093148708343506
1701104970579330600,8.73733056640625,1.8496445417404175,-10.09827995300293,-3.5513877868652344
1701104970596322800,8.75432275390625,1.7935775518417358,-10.327500343322754,-3.466574192047119
1701104970613307100,8.77130712890625,2.0246284008026123,-10.13955020904541,-3.6761465072631836
1701104970630307800,8.788307861328125,2.3786959648132324,-10.135412216186523,-3.114288330078125
1701104970647300400,8.80530029296875,2.861388921737671,-10.140226364135742,-1.0791387557983398
1701104970664292900,8.82229296875,3.0186750888824463,-9.858458518981934,1.5209388732910156
1701104970681284900,8.839284912109376,1.5811046361923218,-9.060665130615234,2.4129018783569336
1701104970698277400,8.85627734375,0.34496602416038513,-7.696977138519287,1.1307754516601562
1701104970715270400,8.8732705078125,0.5631011724472046,-6.1849751472473145,-0.47119998931884766
1701104970732262400,8.890262451171875,1.4060051441192627,-4.979589939117432,-0.788299560546875
1701104970749254700,8.907254638671875,1.7413511276245117,-4.040005207061768,0.1841897964477539
1701104970766236700,8.924236572265626,0.9186553955078125,-3.4844233989715576,1.292898178100586
1701104970783239400,8.941239501953126,-0.9269553422927856,-3.105177879333496,1.614675521850586
1701104970800229600,8.958229736328125,-2.7507693767547607,-2.7563304901123047,0.4819507598876953
1701104970817216800,8.975216796875,-3.589601993560791,-2.152050018310547,-1.4253873825073242
1701104970834220300,8.99222021484375,-3.5519158840179443,-1.351289987564087,-2.8738527297973633
1701104970851209200,9.009209228515624,-2.8792502880096436,-0.5636298656463623,-3.2636890411376953
1701104970868202200,9.0262021484375,-1.7462687492370605,0.24203896522521973,-2.610269546508789
1701104970885194000,9.043194091796876,-0.8474481701850891,1.047729253768921,-1.948695182800293
1701104970902186800,9.060186767578125,-0.8504911661148071,1.6958355903625488,-1.9010381698608398
1701104970919179000,9.077178955078125,-1.1291064023971558,1.9665627479553223,-1.9759774208068848
1701104970936171800,9.094171875,-0.941841721534729,2.2333855628967285,-2.0355844497680664
1701104970953163500,9.11116357421875,-0.43569087982177734,2.574826240539551,-0.7281708717346191
1701104970970153200,9.1281533203125,-0.6542565822601318,2.806236505508423,0.9717617034912109
1701104970987150600,9.145150634765624,-1.5944304466247559,2.8914756774902344,1.5009803771972656
1701104971004128800,9.162128662109374,-2.3317222595214844,2.845294952392578,1.6820287704467773
1701104971021133300,9.17913330078125,-2.2734274864196777,2.829738140106201,2.715831756591797
1701104971038125800,9.196125732421875,-1.8838987350463867,3.05795955657959,4.421603202819824
1701104971055118600,9.21311865234375,-1.9250800609588623,3.535548448562622,6.316661357879639
1701104971072111000,9.230111083984376,-2.3894848823547363,3.78124737739563,7.721611976623535
1701104971089091600,9.247091552734375,-2.301555633544922,3.559858798980713,8.361882209777832
1701104971106085000,9.264085205078125,-1.2050803899765015,3.2285804748535156,8.704036712646484
1701104971123081200,9.281081298828125,-0.04596066474914551,2.2815098762512207,9.782310485839844
1701104971140076800,9.298076904296876,1.3892412185668945,1.272214412689209,11.108745574951172
1701104971157076700,9.31507666015625,2.6403636932373047,1.0875186920166016,11.443389892578125
1701104971174065400,9.3320654296875,3.2326200008392334,1.4163556098937988,10.386469841003418
1701104971191058000,9.349057861328125,2.9038238525390625,1.3664069175720215,8.808633804321289
1701104971208050700,9.36605078125,1.9803247451782227,0.8128323554992676,7.05996036529541
1701104971225034500,9.383034423828125,0.552517294883728,-0.3024258613586426,5.704278945922852
1701104971242035000,9.400034912109374,-0.6492813229560852,-1.5582945346832275,4.56062126159668
1701104971259027500,9.41702734375,-0.9899662733078003,-2.8435654640197754,3.5879173278808594
1701104971276012800,9.4340126953125,-0.4797748327255249,-4.088275909423828,2.9452037811279297
1701104971293014500,9.4510146484375,0.4776281714439392,-5.061009883880615,2.39224910736084
1701104971310001700,9.468001708984374,1.216094970703125,-5.561913013458252,1.614105224609375
1701104971326990300,9.484990234375,1.6777793169021606,-5.896908760070801,1.051980972290039
1701104971343979500,9.5019794921875,1.7465766668319702,-6.099715709686279,0.688237190246582
1701104971360980000,9.51897998046875,1.2242255210876465,-6.328477382659912,0.23918533325195312
1701104971377972700,9.53597265625,0.8218058347702026,-6.6071672439575195,-0.5212879180908203
1701104971394969300,9.55296923828125,0.9986575245857239,-6.7797627449035645,-1.599909782409668
1701104971411959600,9.56995947265625,1.5000817775726318,-6.978326797485352,-2.643670082092285
1701104971428935700,9.586935791015625,2.1758062839508057,-7.060722351074219,-3.5498437881469727
1701104971445944300,9.6039443359375,2.5898852348327637,-7.269904136657715,-4.074789524078369
1701104971462926000,9.620926025390625,2.416161060333252,-7.6866068840026855,-4.193958759307861
1701104971479917000,9.6379169921875,2.1711530685424805,-8.22361946105957,-4.418294906616211
1701104971496924000,9.654923828125,2.236441135406494,-8.817146301269531,-4.7922210693359375
1701104971513913900,9.671913818359375,2.606431484222412,-9.104753494262695,-5.338860034942627
1701104971530906400,9.68890625,2.875654458999634,-9.096084594726562,-5.658901691436768
1701104971547896600,9.705896484375,2.3698697090148926,-9.065323829650879,-5.366250038146973
1701104971564893700,9.722893798828125,1.4126830101013184,-9.5311861038208,-4.263486862182617
1701104971581884000,9.7398837890625,1.1387215852737427,-9.924760818481445,-3.078789710998535
1701104971598876200,9.756876220703125,1.4258828163146973,-9.888766288757324,-2.328375816345215
1701104971615868700,9.77386865234375,1.4198527336120605,-10.09423828125,-1.743086814880371
1701104971632860700,9.790860595703125,1.040018916130066,-10.449630737304688,-1.608088493347168
1701104971649853700,9.807853759765624,0.4805101752281189,-10.571839332580566,-1.7109837532043457
1701104971666846000,9.824845947265626,0.4418293237686157,-10.0131254196167,-1.371957778930664
1701104971683838700,9.841838623046876,0.9193940162658691,-8.775754928588867,-0.5607843399047852
1701104971700830500,9.85883056640625,1.3393219709396362,-7.48729133605957,0.6814804077148438
1701104971717823000,9.875822998046875,1.4213736057281494,-6.293365478515625,1.728811264038086
1701104971734815500,9.8928154296875,0.7477497458457947,-5.509323596954346,2.028323173522949
1701104971751808300,9.909808349609374,-0.14052458107471466,-5.025180339813232,1.593404769897461
1701104971768797700,9.926797607421875,-0.6584490537643433,-4.539258003234863,0.8149852752685547
1701104971785785000,9.94378515625,-0.8720757961273193,-3.9688539505004883,0.26361656188964844
1701104971802785000,9.960784912109375,-0.6475762724876404,-3.1702046394348145,-0.10379219055175781
1701104971819777800,9.97777783203125,-0.5804438591003418,-2.2272047996520996,-0.21570110321044922
1701104971836767500,9.994767578125,-0.6672799587249756,-1.15338134765625,-0.04189109802246094
1701104971853763600,10.011763671875,-0.3455483317375183,0.18761944770812988,0.4389514923095703
1701104971870756400,10.02875634765625,0.06269848346710205,1.3737077713012695,1.023941993713379
1701104971887747600,10.04574755859375,0.29945826530456543,2.425715208053589,1.4675664901733398
1701104971904739600,10.062739501953125,0.03234386444091797,3.2988204956054688,1.575601577758789
1701104971921732000,10.079732177734375,-0.6879860758781433,3.9262075424194336,1.381204605102539
1701104971938720000,10.096719970703125,-1.396453619003296,4.309505462646484,1.2584476470947266
1701104971955722000,10.113721923828125,-1.7275769710540771,4.425846099853516,1.6486616134643555
1701104971972709000,10.130709228515625,-1.7321833372116089,4.476346969604492,2.561978340148926
1701104971989698300,10.1476982421875,-1.695156455039978,4.526805877685547,3.1893787384033203
1701104972006701300,10.164701416015625,-1.8552186489105225,4.42738676071167,3.719850540161133
1701104972023668500,10.18166845703125,-2.116931438446045,4.15041971206665,4.489456653594971
1701104972040686000,10.19868603515625,-2.230100631713867,3.8178837299346924,5.627596855163574
1701104972057671400,10.21567138671875,-2.274566173553467,3.71364688873291,6.9068474769592285
1701104972074664000,10.232663818359375,-2.0441555976867676,3.5734663009643555,8.40768051147461
1701104972091656700,10.24965673828125,-1.576263427734375,3.047534942626953,9.736512184143066
1701104972108648400,10.2666484375,-0.6316437721252441,2.035531520843506,10.734496116638184
1701104972125651000,10.28365087890625,0.6264287233352661,0.6919798851013184,11.483927726745605
1701104972142633700,10.3006337890625,1.5974551439285278,-0.45086669921875,12.430084228515625
1701104972159626200,10.317626220703126,1.4121458530426025,-0.9489221572875977,12.833475112915039
1701104972176618200,10.3346181640625,0.24300765991210938,-0.6170248985290527,11.149881362915039
1701104972193611000,10.351611083984375,-0.7410213947296143,-0.5575518608093262,8.743770599365234
1701104972210613200,10.36861328125,-0.9811810255050659,-1.5247106552124023,6.703207015991211
1701104972227596000,10.385595947265625,-0.4755122661590576,-3.2160110473632812,4.761122703552246
1701104972244588800,10.4025888671875,0.2706202268600464,-4.914456367492676,2.688389778137207
1701104972261578000,10.419577880859375,1.06089448928833,-5.940560340881348,0.40728092193603516
1701104972278575600,10.43657568359375,1.802419662475586,-6.135826587677002,-1.663088321685791
1701104972295565800,10.45356591796875,2.454369068145752,-5.643350601196289,-3.29217529296875
1701104972312557600,10.4705576171875,2.7115368843078613,-4.931268215179443,-4.277761936187744
1701104972329550300,10.48755029296875,2.4530906677246094,-4.395721912384033,-4.801650047302246
1701104972346542800,10.50454296875,1.923356294631958,-4.068450450897217,-5.227523326873779
1701104972363535400,10.521535400390626,1.6853270530700684,-3.8748536109924316,-5.482139587402344
1701104972380514800,10.538514892578124,1.6639039516448975,-3.7875475883483887,-5.414463043212891
1701104972397510700,10.5555107421875,1.8410722017288208,-3.791646718978882,-5.08561897277832
1701104972414501600,10.572501708984374,2.180213451385498,-3.7870898246765137,-4.691899299621582
1701104972431495700,10.58949560546875,2.493894577026367,-4.063064098358154,-4.123783111572266
1701104972448491800,10.60649169921875,2.509453058242798,-4.498363494873047,-3.701632499694824
1701104972465482000,10.62348193359375,2.4287145137786865,-4.902493000030518,-3.6904067993164062
1701104972482477600,10.6404775390625,2.2147216796875,-5.621180057525635,-3.5780229568481445
1701104972499472100,10.65747216796875,2.1731412410736084,-6.4424567222595215,-3.246687889099121
1701104972516458500,10.67445849609375,2.3793869018554688,-7.1432623863220215,-2.6415576934814453
1701104972533456000,10.691455810546875,2.814862012863159,-7.616405963897705,-2.183751106262207
1701104972550448600,10.70844873046875,3.1249613761901855,-8.078659057617188,-1.898526668548584
1701104972567439400,10.725439453125,3.275376319885254,-8.515854835510254,-1.7615165710449219
1701104972584426000,10.742426025390625,3.167292594909668,-9.05761432647705,-1.5523481369018555
1701104972601425400,10.75942529296875,2.7163028717041016,-9.514026641845703,-1.4775781631469727
1701104972618417000,10.7764169921875,2.2054412364959717,-9.8687162399292,-1.4015817642211914
1701104972635416000,10.793416015625,1.9682987928390503,-9.998921394348145,-1.5293998718261719
1701104972652395500,10.8103955078125,2.0786523818969727,-9.665882110595703,-2.100569725036621
1701104972669383200,10.827383056640626,2.392721652984619,-8.246604919433594,-2.2130470275878906
1701104972686391600,10.8443916015625,2.2791216373443604,-6.413021564483643,-1.5424737930297852
1701104972703384000,10.861384033203125,1.4975191354751587,-5.1366448402404785,-0.1744527816772461
1701104972720375800,10.878375732421874,0.8306894302368164,-4.196788787841797,0.9956912994384766
1701104972737368300,10.895368408203124,0.3867724537849426,-3.3860275745391846,1.0095901489257812
1701104972754360800,10.91236083984375,-0.23354361951351166,-2.89015793800354,0.2836427688598633
1701104972771353600,10.929353515625,-1.0204308032989502,-2.472853422164917,-0.704803466796875
1701104972788354000,10.94635400390625,-1.6267750263214111,-2.07600474357605,-1.6496295928955078
1701104972805338400,10.96333837890625,-1.5684688091278076,-1.687891960144043,-2.1116485595703125
1701104972822330600,10.98033056640625,-0.8328508138656616,-1.214449405670166,-1.8083677291870117
1701104972839323400,10.997323486328124,0.04093027114868164,-0.5507683753967285,-0.7242393493652344
1701104972856304600,11.0143046875,0.7097257375717163,0.4049654006958008,0.5221643447875977
1701104972873308000,11.031307861328125,0.5131438970565796,1.4572243690490723,0.8036365509033203
1701104972890300200,11.048300048828125,-0.2810549736022949,2.3035824298858643,0.39446592330932617
1701104972907290400,11.065290283203124,-1.028035044670105,2.8594136238098145,0.14828824996948242
1701104972924287500,11.08228759765625,-1.3568739891052246,3.2924349308013916,0.47555112838745117
1701104972941277400,11.09927734375,-1.3274195194244385,3.3863110542297363,1.5776495933532715
1701104972958270000,11.11627001953125,-1.1667940616607666,3.46785831451416,3.055696487426758
1701104972975262500,11.133262451171875,-1.2024080753326416,3.501955986022949,4.604155540466309
1701104972992257300,11.15025732421875,-1.8222333192825317,3.4623799324035645,5.426813125610352
1701104973009247500,11.16724755859375,-2.7012062072753906,3.328925132751465,5.615933418273926
1701104973026239700,11.18423974609375,-3.1346659660339355,3.0962743759155273,5.952854156494141
1701104973043232300,11.201232177734376,-2.7709052562713623,3.2140283584594727,6.194811820983887
1701104973060221400,11.218221435546875,-1.917863368988037,3.3839101791381836,6.261467933654785
1701104973077219300,11.23521923828125,-0.8987830281257629,3.640380859375,6.024011611938477
1701104973094209300,11.252209228515625,-0.10410189628601074,3.698126792907715,5.492865562438965
1701104973111202000,11.2692021484375,0.5385029315948486,2.9298439025878906,5.460085868835449
1701104973128194000,11.286194091796874,0.8716789484024048,1.5585660934448242,5.893455982208252
1701104973145184800,11.303184814453125,0.8565244674682617,-0.26822805404663086,6.891164302825928
1701104973162180900,11.320180908203126,0.9512143135070801,-1.9346380233764648,8.34697151184082
1701104973179171600,11.337171630859375,1.27109694480896,-2.550687313079834,8.830665588378906
1701104973196163600,11.35416357421875,1.7918885946273804,-1.9914579391479492,8.639812469482422
1701104973213156400,11.37115625,2.1200814247131348,-0.6495418548583984,8.37173843383789
1701104973230148900,11.38814892578125,1.8126275539398193,0.3830442428588867,8.050393104553223
1701104973247141400,11.405141357421876,0.8621730804443359,0.2982516288757324,7.403861999511719
1701104973264130300,11.42213037109375,0.21542000770568848,-1.0715656280517578,6.4890313148498535
1701104973281126000,11.4391259765625,0.19650578498840332,-3.1930489540100098,5.747176647186279
1701104973298118100,11.4561181640625,0.47096335887908936,-4.789827346801758,4.497025489807129
1701104973315111200,11.473111083984374,0.8814045190811157,-5.322680950164795,3.0594992637634277
1701104973332103000,11.49010302734375,1.3595508337020874,-5.13313627243042,1.6863384246826172
1701104973349095700,11.507095703125,1.690619707107544,-4.667574405670166,0.3392763137817383
1701104973366087200,11.524087158203125,1.6346122026443481,-4.408729076385498,-1.0637397766113281
1701104973383081700,11.541081787109375,1.5695720911026,-4.209445953369141,-2.5115694999694824
1701104973400070700,11.558070556640626,1.6660016775131226,-3.868947982788086,-3.292156219482422
1701104973417067000,11.57506689453125,1.7335970401763916,-3.526876926422119,-3.4367618560791016
1701104973434057500,11.592057373046876,1.8898682594299316,-3.107884407043457,-3.7419395446777344
1701104973451050200,11.60905029296875,2.050300121307373,-2.789064407348633,-4.31724739074707
1701104973468042200,11.626042236328125,1.9626100063323975,-2.785149574279785,-5.079110622406006
1701104973485031000,11.643031005859376,1.7165559530258179,-3.0289816856384277,-5.840272426605225
1701104973502031400,11.66003125,1.6200475692749023,-3.4153876304626465,-6.319927215576172
1701104973519019800,11.677019775390624,1.7626681327819824,-3.8078789710998535,-6.619399547576904
1701104973536011800,11.69401171875,1.9069463014602661,-4.1709418296813965,-6.7238450050354
1701104973553004500,11.711004638671875,2.087737798690796,-4.475282669067383,-6.574798583984375
1701104973569997000,11.7279970703125,2.302072048187256,-4.9253740310668945,-6.019622802734375
1701104973586998500,11.74499853515625,2.548793077468872,-5.615095138549805,-5.295792102813721
1701104973603981600,11.761981689453124,2.7761714458465576,-6.224174976348877,-4.945598602294922
1701104973620974300,11.778974365234374,3.1213507652282715,-6.829051494598389,-4.719886779785156
1701104973637966600,11.795966552734376,3.769557476043701,-7.511490345001221,-4.141077995300293
1701104973654959400,11.81295947265625,4.83734130859375,-8.394198417663574,-2.8565711975097656
1701104973671951400,11.829951416015625,5.548539161682129,-8.791973114013672,-1.8834342956542969
1701104973688943900,11.84694384765625,5.071434497833252,-8.700936317443848,-1.334456443786621
1701104973705936400,11.863936279296874,3.676579475402832,-8.771175384521484,-1.3377017974853516
1701104973722929000,11.880928955078126,2.3705387115478516,-8.896427154541016,-1.3618059158325195
1701104973739918800,11.8979189453125,2.0920252799987793,-8.947415351867676,-1.8248701095581055
1701104973756913000,11.914912841796875,2.6560678482055664,-8.096580505371094,-2.1822781562805176
1701104973773908700,11.93190869140625,2.8783836364746094,-6.5064496994018555,-1.3642034530639648
1701104973790898700,11.948898681640625,1.9950714111328125,-4.981139659881592,0.44969749450683594
1701104973807891000,11.965890869140624,0.3952547013759613,-3.6074533462524414,1.7507753372192383
1701104973824888000,11.98288818359375,-1.1609374284744263,-2.640202283859253,1.9708003997802734
1701104973841879300,11.99987939453125,-2.126709461212158,-2.193976402282715,1.5086555480957031
1701104973858868200,12.0168681640625,-2.1909472942352295,-1.880445957183838,0.29627037048339844
1701104973875860200,12.033860107421875,-1.6876652240753174,-1.6527795791625977,-0.8373823165893555
1701104973892842500,12.050842529296874,-0.7831199169158936,-1.27329683303833,-1.305769920349121
1701104973909845200,12.06784521484375,0.31937456130981445,-0.6292934417724609,-0.8581066131591797
1701104973926838300,12.08483837890625,1.092085361480713,0.39089441299438477,0.05173826217651367
1701104973943830000,12.101830078125,1.1931061744689941,1.4241547584533691,0.9996433258056641
1701104973960821500,12.118821533203125,0.7517255544662476,2.371828317642212,1.5388951301574707
1701104973977816000,12.135816162109375,-0.04386180639266968,3.1246185302734375,1.6826586723327637
1701104973994807600,12.1528076171875,-0.978258490562439,3.6090216636657715,1.6255149841308594
1701104974011799600,12.169799560546876,-1.8147019147872925,3.8879222869873047,1.5493268966674805
1701104974028792600,12.18679248046875,-2.3797693252563477,4.034360408782959,1.743959903717041
1701104974045774300,12.2037744140625,-2.5275373458862305,4.05005407333374,2.1784868240356445
1701104974062777300,12.22077734375,-2.47619366645813,3.940721035003662,2.5668134689331055
1701104974079769300,12.237769287109375,-2.525571823120117,3.806602954864502,2.7806448936462402
1701104974096761900,12.254761962890624,-2.817152976989746,3.4118409156799316,3.071894645690918
1701104974113754000,12.271754150390626,-2.9329750537872314,3.1635098457336426,2.946316719055176
1701104974130747100,12.2887470703125,-2.603484869003296,2.872831344604492,3.178744316101074
1701104974147739100,12.3057392578125,-1.8238476514816284,2.575725555419922,3.6889867782592773
1701104974164731600,12.322731689453125,-1.0176150798797607,2.127227783203125,4.230881690979004
1701104974181721300,12.339721435546876,-0.5378184914588928,1.271552562713623,5.220302104949951
1701104974198719200,12.35671923828125,-0.24978262186050415,0.2313232421875,6.5172953605651855
1701104974215709700,12.373709716796874,-0.04110759496688843,-0.7716636657714844,7.415359020233154
1701104974232701400,12.390701416015625,0.29268187284469604,-2.030001163482666,8.260017395019531
1701104974249693700,12.407693603515625,0.8713666200637817,-2.965085506439209,8.628461837768555
1701104974266686500,12.4246865234375,1.6914057731628418,-2.703038215637207,7.677241802215576
1701104974283678200,12.44167822265625,2.4923834800720215,-1.5576720237731934,5.846465110778809
1701104974300660500,12.458660400390626,3.0035300254821777,-0.1278977394104004,4.305318355560303
1701104974317663200,12.475663330078126,2.7667579650878906,0.6610760688781738,3.5335607528686523
1701104974334656000,12.492656005859375,2.038233518600464,0.767725944519043,3.0004796981811523
1701104974351647700,12.509647705078125,1.4338173866271973,0.4345860481262207,2.5019359588623047
1701104974368640800,12.526640869140625,1.0652389526367188,-0.25972557067871094,1.6281661987304688
1701104974385626400,12.54362646484375,1.1320149898529053,-0.7264828681945801,0.5333356857299805
1701104974402623500,12.56062353515625,1.2504593133926392,-0.8987674713134766,-0.31005859375
1701104974419618000,12.5776181640625,1.1845272779464722,-0.8144388198852539,-0.8898143768310547
1701104974436609800,12.59460986328125,0.6229479312896729,-0.8204965591430664,-1.491257667541504
1701104974453602600,12.6116025390625,-0.0829085111618042,-0.9272546768188477,-2.5251307487487793
1701104974470585000,12.628585205078124,-0.5989288091659546,-1.1628715991973877,-3.365358352661133
1701104974487587600,12.645587646484374,-0.6199455857276917,-1.402735948562622,-3.9657583236694336
1701104974504578600,12.66257861328125,-0.18063956499099731,-1.5231380462646484,-4.323792457580566
1701104974521574100,12.67957421875,0.1475164294242859,-1.571387767791748,-4.56942081451416
1701104974538567000,12.69656689453125,0.2457793951034546,-1.563485860824585,-4.656083106994629
1701104974555556900,12.713556884765625,0.0971670150756836,-1.6016414165496826,-4.538503646850586
1701104974572549600,12.730549560546875,-0.12193022668361664,-1.5970032215118408,-4.390848159790039
1701104974589529300,12.747529296875,-0.44026607275009155,-1.7499289512634277,-4.137210369110107
1701104974606526200,12.764526123046876,-0.47793343663215637,-2.0166683197021484,-3.806229591369629
1701104974623517200,12.78151708984375,-0.08365261554718018,-2.518202543258667,-3.2235288619995117
1701104974640519400,12.79851953125,1.0214159488677979,-3.115734577178955,-2.6165924072265625
1701104974657503000,12.8155029296875,2.3066673278808594,-3.8945271968841553,-1.9043245315551758
1701104974674507300,12.83250732421875,2.9563076496124268,-4.750890254974365,-1.800466537475586
1701104974691496200,12.84949609375,3.1138134002685547,-5.528399467468262,-2.026205062866211
1701104974708489000,12.866489013671876,3.3090155124664307,-6.380681037902832,-2.06412935256958
1701104974725481500,12.8834814453125,3.6737842559814453,-7.070897579193115,-1.5110220909118652
1701104974742474200,12.90047412109375,4.042304039001465,-7.5610151290893555,-0.6350250244140625
1701104974759465700,12.9174658203125,3.98480486869812,-8.41213321685791,0.5135164260864258
1701104974776450300,12.9344501953125,3.5460994243621826,-9.428878784179688,1.1074695587158203
1701104974793442800,12.95144287109375,3.1666622161865234,-10.062993049621582,0.3429689407348633
1701104974810440400,12.9684404296875,3.7006659507751465,-9.337047576904297,-1.3274345397949219
1701104974827431000,12.985430908203124,4.902430534362793,-7.222389221191406,-2.553006172180176
1701104974844418300,13.002418212890625,5.3197126388549805,-5.396968841552734,-2.180065631866455
1701104974861409300,13.0194091796875,4.526533603668213,-4.387421131134033,-0.9173660278320312
1701104974878409500,13.036409423828125,2.922907590866089,-3.783156394958496,-0.19035720825195312
1701104974895407600,13.05340771484375,0.7198604345321655,-3.2250378131866455,-0.5492162704467773
1701104974912397800,13.070397705078125,-1.4921165704727173,-2.668473720550537,-1.5698490142822266
1701104974929387800,13.0873876953125,-3.352184772491455,-1.9909248352050781,-2.6426868438720703
1701104974946385700,13.1043857421875,-4.1955084800720215,-1.2593603134155273,-3.2112350463867188
1701104974963374800,13.121374755859375,-3.6844606399536133,-0.6162915229797363,-2.8656625747680664
1701104974980367400,13.138367431640624,-2.304287910461426,-0.07962656021118164,-1.7343721389770508
1701104974997359900,13.15535986328125,-0.7306212186813354,0.6682524681091309,-0.8414859771728516
1701104975014352600,13.1723525390625,0.39521005749702454,1.5392980575561523,-0.7771005630493164
1701104975031344600,13.1893447265625,0.5856866836547852,2.2347211837768555,-1.0398688316345215
1701104975048337200,13.206337158203125,0.11669737100601196,2.7458019256591797,-1.278752326965332
1701104975065329700,13.22332958984375,-0.5094061493873596,3.293423891067505,-1.3477048873901367
1701104975082322200,13.240322265625,-0.8510755300521851,3.7533175945281982,-0.9893193244934082
1701104975099314200,13.257314208984376,-0.8307866454124451,3.9185500144958496,-0.3320431709289551
1701104975116307000,13.274306884765625,-0.7471661567687988,3.790870189666748,0.1130838394165039
1701104975133299200,13.29129931640625,-0.34855395555496216,3.554210662841797,0.7146682739257812
1701104975150292000,13.3082919921875,0.12169426679611206,3.278794765472412,1.6181426048278809
1701104975167284000,13.325283935546874,0.4122195839881897,2.8645362854003906,2.894787311553955
1701104975184276500,13.3422763671875,0.5727543830871582,2.5047850608825684,4.4542107582092285
1701104975201269000,13.35926904296875,0.29804733395576477,2.266964912414551,5.774224758148193
1701104975218258700,13.3762587890625,-0.461675226688385,2.0178942680358887,6.558433532714844
1701104975235256000,13.393256103515625,-1.093229055404663,2.0517325401306152,6.954805374145508
1701104975252246000,13.41024609375,-1.224097728729248,1.9868874549865723,7.566178321838379
1701104975269238500,13.427238525390624,-0.9312033653259277,1.278834342956543,8.48426628112793
1701104975286231300,13.444231201171876,-0.2404055893421173,0.26055145263671875,9.068052291870117
1701104975303223000,13.46122314453125,0.5182862281799316,-1.249575138092041,9.519634246826172
1701104975320213000,13.478212890625,1.2682163715362549,-2.242128849029541,9.415088653564453
1701104975337210600,13.495210693359375,1.5161962509155273,-1.9187393188476562,8.94701099395752
1701104975354200800,13.512200927734375,0.9004911184310913,-0.7593436241149902,8.532339096069336
1701104975371192600,13.529192626953124,-0.1072007417678833,0.5125093460083008,7.949196815490723
1701104975388185300,13.546185302734376,-1.4797101020812988,0.9159798622131348,7.057096004486084
1701104975405177900,13.563177734375,-2.6168625354766846,0.5041632652282715,5.815434455871582
1701104975422161700,13.58016162109375,-2.8857133388519287,-0.39715051651000977,4.541797161102295
1701104975439162400,13.597162353515625,-2.217186450958252,-1.2509150505065918,3.353224754333496
1701104975456136200,13.61413623046875,-0.8726115226745605,-1.8541183471679688,2.1026549339294434
1701104975473147600,13.631147705078124,0.5006442666053772,-2.276165008544922,0.7628097534179688
1701104975490140000,13.648139892578126,1.5364279747009277,-2.206361770629883,-0.834935188293457
1701104975507132400,13.66513232421875,2.0335912704467773,-1.8459429740905762,-2.377743721008301
1701104975524124700,13.682124755859375,1.9210221767425537,-1.3991098403930664,-3.3318471908569336
1701104975541117000,13.699116943359375,1.7550355195999146,-0.9306426048278809,-3.9722633361816406
1701104975558110000,13.71610986328125,1.6911505460739136,-0.6050128936767578,-4.413379192352295
1701104975575101700,13.733101806640626,1.7083323001861572,-0.48363542556762695,-4.608667373657227
1701104975592094500,13.750094482421876,1.9698936939239502,-0.5207722187042236,-4.626964569091797
1701104975609087000,13.7670869140625,2.4103691577911377,-0.5336194038391113,-4.7992844581604
1701104975626077000,13.784076904296874,3.162777900695801,-0.5759522914886475,-4.884689807891846
1701104975643069700,13.801069580078124,4.038167953491211,-0.9552040100097656,-4.350039482116699
1701104975660065000,13.81806494140625,4.711379528045654,-1.738569974899292,-3.1685752868652344
1701104975677059800,13.835059814453125,4.65860652923584,-2.693272352218628,-2.5546984672546387
1701104975694049000,13.852049072265626,4.484226226806641,-3.277641534805298,-2.6104536056518555
1701104975711041000,13.869041015625,4.759279251098633,-3.611281156539917,-2.1181039810180664
1701104975728033800,13.88603369140625,5.199865341186523,-4.051676273345947,-1.3537588119506836
1701104975745026000,13.903026123046875,5.464605331420898,-4.9542975425720215,-0.5169916152954102
1701104975762018800,13.920018798828124,5.793906211853027,-5.635315895080566,-0.3841543197631836
1701104975779000300,13.937000244140625,5.805912494659424,-6.212196350097656,-0.5960397720336914
1701104975796003300,13.95400341796875,5.928728103637695,-6.278165340423584,-1.363621711730957
1701104975812995800,13.970995849609375,5.767250061035156,-6.124057769775391,-1.8968143463134766
1701104975829988400,13.98798828125,5.151090621948242,-6.268529891967773,-1.7892284393310547
1701104975846980400,14.00498046875,4.402646541595459,-6.494995594024658,-1.773284912109375
1701104975863973000,14.02197314453125,4.330643653869629,-6.268838882446289,-1.6587486267089844
1701104975880955000,14.038954833984375,4.727240562438965,-5.5289764404296875,-1.8554058074951172
1701104975897947600,14.05594775390625,4.019202709197998,-4.3108015060424805,-2.0243492126464844
1701104975914947000,14.072947021484374,1.7148447036743164,-3.449068546295166,-1.0145368576049805
1701104975931938800,14.089938720703126,-1.4092978239059448,-2.5145468711853027,0.22399616241455078
1701104975948931600,14.106931640625,-4.37270450592041,-1.6550095081329346,0.5692977905273438
1701104975965917400,14.12391748046875,-5.933056831359863,-1.0876927375793457,-0.2044506072998047
1701104975982917000,14.140917236328125,-5.6223931312561035,-0.9888167381286621,-0.542236328125
1701104975999909000,14.1579091796875,-4.145668983459473,-1.0194611549377441,-0.4591407775878906
1701104976016901600,14.174901611328124,-2.5496833324432373,-0.8666057586669922,0.1827535629272461
1701104976033888300,14.19188818359375,-1.4639673233032227,-0.47141218185424805,1.2353248596191406
1701104976050880300,14.20888037109375,-0.6758846640586853,0.2753772735595703,1.8722190856933594
1701104976067878100,14.225878173828125,-0.396078884601593,0.9397258758544922,2.0470547676086426
1701104976084866300,14.2428662109375,-0.5133389234542847,1.3133058547973633,1.9038681983947754
1701104976101864200,14.2598642578125,-0.784797191619873,1.5450596809387207,1.514556884765625
1701104976118852400,14.276852294921875,-0.6977373361587524,1.9067320823669434,1.1755719184875488
1701104976135851500,14.2938515625,-0.19483399391174316,2.3625736236572266,1.3343114852905273
1701104976152843800,14.31084375,0.25946080684661865,2.9217238426208496,1.938032627105713
1701104976169837300,14.32783740234375,0.3647312819957733,3.562920570373535,2.340059757232666
1701104976186828800,14.344828857421875,-0.21447773277759552,3.8880410194396973,2.1145009994506836
1701104976203821000,14.361821044921875,-1.056275725364685,4.032558441162109,1.5326776504516602
1701104976220798500,14.378798583984375,-1.5283138751983643,4.021762847900391,1.1728086471557617
1701104976237806000,14.39580615234375,-1.3974499702453613,4.00265645980835,0.9410629272460938
1701104976254793500,14.41279345703125,-0.9845439791679382,3.8630425930023193,0.7497544288635254
1701104976271791000,14.429791015625,-0.6548837423324585,3.4205708503723145,0.798865795135498
1701104976288783600,14.44678369140625,-0.4233579635620117,2.929661273956299,0.7747125625610352
1701104976305765400,14.463765380859375,-0.3409627676010132,2.4246788024902344,0.5744686126708984
1701104976322768000,14.480767822265625,-0.2555246353149414,1.8770332336425781,0.3086991310119629
1701104976339760400,14.497760498046874,-0.16878223419189453,1.2602243423461914,0.19794416427612305
1701104976356752600,14.514752685546876,-0.0554354190826416,0.6584439277648926,0.3979988098144531
1701104976373745700,14.53174560546875,0.030240774154663086,0.5361800193786621,0.5097007751464844
1701104976390737400,14.5487373046875,0.044197797775268555,0.6101760864257812,0.5445809364318848
1701104976407730000,14.56572998046875,0.012565135955810547,0.8655238151550293,0.3694887161254883
1701104976424712200,14.582712158203124,-0.09053206443786621,1.0170092582702637,0.23761796951293945
1701104976441715200,14.599715087890624,-0.19141745567321777,0.9509801864624023,0.14688920974731445
1701104976458707000,14.61670703125,-0.3882208466529846,0.4638056755065918,0.13275718688964844
1701104976475699700,14.63369970703125,-0.66535484790802,-0.11870098114013672,-0.05157041549682617
1701104976492692000,14.65069189453125,-0.7671567797660828,-0.619269847869873,0.021119117736816406
1701104976509685000,14.66768505859375,-0.7469420433044434,-1.041450023651123,0.6228790283203125
1701104976526672600,14.684672607421875,-0.6706864833831787,-1.284041404724121,1.330244541168213
1701104976543673300,14.70167333984375,-0.4138059616088867,-1.5206451416015625,1.9756622314453125
1701104976560661500,14.71866162109375,0.32131099700927734,-1.8197031021118164,2.546627998352051
1701104976577654500,14.735654541015625,1.5544464588165283,-2.1416430473327637,3.1560049057006836
1701104976594646500,14.752646484375,2.885209083557129,-2.275216579437256,3.622425079345703
1701104976611639000,14.76963916015625,3.6512415409088135,-1.7362971305847168,4.25414514541626
1701104976628631600,14.786631591796874,3.3381905555725098,-0.6145081520080566,4.926942348480225
1701104976645613600,14.803613525390626,2.3325324058532715,0.5801277160644531,5.681093215942383
1701104976662615800,14.82061572265625,1.330339789390564,1.493722915649414,6.229401588439941
1701104976679608800,14.83760888671875,0.7741269469261169,1.8504395484924316,6.296756267547607
1701104976696600800,14.854600830078125,1.1541534662246704,1.6384973526000977,5.769434928894043
1701104976713593600,14.871593505859375,2.294023036956787,1.298161506652832,4.580618858337402
1701104976730585600,14.888585693359374,3.4915268421173096,0.9249982833862305,3.556210517883301
1701104976747568000,14.905568115234376,4.608614921569824,0.842444896697998,2.8292813301086426
1701104976764582700,14.922582763671874,5.184690952301025,0.9894967079162598,2.3294248580932617
1701104976781560600,14.939560546875,4.872305393218994,1.3413052558898926,1.7833232879638672
1701104976798558700,14.956558837890626,4.30613374710083,1.7811698913574219,1.4899978637695312
1701104976815543600,14.97354345703125,4.225192070007324,1.955437183380127,1.1717591285705566
1701104976832543500,14.99054345703125,5.187594413757324,2.1224875450134277,0.7892537117004395
1701104976849533000,15.007532958984376,6.882485389709473,2.189393997192383,0.7379016876220703
1701104976866525000,15.02452490234375,8.566472053527832,2.1023776531219482,1.088632583618164
1701104976883517700,15.041517578125,9.493744850158691,2.0087485313415527,1.3742032051086426
1701104976900510000,15.058510009765625,9.65719223022461,1.8853521347045898,1.1008281707763672
1701104976917502500,15.07550244140625,9.437589645385742,1.6288022994995117,0.6376934051513672
1701104976934494500,15.092494384765626,9.423903465270996,1.197045087814331,0.3121175765991211
1701104976951487000,15.109487060546876,9.626201629638672,0.6529989242553711,0.08060264587402344
1701104976968489200,15.1264892578125,9.638580322265625,-0.006859302520751953,-0.03498649597167969
1701104976985472300,15.14347216796875,9.20805835723877,-0.5275416374206543,-0.18407344818115234
1701104977002461400,15.16046142578125,8.48222827911377,-0.9335427284240723,-0.4052009582519531
1701104977019459300,15.177459228515625,7.6841888427734375,-1.5535516738891602,-0.33389854431152344
1701104977036449300,15.19444921875,6.833029747009277,-2.151648998260498,-0.4084033966064453
1701104977053441800,15.21144189453125,5.93326997756958,-2.937962293624878,-0.6476354598999023
1701104977070433800,15.228433837890625,4.6791839599609375,-3.6100101470947266,-2.0263099670410156
1701104977087426600,15.245426513671875,3.052335023880005,-4.293887138366699,-3.8723840713500977
1701104977104402000,15.26240185546875,1.0352022647857666,-5.177829265594482,-5.010515213012695
1701104977121410800,15.279410888671874,-0.8973813056945801,-5.725429534912109,-5.775991439819336
1701104977138401300,15.2964013671875,-2.2542312145233154,-5.938526630401611,-6.429356575012207
1701104977155398700,15.313398681640624,-2.6918716430664062,-5.965922832489014,-6.2903032302856445
1701104977172388400,15.330388427734375,-1.8252880573272705,-5.524552822113037,-5.561314582824707
1701104977189381000,15.347381103515625,-0.6801939010620117,-5.2710113525390625,-4.071572303771973
1701104977206362400,15.3643623046875,0.1607370376586914,-5.361056804656982,-2.287370204925537
1701104977223365600,15.38136572265625,0.18038702011108398,-5.414973258972168,-0.5825009346008301
1701104977240358100,15.398358154296876,-0.6047821044921875,-4.9986772537231445,0.32285642623901367
1701104977257350700,15.4153505859375,-1.7808375358581543,-4.284524440765381,0.33452367782592773
1701104977274342700,15.4323427734375,-2.4099199771881104,-3.6035914421081543,0.17481327056884766
1701104977291335400,15.44933544921875,-1.7592720985412598,-2.8251681327819824,0.28857946395874023
1701104977308327700,15.46632763671875,-0.2926146984100342,-1.909069538116455,0.7850222587585449
1701104977325320400,15.483320556640624,1.0179463624954224,-0.9293789863586426,1.5264992713928223
1701104977342312200,15.500312255859376,1.748885989189148,0.18303251266479492,2.2043042182922363
1701104977359295000,15.517294921875,1.7550621032714844,1.3894119262695312,2.2489490509033203
1701104977376297200,15.534297119140625,1.09206223487854,2.2576942443847656,2.0039262771606445
1701104977393290200,15.551290283203125,0.22180986404418945,2.802792549133301,1.828104019165039
1701104977410281700,15.56828173828125,-0.09911215305328369,3.103841781616211,2.103626251220703
1701104977427265000,15.58526513671875,0.3950972557067871,3.457077980041504,2.7557339668273926
1701104977444267000,15.60226708984375,0.7825156450271606,3.735677719116211,3.466141939163208
1701104977461259500,15.619259521484375,0.776175320148468,4.138255596160889,3.8427815437316895
1701104977478251300,15.636251220703125,0.48328161239624023,4.213889122009277,3.9839560985565186
1701104977495241700,15.65324169921875,-0.20333731174468994,3.9181079864501953,3.8441085815429688
1701104977512239000,15.670239013671875,-0.8890368342399597,3.412118434906006,4.03499698638916
1701104977529229000,15.68722900390625,-1.7126924991607666,2.6688437461853027,4.8030595779418945
1701104977546221300,15.70422119140625,-2.384489059448242,2.3165454864501953,5.560122013092041
1701104977563213800,15.7212138671875,-2.653193712234497,2.318319320678711,6.279510498046875
1701104977580203500,15.73820361328125,-2.210664749145508,2.4379043579101562,6.589873313903809
1701104977597193500,15.755193359375,-0.7704162001609802,2.3236494064331055,6.758319854736328
1701104977614188300,15.772188232421875,0.86612868309021,1.8923969268798828,6.957485198974609
1701104977631183400,15.789183349609376,1.9951956272125244,1.3921327590942383,6.828001976013184
1701104977648173300,15.80617333984375,2.1048200130462646,0.7266597747802734,6.766546249389648
1701104977665171000,15.8231708984375,2.0512547492980957,0.04585075378417969,6.9191131591796875
1701104977682160400,15.840160400390625,2.4461872577667236,-0.6906604766845703,7.202922821044922
1701104977699153000,15.85715283203125,2.9976861476898193,-1.7510128021240234,7.751429557800293
1701104977716145400,15.8741455078125,3.373849868774414,-2.5559253692626953,7.885495185852051
1701104977733138000,15.891137939453126,3.456822156906128,-3.119673728942871,7.588029861450195
1701104977750130200,15.908130126953125,3.961610794067383,-2.695812225341797,7.142748832702637
1701104977767120100,15.9251201171875,4.772467613220215,-1.7224626541137695,6.923717021942139
1701104977784116000,15.942115966796875,5.166677474975586,-1.1163291931152344,6.857486248016357
1701104977801109500,15.959109619140625,4.861438274383545,-1.6687650680541992,7.000106334686279
1701104977818099700,15.976099609375,4.217999458312988,-2.723233222961426,6.67699670791626
1701104977835081700,15.993081787109375,3.9093363285064697,-3.886960029602051,5.863299369812012
1701104977852072000,16.010072021484376,4.469692707061768,-5.066964149475098,5.008844375610352
1701104977869080000,16.027080078125,5.562729835510254,-5.881590366363525,4.249866485595703
1701104977886069200,16.0440693359375,6.262326240539551,-6.1471171379089355,3.412698268890381
1701104977903062000,16.06106201171875,6.090396404266357,-6.279256820678711,2.2968597412109375
1701104977920054300,16.07805419921875,5.480667591094971,-6.3579301834106445,0.4442481994628906
1701104977937047000,16.095047119140624,4.92209005355835,-6.494722366333008,-1.1447992324829102
1701104977954039000,16.1120390625,4.365983486175537,-6.407867431640625,-2.593873977661133
1701104977971021000,16.12902099609375,4.047108173370361,-6.287087440490723,-3.930393695831299
1701104977988014800,16.146014892578126,4.0863471031188965,-6.026013374328613,-5.149306297302246
1701104978005016800,16.163016845703126,4.287830352783203,-6.034901142120361,-5.778892517089844
1701104978022006500,16.180006591796875,4.522010803222656,-6.328910827636719,-6.029719352722168
1701104978039001000,16.1970009765625,4.603352069854736,-6.6863627433776855,-6.642278671264648
1701104978055993600,16.21399365234375,4.447355270385742,-7.132049083709717,-7.04703426361084
1701104978072986400,16.230986328125,4.146742343902588,-7.588820934295654,-7.255308151245117
1701104978089978000,16.24797802734375,3.839639663696289,-8.086621284484863,-7.273854732513428
1701104978106959600,16.264959716796874,3.6259288787841797,-8.434995651245117,-7.181858062744141
1701104978123956000,16.2819560546875,3.533078670501709,-8.32473373413086,-7.181471824645996
1701104978140958700,16.298958740234376,3.3240396976470947,-7.964560508728027,-6.88851261138916
1701104978157947600,16.31594775390625,2.6794650554656982,-8.061129570007324,-6.263303756713867
1701104978174940200,16.332940185546875,1.6580309867858887,-8.302888870239258,-5.7693352699279785
1701104978191932700,16.3499326171875,0.9344940185546875,-8.407364845275879,-5.198612213134766
1701104978208925700,16.36692578125,0.7906850576400757,-8.379608154296875,-4.274283409118652
1701104978225917400,16.38391748046875,0.9766861796379089,-7.809446334838867,-3.220447540283203
1701104978242907400,16.400907470703125,0.7460452318191528,-6.81136417388916,-1.6893596649169922
1701104978259907800,16.417907958984376,-0.01192939281463623,-5.726686477661133,0.3708505630493164
1701104978276892000,16.434891845703124,-0.6739726066589355,-4.556211948394775,1.6313562393188477
1701104978293879800,16.4518798828125,-0.8939477205276489,-3.469813346862793,2.2343149185180664
1701104978310876400,16.46887646484375,-0.8440413475036621,-2.721848487854004,2.551680564880371
1701104978327868200,16.4858681640625,-0.7083747386932373,-2.3035082817077637,2.475470542907715
1701104978344854800,16.502854736328125,-0.48825669288635254,-2.2044076919555664,2.409593105316162
1701104978361851400,16.519851318359375,-0.2876114845275879,-2.1668529510498047,3.087780475616455
1701104978378839600,16.536839599609376,-0.228479266166687,-1.4607548713684082,3.5626235008239746
1701104978395838700,16.553838623046875,-0.19487512111663818,-0.5574722290039062,3.59938383102417
1701104978412826600,16.57082666015625,-0.2998253107070923,0.35611391067504883,3.3477158546447754
1701104978429826000,16.587825927734375,-0.24294030666351318,1.2786979675292969,2.8802175521850586
1701104978446816300,16.604816162109376,0.009097874164581299,1.972477912902832,2.9458327293395996
1701104978463811600,16.6218115234375,0.373687744140625,2.7535877227783203,3.3976597785949707
1701104978480804900,16.638804931640625,0.6232409477233887,3.6049609184265137,3.8195691108703613
1701104978497794600,16.655794677734374,0.5398210287094116,4.380316734313965,4.096498012542725
1701104978514788600,16.67278857421875,0.16904443502426147,4.956788063049316,4.358113765716553
1701104978531780900,16.68978076171875,-0.347892165184021,5.416683197021484,4.543619155883789
1701104978548773600,16.706773681640627,-0.8113434910774231,5.792260646820068,4.835664749145508
1701104978565755000,16.7237548828125,-1.3079533576965332,6.144522190093994,5.240778923034668
1701104978582758000,16.7407578125,-1.7926547527313232,6.323622703552246,5.712408065795898
1701104978599750400,16.75775048828125,-2.1044161319732666,6.396096229553223,6.207265853881836
1701104978616743200,16.7747431640625,-2.1667864322662354,6.038183689117432,7.033187389373779
1701104978633735200,16.791735107421875,-1.9772717952728271,5.394162178039551,7.294844627380371
1701104978650727700,16.808727783203125,-1.555029034614563,4.467784881591797,7.2318243980407715
1701104978667720000,16.825719970703126,-0.6157727837562561,3.3978519439697266,7.535648822784424
1701104978684712700,16.842712646484376,0.5448620915412903,2.275148391723633,8.381061553955078
1701104978701702100,16.8597021484375,1.3926202058792114,0.9757785797119141,9.580652236938477
1701104978718697200,16.876697265625,1.891178846359253,-0.2382659912109375,10.551143646240234
1701104978735692300,16.8936923828125,2.1426916122436523,-0.9245214462280273,11.031682014465332
1701104978752682200,16.91068212890625,2.1741714477539062,-0.7530145645141602,11.423351287841797
1701104978769674200,16.92767431640625,1.7705814838409424,0.5304718017578125,11.43761157989502
1701104978786666800,16.944666748046874,1.4298442602157593,1.2869133949279785,11.181928634643555
1701104978803659300,16.9616591796875,1.5996209383010864,0.9174332618713379,10.401971817016602
1701104978820652000,16.978652099609373,1.892432451248169,-0.611168384552002,8.875447273254395
1701104978837643800,16.995643798828127,1.912096619606018,-2.7643136978149414,7.036013126373291
1701104978854636500,17.012636474609376,1.9434810876846313,-4.5742387771606445,5.104446887969971
1701104978871627300,17.029627197265626,2.039722204208374,-5.263028144836426,3.0341711044311523
1701104978888623000,17.046623046875,2.0924205780029297,-5.089338779449463,1.1416711807250977
1701104978905602800,17.063602783203127,2.1037964820861816,-4.518840789794922,-0.41321659088134766
1701104978922606000,17.080606201171875,1.9256764650344849,-3.866234302520752,-1.9268999099731445
1701104978939598300,17.097598388671877,1.9437952041625977,-3.506865978240967,-3.3859071731567383
1701104978956591000,17.114591064453126,2.1668004989624023,-3.160961151123047,-4.682532787322998
1701104978973582800,17.131582763671876,2.3293843269348145,-3.0317959785461426,-5.47741174697876
1701104978990575600,17.14857568359375,2.4462215900421143,-2.8858482837677,-6.077427387237549
1701104979007568400,17.165568359375,2.586526393890381,-2.7804343700408936,-6.402558326721191
1701104979024551700,17.1825517578125,2.7432587146759033,-2.825232744216919,-6.42429256439209
1701104979041549800,17.1995498046875,2.7902297973632812,-3.0550649166107178,-6.404505729675293
1701104979058548000,17.2165478515625,2.754115581512451,-3.438401699066162,-6.36085319519043
1701104979075537700,17.23353759765625,2.7836122512817383,-3.9508776664733887,-6.248919486999512
1701104979092526600,17.250526611328127,3.0335776805877686,-4.537326335906982,-5.955413818359375
1701104979109526000,17.267526123046874,3.428861141204834,-5.070743083953857,-5.309074401855469
1701104979126505700,17.284505615234377,3.867795467376709,-5.542805194854736,-4.445499420166016
1701104979143507200,17.301507080078125,4.229087829589844,-5.897372245788574,-3.6679210662841797
1701104979160487000,17.31848681640625,4.377037525177002,-6.4916815757751465,-2.8084959983825684
1701104979177494500,17.33549462890625,4.27333927154541,-7.037558555603027,-2.2760276794433594
1701104979194484500,17.352484375,3.8162922859191895,-7.4399800300598145,-2.128704071044922
1701104979211477000,17.36947705078125,2.8841042518615723,-7.786877632141113,-2.177774429321289
1701104979228469800,17.3864697265625,1.9347312450408936,-8.042118072509766,-2.22445011138916
1701104979245461800,17.403461669921874,1.3496001958847046,-8.343877792358398,-2.131505012512207
1701104979262454000,17.4204541015625,1.3419936895370483,-8.201635360717773,-2.007040023803711
1701104979279446500,17.437446533203126,1.4720045328140259,-7.328305721282959,-2.3430347442626953
1701104979296439000,17.45443896484375,1.7068549394607544,-5.974764347076416,-2.3219661712646484
1701104979313431000,17.47143115234375,1.3748595714569092,-4.944045066833496,-0.8840703964233398
1701104979330423800,17.488423828125,0.748698353767395,-4.016136646270752,1.139542579650879
1701104979347416300,17.505416259765624,0.0046457648277282715,-3.176926612854004,2.8017196655273438
1701104979364396500,17.522396484375,-0.9130488038063049,-2.6296162605285645,3.3799638748168945
1701104979381394400,17.53939453125,-1.115570068359375,-2.0345587730407715,2.653824806213379
1701104979398386700,17.55638671875,-0.6618547439575195,-1.4409399032592773,1.2517690658569336
1701104979415376400,17.57337646484375,0.23628345131874084,-0.8194146156311035,0.34540748596191406
1701104979432371000,17.590370849609375,1.2961912155151367,-0.10948801040649414,0.6210646629333496
1701104979449367300,17.6073671875,2.135781764984131,0.8369174003601074,1.5663495063781738
1701104979466352600,17.6243525390625,2.4096174240112305,1.9937119483947754,2.435849189758301
1701104979483356400,17.6413564453125,1.976961612701416,3.09584903717041,2.8368372917175293
1701104979500340700,17.6583408203125,0.8988643884658813,3.7574634552001953,2.631256103515625
1701104979517336600,17.675336669921876,0.08034369349479675,4.166365146636963,2.442483425140381
1701104979534323000,17.692322998046876,-0.22271069884300232,4.438085556030273,2.5916972160339355
1701104979551318800,17.70931884765625,-0.11223980784416199,4.6916937828063965,3.0853023529052734
1701104979568315100,17.726315185546873,0.0679272711277008,4.8252153396606445,3.8519506454467773
1701104979585299500,17.743299560546873,0.046193793416023254,4.803055286407471,4.461455345153809
1701104979602295600,17.760295654296876,-0.22184883058071136,4.693721294403076,4.718070030212402
1701104979619297000,17.777297119140623,-0.7886561751365662,4.416274547576904,4.9781012535095215
1701104979636287200,17.794287353515625,-1.2930289506912231,4.302811622619629,5.265045642852783
1701104979653279000,17.811279052734374,-1.4401578903198242,4.450050354003906,5.957250595092773
1701104979670271700,17.828271728515624,-1.1897845268249512,4.615922927856445,7.179026126861572
1701104979687264300,17.84526416015625,-0.4803782105445862,4.457367897033691,8.907195091247559
1701104979704256800,17.8622568359375,0.10881013423204422,4.1104736328125,10.036434173583984
1701104979721248500,17.87924853515625,0.41558384895324707,3.104246139526367,10.698230743408203
1701104979738241300,17.8962412109375,0.6712362766265869,1.7543058395385742,11.412057876586914
1701104979755233800,17.91323388671875,1.0476610660552979,0.8086037635803223,11.831186294555664
1701104979772224000,17.93022412109375,1.5924394130706787,0.860837459564209,11.739179611206055
1701104979789220900,17.947220947265624,2.2128727436065674,2.0311975479125977,11.204715728759766
1701104979806211000,17.964211181640625,2.377469778060913,2.98197078704834,10.725648880004883
1701104979823203300,17.981203369140626,2.0765786170959473,2.928211212158203,10.215330123901367
1701104979840193300,17.998193359375,1.392553687095642,1.592970848083496,9.484230041503906
1701104979857190700,18.015190673828126,1.1560633182525635,-0.37671470642089844,8.391170501708984
1701104979874180400,18.032180419921875,1.4829720258712769,-2.2166953086853027,6.999757766723633
1701104979891172900,18.0491728515625,1.9891455173492432,-3.5401759147644043,5.614288806915283
1701104979908161500,18.06616162109375,2.562406063079834,-4.084768295288086,4.106893062591553
1701104979925155800,18.08315576171875,2.77726674079895,-4.140962600708008,2.473449230194092
1701104979942152000,18.10015185546875,2.744992733001709,-3.8563246726989746,0.649937629699707
1701104979959142400,18.117142333984376,2.6710798740386963,-3.6290764808654785,-0.7352132797241211
1701104979976135200,18.13413525390625,2.5326600074768066,-3.512084484100342,-1.7838335037231445
1701104979993127200,18.151127197265627,2.4566245079040527,-3.4028854370117188,-2.7689123153686523
1701104980010119700,18.16811962890625,2.5325493812561035,-3.1957008838653564,-3.6287221908569336
1701104980027112200,18.1851123046875,2.8116142749786377,-3.165130615234375,-3.9475107192993164
1701104980044104700,18.202104736328124,3.096637487411499,-3.5546233654022217,-3.7920007705688477
1701104980061096700,18.2190966796875,3.205554485321045,-4.3138885498046875,-3.3268871307373047
1701104980078089200,18.236089111328123,3.0863466262817383,-4.973687171936035,-3.0960230827331543
1701104980095079200,18.2530791015625,2.8882017135620117,-5.413701057434082,-3.379415512084961
1701104980112066800,18.27006689453125,2.7352800369262695,-5.918294906616211,-3.954195976257324
1701104980129066200,18.287066162109376,2.863745927810669,-6.747253894805908,-4.433636665344238
1701104980146059000,18.30405908203125,3.305302619934082,-7.416006088256836,-4.901795387268066
1701104980163051300,18.32105126953125,3.8276281356811523,-7.557384014129639,-5.162032604217529
1701104980180043800,18.338043701171873,3.9992620944976807,-7.404967308044434,-5.051436424255371
1701104980197035800,18.355035888671875,3.3347835540771484,-7.451338768005371,-4.83078145980835
1701104980214028500,18.372028564453124,2.23049259185791,-7.6472368240356445,-5.048305034637451
1701104980231020800,18.389020751953126,1.528462290763855,-7.935160160064697,-5.0661187171936035
1701104980248013600,18.406013671875,1.2641491889953613,-7.848639488220215,-4.941373825073242
1701104980265005600,18.423005615234374,1.3500412702560425,-7.344779968261719,-4.076138973236084
1701104980281998000,18.439998046875,1.1053812503814697,-6.697501182556152,-2.697734832763672
1701104980298990600,18.456990478515625,0.33518946170806885,-5.941526412963867,-2.212047576904297
1701104980315965000,18.47396484375,-0.5818513631820679,-5.207197666168213,-2.275881767272949
1701104980332974800,18.490974853515624,-1.1879911422729492,-4.715217590332031,-2.3065109252929688
1701104980349964300,18.50796435546875,-1.3166158199310303,-4.473626613616943,-1.9706039428710938
1701104980366963700,18.524963623046876,-0.9500162601470947,-4.1179046630859375,-1.2707462310791016
1701104980383952600,18.54195263671875,-0.5034042596817017,-3.6590490341186523,-0.45851802825927734
1701104980400944600,18.558944580078126,-0.008793175220489502,-2.997544288635254,0.5202903747558594
1701104980417937400,18.5759375,0.31573423743247986,-1.9794683456420898,1.2533369064331055
1701104980434929400,18.592929443359374,0.5250648856163025,-0.8340315818786621,1.3574538230895996
1701104980451922400,18.60992236328125,0.6724172234535217,0.031882286071777344,1.551884651184082
1701104980468914200,18.6269140625,0.7750493288040161,0.9428195953369141,2.0264720916748047
1701104980485907000,18.643906982421875,0.43303215503692627,1.9080233573913574,2.9095311164855957
1701104980502899500,18.6608994140625,-0.5493689775466919,3.015005111694336,3.8403730392456055
1701104980519894300,18.677894287109375,-1.8887141942977905,4.192177772521973,4.333542346954346
1701104980536881200,18.694881103515623,-3.0428924560546875,4.928128719329834,4.717794418334961
1701104980553876500,18.71187646484375,-3.627014398574829,5.446121692657471,5.039251327514648
1701104980570868700,18.72886865234375,-3.3684468269348145,5.451181888580322,5.688521385192871
1701104980587859200,18.745859130859376,-2.1927928924560547,5.46345329284668,6.104227066040039
1701104980604856000,18.76285595703125,-0.6771273612976074,5.290891647338867,6.558774948120117
1701104980621835800,18.779835693359374,0.8855875730514526,4.971064567565918,6.821895122528076
1701104980638838500,18.796838623046874,1.9093399047851562,4.644782066345215,7.114889144897461
1701104980655831000,18.8138310546875,1.3980319499969482,4.356455326080322,7.714141368865967
1701104980672823000,18.830822998046877,0.5658456087112427,3.6989212036132812,9.161307334899902
1701104980689815600,18.847815673828126,1.183746576309204,2.741665840148926,10.711481094360352
1701104980706797800,18.8647978515625,3.043182373046875,1.8310551643371582,11.626709938049316
1701104980723800800,18.88180078125,4.50280237197876,0.7879543304443359,12.930404663085938
1701104980740784400,18.898784423828126,5.006651401519775,0.3479757308959961,13.875631332397461
1701104980757785300,18.915785400390625,4.485339641571045,0.5239543914794922,14.257816314697266
1701104980774776800,18.93277685546875,3.76468825340271,1.0502281188964844,13.837644577026367
1701104980791771000,18.94977099609375,3.3519792556762695,1.6121530532836914,12.585535049438477
1701104980808762400,18.966762451171874,2.9274535179138184,1.4196562767028809,10.743868827819824
1701104980825744400,18.983744384765625,2.5977611541748047,0.5103459358215332,8.70498275756836
1701104980842747100,19.0007470703125,2.521397829055786,-0.9316568374633789,6.843477249145508
1701104980859740000,19.017739990234375,2.648291826248169,-2.8344006538391113,5.748878002166748
1701104980876731600,19.034731689453125,2.456465244293213,-4.301965236663818,4.586703777313232
1701104980893726200,19.051726318359375,1.926837682723999,-5.133998394012451,2.9968314170837402
1701104980910713900,19.0687138671875,1.4967256784439087,-5.082966327667236,1.0762577056884766
1701104980927710700,19.085710693359374,1.5427080392837524,-4.844221115112305,-0.3729677200317383
1701104980944701400,19.102701416015623,1.6527155637741089,-4.3456711769104,-1.5309100151062012
1701104980961694000,19.11969384765625,1.4043453931808472,-3.7884647846221924,-2.5701303482055664
1701104980978693600,19.136693603515624,0.6777915954589844,-3.5428519248962402,-3.3188109397888184
1701104980995679000,19.153678955078124,0.38411805033683777,-3.4823193550109863,-4.066391944885254
1701104981012670700,19.170670654296874,0.841805100440979,-3.671419620513916,-4.698708534240723
1701104981029659600,19.18765966796875,1.6573864221572876,-4.103403091430664,-5.056859016418457
1701104981046658600,19.204658447265626,2.4018967151641846,-4.245203971862793,-5.338379859924316
1701104981063648800,19.221648681640627,2.406791925430298,-4.329198360443115,-5.271997451782227
1701104981080640500,19.238640625,2.1325461864471436,-4.3883280754089355,-5.098345756530762
1701104981097633000,19.255633056640626,1.9128665924072266,-4.696060657501221,-4.8494954109191895
1701104981114625500,19.27262548828125,1.9334639310836792,-5.445876121520996,-4.508392810821533
1701104981131618000,19.2896181640625,2.178982734680176,-6.273629665374756,-4.381072044372559
1701104981148610000,19.306610107421875,2.546865940093994,-6.932292461395264,-4.519290924072266
1701104981165601300,19.323601318359376,2.820549964904785,-7.357578277587891,-4.827461242675781
1701104981182595000,19.340594970703126,2.808413028717041,-7.7452497482299805,-4.864448547363281
1701104981199585300,19.357585205078124,2.225813388824463,-8.220911026000977,-4.419665336608887
1701104981216582400,19.37458251953125,1.1432414054870605,-8.467514991760254,-4.093596458435059
1701104981233572000,19.391572021484375,0.33000242710113525,-8.635137557983398,-3.8555517196655273
1701104981250564600,19.408564697265625,-0.22007620334625244,-8.99836254119873,-3.8333940505981445
1701104981267569200,19.425569091796874,-0.15717458724975586,-9.069513320922852,-4.137964248657227
1701104981284538600,19.44253857421875,0.1908782720565796,-8.621367454528809,-4.389616966247559
1701104981301539000,19.4595390625,0.44401758909225464,-7.818592071533203,-4.3512725830078125
1701104981318537000,19.476536865234376,0.5198407173156738,-7.169680595397949,-3.1764392852783203
1701104981335513900,19.493513916015626,1.1178845167160034,-6.698184490203857,-0.5344924926757812
1701104981352518100,19.51051806640625,1.9429376125335693,-6.130773544311523,1.5153827667236328
1701104981369500400,19.52750048828125,2.557116985321045,-5.30537223815918,2.518233299255371
1701104981386504400,19.54450439453125,2.104405403137207,-4.548697471618652,2.7364253997802734
1701104981403496400,19.561496337890624,1.0749247074127197,-3.794945240020752,2.6156721115112305
1701104981420488400,19.578488525390625,-0.10562360286712646,-3.0385184288024902,3.0914297103881836
1701104981437481000,19.59548095703125,-0.9088164567947388,-1.93910551071167,3.7642221450805664
1701104981454473500,19.612473388671877,-0.9741055965423584,-0.6389913558959961,4.414907455444336
1701104981471466000,19.629466064453126,-0.6847578287124634,0.767998218536377,4.784521102905273
1701104981488458000,19.6464580078125,-0.34639596939086914,2.128282070159912,4.715595722198486
1701104981505453300,19.663453369140626,-0.24981817603111267,3.2924532890319824,4.650936126708984
1701104981522440400,19.6804404296875,-0.6040244698524475,4.233333110809326,4.650916576385498
1701104981539435500,19.697435546875,-1.1818702220916748,5.059338569641113,4.81412935256958
1701104981556427500,19.714427490234375,-1.578626036643982,5.564866065979004,5.48275089263916
1701104981573420300,19.731420166015624,-1.4621905088424683,5.643712997436523,6.206250190734863
1701104981590412500,19.74841259765625,-1.4031286239624023,5.601744174957275,6.1423163414001465
1701104981607393800,19.765393798828125,-1.2815746068954468,5.3529863357543945,5.647709846496582
1701104981624384500,19.782384521484374,-0.9552911520004272,5.074342250823975,4.942799091339111
1701104981641401300,19.7994013671875,-0.44093579053878784,4.584191799163818,4.576912879943848
1701104981658379000,19.81637890625,0.387779176235199,4.066522598266602,4.648689270019531
1701104981675376000,19.833376220703126,1.200242280960083,3.5246124267578125,4.925884246826172
1701104981692368100,19.8503681640625,1.7143826484680176,3.040215492248535,4.885098934173584
1701104981709355000,19.86735498046875,2.17539119720459,2.9735889434814453,4.68655252456665
1701104981726351600,19.8843515625,2.660555839538574,2.836592197418213,5.529336452484131
1701104981743341800,19.901341796875,3.0951194763183594,2.526399612426758,6.966837406158447
1701104981760333300,19.918333251953126,3.556969165802002,2.10147762298584,8.485260009765625
1701104981777329700,19.93532958984375,3.751330852508545,1.4502677917480469,10.207084655761719
1701104981794311700,19.952311767578124,3.508786678314209,1.0870933532714844,11.280803680419922
1701104981811302000,19.969302001953125,3.171555519104004,1.2991132736206055,11.749360084533691
1701104981828305000,19.986304931640625,3.035217046737671,2.192429542541504,11.735740661621094
1701104981845293300,20.003293212890625,2.9922585487365723,2.949334144592285,11.776912689208984
1701104981862284300,20.0202841796875,2.7621562480926514,2.846477508544922,11.508838653564453
1701104981879275000,20.03727490234375,2.509376049041748,1.6236982345581055,10.670197486877441
1701104981896275500,20.054275390625,2.252568006515503,-0.4250211715698242,9.759872436523438
1701104981913268000,20.07126806640625,1.9639711380004883,-2.243537425994873,8.525856018066406
1701104981930260500,20.088260498046875,2.0169878005981445,-3.4460716247558594,6.998141765594482
1701104981947253200,20.105253173828125,2.3895010948181152,-4.086819648742676,5.364048480987549
1701104981964244700,20.12224462890625,2.6282105445861816,-4.339015483856201,3.475888252258301
1701104981981237500,20.139237548828124,2.673025608062744,-4.323635578155518,1.6085515022277832
1701104981998230000,20.15622998046875,2.4539194107055664,-3.9755897521972656,-0.1990652084350586
1701104982015222500,20.173222412109375,2.098764657974243,-3.604180335998535,-1.6577434539794922
1701104982032214500,20.190214599609376,1.5482583045959473,-3.2874159812927246,-2.8932151794433594
1701104982049207300,20.207207275390626,1.1073795557022095,-3.037104368209839,-4.0464324951171875
1701104982066199800,20.22419970703125,0.9909433722496033,-2.8936405181884766,-4.810020446777344
1701104982083195600,20.241195556640626,1.0742359161376953,-2.8981306552886963,-5.2190423011779785
1701104982100184000,20.25818408203125,1.1854170560836792,-2.8290698528289795,-5.589686870574951
1701104982117179400,20.275179443359374,1.3752753734588623,-2.873612403869629,-5.828655242919922
1701104982134169000,20.292169189453126,1.3280776739120483,-3.0572397708892822,-5.939511775970459
1701104982151161900,20.309161865234376,1.1672694683074951,-3.5585837364196777,-5.945714950561523
1701104982168153900,20.32615380859375,1.1368491649627686,-4.239643096923828,-5.808826446533203
1701104982185146600,20.343146728515624,1.3951265811920166,-4.859199047088623,-5.715134620666504
1701104982202138600,20.360138671875,1.8507301807403564,-5.376253604888916,-5.711695194244385
1701104982219131100,20.377131103515627,2.277308464050293,-6.097178936004639,-5.507679462432861
1701104982236123400,20.394123291015624,2.609264850616455,-6.8578362464904785,-5.201540946960449
1701104982253116000,20.411115966796874,2.8441519737243652,-7.551863670349121,-4.690483570098877
1701104982270109200,20.428109130859376,2.903318405151367,-7.847098350524902,-4.204677581787109
1701104982287101000,20.445100830078125,2.8994946479797363,-7.651160717010498,-3.575833320617676
1701104982304094700,20.4620947265625,3.439347743988037,-7.661069393157959,-2.5832366943359375
1701104982321083400,20.47908349609375,4.655653953552246,-7.72720193862915,-2.1049957275390625
1701104982338077700,20.49607763671875,4.88362455368042,-7.763786315917969,-1.5853147506713867
1701104982355070500,20.513070556640624,4.041431427001953,-7.300537109375,-0.9994821548461914
1701104982372062200,20.530062255859374,2.6973788738250732,-6.146675109863281,-0.3987102508544922
1701104982389055200,20.54705517578125,0.921847939491272,-4.976102828979492,0.6748723983764648
1701104982406059800,20.564059814453124,-1.0522544384002686,-3.9963626861572266,1.8546142578125
1701104982423040000,20.5810400390625,-2.3954386711120605,-3.2021713256835938,2.9447383880615234
1701104982440021500,20.598021484375,-2.9337117671966553,-2.7720112800598145,3.3867855072021484
1701104982457025300,20.615025390625,-2.6856529712677,-2.5023064613342285,2.8772692680358887
1701104982474016000,20.63201611328125,-1.5005289316177368,-2.0749197006225586,2.2032594680786133
1701104982491010000,20.649010009765625,0.23134362697601318,-1.2793283462524414,2.1440377235412598
1701104982508001500,20.66600146484375,1.8124022483825684,-0.09737920761108398,2.4090347290039062
1701104982524994300,20.682994384765625,2.80599308013916,1.2879619598388672,2.9780006408691406
1701104982541998000,20.699998046875,2.911679983139038,2.8026270866394043,3.228209972381592
1701104982558979000,20.71697900390625,2.064002275466919,4.105837821960449,2.7244439125061035
1701104982575971000,20.73397119140625,0.6294975280761719,5.043187618255615,1.968092441558838
1701104982592963800,20.7509638671875,-0.5672121644020081,5.570117950439453,1.5807032585144043
1701104982609956000,20.7679560546875,-1.24180269241333,5.806823253631592,1.6930828094482422
1701104982626948900,20.784948974609375,-1.2940820455551147,5.892000675201416,2.139392375946045
1701104982643930400,20.801930419921874,-1.0816549062728882,5.822018146514893,2.8815388679504395
1701104982660933000,20.81893310546875,-0.8062019348144531,5.4194231033325195,3.6035208702087402
1701104982677925600,20.835925537109375,-0.39515599608421326,4.916445732116699,4.006772041320801
1701104982694908000,20.852907958984375,-0.08233091235160828,4.326613426208496,4.297715663909912
1701104982711910100,20.86991015625,-0.0768730640411377,3.7723169326782227,4.337909698486328
1701104982728903000,20.88690283203125,0.015155881643295288,3.299330711364746,4.4189887046813965
1701104982745895700,20.903895751953126,0.32686811685562134,2.870976448059082,4.735652923583984
1701104982762888000,20.920887939453124,0.7775173187255859,2.501152992248535,4.949724197387695
1701104982779879700,20.937879638671873,1.3915815353393555,2.029041290283203,5.621214866638184
1701104982796872700,20.954872802734375,1.986861228942871,1.6013927459716797,6.225289344787598
1701104982813864700,20.97186474609375,2.5931224822998047,1.159627914428711,6.837418556213379
1701104982830857500,20.988857421875,2.883774518966675,0.3043098449707031,7.715331077575684
1701104982847851000,21.00585107421875,3.0814578533172607,-0.03706550598144531,8.421746253967285
1701104982864830500,21.02283056640625,2.9375193119049072,0.3621673583984375,9.110881805419922
1701104982881822000,21.039822021484376,2.3872454166412354,1.5300860404968262,9.165220260620117
1701104982898818800,21.05681884765625,1.6580570936203003,2.874980926513672,8.838855743408203
1701104982915813400,21.0738134765625,0.9046533703804016,3.459784507751465,8.743555068969727
1701104982932797000,21.090796875,0.46093690395355225,3.1085257530212402,8.860001564025879
1701104982949798400,21.10779833984375,0.30331552028656006,2.174983024597168,8.61212158203125
1701104982966786300,21.124786376953125,0.4859606921672821,1.0298957824707031,7.803300380706787
1701104982983783700,21.14178369140625,0.8567931652069092,-0.17692995071411133,6.95629358291626
1701104983000775200,21.158775146484373,1.2422664165496826,-0.9865155220031738,5.729259014129639
1701104983017769200,21.175769287109375,1.5851691961288452,-1.4318170547485352,4.273098945617676
1701104983034755600,21.192755615234375,1.738516092300415,-1.5834784507751465,2.7600650787353516
1701104983051748400,21.209748291015625,1.5924888849258423,-1.4826269149780273,1.250044345855713
1701104983068752100,21.226752197265625,1.308692216873169,-1.1513619422912598,-0.3507213592529297
1701104983085732400,21.243732421875,1.351588487625122,-0.6407804489135742,-1.840273380279541
1701104983102725400,21.260725341796874,1.6867204904556274,-0.35988664627075195,-2.849477767944336
1701104983119726800,21.277726806640626,1.975724220275879,-0.3636155128479004,-3.0166854858398438
1701104983136720100,21.29472021484375,2.5397331714630127,-0.3813180923461914,-2.4334959983825684
1701104983153710000,21.3117099609375,3.2126402854919434,-0.2900233268737793,-1.8006172180175781
1701104983170708000,21.3287080078125,3.149909257888794,-0.24908161163330078,-1.9722509384155273
1701104983187697200,21.345697265625,2.1684837341308594,-0.3977811336517334,-2.810776710510254
1701104983204690000,21.36268994140625,1.342369794845581,-0.5639047622680664,-3.6857147216796875
1701104983221685500,21.379685546875,1.5982763767242432,-0.6916003227233887,-3.4944682121276855
1701104983238671400,21.39667138671875,2.4658877849578857,-0.8261215686798096,-2.8615942001342773
1701104983255666700,21.413666748046875,3.10382080078125,-1.164820909500122,-2.397181510925293
1701104983272659500,21.430659423828125,3.310068130493164,-1.6064655780792236,-2.402317523956299
1701104983289649700,21.447649658203126,3.1368207931518555,-2.1487042903900146,-2.877932548522949
1701104983306646800,21.464646728515625,2.9738216400146484,-2.675452947616577,-3.744736671447754
1701104983323636200,21.48163623046875,3.2081143856048584,-3.035513401031494,-4.726379871368408
1701104983340628700,21.498628662109375,3.911369562149048,-3.066720962524414,-5.222762107849121
1701104983357621800,21.515621826171873,4.46810245513916,-2.948770046234131,-4.588482856750488
1701104983374613500,21.532613525390627,3.6805579662323,-2.904479503631592,-3.5421714782714844
1701104983391605800,21.549605712890624,1.441287636756897,-3.544403553009033,-3.5425634384155273
1701104983408598800,21.566598876953126,-0.06322801113128662,-4.638537406921387,-5.291622161865234
1701104983425601300,21.583601318359374,0.9694740772247314,-4.8980865478515625,-6.610293388366699
1701104983442583600,21.60058349609375,3.3811190128326416,-4.787697792053223,-4.846199989318848
1701104983459575300,21.6175751953125,4.802399635314941,-4.274997711181641,-0.9985170364379883
1701104983476568000,21.634568115234377,4.1398444175720215,-3.621210813522339,2.4369945526123047
1701104983493560300,21.651560302734374,1.2450408935546875,-3.117905616760254,3.1795339584350586
1701104983510553000,21.668552978515624,-2.4604029655456543,-2.8678970336914062,2.2495994567871094
1701104983527545000,21.685545166015626,-5.063260555267334,-2.630748748779297,1.5883607864379883
1701104983544527000,21.702527099609377,-5.955071449279785,-2.21844482421875,1.3335113525390625
1701104983561527300,21.71952734375,-5.069131851196289,-1.946362018585205,1.6761131286621094
1701104983578525200,21.736525146484375,-3.3484208583831787,-1.956817626953125,2.3457441329956055
1701104983595514600,21.7535146484375,-1.4522802829742432,-1.7093515396118164,2.7615227699279785
