time,seconds_elapsed,z,y,x
1701893466718226200,0.17522607421875,-0.4422144889831543,-1.3612236976623535,0.026719331741333008
1701893466735216600,0.192216552734375,-0.26120901107788086,-1.7379546165466309,0.6485323905944824
1701893466752204000,0.2092041015625,-1.7752132415771484,-1.8615562915802002,0.7602763175964355
1701893466769200000,0.2262001953125,-4.044840335845947,-2.0704216957092285,0.30393314361572266
1701893466786186200,0.243186279296875,-5.406371116638184,-2.327221155166626,0.018800735473632812
1701893466803182800,0.260182861328125,-5.3041558265686035,-2.838330030441284,0.1564464569091797
1701893466820170500,0.27717041015625,-4.426882743835449,-3.214900016784668,0.3412818908691406
1701893466837162200,0.294162353515625,-3.268155336380005,-3.797473669052124,0.5504903793334961
1701893466854156500,0.311156494140625,-2.3576009273529053,-3.881986141204834,-0.34857940673828125
1701893466871147000,0.32814697265625,-2.453585147857666,-4.033802509307861,-1.6089200973510742
1701893466888139300,0.34513916015625,-3.001011848449707,-4.274190902709961,-2.5607099533081055
1701893466905120800,0.362120849609375,-3.1501412391662598,-4.633837699890137,-2.0149574279785156
1701893466922121000,0.379120849609375,-2.500535488128662,-4.619441032409668,-1.028630256652832
1701893466939114000,0.396114013671875,-1.5667872428894043,-4.565184593200684,-0.7212581634521484
1701893466956100000,0.41310009765625,-0.12239217758178711,-4.586252212524414,-0.8300285339355469
1701893466973096400,0.430096435546875,1.313828468322754,-4.358950138092041,-0.6183156967163086
1701893466990093600,0.447093505859375,1.6153392791748047,-3.933091163635254,0.3014488220214844
1701893467007074800,0.46407470703125,0.5980911254882812,-3.2553234100341797,1.4487419128417969
1701893467024071400,0.481071533203125,-0.27034392952919006,-2.8476290702819824,2.6366500854492188
1701893467041060600,0.498060546875,0.1484876275062561,-2.5040674209594727,3.1608810424804688
1701893467058047000,0.515046875,1.786867380142212,-2.303464889526367,3.4086170196533203
1701893467075041000,0.532041015625,3.8196494579315186,-1.9527252912521362,4.316503524780273
1701893467092035800,0.549035888671875,5.052988052368164,-1.2562648057937622,4.744312286376953
1701893467109027800,0.56602783203125,4.995031833648682,-0.5208649635314941,4.327752113342285
1701893467126015500,0.583015380859375,4.016083240509033,0.09056949615478516,3.682788848876953
1701893467143004200,0.600004150390625,2.799036979675293,0.386279821395874,3.1335744857788086
1701893467160002300,0.617002197265625,1.7144501209259033,0.5418369770050049,2.962019920349121
1701893467176989400,0.633989501953125,1.129167079925537,0.7449743747711182,3.462883949279785
1701893467193984000,0.65098388671875,1.2021145820617676,0.94350266456604,4.271749496459961
1701893467210971400,0.667971435546875,1.5370523929595947,1.216031551361084,5.059770584106445
1701893467227978000,0.68497802734375,1.709834098815918,1.4665031433105469,5.861117362976074
1701893467244962600,0.701962646484375,1.5739253759384155,1.401599407196045,7.077474117279053
1701893467261941500,0.71894140625,1.3606839179992676,1.225067138671875,8.125460624694824
1701893467278939100,0.735939208984375,1.2479572296142578,1.6317534446716309,8.631753921508789
1701893467295933000,0.752932861328125,1.2546467781066895,2.161652088165283,8.950380325317383
1701893467312923400,0.76992333984375,1.0900464057922363,2.389028549194336,9.244827270507812
1701893467329920500,0.78692041015625,0.8473273515701294,2.265641212463379,9.36596965789795
1701893467346905300,0.8039052734375,0.6597480773925781,2.0229949951171875,9.308629035949707
1701893467363898600,0.820898681640625,0.817905068397522,2.0205793380737305,8.891237258911133
1701893467380887000,0.837886962890625,0.9092687964439392,2.3014774322509766,8.156637191772461
1701893467397882600,0.854882568359375,0.8761358261108398,2.753908634185791,7.115179061889648
1701893467414862600,0.871862548828125,0.806215226650238,2.8662242889404297,6.10464334487915
1701893467431861500,0.888861572265625,0.8452775478363037,2.4994754791259766,5.173691272735596
1701893467448846800,0.905846923828125,1.0024473667144775,1.7026453018188477,4.252928256988525
1701893467465844500,0.922844482421875,1.2581826448440552,0.7077493667602539,3.4707188606262207
1701893467482836000,0.9398359375,1.7244081497192383,-0.19297456741333008,2.753377914428711
1701893467499837700,0.956837646484375,2.313631057739258,-0.43758630752563477,2.516268730163574
1701893467516817400,0.9738173828125,2.537569284439087,-0.37177276611328125,2.3771920204162598
1701893467533809000,0.990808837890625,2.441079616546631,-0.15586280822753906,2.1125283241271973
1701893467550802700,1.007802734375,2.016726016998291,0.17787933349609375,1.6188907623291016
1701893467567786000,1.024785888671875,1.5283689498901367,0.32279539108276367,1.210291862487793
1701893467584793300,1.04179345703125,1.3221676349639893,0.2754964828491211,0.9330229759216309
1701893467601777000,1.05877685546875,1.4940252304077148,0.09464168548583984,0.7769331932067871
1701893467618770000,1.07577001953125,2.1183855533599854,-0.007621288299560547,0.5495991706848145
1701893467635756500,1.092756591796875,2.930941581726074,-0.11045360565185547,0.20260190963745117
1701893467652749000,1.1097490234375,3.5199973583221436,-0.29247236251831055,-0.15651798248291016
1701893467669743900,1.126743896484375,4.066076755523682,-0.4598531723022461,-0.6962976455688477
1701893467686724600,1.143724609375,4.439316749572754,-0.7760982513427734,-1.3049664497375488
1701893467703726300,1.160726318359375,4.663433074951172,-1.0831236839294434,-2.0133285522460938
1701893467720712400,1.17771240234375,4.615694046020508,-1.415689468383789,-2.7168407440185547
1701893467737724400,1.194724365234375,4.783021450042725,-1.723522663116455,-3.2338943481445312
1701893467754696200,1.2116962890625,4.929742813110352,-2.103684425354004,-3.65366268157959
1701893467771694000,1.228694091796875,5.112157821655273,-2.6749935150146484,-3.751588821411133
1701893467788672800,1.2456728515625,5.305727958679199,-3.18052077293396,-3.6547608375549316
1701893467805672000,1.262671875,5.524350166320801,-3.616499662399292,-3.4235267639160156
1701893467822669600,1.279669677734375,5.754047393798828,-4.228503227233887,-2.8205037117004395
1701893467839655700,1.29665576171875,5.921817779541016,-4.5636115074157715,-2.0910472869873047
1701893467856646000,1.31364599609375,5.829318046569824,-4.597107887268066,-1.410048484802246
1701893467873632500,1.330632568359375,5.214353561401367,-4.739414215087891,-0.9258127212524414
1701893467890627800,1.3476279296875,4.309305191040039,-5.094216346740723,-0.8023347854614258
1701893467907623000,1.364622802734375,3.4296836853027344,-5.606276512145996,-0.8605184555053711
1701893467924615400,1.381615478515625,2.7046685218811035,-6.133206844329834,-1.0123891830444336
1701893467941604900,1.39860498046875,2.2106223106384277,-5.813170909881592,-1.7769761085510254
1701893467958597600,1.41559765625,1.8588452339172363,-4.575900077819824,-2.517805576324463
1701893467975585300,1.432585205078125,1.3665193319320679,-3.386077880859375,-2.245515823364258
1701893467992578800,1.449578857421875,0.3863370418548584,-2.8772878646850586,-0.997467041015625
1701893468009571800,1.46657177734375,-0.9765658378601074,-2.8595480918884277,0.29515552520751953
1701893468026557000,1.483556884765625,-2.070740222930908,-2.8404793739318848,0.85101318359375
1701893468043551000,1.500551025390625,-2.5590333938598633,-2.8603806495666504,0.7662301063537598
1701893468060545000,1.517544921875,-2.113511323928833,-2.4149818420410156,0.39642953872680664
1701893468077533700,1.53453369140625,-0.9941310882568359,-1.608963966369629,0.5950884819030762
1701893468094528000,1.551528076171875,0.19521474838256836,-0.5996060371398926,1.349097728729248
1701893468111517200,1.56851708984375,1.0264866352081299,0.5006437301635742,2.354081630706787
1701893468128513300,1.58551318359375,1.3583391904830933,1.5139269828796387,3.2422046661376953
1701893468145500000,1.6025,1.3147584199905396,2.514523983001709,3.5431876182556152
1701893468162491100,1.6194912109375,1.0610271692276,3.414473533630371,3.2057013511657715
1701893468179486000,1.63648583984375,0.6595377922058105,3.8312315940856934,2.789905071258545
1701893468196468000,1.653468017578125,0.3994789123535156,4.05261754989624,2.3507227897644043
1701893468213468000,1.670468017578125,0.2918945550918579,4.232333183288574,2.158346176147461
1701893468230455600,1.68745556640625,0.07703852653503418,4.377584934234619,2.206430435180664
1701893468247448300,1.7044482421875,-0.19310534000396729,4.404672622680664,2.539074420928955
1701893468264441900,1.72144189453125,-0.49296581745147705,4.275101661682129,3.172391414642334
1701893468281432800,1.738432861328125,-0.7190952301025391,4.016455173492432,4.014505386352539
1701893468298425600,1.755425537109375,-1.0962705612182617,3.764458179473877,4.622398853302002
1701893468315414300,1.772414306640625,-1.585181713104248,3.3845090866088867,5.231163024902344
1701893468332406000,1.789406005859375,-1.90989089012146,2.914551258087158,5.737594127655029
1701893468349399000,1.80639892578125,-1.9056007862091064,2.3141603469848633,5.955758094787598
1701893468366387200,1.82338720703125,-1.295400619506836,1.3254499435424805,6.041006088256836
1701893468383382300,1.84038232421875,-0.029296159744262695,0.20340919494628906,5.829143524169922
1701893468400374300,1.857374267578125,1.4805659055709839,-0.5861148834228516,5.160345077514648
1701893468417360000,1.87435986328125,2.8858375549316406,-0.8200478553771973,4.214710235595703
1701893468434356700,1.891356689453125,3.8657400608062744,-0.8522381782531738,3.4702248573303223
1701893468451335400,1.90833544921875,4.248427867889404,-1.4403190612792969,3.145500659942627
1701893468468337000,1.9253369140625,4.02939510345459,-2.635042667388916,3.0529890060424805
1701893468485330000,1.942329833984375,3.6779491901397705,-3.7375149726867676,2.8360233306884766
1701893468502320600,1.959320556640625,3.735383987426758,-3.6471686363220215,2.2931575775146484
1701893468519314400,1.976314453125,4.195949554443359,-2.204603672027588,2.204838275909424
1701893468536302000,1.993302001953125,4.109602928161621,-0.993171215057373,3.211320400238037
1701893468553291800,2.010291748046875,3.4795827865600586,-0.08940458297729492,4.352834224700928
1701893468570288000,2.0272880859375,2.3028976917266846,0.0902109146118164,5.094473361968994
1701893468587266800,2.044266845703125,1.096799612045288,-0.6467790603637695,5.231237888336182
1701893468604269800,2.061269775390625,0.7861937880516052,-1.8045587539672852,4.799773216247559
1701893468621258800,2.0782587890625,1.2269299030303955,-2.3923721313476562,3.9375953674316406
1701893468638255600,2.095255615234375,1.6699402332305908,-2.195718288421631,2.893470287322998
1701893468655241200,2.1122412109375,1.9244368076324463,-1.6332626342773438,2.123962879180908
1701893468672234800,2.12923486328125,2.160100221633911,-1.1599555015563965,1.6923351287841797
1701893468689227800,2.146227783203125,2.561525583267212,-0.9871845245361328,1.489229679107666
1701893468706215200,2.163215087890625,2.951467514038086,-1.1118559837341309,1.349219799041748
1701893468723209200,2.180209228515625,3.159919261932373,-1.0147705078125,0.6833529472351074
1701893468740197600,2.19719775390625,3.1432456970214844,-0.849851131439209,-0.3392810821533203
1701893468757191000,2.21419091796875,3.264833688735962,-0.6197752952575684,-1.5257186889648438
1701893468774184000,2.231183837890625,3.6204898357391357,-0.4904341697692871,-2.509523391723633
1701893468791175000,2.2481748046875,3.974102020263672,-0.6604456901550293,-3.0810513496398926
1701893468808166700,2.265166748046875,4.2546539306640625,-0.857093334197998,-3.5525193214416504
1701893468825148700,2.282148681640625,4.271730422973633,-1.1434235572814941,-3.9249343872070312
1701893468842149000,2.299149169921875,4.143551826477051,-1.455446720123291,-4.436999320983887
1701893468859139600,2.3161396484375,4.149908065795898,-1.8947057723999023,-4.863682746887207
1701893468876131600,2.333131591796875,4.479629039764404,-2.2505407333374023,-5.127432823181152
1701893468893123000,2.350123046875,5.0895209312438965,-2.639216184616089,-4.711286544799805
1701893468910116000,2.3671162109375,5.556136131286621,-2.956430196762085,-3.962803840637207
1701893468927103000,2.38410302734375,5.591062545776367,-3.037122964859009,-3.093690872192383
1701893468944098600,2.4010986328125,5.060503959655762,-3.1193041801452637,-2.5868234634399414
1701893468961088800,2.4180888671875,4.16790246963501,-3.6379878520965576,-2.4075093269348145
1701893468978081800,2.435081787109375,3.602240562438965,-4.3613481521606445,-2.2932825088500977
1701893468995065900,2.45206591796875,3.394141674041748,-4.85189962387085,-2.029135227203369
1701893469012066000,2.469066162109375,3.0353198051452637,-5.455100059509277,-1.6077847480773926
1701893469029056000,2.486055908203125,2.389967918395996,-6.26153039932251,-0.816563606262207
1701893469046043400,2.50304345703125,1.4131498336791992,-6.501157283782959,-0.14670372009277344
1701893469063034600,2.52003466796875,0.3778684139251709,-6.4544477462768555,-0.013552665710449219
1701893469080026600,2.537026611328125,-0.0500791072845459,-6.456574440002441,-0.25148582458496094
1701893469097017300,2.554017333984375,0.4885580539703369,-5.731770992279053,-0.8252830505371094
1701893469114012200,2.57101220703125,1.6929502487182617,-4.094130516052246,-1.2168664932250977
1701893469130999800,2.587999755859375,2.3086705207824707,-2.4816055297851562,-0.7098722457885742
1701893469147995600,2.60499560546875,1.8404725790023804,-1.6791391372680664,0.2561216354370117
1701893469164978200,2.621978271484375,0.9599367380142212,-1.2701940536499023,0.8509330749511719
1701893469181979400,2.6389794921875,0.19661450386047363,-1.2615909576416016,0.6926240921020508
1701893469198971600,2.6559716796875,-0.031922101974487305,-1.3614192008972168,-0.27338171005249023
1701893469215957200,2.672957275390625,0.2192516326904297,-1.2647695541381836,-1.5024209022521973
1701893469232962800,2.689962890625,0.8519008159637451,-0.858574390411377,-2.234407901763916
1701893469249938200,2.706938232421875,1.5967237949371338,-0.322385311126709,-2.0256500244140625
1701893469266935800,2.723935791015625,2.038640022277832,0.16368532180786133,-1.0506181716918945
1701893469283925500,2.740925537109375,2.040522336959839,0.6646714210510254,0.014119148254394531
1701893469300922400,2.75792236328125,1.7454893589019775,1.154313087463379,0.728309154510498
1701893469317910300,2.77491015625,1.272528886795044,1.6183242797851562,1.1250314712524414
1701893469334898700,2.791898681640625,0.8674546480178833,2.0581178665161133,1.4909191131591797
1701893469351891000,2.808890869140625,0.6949037313461304,2.698695659637451,1.9110794067382812
1701893469368884200,2.82588427734375,0.5684720277786255,3.3136720657348633,2.6048192977905273
1701893469385871600,2.84287158203125,0.237632155418396,3.9614505767822266,3.372105121612549
1701893469402865400,2.859865478515625,-0.31010353565216064,4.406957149505615,4.202414035797119
1701893469419858200,2.876858154296875,-0.8988994359970093,4.7589569091796875,4.810686111450195
1701893469436845600,2.893845458984375,-1.337384581565857,5.037211894989014,5.209277153015137
1701893469453837000,2.910837158203125,-1.610802412033081,5.1315693855285645,5.479866981506348
1701893469470815500,2.9278154296875,-1.6977633237838745,4.77801513671875,5.858373165130615
1701893469487821600,2.944821533203125,-1.5135900974273682,3.8743185997009277,6.5684990882873535
1701893469504815000,2.961815185546875,-1.3817112445831299,2.8398571014404297,7.268439292907715
1701893469521805300,2.978805419921875,-1.3986589908599854,1.8027124404907227,7.678015232086182
1701893469538798300,2.99579833984375,-1.4829336404800415,0.6657810211181641,7.700755596160889
1701893469555784400,3.012784423828125,-1.0389554500579834,0.07692527770996094,7.406750679016113
1701893469572776700,3.029776611328125,-0.00003993511199951172,-0.5178937911987305,7.621523380279541
1701893469589762000,3.046761962890625,1.1442756652832031,-1.2061290740966797,8.344263076782227
1701893469606752800,3.063752685546875,1.9487379789352417,-1.4703903198242188,8.904483795166016
1701893469623745500,3.08074560546875,2.36796498298645,-1.2572689056396484,9.093000411987305
1701893469640741000,3.0977412109375,2.5732269287109375,-0.5972909927368164,8.726868629455566
1701893469657724400,3.114724365234375,2.6802029609680176,0.3485565185546875,8.07210922241211
1701893469674711600,3.131711669921875,2.4161031246185303,0.9835753440856934,7.453893184661865
1701893469691722500,3.148722412109375,1.7712287902832031,1.1333727836608887,6.809668064117432
1701893469708701000,3.165700927734375,1.2393739223480225,0.9331459999084473,5.953890800476074
1701893469725703000,3.182702880859375,1.196791410446167,0.43248510360717773,5.033810615539551
1701893469742694400,3.1996943359375,1.422105073928833,-0.10239219665527344,3.957831859588623
1701893469759685400,3.216685302734375,1.8626058101654053,-0.4659242630004883,2.802611827850342
1701893469776676900,3.2336767578125,2.204289436340332,-0.8350133895874023,1.7784638404846191
1701893469793661000,3.250660888671875,2.3339548110961914,-1.1406822204589844,0.939816951751709
1701893469810650400,3.267650390625,2.3276209831237793,-1.0498270988464355,0.23642730712890625
1701893469827650300,3.284650390625,1.9371836185455322,-0.8552179336547852,-0.26397228240966797
1701893469844637400,3.301637451171875,1.6458112001419067,-0.655120849609375,-0.734407901763916
1701893469861625000,3.318625,1.6417720317840576,-0.6628665924072266,-1.115931510925293
1701893469878625500,3.33562548828125,1.8290436267852783,-0.8398089408874512,-1.5574278831481934
1701893469895618000,3.3526181640625,2.2056045532226562,-0.9987139701843262,-2.215024471282959
1701893469912606000,3.36960595703125,2.629244089126587,-1.1182913780212402,-2.9355249404907227
1701893469929602300,3.386602294921875,2.9271137714385986,-1.201117992401123,-3.5785560607910156
1701893469946578700,3.40357861328125,3.215078353881836,-1.2586026191711426,-4.061861991882324
1701893469963576800,3.420576904296875,3.5627660751342773,-1.3765392303466797,-4.224815845489502
1701893469980578600,3.43757861328125,3.877089023590088,-1.5470147132873535,-4.3094706535339355
1701893469997565400,3.4545654296875,4.301659107208252,-1.7206001281738281,-4.286276817321777
1701893470014557000,3.471556884765625,4.681081295013428,-2.013228178024292,-4.296260356903076
1701893470031548000,3.4885478515625,4.981298446655273,-2.4895758628845215,-4.197232246398926
1701893470048539600,3.50553955078125,5.1511640548706055,-3.2453908920288086,-3.836604118347168
1701893470065531000,3.52253076171875,5.099513053894043,-4.039971351623535,-3.4072113037109375
1701893470082520000,3.53952001953125,5.106461524963379,-4.6829094886779785,-3.0317678451538086
1701893470099505200,3.556505126953125,5.180446147918701,-5.466805934906006,-2.2226715087890625
1701893470116497700,3.57349755859375,5.1231794357299805,-5.968836784362793,-1.4229683876037598
1701893470133489000,3.590489013671875,4.814577579498291,-6.168662071228027,-0.5777378082275391
1701893470150481700,3.607481689453125,4.282125949859619,-6.331514358520508,0.8112373352050781
1701893470167469600,3.624469482421875,3.166344165802002,-6.4017333984375,2.215574264526367
1701893470184461600,3.641461669921875,1.9869356155395508,-6.2033371925354,3.1306495666503906
1701893470201458000,3.6584580078125,1.0246613025665283,-5.800058364868164,3.1025705337524414
1701893470218448400,3.675448486328125,0.8904449939727783,-4.568240165710449,2.5702972412109375
1701893470235442700,3.692442626953125,1.2947633266448975,-2.756422996520996,2.141116142272949
1701893470252427000,3.709427001953125,1.301802158355713,-1.4539432525634766,2.169614791870117
1701893470269417000,3.7264169921875,0.9576952457427979,-0.8476462364196777,2.3756861686706543
1701893470286408700,3.74340869140625,0.6303384304046631,-0.6900486946105957,2.1132869720458984
1701893470303402200,3.76040234375,0.5661544799804688,-0.6440639495849609,1.3213062286376953
1701893470320394200,3.777394287109375,0.8235816955566406,-0.4028301239013672,0.3285541534423828
1701893470337383700,3.7943837890625,0.9154094457626343,0.024705886840820312,-0.3981637954711914
1701893470354378200,3.811378173828125,0.8266053199768066,0.6278605461120605,-0.48009777069091797
1701893470371375900,3.8283759765625,0.5289331674575806,1.269498348236084,-0.16466951370239258
1701893470388356900,3.84535693359375,0.18980646133422852,2.0728464126586914,0.013018608093261719
1701893470405347600,3.86234765625,-0.08451354503631592,2.9199705123901367,-0.08816194534301758
1701893470422347300,3.87934716796875,-0.2677783966064453,3.5771799087524414,-0.32248878479003906
1701893470439339300,3.89633935546875,-0.46435344219207764,3.963632583618164,-0.6164169311523438
1701893470456335600,3.913335693359375,-0.7164773941040039,4.1545233726501465,-0.7856974601745605
1701893470473321500,3.930321533203125,-1.0097479820251465,4.256304740905762,-0.5299282073974609
1701893470490316800,3.94731689453125,-1.2990742921829224,4.569295406341553,0.11312198638916016
1701893470507299000,3.964299072265625,-1.7863396406173706,5.0565595626831055,1.2077784538269043
1701893470524298800,3.981298828125,-2.5567686557769775,5.320655345916748,2.0696725845336914
1701893470541290500,3.99829052734375,-3.021913528442383,5.448375225067139,2.4569091796875
1701893470558271700,4.015271728515625,-3.105910062789917,5.337453365325928,2.8329954147338867
1701893470575273000,4.03227294921875,-2.7019972801208496,4.777222633361816,3.3749756813049316
1701893470592264400,4.049264404296875,-1.9604520797729492,4.07661771774292,4.127600193023682
1701893470609248800,4.066248779296875,-1.2804867029190063,3.3621573448181152,5.003636360168457
1701893470626247700,4.08324755859375,-0.81444251537323,2.7908544540405273,5.499790668487549
1701893470643238700,4.10023876953125,-0.7802587747573853,2.0600662231445312,5.843132972717285
1701893470660226000,4.11722607421875,-0.8741589784622192,1.181253433227539,6.346075534820557
1701893470677222400,4.134222412109375,-0.7398239374160767,0.2838249206542969,6.9596710205078125
1701893470694213400,4.15121337890625,-0.20392274856567383,-0.8140659332275391,7.756120204925537
1701893470711204000,4.1682041015625,0.40959596633911133,-1.8947834968566895,8.614147186279297
1701893470728204500,4.18520458984375,0.9185527563095093,-2.187032699584961,8.945322036743164
1701893470745188000,4.20218798828125,1.2133426666259766,-1.6460752487182617,8.89952564239502
1701893470762179000,4.219178955078125,1.2671672105789185,-0.48737144470214844,8.626302719116211
1701893470779159600,4.23615966796875,1.0500669479370117,0.582362174987793,8.223398208618164
1701893470796168200,4.253168212890625,0.7025021910667419,1.2401823997497559,7.590141773223877
1701893470813155000,4.270155029296875,0.4199203848838806,1.1868257522583008,6.720249176025391
1701893470830134000,4.287134033203125,0.18486535549163818,0.5984454154968262,5.482373237609863
1701893470847124200,4.304124267578125,-0.006922364234924316,-0.06216716766357422,4.016086578369141
1701893470864128000,4.3211279296875,0.12397384643554688,-0.5931644439697266,2.6350040435791016
1701893470881118500,4.338118408203125,0.4929211139678955,-0.9236359596252441,1.468390941619873
1701893470898110200,4.355110107421875,1.0704689025878906,-1.0351662635803223,0.5516171455383301
1701893470915101400,4.372101318359375,1.62587308883667,-1.01646089553833,-0.19271087646484375
1701893470932092700,4.3890927734375,2.096794843673706,-0.7375478744506836,-0.9874100685119629
1701893470949084000,4.406083984375,2.395578384399414,-0.36447906494140625,-1.7222480773925781
1701893470966076000,4.423075927734375,2.5477004051208496,-0.0008535385131835938,-2.2674245834350586
1701893470983063600,4.4400634765625,2.6724038124084473,0.25679445266723633,-2.6220364570617676
1701893471000056300,4.457056396484375,2.880284070968628,0.4242134094238281,-2.8246703147888184
1701893471017049900,4.4740498046875,3.2649505138397217,0.5209650993347168,-2.9802908897399902
1701893471034041300,4.491041259765625,3.7338318824768066,0.4807572364807129,-3.028888702392578
1701893471051029200,4.508029296875,4.213698387145996,0.2967100143432617,-2.8163294792175293
1701893471068024000,4.525024169921875,4.371934413909912,0.05507802963256836,-2.5914716720581055
1701893471085004800,4.5420048828125,4.173625946044922,-0.23236083984375,-2.5579652786254883
1701893471102007000,4.559007080078125,3.7903504371643066,-0.6102375984191895,-2.769744396209717
1701893471118998000,4.575998046875,3.4472978115081787,-1.0123357772827148,-3.1905441284179688
1701893471135971800,4.592971923828125,3.385880947113037,-1.5311017036437988,-3.4393157958984375
1701893471152981000,4.60998095703125,3.469485282897949,-2.198330879211426,-3.5612988471984863
1701893471169972000,4.626971923828125,3.6349987983703613,-2.888762950897217,-3.462362766265869
1701893471186964500,4.643964599609375,3.728059768676758,-3.6745729446411133,-3.014641761779785
1701893471203940900,4.66094091796875,3.652906894683838,-4.382325172424316,-2.572587013244629
1701893471220944100,4.677944091796875,3.346418857574463,-4.940412521362305,-2.0917911529541016
1701893471237940000,4.69493994140625,2.7660090923309326,-5.686130523681641,-1.2276358604431152
1701893471254930000,4.711929931640625,1.9134876728057861,-6.443747520446777,-0.3237295150756836
1701893471271921200,4.728921142578125,1.1373540163040161,-6.969001293182373,0.49893665313720703
1701893471288912400,4.745912353515625,0.628140926361084,-7.0944061279296875,0.8572397232055664
1701893471305903900,4.76290380859375,0.46578335762023926,-6.639108180999756,0.7356452941894531
1701893471322895000,4.77989501953125,1.1673637628555298,-5.595237731933594,0.3917264938354492
1701893471339886600,4.796886474609375,2.484433650970459,-4.182328224182129,0.13585186004638672
1701893471356877800,4.8138779296875,3.6201179027557373,-2.813509464263916,0.40956878662109375
1701893471373865200,4.830865234375,3.857801914215088,-1.8534784317016602,1.1104564666748047
1701893471390861800,4.84786181640625,3.31640625,-1.1998071670532227,1.2900476455688477
1701893471407849200,4.86484912109375,2.2563366889953613,-0.7730684280395508,0.6288957595825195
1701893471424842200,4.88184228515625,1.1026499271392822,-0.30588388442993164,-0.5061841011047363
1701893471441836500,4.89883642578125,0.22560226917266846,0.2638568878173828,-1.4398388862609863
1701893471458817800,4.91581787109375,-0.33515095710754395,0.9427156448364258,-1.6679339408874512
1701893471475817200,4.932817138671875,-0.43286240100860596,1.666764259338379,-0.9906949996948242
1701893471492806700,4.949806640625,-0.2861686944961548,2.3134427070617676,0.11728429794311523
1701893471509801000,4.966801025390625,-0.22869277000427246,2.936980724334717,1.0052251815795898
1701893471526803200,4.98380322265625,-0.5219318270683289,3.525951385498047,1.4088258743286133
1701893471543783400,5.000783447265625,-1.0542588233947754,4.1216959953308105,1.4313607215881348
1701893471560769000,5.01776904296875,-1.5017163753509521,4.534910678863525,1.4707136154174805
1701893471577769200,5.034769287109375,-1.6566615104675293,4.741031646728516,1.8028764724731445
1701893471594757400,5.05175732421875,-1.4760723114013672,5.007949352264404,2.3292036056518555
1701893471611749000,5.0687490234375,-1.2048304080963135,5.193569660186768,2.9214367866516113
1701893471628730000,5.085730224609375,-1.1364821195602417,5.1946797370910645,3.340029239654541
1701893471645728500,5.102728515625,-1.1752911806106567,5.00995397567749,3.3289599418640137
1701893471662724400,5.119724365234375,-1.3555326461791992,4.51797342300415,3.110116481781006
1701893471679717000,5.136717041015625,-1.3814176321029663,4.079906940460205,2.986358642578125
1701893471696706000,5.1537060546875,-1.4051473140716553,3.6446447372436523,3.053649425506592
1701893471713693700,5.170693603515625,-1.3938908576965332,3.1350622177124023,3.2728471755981445
1701893471730692900,5.18769287109375,-0.7588573098182678,2.494976043701172,3.7615976333618164
1701893471747679500,5.204679443359375,0.33687907457351685,1.7158184051513672,4.596730709075928
1701893471764672500,5.221672607421875,1.6250481605529785,0.8918824195861816,5.859089374542236
1701893471781663500,5.23866357421875,2.7906696796417236,0.25322818756103516,7.243131160736084
1701893471798654200,5.255654296875,3.4259395599365234,-0.3429536819458008,8.406227111816406
1701893471815646000,5.27264599609375,3.5391554832458496,-1.2725257873535156,9.423168182373047
1701893471832637200,5.28963720703125,3.40670108795166,-1.968709945678711,9.74272346496582
1701893471849641200,5.30664111328125,3.185823678970337,-1.9659843444824219,9.480672836303711
1701893471866616300,5.3236162109375,2.765719413757324,-1.195246696472168,9.161705017089844
1701893471883608600,5.340608642578125,2.359536647796631,-0.05316734313964844,8.618036270141602
1701893471900603000,5.357602783203125,1.8339648246765137,0.6019368171691895,7.950955867767334
1701893471917592000,5.374592041015625,1.1103761196136475,0.30716943740844727,7.123777389526367
1701893471934588400,5.39158837890625,0.5015616416931152,-0.46459245681762695,5.862388610839844
1701893471951577300,5.408577392578125,0.17867791652679443,-1.4403605461120605,4.513622283935547
1701893471968568800,5.42556884765625,0.36157384514808655,-2.172635555267334,3.25346040725708
1701893471985560600,5.442560546875,0.925144374370575,-2.4870190620422363,2.063828468322754
1701893472002552000,5.459552001953125,1.396069049835205,-2.5460920333862305,1.1378154754638672
1701893472019542000,5.4765419921875,1.7459443807601929,-2.155292510986328,0.19253826141357422
1701893472036530200,5.4935302734375,1.7951507568359375,-1.6149187088012695,-0.6797409057617188
1701893472053529000,5.510529052734375,1.6408369541168213,-1.140411376953125,-1.4173526763916016
1701893472070514700,5.5275146484375,1.4821751117706299,-0.797487735748291,-2.0385379791259766
1701893472087508700,5.5445087890625,1.5253629684448242,-0.6233267784118652,-2.6216773986816406
1701893472104500000,5.5615,1.8556692600250244,-0.4690117835998535,-3.184480667114258
1701893472121491500,5.578491455078125,2.314392566680908,-0.2034764289855957,-3.786417007446289
1701893472138482700,5.595482666015625,2.6340503692626953,-0.016036510467529297,-4.271154403686523
1701893472155462000,5.6124619140625,2.8361215591430664,0.04180431365966797,-4.613524436950684
1701893472172462000,5.629462158203125,2.9428138732910156,-0.04504060745239258,-4.894644737243652
1701893472189457700,5.646457763671875,2.9460010528564453,-0.2378675937652588,-5.1696858406066895
1701893472206448400,5.663448486328125,2.904512882232666,-0.48195528984069824,-5.519561767578125
1701893472223440000,5.68043994140625,2.9874467849731445,-0.7624902725219727,-5.822251796722412
1701893472240431000,5.69743115234375,3.116488456726074,-1.0829081535339355,-5.9789509773254395
1701893472257422000,5.714422119140625,3.274193286895752,-1.5011169910430908,-5.902652740478516
1701893472274404900,5.73140478515625,3.3696036338806152,-2.2441742420196533,-5.3705034255981445
1701893472291405300,5.7484052734375,3.3265533447265625,-3.3401527404785156,-4.490373611450195
1701893472308398600,5.765398681640625,3.4086904525756836,-4.484676361083984,-3.5313897132873535
1701893472325387300,5.78238720703125,3.4415347576141357,-5.682929039001465,-2.6906495094299316
1701893472342376200,5.799376220703125,3.2837119102478027,-6.658806800842285,-1.7782039642333984
1701893472359374000,5.8163740234375,3.055466651916504,-7.324409484863281,-0.511469841003418
1701893472376363800,5.83336376953125,2.6691720485687256,-7.907422065734863,0.9122991561889648
1701893472393349600,5.850349609375,2.3964433670043945,-8.26074504852295,2.3519744873046875
1701893472410345200,5.86734521484375,2.203113079071045,-8.233148574829102,3.419353485107422
1701893472427336700,5.884336669921875,2.116447687149048,-7.089723587036133,3.3341426849365234
1701893472444328200,5.901328125,2.1215734481811523,-5.0786848068237305,2.9240407943725586
1701893472461320000,5.91831982421875,1.7129907608032227,-2.844419002532959,2.97660493850708
1701893472478310700,5.935310546875,0.8267416954040527,-1.1949400901794434,3.423490047454834
1701893472495302400,5.952302490234375,-0.1487809419631958,-0.2656688690185547,3.6703224182128906
1701893472512293600,5.969293701171875,-0.9125641584396362,0.04810142517089844,3.259528160095215
1701893472529285600,5.98628564453125,-1.3011971712112427,-0.06750774383544922,2.0777487754821777
1701893472546273300,6.003273193359375,-1.0439039468765259,0.005466938018798828,0.6451749801635742
1701893472563271400,6.020271484375,-0.2466106414794922,0.44214677810668945,-0.3179025650024414
1701893472580255500,6.03725537109375,0.737062394618988,1.0656743049621582,-0.439453125
1701893472597241600,6.05424169921875,1.6463291645050049,1.8839492797851562,0.15880298614501953
1701893472614237700,6.07123779296875,2.177966356277466,2.83447265625,0.9208407402038574
1701893472631233500,6.088233642578125,2.3525400161743164,3.894359827041626,1.5025019645690918
1701893472648214800,6.10521484375,1.9997625350952148,4.673375129699707,1.8706130981445312
1701893472665217800,6.1222177734375,1.2555354833602905,5.2703962326049805,1.9356555938720703
1701893472682207500,6.13920751953125,0.463095486164093,5.656951904296875,1.7287487983703613
1701893472699199200,6.15619921875,-0.04564136266708374,5.845439434051514,1.659764289855957
1701893472716190700,6.173190673828125,-0.15246331691741943,5.8412933349609375,1.9198050498962402
1701893472733182200,6.19018212890625,0.054595232009887695,5.747164726257324,2.4881134033203125
1701893472750173400,6.20717333984375,0.2647058963775635,5.695664405822754,2.969862937927246
1701893472767164200,6.2241640625,0.20488619804382324,5.410148620605469,3.4304122924804688
1701893472784157200,6.2411572265625,-0.07021152973175049,4.92765474319458,4.04000997543335
1701893472801148200,6.258148193359375,-0.34500807523727417,4.635512828826904,4.586267948150635
1701893472818139000,6.275138916015625,-0.6936661005020142,4.329460144042969,5.315993785858154
1701893472835130600,6.292130615234375,-1.1001343727111816,3.660813808441162,6.211427688598633
1701893472852121900,6.309121826171875,-1.2170336246490479,2.7434425354003906,7.048938274383545
1701893472869113600,6.326113525390625,-0.9159805774688721,1.6048626899719238,7.690162658691406
1701893472886104600,6.3431044921875,-0.21789348125457764,0.15970897674560547,8.47463607788086
1701893472903093200,6.36009326171875,0.45671403408050537,-1.2487716674804688,9.403396606445312
1701893472920069600,6.377069580078125,1.0878783464431763,-1.9138174057006836,9.904444694519043
1701893472937079300,6.394079345703125,1.2937837839126587,-2.267030715942383,10.174053192138672
1701893472954070300,6.4110703125,1.5409963130950928,-2.412755012512207,10.316474914550781
1701893472971058700,6.42805859375,1.8490736484527588,-1.9881858825683594,9.968219757080078
1701893472988044800,6.445044921875,1.989488124847412,-1.009521484375,8.881817817687988
1701893473005035300,6.46203515625,1.930678129196167,-0.31224775314331055,7.569249153137207
1701893473022035700,6.47903564453125,1.4632333517074585,-0.5488061904907227,6.30818510055542
1701893473039027500,6.49602734375,1.0347634553909302,-1.5220646858215332,5.03530216217041
1701893473056019000,6.51301904296875,0.8152398467063904,-2.589231491088867,3.778575897216797
1701893473073010400,6.530010498046875,0.7152376174926758,-3.0245580673217773,2.204261302947998
1701893473089998800,6.546998779296875,0.7988380789756775,-2.8236894607543945,0.6202864646911621
1701893473106994200,6.563994140625,0.9874681830406189,-2.3655271530151367,-0.6897883415222168
1701893473123984600,6.580984619140625,1.3501567840576172,-1.8555502891540527,-1.862295150756836
1701893473140973600,6.5979736328125,1.7737325429916382,-1.3845763206481934,-2.8741908073425293
1701893473157967000,6.614967041015625,2.0916736125946045,-1.1305456161499023,-3.761918067932129
1701893473174964700,6.63196484375,2.2818970680236816,-0.8127307891845703,-4.603847980499268
1701893473191953000,6.648952880859375,2.3530774116516113,-0.8642196655273438,-5.47381591796875
1701893473208930800,6.665930908203125,2.3608651161193848,-0.7398531436920166,-6.060110569000244
1701893473225922300,6.68292236328125,2.47678279876709,-0.5912721157073975,-6.412722110748291
1701893473242923800,6.699923828125,2.6286263465881348,-0.46362733840942383,-6.630495071411133
1701893473259918300,6.71691845703125,2.7083868980407715,-0.4293789863586426,-6.615805625915527
1701893473276907500,6.733907470703125,2.569798707962036,-0.5253031253814697,-6.408336639404297
1701893473293895200,6.750895263671875,2.4128811359405518,-0.628204345703125,-6.180440902709961
1701893473310890000,6.767889892578125,2.3567616939544678,-0.884577751159668,-5.799407482147217
1701893473327881500,6.784881591796875,2.5034029483795166,-1.2078089714050293,-5.381440162658691
1701893473344870100,6.8018701171875,2.7830705642700195,-1.7007510662078857,-4.822000503540039
1701893473361864000,6.818864013671875,3.197178840637207,-2.4384899139404297,-4.131857872009277
1701893473378855700,6.835855712890625,4.100932598114014,-3.2429144382476807,-3.3373403549194336
1701893473395842800,6.8528427734375,4.883541107177734,-3.952275276184082,-2.5740442276000977
1701893473412840200,6.869840087890625,4.7862772941589355,-4.794023513793945,-1.6806583404541016
1701893473429829600,6.88682958984375,4.1528167724609375,-5.401829242706299,-0.7414608001708984
1701893473446821400,6.9038212890625,3.179102659225464,-5.945475101470947,0.5449304580688477
1701893473463812900,6.920812744140625,1.9069457054138184,-6.2834930419921875,1.8732185363769531
1701893473480798700,6.937798828125,0.5718872547149658,-6.40267276763916,2.775745391845703
1701893473497798000,6.9547978515625,-0.3290078639984131,-6.4980669021606445,3.1674132347106934
1701893473514786800,6.971786865234375,-0.34081220626831055,-6.657164573669434,3.235227108001709
1701893473531778300,6.9887783203125,0.8862634897232056,-6.14208459854126,2.9542441368103027
1701893473548770300,7.005770263671875,2.3408193588256836,-4.488117694854736,2.186868190765381
1701893473565760300,7.02276025390625,3.187776565551758,-2.5285720825195312,1.6567177772521973
1701893473582750700,7.039750732421875,2.8967580795288086,-1.247488021850586,1.6440162658691406
1701893473599743500,7.056743408203125,1.9033706188201904,-0.5738410949707031,1.7025890350341797
1701893473616729300,7.073729248046875,0.7745641469955444,-0.25122499465942383,1.4016718864440918
1701893473633720300,7.09072021484375,-0.29874134063720703,0.03184223175048828,0.516817569732666
1701893473650708200,7.107708251953125,-1.1464627981185913,0.17764616012573242,-0.43999719619750977
1701893473667700700,7.12470068359375,-1.5574918985366821,0.42847490310668945,-1.176496982574463
1701893473684698000,7.141697998046875,-1.533071517944336,0.832728385925293,-1.4055428504943848
1701893473701688800,7.158688720703125,-1.012791395187378,1.3906264305114746,-1.1476202011108398
1701893473718680600,7.1756806640625,-0.2655385732650757,1.8923993110656738,-0.5163192749023438
1701893473735669500,7.19266943359375,0.3394864797592163,2.330622673034668,0.3012557029724121
1701893473752663800,7.209663818359375,0.509202778339386,2.949911594390869,0.8832125663757324
1701893473769648600,7.226648681640625,0.3163418769836426,3.5315184593200684,1.2627058029174805
1701893473786639000,7.24363916015625,0.09031623601913452,4.032157897949219,1.570108413696289
1701893473803635000,7.260635009765625,-0.0995713472366333,4.396730899810791,1.9457330703735352
1701893473820621300,7.277621337890625,-0.23651134967803955,4.584517955780029,2.545840263366699
1701893473837613800,7.29461376953125,-0.3154113292694092,4.699105739593506,3.068960189819336
1701893473854599000,7.311598876953125,-0.39537978172302246,4.651161193847656,3.396608352661133
1701893473871601200,7.32860107421875,-0.43970179557800293,4.426897048950195,3.5355262756347656
1701893473888593400,7.345593505859375,-0.35698771476745605,3.910780906677246,3.7667832374572754
1701893473905579800,7.362579833984375,-0.14288604259490967,3.287692070007324,4.3121018409729
1701893473922576600,7.37957666015625,0.023306727409362793,2.52872371673584,5.251158714294434
1701893473939575300,7.3965751953125,0.17384624481201172,2.2333450317382812,6.043998718261719
1701893473956564000,7.41356396484375,0.3633926510810852,2.1632299423217773,6.636796951293945
1701893473973555000,7.430554931640625,0.5844300985336304,1.9155702590942383,7.315459728240967
1701893473990543400,7.44754345703125,0.7737908363342285,1.6118578910827637,7.885536193847656
1701893474007548400,7.46454833984375,0.6878901720046997,1.0316486358642578,8.557074546813965
1701893474024528000,7.48152783203125,0.43730372190475464,0.4777383804321289,9.257529258728027
1701893474041521200,7.498521240234375,0.04911530017852783,-0.5599470138549805,10.264299392700195
1701893474058512100,7.51551220703125,-0.3461573123931885,-1.5937671661376953,10.659128189086914
1701893474075503400,7.53250341796875,0.00487208366394043,-2.2634811401367188,10.034540176391602
1701893474092495000,7.5494951171875,1.3669737577438354,-1.980891227722168,8.594303131103516
1701893474109486300,7.566486328125,3.0112085342407227,-0.7542686462402344,6.973462104797363
1701893474126477800,7.583477783203125,4.100512981414795,0.621190071105957,5.887140274047852
1701893474143469000,7.600468994140625,3.9445579051971436,1.0446195602416992,5.447311878204346
1701893474160458800,7.617458740234375,2.9314963817596436,0.5004754066467285,5.139801502227783
1701893474177453300,7.634453369140625,2.2593963146209717,-0.36994171142578125,4.334719181060791
1701893474194444000,7.651444091796875,2.2964096069335938,-1.2452316284179688,2.930253028869629
1701893474211434800,7.668434814453125,3.051459312438965,-2.4041662216186523,2.1945977210998535
1701893474228426800,7.6854267578125,3.409400463104248,-3.1264772415161133,1.8903045654296875
1701893474245409500,7.702409423828125,2.3889365196228027,-2.941403388977051,0.8587322235107422
1701893474262406100,7.71940625,0.7926000356674194,-2.122354507446289,-0.6869330406188965
1701893474279401500,7.7364013671875,-0.18258678913116455,-1.4114508628845215,-1.8601069450378418
1701893474296393500,7.7533935546875,0.12642055749893188,-1.2290692329406738,-2.3980464935302734
1701893474313380000,7.770380126953125,1.3892866373062134,-1.2317180633544922,-2.8918933868408203
1701893474330374700,7.787374755859375,2.4847731590270996,-1.5093755722045898,-3.4522738456726074
1701893474347366100,7.8043662109375,3.1792562007904053,-1.7221636772155762,-4.195347785949707
1701893474364358000,7.82135791015625,3.451292037963867,-1.942467212677002,-4.965353012084961
1701893474381348400,7.838348388671875,3.293647289276123,-2.111953020095825,-5.755034923553467
1701893474398340000,7.855340087890625,2.8030192852020264,-2.12760329246521,-6.490697860717773
1701893474415331600,7.87233154296875,2.076665163040161,-1.9027175903320312,-6.940060615539551
1701893474432313900,7.88931396484375,1.1609686613082886,-1.8913252353668213,-6.91303014755249
1701893474449317400,7.9063173828125,0.7470444440841675,-1.8575105667114258,-6.708154678344727
1701893474466303000,7.923302978515625,0.8004928827285767,-1.8262910842895508,-6.359825611114502
1701893474483297300,7.94029736328125,1.127007007598877,-1.9474363327026367,-5.902797698974609
1701893474500285000,7.957284912109375,1.4430930614471436,-2.211975336074829,-5.366789817810059
1701893474517270500,7.9742705078125,1.6201386451721191,-2.568258285522461,-4.907512187957764
1701893474534271500,7.991271484375,1.6012626886367798,-3.016897201538086,-4.4280686378479
1701893474551263000,8.008262939453125,1.2849398851394653,-3.603032350540161,-3.9329957962036133
1701893474568254000,8.02525390625,0.9703661799430847,-4.054811000823975,-3.334949493408203
1701893474585246500,8.04224658203125,0.7096438407897949,-4.541275978088379,-2.4294886589050293
1701893474602236200,8.059236083984375,0.48688000440597534,-5.102412223815918,-1.2607555389404297
1701893474619229400,8.0762294921875,0.1794978380203247,-5.6833086013793945,0.0031976699829101562
1701893474636220700,8.093220703125,-0.22553634643554688,-6.344415187835693,1.4534931182861328
1701893474653211100,8.110211181640626,-0.6524190902709961,-7.003025054931641,2.798839569091797
1701893474670203100,8.127203125,-0.5668555498123169,-7.455561637878418,3.542400360107422
1701893474687193600,8.144193603515625,0.5546152591705322,-6.668632984161377,4.063386917114258
1701893474704186600,8.1611865234375,2.1859986782073975,-4.332169532775879,4.931128025054932
1701893474721177600,8.178177490234376,3.3685498237609863,-1.211477279663086,6.247033596038818
1701893474738169000,8.195169189453125,2.9455747604370117,1.1853156089782715,7.480815887451172
1701893474755159000,8.212158935546874,1.141308307647705,2.3583788871765137,7.485860824584961
1701893474772152000,8.229152099609376,-0.955345630645752,2.9578804969787598,5.999624729156494
1701893474789145600,8.2461455078125,-2.386039972305298,3.1779470443725586,4.1245927810668945
1701893474806134300,8.26313427734375,-2.7629690170288086,3.2220077514648438,2.889437675476074
1701893474823122400,8.280122314453125,-2.5839180946350098,3.391298770904541,2.4734597206115723
1701893474840117200,8.2971171875,-2.1555776596069336,3.50252628326416,2.3938493728637695
1701893474857108000,8.31410791015625,-1.5146721601486206,3.5395994186401367,2.274890899658203
1701893474874099700,8.331099609375,-0.6463707685470581,3.553633213043213,2.003532886505127
1701893474891088100,8.348088134765625,0.32889699935913086,3.702291965484619,1.7675905227661133
1701893474908083000,8.3650830078125,1.1628320217132568,3.9130992889404297,1.6373066902160645
1701893474925063400,8.3820634765625,1.9451823234558105,4.300858497619629,1.3953561782836914
1701893474942065400,8.3990654296875,2.4534740447998047,4.695812225341797,1.0852704048156738
1701893474959046100,8.416046142578125,2.7100472450256348,5.010024070739746,0.8014392852783203
1701893474976050400,8.433050537109375,2.809384822845459,5.238759994506836,0.6285381317138672
1701893474993037300,8.450037353515626,2.731657028198242,5.2145490646362305,0.8757543563842773
1701893475010027000,8.467027099609375,2.478616714477539,5.166925430297852,1.3213114738464355
1701893475027023400,8.4840234375,1.925826072692871,4.982426643371582,1.8281950950622559
1701893475044014300,8.501014404296875,1.1837493181228638,4.778630256652832,2.040496826171875
1701893475061005000,8.518005126953126,0.4024922847747803,4.493615627288818,1.9960808753967285
1701893475077995800,8.534995849609375,-0.40666770935058594,4.142612457275391,1.87947416305542
1701893475094988800,8.55198876953125,-1.0572185516357422,3.7179665565490723,1.7726993560791016
1701893475111979500,8.5689794921875,-1.328598976135254,3.306352138519287,1.7868094444274902
1701893475128970800,8.585970703125,-1.3208811283111572,2.9988021850585938,2.0101890563964844
1701893475145962500,8.60296240234375,-1.1058714389801025,2.8821640014648438,2.320420742034912
1701893475162954000,8.6199541015625,-0.7879158854484558,2.830559730529785,2.371795654296875
1701893475179945200,8.6369453125,-0.43478143215179443,2.5726547241210938,2.427464485168457
1701893475196936400,8.6539365234375,-0.19900107383728027,2.0671234130859375,2.4781904220581055
1701893475213917400,8.67091748046875,0.03339749574661255,1.6628847122192383,2.3748269081115723
1701893475230919700,8.687919677734374,0.2837178111076355,1.341209888458252,2.42579984664917
1701893475247911200,8.7049111328125,0.26119017601013184,0.8358840942382812,2.924881935119629
1701893475264886000,8.721885986328125,-0.029377222061157227,0.04950428009033203,3.6780290603637695
1701893475281893600,8.7388935546875,-0.1619582176208496,-0.9616827964782715,4.336671352386475
1701893475298885000,8.755885009765626,0.14007627964019775,-1.833193302154541,4.695383071899414
1701893475315872000,8.7728720703125,0.9395180940628052,-2.1636548042297363,4.773526191711426
1701893475332864300,8.7898642578125,1.8496294021606445,-1.7044591903686523,4.7052693367004395
1701893475349859300,8.806859375,2.4490392208099365,-0.8906784057617188,4.720666885375977
1701893475366850800,8.823850830078126,2.525175094604492,-0.19300222396850586,4.8461833000183105
1701893475383842300,8.84084228515625,2.047528028488159,0.024881362915039062,4.931582927703857
1701893475400815600,8.857815673828124,1.1251602172851562,0.12812042236328125,4.314042091369629
1701893475417827600,8.87482763671875,0.3067012131214142,0.16182804107666016,3.2176594734191895
1701893475434816300,8.891816162109375,-0.1278221160173416,0.07477998733520508,2.1350975036621094
1701893475451807700,8.908807861328125,-0.07133631408214569,0.1203927993774414,1.316847801208496
1701893475468799000,8.925799072265624,0.32446256279945374,0.6030774116516113,0.7011337280273438
1701893475485790000,8.9427900390625,0.6279358267784119,1.3580708503723145,0.2670717239379883
1701893475502782500,8.959782470703125,0.6396558284759521,2.1733145713806152,-0.14010190963745117
1701893475519773400,8.9767734375,0.5078426599502563,2.865255355834961,-0.5542974472045898
1701893475536764400,8.993764404296876,0.3078741431236267,3.2007977962493896,-0.7928757667541504
1701893475553756000,9.010755859375,0.3061644434928894,3.3003644943237305,-0.9817309379577637
1701893475570737200,9.027737060546874,0.6981581449508667,3.20157527923584,-1.1774654388427734
1701893475587738600,9.044738525390626,1.1080138683319092,3.010089874267578,-1.5719542503356934
1701893475604735000,9.06173486328125,1.7687437534332275,2.848550319671631,-1.9904308319091797
1701893475621721600,9.0787216796875,2.8529577255249023,2.594655990600586,-1.83607816696167
1701893475638713600,9.095713623046874,3.951291084289551,2.3217873573303223,-1.1903772354125977
1701893475655705000,9.112705078125,4.582274436950684,2.097388744354248,-0.5007414817810059
1701893475672695800,9.12969580078125,4.615845680236816,1.9504761695861816,0.06294107437133789
1701893475689677300,9.14667724609375,4.570152759552002,2.0194506645202637,0.41224002838134766
1701893475706668500,9.16366845703125,4.687084197998047,2.0122976303100586,0.9821300506591797
1701893475723664600,9.18066455078125,4.94345235824585,1.7154288291931152,2.091475486755371
1701893475740662000,9.197662109375,5.324152946472168,1.035186767578125,3.681650161743164
1701893475757655000,9.214655029296875,5.541032791137695,0.30870866775512695,4.644986152648926
1701893475774644500,9.23164453125,5.4455156326293945,-0.13571548461914062,4.683632850646973
1701893475791637200,9.24863720703125,5.147326946258545,-0.35147619247436523,4.361701011657715
1701893475808626000,9.2656259765625,4.809508800506592,-0.4354557991027832,4.211929798126221
1701893475825621000,9.28262109375,4.173775672912598,-0.8850741386413574,4.60060977935791
1701893475842607900,9.29960791015625,3.350649356842041,-1.562851905822754,4.85305643081665
1701893475859601700,9.3166015625,2.8219008445739746,-1.7760248184204102,4.311474800109863
1701893475876592600,9.333592529296874,3.0508129596710205,-1.0071053504943848,3.0470199584960938
1701893475893584400,9.35058447265625,3.4303030967712402,0.2813129425048828,2.0366458892822266
1701893475910572800,9.36757275390625,2.764813184738159,1.15617036819458,1.5105409622192383
1701893475927567400,9.3845673828125,1.0905109643936157,1.2075352668762207,1.0323338508605957
1701893475944558300,9.401558349609376,-0.8197817802429199,0.6232647895812988,0.16649198532104492
1701893475961549800,9.4185498046875,-2.309157133102417,-0.5894269943237305,-0.9972271919250488
1701893475978541300,9.435541259765625,-2.906383752822876,-1.7171430587768555,-2.4712963104248047
1701893475995533000,9.452532958984374,-2.5601320266723633,-2.1987900733947754,-3.9807424545288086
1701893476012524000,9.46952392578125,-1.923027753829956,-2.160158157348633,-4.876577377319336
1701893476029513000,9.486512939453124,-1.2330355644226074,-1.7545762062072754,-4.951206684112549
1701893476046517800,9.503517822265625,-0.9141950607299805,-1.2921833992004395,-4.365828990936279
1701893476063498800,9.520498779296876,-0.9328209757804871,-0.9115748405456543,-3.4739437103271484
1701893476080488700,9.53748876953125,-1.1409659385681152,-0.692558765411377,-2.652324676513672
1701893476097481500,9.5544814453125,-1.3034210205078125,-0.6069021224975586,-2.0001626014709473
1701893476114473500,9.571473388671874,-1.3268980979919434,-0.6552853584289551,-1.6042284965515137
1701893476131464200,9.588464111328125,-1.3028119802474976,-0.8412346839904785,-1.4709243774414062
1701893476148455200,9.605455078125,-1.2957005500793457,-0.8941712379455566,-1.5357980728149414
1701893476165436000,9.622435791015626,-1.2413513660430908,-0.7956933975219727,-1.4637374877929688
1701893476182430500,9.639430419921876,-1.1949235200881958,-0.5466480255126953,-1.1654725074768066
1701893476199432400,9.656432373046876,-1.2788100242614746,-0.20927667617797852,-0.7389802932739258
1701893476216420900,9.6734208984375,-1.3433283567428589,0.2994236946105957,-0.4389162063598633
1701893476233409300,9.6904091796875,-1.2413228750228882,0.7954354286193848,-0.19102954864501953
1701893476250403800,9.70740380859375,-1.0431458950042725,1.113999366760254,0.15635061264038086
1701893476267395800,9.724395751953125,-0.9195458889007568,1.2951502799987793,0.6341853141784668
1701893476284386300,9.74138623046875,-0.8377116918563843,1.5483794212341309,0.9128775596618652
1701893476301378000,9.7583779296875,-0.8647207021713257,1.7204475402832031,1.1454787254333496
1701893476318369500,9.77536962890625,-1.0708280801773071,1.8678607940673828,1.450922966003418
1701893476335361300,9.792361328125,-1.1568002700805664,1.9658474922180176,1.8867120742797852
1701893476352352000,9.80935205078125,-1.224487543106079,2.114640235900879,2.2154550552368164
1701893476369343700,9.82634375,-1.0013262033462524,2.360976219177246,2.476332187652588
1701893476386335200,9.843335205078125,-0.4398980736732483,2.169111728668213,3.2948427200317383
1701893476403333600,9.860333740234376,0.3925722539424896,1.5588855743408203,4.5568413734436035
1701893476420313900,9.87731396484375,1.3079107999801636,1.035813808441162,5.773457050323486
1701893476437310200,9.894310302734375,1.9189778566360474,0.587033748626709,6.889008522033691
1701893476454300700,9.91130078125,2.0978381633758545,0.3361058235168457,7.648253440856934
1701893476471292700,9.928292724609374,2.062249183654785,0.20975255966186523,7.857981204986572
1701893476488282600,9.94528271484375,1.916677474975586,-0.3177461624145508,7.724212646484375
1701893476505265700,9.962265625,2.036100387573242,-1.081799030303955,7.293966770172119
1701893476522276400,9.9792763671875,2.6505401134490967,-1.5219860076904297,6.644355773925781
1701893476539258000,9.996258056640626,3.317091464996338,-1.3028225898742676,5.935935020446777
1701893476556249000,10.0132490234375,3.427563190460205,-0.7829084396362305,5.42811918258667
1701893476573240800,10.03024072265625,2.971139430999756,-0.146331787109375,4.915288925170898
1701893476590232000,10.047232177734376,2.243781566619873,0.3944869041442871,4.246652126312256
1701893476607223000,10.06422314453125,1.7423014640808105,0.7967753410339355,3.3464083671569824
1701893476624215300,10.08121533203125,1.6536036729812622,1.06488037109375,2.340823173522949
1701893476641205200,10.098205322265626,1.7259283065795898,1.1258735656738281,1.363753318786621
1701893476658197500,10.115197509765625,1.830171823501587,0.9533319473266602,0.43895816802978516
1701893476675187000,10.13218701171875,1.9143917560577393,0.62554931640625,-0.4196505546569824
1701893476692174600,10.149174560546875,1.9767911434173584,0.2649402618408203,-1.142320156097412
1701893476709162000,10.166161865234375,2.2201294898986816,-0.026533126831054688,-1.4811835289001465
1701893476726164500,10.18316455078125,2.360044479370117,-0.39870214462280273,-1.7214279174804688
1701893476743151600,10.200151611328126,2.3936970233917236,-0.6170048713684082,-2.1284379959106445
1701893476760139000,10.217138916015625,2.5264580249786377,-0.746767520904541,-2.3649063110351562
1701893476777133600,10.234133544921875,2.908252716064453,-0.7415587902069092,-2.312699794769287
1701893476794130000,10.2511298828125,3.226181745529175,-0.730332612991333,-1.8765478134155273
1701893476811117600,10.26811767578125,3.306100368499756,-1.0070011615753174,-1.1215229034423828
1701893476828111600,10.285111572265626,3.0843217372894287,-1.6150763034820557,-0.42087554931640625
1701893476845092600,10.302092529296875,2.9082231521606445,-2.3260769844055176,-0.05503368377685547
1701893476862084000,10.319083984375,2.823988437652588,-3.2524220943450928,0.15722084045410156
1701893476879086300,10.33608642578125,2.883375644683838,-4.000051498413086,0.26096439361572266
1701893476896077300,10.353077392578125,2.819520950317383,-4.571756839752197,0.30789947509765625
1701893476913068800,10.37006884765625,2.3779404163360596,-5.049639701843262,0.014966964721679688
1701893476930056700,10.387056640625,1.5668306350708008,-5.837686538696289,-0.5403232574462891
1701893476947052800,10.404052734375,0.5405187606811523,-6.981752395629883,-1.4308767318725586
1701893476964040700,10.421040771484375,-0.11290740966796875,-8.164392471313477,-2.7193737030029297
1701893476981036500,10.43803662109375,-0.10466742515563965,-8.761125564575195,-3.8892765045166016
1701893476998025000,10.45502490234375,0.651529848575592,-8.74182415008545,-4.064024448394775
1701893477015018200,10.472018310546876,1.221437692642212,-8.34091854095459,-3.3698668479919434
1701893477032008400,10.489008544921875,1.0578211545944214,-7.481876373291016,-2.826681137084961
1701893477049000200,10.506000244140624,0.5767936706542969,-6.476583003997803,-2.6978325843811035
1701893477065992000,10.522991943359376,0.03521895408630371,-5.668962478637695,-2.920289993286133
1701893477082970400,10.539970458984374,-0.47373640537261963,-5.142678260803223,-3.1197738647460938
1701893477099969300,10.55696923828125,-0.7259207963943481,-5.060663223266602,-3.0236024856567383
1701893477116955000,10.573954833984375,-0.7841856479644775,-5.048742294311523,-2.8877391815185547
1701893477133952500,10.590952392578124,-0.762912929058075,-4.870486736297607,-2.832976818084717
1701893477150943200,10.607943115234375,-0.9153622388839722,-4.5461649894714355,-2.6252355575561523
1701893477167937300,10.624937255859376,-1.0265440940856934,-4.025886535644531,-2.072780132293701
1701893477184920600,10.641920654296875,-0.7762361168861389,-3.3180809020996094,-1.2431859970092773
1701893477201918000,10.65891796875,-0.22435522079467773,-2.3810200691223145,-0.45906782150268555
1701893477218910500,10.675910400390626,0.4950701594352722,-1.3331999778747559,0.24679279327392578
1701893477235904500,10.692904541015626,1.1090803146362305,-0.24808645248413086,0.5851774215698242
1701893477252892400,10.709892333984374,1.3853570222854614,0.6559290885925293,1.0413250923156738
1701893477269879600,10.726879638671875,1.3675105571746826,1.3285818099975586,1.4239959716796875
1701893477286871600,10.74387158203125,1.1122921705245972,1.7337703704833984,1.8085479736328125
1701893477303867000,10.760866943359375,0.7782611846923828,2.1478066444396973,2.212247371673584
1701893477320861200,10.777861083984375,0.37720099091529846,2.699258327484131,2.5325279235839844
1701893477337853000,10.79485302734375,-0.09090086817741394,3.341339111328125,2.835639476776123
1701893477354841000,10.811841064453125,-0.48219460248947144,3.937962055206299,3.246212959289551
1701893477371832800,10.828832763671874,-0.7560240030288696,4.386663436889648,3.798201560974121
1701893477388823300,10.8458232421875,-1.0112407207489014,4.552273750305176,4.429717540740967
1701893477405812000,10.86281201171875,-1.3591387271881104,4.610426902770996,4.942779064178467
1701893477422799000,10.879799072265625,-1.658784031867981,4.55081033706665,5.300937175750732
1701893477439805000,10.896804931640625,-1.8843491077423096,4.204171180725098,5.503891468048096
1701893477456784000,10.913783935546874,-1.8646092414855957,3.5689191818237305,5.544090747833252
1701893477473785300,10.930785400390626,-1.5681147575378418,2.9036264419555664,5.3975911140441895
1701893477490777000,10.947777099609375,-1.0809270143508911,2.1946563720703125,5.084650039672852
1701893477507767300,10.964767333984375,-0.3280008137226105,1.6241645812988281,4.415619850158691
1701893477524749800,10.981749755859376,0.585078775882721,0.7142248153686523,4.235404014587402
1701893477541750800,10.998750732421875,1.1517462730407715,-0.728886604309082,4.545743465423584
1701893477558742500,11.015742431640625,1.439760446548462,-1.8127894401550293,4.536716938018799
1701893477575733800,11.032733642578124,1.697587013244629,-2.1443328857421875,4.210728645324707
1701893477592725000,11.04972509765625,1.9136241674423218,-1.7406730651855469,3.8905673027038574
1701893477609716500,11.066716552734375,1.9771591424942017,-1.4231386184692383,4.199306011199951
1701893477626697700,11.08369775390625,1.584363341331482,-1.503950595855713,4.9060258865356445
1701893477643696400,11.1006962890625,1.157576560974121,-1.5044431686401367,5.260651588439941
1701893477660688100,11.117688232421875,1.194602131843567,-1.1933250427246094,5.018032073974609
1701893477677684700,11.134684814453125,1.8025569915771484,-1.0147781372070312,4.665005683898926
1701893477694674000,11.151673828125,2.1935274600982666,-1.295823574066162,4.211662292480469
1701893477711665200,11.1686650390625,1.8109376430511475,-2.032796859741211,3.651646614074707
1701893477728646000,11.18564599609375,1.2060130834579468,-2.6065454483032227,2.7632384300231934
1701893477745647900,11.20264794921875,0.6543378829956055,-2.8479833602905273,1.75706148147583
1701893477762639400,11.219639404296874,0.3653820753097534,-2.7524566650390625,0.7855825424194336
1701893477779630300,11.23663037109375,0.26859742403030396,-2.4862494468688965,-0.2011699676513672
1701893477796622000,11.2536220703125,0.18041890859603882,-2.220820426940918,-1.1639175415039062
1701893477813611800,11.27061181640625,0.12087833881378174,-1.9864997863769531,-2.0095367431640625
1701893477830603800,11.287603759765625,-0.07087059319019318,-1.792435646057129,-2.7674927711486816
1701893477847596000,11.304595947265625,-0.22009506821632385,-1.4581055641174316,-3.3710927963256836
1701893477864587800,11.321587890625,-0.18512287735939026,-1.1559157371520996,-3.919424057006836
1701893477881579000,11.3385791015625,0.08197422325611115,-0.7817659378051758,-4.490309238433838
1701893477898571300,11.3555712890625,0.5600411295890808,-0.429701566696167,-4.831234455108643
1701893477915561700,11.372561767578125,0.9622188806533813,-0.3390185832977295,-4.760130882263184
1701893477932562000,11.38956201171875,1.2071566581726074,-0.4035983085632324,-4.467069625854492
1701893477949544700,11.406544677734376,1.6136901378631592,-0.6055712699890137,-4.2274065017700195
1701893477966526000,11.42352587890625,2.5134334564208984,-0.7993361949920654,-3.9626107215881348
1701893477983528200,11.440528076171875,3.32427978515625,-0.9297280311584473,-3.2678279876708984
1701893478000515300,11.457515380859375,3.1663074493408203,-1.2014117240905762,-2.0771522521972656
1701893478017512200,11.47451220703125,2.321507692337036,-1.5866022109985352,-0.6659383773803711
1701893478034502700,11.491502685546875,1.6978766918182373,-1.9994781017303467,0.0685586929321289
1701893478051489000,11.508489013671875,1.6324717998504639,-2.7223689556121826,0.017734527587890625
1701893478068484000,11.525484130859375,2.2819299697875977,-3.7806918621063232,-0.36807918548583984
1701893478085476600,11.5424765625,3.469775915145874,-4.8422746658325195,-0.9894442558288574
1701893478102465300,11.55946533203125,4.832551956176758,-5.494987964630127,-1.4521174430847168
1701893478119461000,11.576461181640624,5.611832618713379,-5.724199295043945,-1.5491609573364258
1701893478136450300,11.5934501953125,5.376844882965088,-5.788580894470215,-1.266526222229004
1701893478153438500,11.6104384765625,4.293479919433594,-6.1886138916015625,-0.7642316818237305
1701893478170433500,11.62743359375,3.165038824081421,-6.786532402038574,-0.8328742980957031
1701893478187424300,11.64442431640625,2.4415674209594727,-7.31645393371582,-1.2490921020507812
1701893478204419000,11.661419189453126,2.429722785949707,-7.112407684326172,-1.318746566772461
1701893478221404000,11.67840380859375,2.7292356491088867,-5.991586685180664,-1.1208534240722656
1701893478238398700,11.695398681640626,2.747072458267212,-4.282787322998047,-0.6211795806884766
1701893478255390000,11.712389892578125,2.3032994270324707,-3.0825493335723877,0.21097564697265625
1701893478272381400,11.72938134765625,1.4965119361877441,-2.500211477279663,0.6740837097167969
1701893478289373000,11.746373046875,0.8072435855865479,-2.3246138095855713,0.40032100677490234
1701893478306354200,11.763354248046875,0.4714916944503784,-2.3427326679229736,-0.5283870697021484
1701893478323355400,11.78035546875,0.40830349922180176,-2.352027177810669,-1.7857952117919922
1701893478340343000,11.797343017578125,0.3754950761795044,-2.0695242881774902,-2.719365119934082
1701893478357339400,11.81433935546875,0.20235347747802734,-1.5400142669677734,-2.8593525886535645
1701893478374330000,11.831330078125,-0.1443864107131958,-0.8825244903564453,-2.3298258781433105
1701893478391307000,11.84830712890625,-0.49362432956695557,-0.20627975463867188,-1.6177186965942383
1701893478408314000,11.865314208984374,-0.6354607343673706,0.5000886917114258,-1.1461763381958008
1701893478425304600,11.8823046875,-0.6800891160964966,1.0834455490112305,-1.1713085174560547
1701893478442296000,11.899296142578125,-0.6887100338935852,1.6225876808166504,-1.4575166702270508
1701893478459288600,11.91628857421875,-0.8034124970436096,2.1970531940460205,-1.497891902923584
1701893478476278800,11.93327880859375,-1.0558500289916992,2.8646950721740723,-1.1531214714050293
1701893478493269800,11.950269775390625,-1.3501803874969482,3.496978282928467,-0.6453804969787598
1701893478510261800,11.96726171875,-1.754411220550537,3.645808219909668,0.18851757049560547
1701893478527251700,11.984251708984376,-2.0773487091064453,3.9159657955169678,0.947929859161377
1701893478544244700,12.00124462890625,-2.4235470294952393,4.151831150054932,1.4141569137573242
1701893478561222100,12.01822216796875,-2.885067939758301,4.1210503578186035,1.5591840744018555
1701893478578227000,12.03522705078125,-3.220951795578003,3.8455090522766113,1.7174711227416992
1701893478595213800,12.0522138671875,-3.3012032508850098,3.577953815460205,1.8033556938171387
1701893478612209400,12.06920947265625,-3.049734115600586,3.152519702911377,2.218489646911621
1701893478629205500,12.08620556640625,-2.9311585426330566,2.584989070892334,2.9876976013183594
1701893478646193700,12.103193603515624,-3.0354509353637695,2.1694083213806152,3.5992937088012695
1701893478663179800,12.1201796875,-3.339876890182495,1.6938128471374512,3.9253005981445312
1701893478680175400,12.13717529296875,-3.581880569458008,1.2447314262390137,4.066972255706787
1701893478697166600,12.15416650390625,-3.546010732650757,0.7302417755126953,4.3929219245910645
1701893478714158300,12.171158447265626,-3.325157880783081,0.23394441604614258,5.013427734375
1701893478731146200,12.188146240234374,-2.8755335807800293,-0.373384952545166,5.869482517242432
1701893478748141000,12.20514111328125,-2.478909969329834,-1.45265531539917,6.8861494064331055
1701893478765121800,12.222121826171875,-2.449648380279541,-2.2885560989379883,7.124546527862549
1701893478782124000,12.2391240234375,-2.4363839626312256,-2.5541129112243652,6.547985553741455
1701893478799114800,12.25611474609375,-1.856330394744873,-1.8706774711608887,5.34626579284668
1701893478816106500,12.2731064453125,-0.7060811519622803,-0.698946475982666,4.300974369049072
1701893478833097700,12.29009765625,0.39903756976127625,0.4475688934326172,3.6407175064086914
1701893478850078700,12.30707861328125,1.1869817972183228,0.9454817771911621,3.598869800567627
1701893478867081500,12.32408154296875,1.3579778671264648,0.6687760353088379,3.9747872352600098
1701893478884072000,12.341072021484376,0.877399742603302,0.14375638961791992,4.264898300170898
1701893478901063400,12.3580634765625,0.034848228096961975,-0.2355489730834961,4.125061988830566
1701893478918054400,12.375054443359375,-0.5831447839736938,-0.5149455070495605,3.661257743835449
1701893478935047000,12.392046875,-0.5027426481246948,-0.6064386367797852,3.047090530395508
1701893478952037600,12.40903759765625,0.10031181573867798,-0.7552709579467773,2.3997344970703125
1701893478969029400,12.426029296875,0.7851552963256836,-1.0458426475524902,1.664109230041504
1701893478986020900,12.443020751953124,1.3863258361816406,-1.231583595275879,0.6945114135742188
1701893479003011800,12.46001171875,1.7537648677825928,-1.3697104454040527,-0.3894777297973633
1701893479020001000,12.4770009765625,1.9780584573745728,-1.3774409294128418,-1.424428939819336
1701893479036984300,12.493984375,2.1175143718719482,-1.3816180229187012,-2.2055320739746094
1701893479053984500,12.510984619140626,2.3630502223968506,-1.3977179527282715,-2.8265857696533203
1701893479070977500,12.5279775390625,2.583894729614258,-1.468393325805664,-3.391763687133789
1701893479087966000,12.544966064453124,2.7944087982177734,-1.5375030040740967,-3.9796485900878906
1701893479104977000,12.561976806640626,3.060499668121338,-1.5334136486053467,-4.518484592437744
1701893479121952000,12.578951904296876,3.344226837158203,-1.5630519390106201,-4.77735710144043
1701893479138943000,12.59594287109375,3.3928189277648926,-1.8051247596740723,-4.826469898223877
1701893479155934500,12.6129345703125,3.287158489227295,-2.08288836479187,-4.887624740600586
1701893479172920300,12.62992041015625,3.13258695602417,-2.44459867477417,-4.841248989105225
1701893479189920300,12.646920166015626,2.9794559478759766,-2.8960914611816406,-4.81874942779541
1701893479206908700,12.66390869140625,2.8391785621643066,-3.327038049697876,-4.905592918395996
1701893479223900400,12.680900390625,2.7903409004211426,-3.900768518447876,-4.900448799133301
1701893479240884500,12.697884521484376,2.8788866996765137,-4.5171966552734375,-4.659047603607178
1701893479257880000,12.714880126953124,2.999995470046997,-5.112382411956787,-4.255110740661621
1701893479274874400,12.731874267578124,2.96530818939209,-5.929757118225098,-3.538149356842041
1701893479291865900,12.748865966796876,2.820899486541748,-6.819626331329346,-2.6339497566223145
1701893479308857600,12.765857666015625,2.559514284133911,-7.384061813354492,-1.722214698791504
1701893479325852000,12.782851806640625,2.16120982170105,-7.5833940505981445,-0.8608913421630859
1701893479342837200,12.799837158203125,1.4218580722808838,-7.522087097167969,-0.1325674057006836
1701893479359822000,12.816822021484375,0.6078901290893555,-7.416392803192139,0.6397533416748047
1701893479376822000,12.833822021484375,-0.1358095407485962,-7.709733963012695,1.347712516784668
1701893479393814500,12.850814453125,-0.5703473091125488,-8.079855918884277,1.7626047134399414
1701893479410805500,12.867805419921876,-0.9372655153274536,-7.341948509216309,1.6601858139038086
1701893479427796500,12.88479638671875,-1.680431842803955,-5.2952752113342285,1.5197811126708984
1701893479444796000,12.9017958984375,-2.550776481628418,-3.093080997467041,1.6651372909545898
1701893479461780200,12.9187802734375,-2.6750707626342773,-1.6283535957336426,1.985335350036621
1701893479478771200,12.935771240234375,-2.002614736557007,-1.023815631866455,2.354900360107422
1701893479495762700,12.9527626953125,-1.1090091466903687,-1.0582036972045898,2.4522500038146973
1701893479512754400,12.96975439453125,-0.46985408663749695,-1.1324396133422852,1.9012436866760254
1701893479529746200,12.98674609375,-0.2389512062072754,-0.7874822616577148,0.7026948928833008
1701893479546727200,13.00372705078125,-0.04912401735782623,-0.024736881256103516,-0.3135814666748047
1701893479563722800,13.02072265625,0.19425465166568756,0.7958989143371582,-0.562283992767334
1701893479580723200,13.03772314453125,0.5366684198379517,1.6783180236816406,-0.1600360870361328
1701893479597710300,13.05471044921875,0.6854234933853149,2.530421733856201,0.39002513885498047
1701893479614697000,13.071697021484376,0.5898476839065552,3.191659450531006,0.9521074295043945
1701893479631683600,13.08868359375,0.12396222352981567,3.7747020721435547,1.45408296585083
1701893479648685600,13.105685546875,-0.6888442635536194,4.302489280700684,1.9833149909973145
1701893479665677300,13.12267724609375,-1.5658382177352905,4.715544700622559,2.3857169151306152
1701893479682668300,13.139668212890625,-2.3415143489837646,4.7869157791137695,2.9366111755371094
1701893479699659500,13.156659423828126,-2.997565984725952,4.98908805847168,3.273499011993408
1701893479716651300,13.1736513671875,-3.4268510341644287,5.0124335289001465,3.639547824859619
1701893479733642800,13.190642822265625,-3.4005627632141113,5.102204322814941,3.6967315673828125
1701893479750623000,13.207623046875,-2.883502721786499,4.701577663421631,4.056532859802246
1701893479767625500,13.22462548828125,-2.3227176666259766,4.032603740692139,4.211142063140869
1701893479784616700,13.24161669921875,-1.770220398902893,3.4677891731262207,3.892551898956299
1701893479801608400,13.2586083984375,-1.461838722229004,2.9320216178894043,3.273054599761963
1701893479818601500,13.2756015625,-1.0921666622161865,2.214942455291748,2.8024096488952637
1701893479835588600,13.292588623046875,-0.43990078568458557,1.5397396087646484,2.6690235137939453
1701893479852582400,13.30958251953125,0.31184062361717224,0.6468620300292969,3.308868408203125
1701893479869574100,13.32657421875,0.9261066317558289,-0.2906684875488281,4.748761177062988
1701893479886564000,13.343564208984375,1.15813410282135,-0.7941689491271973,6.693699836730957
1701893479903556400,13.360556396484375,0.1967725306749344,-1.6309247016906738,8.007547378540039
1701893479920546000,13.377546142578124,-1.2473500967025757,-2.623612880706787,7.824841499328613
1701893479937539300,13.394539306640626,-1.267480492591858,-2.9082489013671875,6.914788722991943
1701893479954526000,13.41152587890625,0.7594946622848511,-1.9940619468688965,6.581374645233154
1701893479971521500,13.428521484375,2.9749698638916016,-0.23580265045166016,7.006155967712402
1701893479988513500,13.445513427734374,3.7700819969177246,1.1446723937988281,7.663790702819824
1701893480005503000,13.4625029296875,3.1191246509552,1.2650609016418457,7.6062140464782715
1701893480022495700,13.479495849609375,1.424207329750061,0.42003488540649414,6.322294235229492
1701893480039490300,13.496490234375,0.17760586738586426,-0.7525820732116699,4.724617004394531
1701893480056479200,13.513479248046876,-0.3646930158138275,-1.7570619583129883,3.4675960540771484
1701893480073468000,13.530468017578125,-0.4639967083930969,-2.143950939178467,2.375636100769043
1701893480090462000,13.5474619140625,-0.2606983482837677,-2.0162501335144043,1.139155387878418
1701893480107442700,13.564442626953126,-0.048250555992126465,-1.65189790725708,-0.27268314361572266
1701893480124454400,13.581454345703126,0.29730215668678284,-1.4260611534118652,-1.4187908172607422
1701893480141436400,13.5984365234375,0.7663015723228455,-1.2907328605651855,-2.251176357269287
1701893480158425000,13.615425048828126,1.2068439722061157,-1.2705118656158447,-2.841289520263672
1701893480175418600,13.632418701171876,1.3605811595916748,-1.3432600498199463,-3.3807811737060547
1701893480192407300,13.6494072265625,1.341724157333374,-1.3571712970733643,-3.8521127700805664
1701893480209404700,13.66640478515625,1.4641587734222412,-1.3411483764648438,-4.102252960205078
1701893480226391800,13.683391845703126,1.7703839540481567,-1.344886302947998,-4.306509971618652
1701893480243379500,13.70037939453125,2.0172433853149414,-1.556990146636963,-4.43251371383667
1701893480260372000,13.7173720703125,2.2596495151519775,-1.849034070968628,-4.610630989074707
1701893480277367600,13.734367431640624,2.648855209350586,-2.079651117324829,-4.751225471496582
1701893480294358800,13.75135888671875,2.9454524517059326,-2.4381542205810547,-4.700730800628662
1701893480311350300,13.768350341796875,3.0412120819091797,-3.0467031002044678,-4.386143684387207
1701893480328341200,13.78534130859375,3.3258280754089355,-3.838745355606079,-3.775920867919922
1701893480345334300,13.802334228515624,3.760918617248535,-4.785495758056641,-3.0573277473449707
1701893480362324000,13.819323974609375,4.294511318206787,-5.558524131774902,-2.35720157623291
1701893480379316200,13.836316162109375,4.747136116027832,-6.2578840255737305,-1.7444767951965332
1701893480396307500,13.853307373046874,4.935205459594727,-6.8403167724609375,-1.332636833190918
1701893480413299000,13.870298828125,4.944930076599121,-7.3087568283081055,-0.8647947311401367
1701893480430290200,13.887290283203125,4.50520133972168,-7.661815643310547,-0.39021968841552734
1701893480447261000,13.904260986328126,3.689692258834839,-8.1989164352417,0.21387195587158203
1701893480464275700,13.921275634765625,2.9478564262390137,-8.826236724853516,0.8789939880371094
1701893480481264600,13.9382646484375,2.462139129638672,-8.965967178344727,0.7932624816894531
1701893480498255600,13.955255615234375,2.124821186065674,-8.151256561279297,-0.1510334014892578
1701893480515247000,13.9722470703125,1.7862547636032104,-6.498394012451172,-1.1599245071411133
1701893480532238600,13.989238525390626,1.351438045501709,-4.573351860046387,-1.8348727226257324
1701893480549227800,14.006227783203125,0.737391471862793,-3.244872808456421,-1.8787331581115723
1701893480566212900,14.023212890625,0.2797280550003052,-2.8000707626342773,-1.1932144165039062
1701893480583199000,14.040198974609375,0.2538543939590454,-2.886568307876587,-0.49584102630615234
1701893480600201500,14.057201416015625,0.5364387035369873,-2.7002077102661133,-0.7551212310791016
1701893480617192200,14.074192138671876,0.7902133464813232,-2.253176689147949,-1.2997283935546875
1701893480634185500,14.091185546875,0.8012219071388245,-1.5313148498535156,-1.6027827262878418
1701893480651179800,14.1081796875,0.4630691409111023,-0.8193697929382324,-1.1629934310913086
1701893480668160000,14.125159912109375,0.01335442066192627,-0.09492301940917969,-0.09873342514038086
1701893480685150500,14.142150390625,-0.5576930046081543,0.6377415657043457,0.6883759498596191
1701893480702147600,14.159147705078125,-1.1336438655853271,1.4957923889160156,0.9673218727111816
1701893480719138000,14.176137939453126,-1.4585462808609009,2.318002700805664,0.736353874206543
1701893480736133600,14.193133544921874,-1.65721595287323,2.8035812377929688,0.5653119087219238
1701893480753123800,14.210123779296875,-1.668576955795288,3.0527796745300293,0.7672510147094727
1701893480770114300,14.2271142578125,-1.5058306455612183,3.429079294204712,1.4196324348449707
1701893480787100400,14.244100341796875,-1.5246573686599731,3.832721710205078,2.3782973289489746
1701893480804098300,14.261098388671876,-1.9029749631881714,4.171440124511719,3.1691417694091797
1701893480821086700,14.278086669921874,-2.348613739013672,4.383440017700195,3.580077648162842
1701893480838078200,14.295078125,-2.857353687286377,4.333532333374023,3.842653274536133
1701893480855069000,14.31206884765625,-3.179990530014038,4.153964042663574,4.037118911743164
1701893480872065300,14.329065185546876,-3.2996888160705566,3.836669921875,4.302667140960693
1701893480889052200,14.34605224609375,-3.0596981048583984,3.4690237045288086,4.7780022621154785
1701893480906043100,14.363043212890625,-2.4586169719696045,3.2540364265441895,5.1352057456970215
1701893480923032000,14.380031982421874,-1.8437235355377197,2.836123466491699,5.3853349685668945
1701893480940029200,14.397029296875,-1.334058165550232,2.5057201385498047,5.2442708015441895
1701893480957024000,14.41402392578125,-0.7353116273880005,2.2660045623779297,4.94191837310791
1701893480974012000,14.431011962890626,-0.11919760704040527,1.8623008728027344,4.964423179626465
1701893480991006700,14.4480068359375,0.3761894702911377,1.3316030502319336,5.444802761077881
1701893481007998200,14.464998291015625,0.4566723108291626,0.29775238037109375,6.266269207000732
1701893481024973300,14.481973388671875,0.17262177169322968,-0.6722373962402344,6.764626502990723
1701893481041980000,14.49897998046875,-0.09639057517051697,-1.2249755859375,7.002241134643555
1701893481058962400,14.51596240234375,-0.21074512600898743,-0.9219598770141602,6.783491611480713
1701893481075963600,14.532963623046875,0.12993739545345306,-0.005111217498779297,6.355350494384766
1701893481092952000,14.5499521484375,0.6452624201774597,0.8192076683044434,6.224525451660156
1701893481109935900,14.566935791015625,1.0993447303771973,0.9322638511657715,6.446603775024414
1701893481126937900,14.583937744140625,1.140528678894043,0.35269594192504883,6.39071798324585
1701893481143929300,14.600929443359375,0.6572805643081665,-0.503173828125,5.60399866104126
1701893481160918000,14.61791796875,0.10502639412879944,-1.2466368675231934,4.261667728424072
1701893481177911800,14.634911865234375,0.01831941306591034,-1.8626995086669922,2.905734062194824
1701893481194903600,14.651903564453125,0.23680946230888367,-2.3162479400634766,1.9180383682250977
1701893481211894800,14.668894775390624,0.4996013343334198,-2.5466809272766113,1.3133807182312012
1701893481228876300,14.685876220703125,0.644263744354248,-2.5452728271484375,0.7680292129516602
1701893481245877800,14.702877685546875,0.6112398505210876,-2.3566203117370605,0.17946243286132812
1701893481262869000,14.719868896484375,0.4022909998893738,-2.2154078483581543,-0.6140203475952148
1701893481279860500,14.736860595703124,0.19194495677947998,-2.0243353843688965,-1.539372444152832
1701893481296852200,14.753852294921876,0.15916967391967773,-1.9307866096496582,-2.1332550048828125
1701893481313840600,14.770840576171874,0.37489837408065796,-1.772264003753662,-2.5778355598449707
1701893481330837200,14.787837158203125,0.7537522315979004,-1.5724802017211914,-2.9908533096313477
1701893481347825700,14.80482568359375,1.2092788219451904,-1.346789836883545,-3.5449490547180176
1701893481364818700,14.821818603515625,1.540381908416748,-1.170320749282837,-4.1337175369262695
1701893481381806000,14.83880615234375,1.764101266860962,-1.1622533798217773,-4.585493087768555
1701893481398803000,14.855802978515625,1.9302935600280762,-1.3784477710723877,-4.949443340301514
1701893481415791400,14.872791259765625,2.096214771270752,-1.6972527503967285,-5.4590582847595215
1701893481432773600,14.889773681640625,2.464508056640625,-1.9432380199432373,-5.786801338195801
1701893481449774300,14.9067744140625,2.871202230453491,-2.1767051219940186,-5.8797688484191895
1701893481466755600,14.923755615234375,3.1682891845703125,-2.63291597366333,-5.611538887023926
1701893481483754200,14.940754150390624,3.2860922813415527,-3.4941225051879883,-5.021223545074463
1701893481500747500,14.95774755859375,3.6185739040374756,-4.373289108276367,-4.457424163818359
1701893481517741600,14.974741455078124,4.248063564300537,-5.032644271850586,-3.510014533996582
1701893481534722800,14.991722900390625,4.4759297370910645,-5.380499839782715,-2.1893534660339355
1701893481551723000,15.008722900390625,3.858708143234253,-5.776364326477051,-0.8058147430419922
1701893481568714800,15.02571484375,2.5227625370025635,-6.127212047576904,0.4631528854370117
1701893481585705700,15.042705810546876,1.0347822904586792,-6.563540458679199,1.3876447677612305
1701893481602697500,15.059697509765625,0.04163217544555664,-6.900516510009766,1.6182842254638672
1701893481619689000,15.07668896484375,0.26553916931152344,-7.079763412475586,1.6998348236083984
1701893481636680400,15.093680419921874,1.3775492906570435,-6.758238315582275,1.5099983215332031
1701893481653671200,15.110671142578125,2.671208143234253,-5.379502773284912,0.9817056655883789
1701893481670660000,15.12766015625,3.4776721000671387,-3.485650062561035,0.3437948226928711
1701893481687654400,15.144654296875,3.4940297603607178,-2.1737189292907715,0.28112125396728516
1701893481704646000,15.16164599609375,2.855109214782715,-1.5685091018676758,0.5160846710205078
1701893481721637000,15.17863720703125,1.9713619947433472,-1.4326152801513672,0.4448976516723633
1701893481738628400,15.19562841796875,1.0929551124572754,-1.12957763671875,-0.3944582939147949
1701893481755617000,15.212616943359375,0.21694040298461914,-0.7026586532592773,-1.374403476715088
1701893481772611800,15.22961181640625,-0.6573710441589355,-0.2493119239807129,-1.829012393951416
1701893481789602600,15.2466025390625,-1.1671721935272217,0.20666837692260742,-1.5844449996948242
1701893481806588200,15.263588134765625,-1.337149977684021,0.5792603492736816,-0.7854447364807129
1701893481823585500,15.28058544921875,-1.3231041431427002,1.022718906402588,-0.14217233657836914
1701893481840566800,15.29756689453125,-1.1207396984100342,1.6768946647644043,-0.13886213302612305
1701893481857568000,15.314568115234374,-0.8876675963401794,2.3174538612365723,-0.5838713645935059
1701893481874557400,15.331557373046875,-0.6359255909919739,2.8143982887268066,-0.9142508506774902
1701893481891553800,15.3485537109375,-0.479312926530838,3.1504740715026855,-0.8494000434875488
1701893481908535600,15.36553564453125,-0.5042502880096436,3.320464611053467,-0.38529109954833984
1701893481925534000,15.382533935546874,-0.780915379524231,3.449875831604004,0.18228864669799805
1701893481942523100,15.399523193359375,-1.3538881540298462,3.4615163803100586,0.6124711036682129
1701893481959508500,15.416508544921875,-1.9117528200149536,3.4803380966186523,0.7822728157043457
1701893481976498000,15.433497802734376,-2.304719924926758,3.3227591514587402,0.9560909271240234
1701893481993496000,15.45049609375,-2.562451124191284,3.146803379058838,1.3686060905456543
1701893482010491100,15.4674912109375,-2.9781737327575684,2.970055103302002,1.838918685913086
1701893482027482600,15.484482666015625,-3.4844882488250732,2.8198795318603516,2.3116626739501953
1701893482044474000,15.50147412109375,-3.943711757659912,2.5762224197387695,2.8647642135620117
1701893482061464800,15.51846484375,-4.207064151763916,2.3880043029785156,3.440882682800293
1701893482078456800,15.535456787109375,-4.12161111831665,2.1160573959350586,4.087388038635254
1701893482095448300,15.5524482421875,-3.736316680908203,1.7391066551208496,4.7515363693237305
1701893482112437200,15.569437255859375,-3.1210789680480957,0.9537496566772461,5.664150714874268
1701893482129433300,15.586433349609376,-2.280325174331665,-0.019985198974609375,6.540147304534912
1701893482146422500,15.603422607421875,-1.2573254108428955,-0.8984460830688477,7.367457389831543
1701893482163413800,15.620413818359374,-0.4143829941749573,-1.706254005432129,7.965677738189697
1701893482180402700,15.637402587890625,0.46766409277915955,-2.041243553161621,7.929081439971924
1701893482197393700,15.6543935546875,1.5999846458435059,-1.8704137802124023,7.533185958862305
1701893482214390500,15.671390625,2.5932607650756836,-1.046402931213379,6.888864994049072
1701893482231368700,15.68836865234375,2.82570219039917,0.10379886627197266,6.338228702545166
1701893482248360200,15.705360107421875,1.8890291452407837,0.8476486206054688,6.037303447723389
1701893482265360600,15.722360595703124,0.4031026363372803,1.0202841758728027,5.845478534698486
1701893482282359000,15.739359130859375,-1.1596825122833252,0.4901742935180664,5.552901744842529
1701893482299341800,15.756341796875,-2.189974784851074,-0.3251638412475586,4.920412063598633
1701893482316335400,15.77333544921875,-2.1489083766937256,-1.0500707626342773,4.127120494842529
1701893482333327600,15.79032763671875,-1.490429162979126,-1.6608924865722656,3.2352113723754883
1701893482350308900,15.807308837890625,-0.5752407312393188,-1.996673583984375,2.2828292846679688
1701893482367310000,15.82431005859375,0.19109180569648743,-2.14011287689209,1.439788818359375
1701893482384303000,15.84130322265625,0.6160426139831543,-2.009011745452881,0.5490207672119141
1701893482401293000,15.85829296875,0.6262795329093933,-1.6727566719055176,-0.4182600975036621
1701893482418284800,15.875284912109375,0.6978470683097839,-1.247849464416504,-1.3829679489135742
1701893482435276300,15.8922763671875,1.1584815979003906,-0.8845615386962891,-2.270282745361328
1701893482452268000,15.90926806640625,1.9845876693725586,-0.7153739929199219,-2.8649044036865234
1701893482469259000,15.926259033203126,2.8816606998443604,-0.6433448791503906,-3.4565305709838867
1701893482486250800,15.943250732421875,3.733238697052002,-0.5216894149780273,-3.97584867477417
1701893482503238700,15.96023876953125,4.192420482635498,-0.5317316055297852,-4.304438591003418
1701893482520233500,15.9772333984375,4.074816703796387,-0.6891555786132812,-4.616857051849365
1701893482537212400,15.99421240234375,3.4776620864868164,-0.9525983333587646,-4.932552814483643
1701893482554211800,16.0112119140625,2.829374074935913,-1.0828497409820557,-5.242945194244385
1701893482571204600,16.02820458984375,2.3183345794677734,-1.3542513847351074,-5.502999305725098
1701893482588196900,16.04519677734375,1.98447585105896,-1.8585491180419922,-5.712870121002197
1701893482605192700,16.062192626953124,1.9713284969329834,-2.6296048164367676,-5.616683006286621
1701893482622181600,16.079181640625,2.3814640045166016,-3.5774145126342773,-5.197267055511475
1701893482639173000,16.096173095703126,2.9015934467315674,-4.323641777038574,-4.631397247314453
1701893482656164900,16.113164794921875,3.315356969833374,-4.91193962097168,-3.867896556854248
1701893482673155600,16.130155517578125,3.2056403160095215,-5.786132335662842,-2.7147579193115234
1701893482690143500,16.1471435546875,2.876039505004883,-6.504483699798584,-1.7696876525878906
1701893482707139600,16.1641396484375,2.670351982116699,-6.8174872398376465,-1.0447044372558594
1701893482724130600,16.181130615234373,2.4947738647460938,-7.057774543762207,0.16347026824951172
1701893482741121300,16.198121337890626,1.8217384815216064,-7.6157684326171875,1.567610740661621
1701893482758112300,16.2151123046875,0.7734841108322144,-7.932178974151611,1.9559478759765625
1701893482775105000,16.23210498046875,0.16176068782806396,-7.9025139808654785,1.4018278121948242
1701893482792096300,16.24909619140625,0.6187194585800171,-7.129336833953857,0.06074810028076172
1701893482809084400,16.26608447265625,1.9419609308242798,-4.982162952423096,-1.3098745346069336
1701893482826081500,16.28308154296875,2.791860818862915,-2.965330123901367,-1.0522651672363281
1701893482843065600,16.300065673828126,2.343329429626465,-1.9779553413391113,0.02657032012939453
1701893482860063500,16.3170634765625,1.2118830680847168,-1.4564456939697266,0.9250354766845703
1701893482877052700,16.334052734375,-0.16073232889175415,-0.8308024406433105,0.9757246971130371
1701893482894041000,16.351041015625,-1.6781752109527588,-0.29486560821533203,0.3778953552246094
1701893482911035600,16.36803564453125,-2.800415277481079,-0.0029549598693847656,-0.10098934173583984
1701893482928027400,16.38502734375,-3.644274950027466,0.23004913330078125,0.0029993057250976562
1701893482945007900,16.4020078125,-3.646928310394287,0.6831917762756348,0.7454004287719727
1701893482961999000,16.4189990234375,-3.003946542739868,1.359466552734375,1.787729263305664
1701893482979001300,16.43600146484375,-1.9616670608520508,2.106907844543457,2.6479873657226562
1701893482995993000,16.4529931640625,-0.9979453086853027,2.949319839477539,2.876868724822998
1701893483012980700,16.469980712890624,-0.3214122951030731,3.7056822776794434,2.7458314895629883
1701893483029965000,16.486965087890624,-0.14771047234535217,4.325052261352539,2.502227783203125
1701893483046967000,16.503967041015624,-0.4165797829627991,4.777885437011719,2.309965133666992
1701893483063958500,16.52095849609375,-1.066437840461731,5.078988552093506,2.3507838249206543
1701893483080946400,16.537946533203126,-1.5360640287399292,5.45053768157959,2.5254645347595215
1701893483097941200,16.554941162109376,-1.870607614517212,5.550684928894043,2.8885302543640137
1701893483114932500,16.571932373046874,-1.853102445602417,5.425323009490967,3.0791921615600586
1701893483131924200,16.58892431640625,-1.508083701133728,4.98876953125,2.9639248847961426
1701893483148915500,16.60591552734375,-0.9969754815101624,4.198731899261475,2.782334804534912
1701893483165907000,16.622906982421874,-0.5054752826690674,3.4631237983703613,2.4314675331115723
1701893483182887400,16.639887451171877,-0.0005944371223449707,2.908815383911133,2.2481260299682617
1701893483199890000,16.656889892578125,0.3505006432533264,2.4592833518981934,2.3502931594848633
1701893483216881000,16.673880859375,0.5874890685081482,2.2378687858581543,2.4236645698547363
1701893483233872400,16.690872314453124,0.6976535320281982,2.022756576538086,2.5702686309814453
1701893483250863900,16.70786376953125,0.8680799007415771,1.2707748413085938,3.0489492416381836
1701893483267844400,16.72484423828125,1.2304439544677734,0.036225318908691406,3.6949219703674316
1701893483284847400,16.741847412109376,1.7910246849060059,-1.0264129638671875,4.739191055297852
1701893483301838000,16.758838134765625,1.904348373413086,-1.0881938934326172,5.915147304534912
1701893483318829600,16.77582958984375,0.6780515909194946,-1.2759590148925781,7.343007564544678
1701893483335820500,16.792820556640624,-1.367436408996582,-1.6657905578613281,7.9787163734436035
1701893483352813000,16.80981298828125,-2.897388458251953,-2.389594078063965,7.739920616149902
1701893483369804000,16.826803955078127,-3.2217817306518555,-2.822709083557129,6.5166401863098145
1701893483386803000,16.843802978515626,-2.1200294494628906,-2.143559455871582,4.539414882659912
1701893483403784000,16.860783935546873,-0.48853591084480286,-1.1725578308105469,3.2274532318115234
1701893483420773400,16.8777734375,0.8746891021728516,-0.23264408111572266,2.735344886779785
1701893483437773800,16.89477392578125,1.5495312213897705,0.3127322196960449,2.7186837196350098
1701893483454760700,16.9117607421875,1.5221621990203857,0.3441348075866699,2.6893420219421387
1701893483471752400,16.92875244140625,1.1296727657318115,-0.17578363418579102,2.36173677444458
1701893483488722200,16.94572216796875,0.9761219620704651,-0.6661105155944824,1.6376886367797852
1701893483505735400,16.9627353515625,1.2410681247711182,-0.9483275413513184,0.8415126800537109
1701893483522728700,16.979728759765624,1.7869460582733154,-0.9104580879211426,0.10078763961791992
1701893483539718100,16.99671826171875,2.2596275806427,-0.8373112678527832,-0.3931703567504883
1701893483556709400,17.01370947265625,2.2868871688842773,-1.0545525550842285,-0.8064498901367188
1701893483573700600,17.03070068359375,2.209033250808716,-1.2561192512512207,-1.3700613975524902
1701893483590686500,17.0476865234375,2.343574285507202,-1.4020943641662598,-1.8977775573730469
1701893483607686400,17.064686279296875,2.6788971424102783,-1.250837802886963,-2.2371177673339844
1701893483624664000,17.0816640625,2.8920602798461914,-0.9200010299682617,-2.23471736907959
1701893483641666300,17.098666259765626,2.6357998847961426,-0.5238332748413086,-2.022726535797119
1701893483658657800,17.11565771484375,2.2926039695739746,-0.15319204330444336,-1.829336166381836
1701893483675649300,17.132649169921876,2.243180274963379,0.27451038360595703,-1.8139381408691406
1701893483692627700,17.149627685546875,2.4358363151550293,0.6348648071289062,-1.9548239707946777
1701893483709621800,17.166621826171873,2.4963693618774414,0.8833761215209961,-2.2953433990478516
1701893483726615800,17.18361572265625,2.5219674110412598,1.0181660652160645,-2.760315418243408
1701893483743608600,17.200608642578125,2.5206689834594727,1.008608341217041,-3.3101229667663574
1701893483760598500,17.2175986328125,2.600492000579834,0.9522380828857422,-3.871431350708008
1701893483777596700,17.2345966796875,2.7295312881469727,0.836890697479248,-4.301490306854248
1701893483794589700,17.251589599609375,2.8280858993530273,0.6580724716186523,-4.592324256896973
1701893483811581000,17.268580810546876,2.9075446128845215,0.483492374420166,-4.873437881469727
1701893483828571600,17.285571533203125,2.817314863204956,0.11368274688720703,-4.832201957702637
1701893483845561600,17.3025615234375,2.494553327560425,-0.29918670654296875,-4.679658889770508
1701893483862553600,17.3195537109375,2.191037178039551,-0.8975796699523926,-4.230488300323486
1701893483879549000,17.336548828125,2.0048224925994873,-1.640512466430664,-3.627126693725586
1701893483896537300,17.353537353515627,2.1500632762908936,-2.1184840202331543,-2.8915958404541016
1701893483913525200,17.370525146484376,2.281568765640259,-2.394303798675537,-1.8555030822753906
1701893483930520300,17.387520263671874,2.0644471645355225,-2.674901008605957,-0.3715543746948242
1701893483947512000,17.404511962890624,1.4164226055145264,-2.588158130645752,0.7288799285888672
1701893483964501200,17.421501220703124,0.6110074520111084,-2.320374011993408,1.3243508338928223
1701893483981495300,17.438495361328126,-0.08075428009033203,-2.15718412399292,1.6669788360595703
1701893483998486500,17.455486572265624,-0.18671739101409912,-1.9602141380310059,1.8588042259216309
1701893484015477500,17.4724775390625,0.2501511573791504,-1.677454948425293,1.8129653930664062
1701893484032468500,17.489468505859374,0.9077860116958618,-1.6611919403076172,1.7882623672485352
1701893484049464600,17.506464599609377,1.2387057542800903,-2.073927879333496,1.8128089904785156
1701893484066439000,17.52343896484375,1.2589467763900757,-2.558908462524414,1.6766996383666992
1701893484083433000,17.540432861328124,1.1564059257507324,-2.256631851196289,1.2022747993469238
1701893484100424400,17.557424560546874,0.9964572787284851,-0.8304996490478516,0.5064249038696289
1701893484117418500,17.57441845703125,0.4617917537689209,1.026137351989746,0.30927419662475586
1701893484134410000,17.591409912109373,-0.4615979790687561,2.5638575553894043,0.6857776641845703
1701893484151399200,17.608399169921874,-1.567111849784851,3.3916373252868652,1.2581872940063477
1701893484168390400,17.625390380859375,-2.4921531677246094,3.477212429046631,1.4836463928222656
1701893484185381400,17.64238134765625,-2.9289560317993164,2.917685031890869,1.3409790992736816
1701893484202374400,17.65937451171875,-2.615722417831421,2.185110092163086,0.9859375953674316
1701893484219366000,17.676365966796876,-1.97263765335083,1.669726848602295,0.6637187004089355
1701893484236358700,17.693358642578126,-1.2867841720581055,1.4105353355407715,0.6078300476074219
1701893484253350000,17.710349853515623,-0.6900792121887207,1.4118494987487793,0.8856205940246582
1701893484270340400,17.72734033203125,-0.07177144289016724,1.5651912689208984,1.4488282203674316
1701893484287329500,17.74432958984375,0.5276122093200684,1.8422555923461914,1.9891247749328613
1701893484304320500,17.761320556640626,0.9774306416511536,2.086465358734131,2.222940444946289
1701893484321313800,17.778313720703125,1.1835150718688965,2.0981712341308594,2.2815332412719727
1701893484338286600,17.79528662109375,1.2281100749969482,1.8970589637756348,2.1815719604492188
1701893484355294700,17.812294677734375,1.2236318588256836,1.5879526138305664,1.9832067489624023
1701893484372299300,17.82929931640625,1.0354666709899902,1.28822660446167,1.8233695030212402
1701893484389288400,17.846288330078124,0.621438205242157,1.095961570739746,1.744565486907959
1701893484406279700,17.86327978515625,0.018422096967697144,1.1355185508728027,1.6417045593261719
1701893484423268600,17.8802685546875,-0.5457478761672974,1.2284092903137207,1.6052007675170898
1701893484440268800,17.897268798828126,-0.9060417413711548,1.2297863960266113,1.7313728332519531
1701893484457254000,17.91425390625,-0.880466639995575,1.2969770431518555,1.828989028930664
1701893484474245400,17.931245361328124,-0.5012459754943848,1.3323721885681152,1.8439044952392578
1701893484491233800,17.94823388671875,0.13862943649291992,1.281327724456787,1.7321233749389648
1701893484508227800,17.965227783203126,0.8035117387771606,1.1024184226989746,1.5269255638122559
1701893484525223200,17.98222314453125,1.3629224300384521,0.8323674201965332,1.2142024040222168
1701893484542207700,17.999207763671876,1.7360165119171143,0.6296238899230957,0.7334799766540527
1701893484559185700,18.016185546875,1.9729983806610107,0.4344973564147949,0.28437280654907227
1701893484576193800,18.03319384765625,2.07072377204895,0.22267913818359375,-0.0923452377319336
1701893484593183000,18.050182861328125,2.2620983123779297,0.1777496337890625,-0.42067623138427734
1701893484610175000,18.067175048828126,2.5453531742095947,0.34977054595947266,-0.4790363311767578
1701893484627151600,18.084151611328124,2.663684368133545,0.5050802230834961,-0.17236757278442383
1701893484644155100,18.101155029296876,2.4136500358581543,0.22171783447265625,0.5606050491333008
1701893484661150700,18.118150634765627,1.9203871488571167,-0.1596841812133789,0.9979128837585449
1701893484678141400,18.135141357421876,1.651134729385376,-0.48239803314208984,1.009570598602295
1701893484695134700,18.152134765625,1.7354023456573486,-1.1554303169250488,1.2628560066223145
1701893484712125000,18.169125,2.1338624954223633,-1.9271607398986816,1.7215032577514648
1701893484729114000,18.186114013671876,2.9565415382385254,-2.0559043884277344,2.0649499893188477
1701893484746110500,18.2031103515625,3.6927683353424072,-1.3454012870788574,2.1669936180114746
1701893484763089400,18.22008935546875,3.868130683898926,-0.15265226364135742,2.301772117614746
1701893484780090400,18.23709033203125,3.197878122329712,0.30236339569091797,2.962993621826172
1701893484797079600,18.25407958984375,2.2087833881378174,0.2009897232055664,3.4967660903930664
1701893484814072800,18.27107275390625,1.621577501296997,0.13148069381713867,3.3563857078552246
1701893484831065300,18.2880654296875,1.3033223152160645,0.02193737030029297,2.8907313346862793
1701893484848056300,18.305056396484375,1.0662720203399658,0.11541175842285156,2.379446029663086
1701893484865037600,18.32203759765625,0.9094564914703369,0.46477222442626953,1.8839564323425293
1701893484882039000,18.3390390625,0.6727781891822815,0.7547168731689453,1.524216651916504
1701893484899030800,18.35603076171875,0.5564096570014954,1.2258338928222656,1.0579910278320312
1701893484916022000,18.37302197265625,0.47178971767425537,1.5672287940979004,0.6427373886108398
1701893484932998000,18.389997802734374,0.4666461944580078,1.7884745597839355,0.16327667236328125
1701893484950002200,18.407002197265626,0.7539143562316895,1.8131928443908691,-0.23405838012695312
1701893484966996700,18.423996826171877,1.243728756904602,1.7002501487731934,-0.49029064178466797
1701893484983987500,18.440987548828126,1.8567049503326416,1.3732361793518066,-0.5565128326416016
1701893485000976000,18.457975830078126,2.4924848079681396,0.9305124282836914,-0.6978392601013184
1701893485017967900,18.4749677734375,3.031677722930908,0.5156340599060059,-0.9763836860656738
1701893485034965000,18.491965087890627,3.721364736557007,0.3436551094055176,-1.3033051490783691
1701893485051953200,18.508953125,4.39223575592041,0.39565277099609375,-1.4122471809387207
1701893485068944600,18.525944580078125,4.9033122062683105,0.5261697769165039,-1.0898609161376953
1701893485085930800,18.5429306640625,5.145724296569824,0.47732973098754883,-0.3349423408508301
1701893485102928000,18.559927978515624,5.213845252990723,0.1524510383605957,0.5475926399230957
1701893485119918600,18.576918701171873,5.118685722351074,-0.5038394927978516,1.355057716369629
1701893485136910300,18.593910400390627,4.809489727020264,-1.6034531593322754,1.9004368782043457
1701893485153901800,18.61090185546875,4.566478252410889,-2.7073140144348145,1.8859672546386719
1701893485170893600,18.6278935546875,4.652071952819824,-3.435242176055908,1.2257633209228516
1701893485187883500,18.644883544921875,4.805030822753906,-3.892773151397705,0.6146688461303711
1701893485204869600,18.66186962890625,4.8226213455200195,-3.9807257652282715,-0.1134796142578125
1701893485221867300,18.6788671875,4.722857475280762,-4.097597122192383,-0.4902458190917969
1701893485238851000,18.69585107421875,3.992865562438965,-4.571256160736084,-0.4392671585083008
1701893485255845400,18.712845458984376,2.717249631881714,-5.1977338790893555,-0.8908500671386719
1701893485272843800,18.72984375,1.6964622735977173,-5.002506256103516,-2.17716121673584
1701893485289830700,18.74683056640625,1.4854460954666138,-3.8375489711761475,-3.514904022216797
1701893485306827500,18.76382763671875,1.3353232145309448,-2.337007522583008,-4.137219429016113
1701893485323812400,18.780812255859374,0.3690732717514038,-1.5097479820251465,-3.933173656463623
1701893485340804600,18.7978046875,-1.0178544521331787,-1.4547572135925293,-3.536407947540283
1701893485357801200,18.81480126953125,-2.4403998851776123,-2.0382800102233887,-3.345290184020996
1701893485374790400,18.831790283203127,-3.3178772926330566,-2.8688507080078125,-3.547330856323242
1701893485391771100,18.848771240234374,-2.9663515090942383,-3.100142478942871,-3.9528188705444336
1701893485408776700,18.865776611328126,-1.6435339450836182,-2.802845001220703,-3.8054003715515137
1701893485425763600,18.882763671875,-0.32884955406188965,-2.2267866134643555,-2.9896793365478516
1701893485442755000,18.899755126953124,0.5202600955963135,-1.5027103424072266,-1.8759651184082031
1701893485459748600,18.91674853515625,0.8723709583282471,-0.8921208381652832,-0.6918601989746094
1701893485476738600,18.933738525390623,1.0148566961288452,-0.4171257019042969,0.014734268188476562
1701893485493730000,18.95072998046875,1.2447867393493652,-0.11995744705200195,0.5794858932495117
1701893485510717700,18.9677177734375,1.2852636575698853,0.11014032363891602,1.080836296081543
1701893485527713800,18.9847138671875,0.9339876174926758,0.47479677200317383,1.4961376190185547
1701893485544701000,19.001700927734376,-0.08723437786102295,0.772040843963623,1.9548149108886719
1701893485561695700,19.01869580078125,-1.5397169589996338,0.9789919853210449,2.3310117721557617
1701893485578687200,19.035687255859376,-2.952547311782837,1.0772933959960938,2.614588737487793
1701893485595680300,19.05268017578125,-3.7698583602905273,1.3003654479980469,3.005509853363037
1701893485612668200,19.069668212890626,-3.9478440284729004,1.808767318725586,3.439680576324463
1701893485629661400,19.086661376953124,-3.821851968765259,2.3643269538879395,3.940520763397217
1701893485646642700,19.103642578125,-3.764237403869629,2.6852622032165527,4.444126605987549
1701893485663640300,19.120640380859374,-3.4852330684661865,2.9241795539855957,4.580923557281494
1701893485680635100,19.13763525390625,-2.9861197471618652,2.8736133575439453,4.50673770904541
1701893485697630000,19.1546298828125,-2.346003770828247,2.560335159301758,4.347695827484131
1701893485714619400,19.171619384765624,-1.6026232242584229,1.9819402694702148,4.405046463012695
1701893485731597000,19.18859716796875,-0.8308438062667847,1.159012794494629,4.900320529937744
1701893485748603400,19.205603271484375,-0.04055303335189819,-0.22748517990112305,6.199926853179932
1701893485765582300,19.222582275390625,0.7115541696548462,-1.7150511741638184,7.647928714752197
1701893485782584300,19.239584228515625,1.2204583883285522,-2.4815096855163574,8.718852996826172
1701893485799578000,19.256578125,1.3125557899475098,-2.2373428344726562,9.124164581298828
1701893485816563700,19.273563720703127,1.4931979179382324,-1.3112831115722656,8.82939338684082
1701893485833555000,19.290554931640624,2.1223297119140625,-0.34299182891845703,8.177566528320312
1701893485850550300,19.30755029296875,2.959141731262207,0.0886530876159668,7.419118881225586
1701893485867540200,19.324540283203124,3.276477336883545,-0.4715452194213867,6.5800628662109375
1701893485884532500,19.341532470703125,2.922640323638916,-1.5879454612731934,5.3589277267456055
1701893485901524000,19.35852392578125,2.3267288208007812,-2.7861485481262207,3.923605442047119
1701893485918515500,19.375515380859376,2.076063632965088,-3.436835765838623,2.31427001953125
1701893485935506700,19.392506591796874,2.290001153945923,-3.501833915710449,0.8854765892028809
1701893485952498000,19.409497802734375,2.7872815132141113,-3.1693849563598633,-0.22486591339111328
1701893485969487000,19.426487060546876,3.0644078254699707,-2.957787036895752,-0.9029226303100586
1701893485986484000,19.44348388671875,3.0251784324645996,-2.8763937950134277,-1.61285400390625
1701893486003472100,19.46047216796875,2.8993754386901855,-2.816286563873291,-2.5457372665405273
1701893486020457700,19.477457763671875,2.863642930984497,-2.7049942016601562,-3.67484188079834
1701893486037458200,19.494458251953127,3.0153298377990723,-2.5717883110046387,-4.733253002166748
1701893486054447000,19.511447021484376,3.3675436973571777,-2.4524471759796143,-5.6119184494018555
1701893486071437800,19.528437744140625,3.819828748703003,-2.454564094543457,-6.070483684539795
1701893486088428800,19.5454287109375,4.2529377937316895,-2.4503023624420166,-6.086116313934326
1701893486105421800,19.562421875,4.552142143249512,-2.286508798599243,-5.557559013366699
1701893486122409700,19.57940966796875,4.4675703048706055,-2.0598363876342773,-4.9015889167785645
1701893486139406000,19.596406005859375,4.02369499206543,-2.017000913619995,-4.638443946838379
1701893486156395300,19.613395263671876,3.589904546737671,-2.2643465995788574,-4.531869888305664
1701893486173386500,19.630386474609374,3.379410982131958,-2.552264451980591,-4.473423480987549
1701893486190374100,19.6473740234375,3.2895047664642334,-2.7877328395843506,-4.294185638427734
1701893486207372500,19.66437255859375,3.1630308628082275,-3.034271478652954,-3.8747048377990723
1701893486224361500,19.681361572265626,2.9592509269714355,-3.3494184017181396,-3.172480583190918
1701893486241352200,19.698352294921875,2.352778196334839,-3.9635562896728516,-2.2966504096984863
1701893486258341400,19.71534130859375,1.3820548057556152,-4.513481616973877,-1.57163667678833
1701893486275337500,19.73233740234375,0.24564838409423828,-5.029921531677246,-1.162705421447754
1701893486292326400,19.749326416015624,-0.7996046543121338,-5.441219806671143,-1.0219650268554688
1701893486309313300,19.766313232421876,-1.1968789100646973,-5.7494096755981445,-0.8523645401000977
1701893486326309600,19.7833095703125,-0.6592535972595215,-6.107693672180176,-0.1767425537109375
1701893486343297300,19.80029736328125,0.40914249420166016,-6.576164245605469,0.7759275436401367
1701893486360292000,19.8172919921875,1.4882376194000244,-7.021116733551025,1.2582502365112305
1701893486377283600,19.83428369140625,2.2044787406921387,-7.252469062805176,0.9515743255615234
1701893486394275300,19.851275390625,2.942857265472412,-6.621171474456787,-0.04562091827392578
1701893486411264800,19.8682646484375,3.5659995079040527,-4.999856472015381,-0.7624435424804688
1701893486428243500,19.885243408203124,3.261575222015381,-3.171623706817627,-0.581662654876709
1701893486445249300,19.902249267578124,2.213498830795288,-1.9576959609985352,0.570002555847168
1701893486462239000,19.919239013671874,1.1970844268798828,-1.0917248725891113,2.0090160369873047
1701893486479234000,19.936234130859376,0.33181309700012207,-0.39078378677368164,2.7050137519836426
1701893486496223500,19.953223388671876,-0.6737122535705566,-0.09613227844238281,2.4018030166625977
1701893486513214700,19.970214599609374,-1.268066167831421,0.08142328262329102,1.6219196319580078
1701893486530202600,19.98720263671875,-1.2538220882415771,0.42293453216552734,0.8100395202636719
1701893486547196200,20.004196044921876,-0.8950682878494263,0.8043112754821777,0.5003657341003418
1701893486564191200,20.021191162109375,-0.5362255573272705,1.227588176727295,0.7177743911743164
1701893486581180400,20.038180419921876,-0.18955492973327637,1.8323841094970703,0.9511075019836426
1701893486598171400,20.05517138671875,0.046790242195129395,2.5098876953125,0.8163299560546875
1701893486615164200,20.0721640625,0.09212350845336914,3.088743209838867,0.4888019561767578
1701893486632154600,20.089154541015624,-0.02498406171798706,3.467609167098999,0.22709989547729492
1701893486649140200,20.10614013671875,-0.21247965097427368,3.8510448932647705,-0.01974964141845703
1701893486666138000,20.12313818359375,-0.42630821466445923,4.091010093688965,-0.04412841796875
1701893486683128800,20.14012890625,-0.6587371230125427,4.225182056427002,0.0717015266418457
1701893486700120300,20.157120361328126,-0.9006359577178955,4.446565628051758,0.16934442520141602
1701893486717111800,20.17411181640625,-1.1053546667099,4.3967156410217285,0.40951061248779297
1701893486734100200,20.191100341796876,-1.22920823097229,4.167563438415527,0.5959568023681641
1701893486751107000,20.208107177734377,-1.1485836505889893,3.6988182067871094,0.8318619728088379
1701893486768086000,20.2250859375,-1.0495452880859375,2.936699867248535,1.2067737579345703
1701893486785067500,20.242067626953126,-0.8792114853858948,2.139308452606201,1.7459001541137695
1701893486802069200,20.2590693359375,-0.5957712531089783,1.6697635650634766,2.371377944946289
1701893486819060200,20.276060302734376,-0.5566591620445251,1.3731255531311035,3.105164051055908
1701893486836051700,20.2930517578125,-0.6610081791877747,1.2002367973327637,3.728868007659912
1701893486853039900,20.310039794921874,-0.9375991821289062,0.8340692520141602,4.407429218292236
1701893486870032000,20.327031982421875,-1.1438136100769043,0.26978015899658203,4.9850687980651855
1701893486887026000,20.34402587890625,-1.3246204853057861,-0.3587479591369629,5.479158401489258
1701893486904017400,20.361017333984375,-1.2853611707687378,-0.8134536743164062,5.915745735168457
1701893486921011500,20.378011474609377,-1.0087388753890991,-1.2318363189697266,6.346482753753662
1701893486937997800,20.394997802734373,-0.3132604658603668,-1.5674991607666016,6.424830913543701
1701893486954991600,20.41199169921875,0.5170444250106812,-1.547292709350586,6.124340057373047
1701893486971985400,20.4289853515625,1.3004119396209717,-0.8332653045654297,5.749843597412109
1701893486988974600,20.445974609375,1.728440284729004,0.5467829704284668,5.398844242095947
1701893487005966300,20.46296630859375,1.5813536643981934,1.6389379501342773,5.6711015701293945
1701893487022957000,20.47995703125,0.8356747627258301,1.7756619453430176,6.469076156616211
1701893487039948800,20.49694873046875,0.19362321496009827,1.3531360626220703,6.741957187652588
1701893487056940300,20.513940185546875,0.030919432640075684,0.6542963981628418,5.84412956237793
1701893487073932000,20.53093212890625,0.10656262934207916,0.031592369079589844,4.358214378356934
1701893487090922800,20.5479228515625,0.3826334774494171,-0.38773012161254883,2.9769630432128906
1701893487107913700,20.564913818359376,0.9196933507919312,-0.5283064842224121,1.9488463401794434
1701893487124902000,20.58190185546875,1.481400966644287,-0.6957764625549316,1.3430304527282715
1701893487141894000,20.598893798828126,1.7178491353988647,-0.8384733200073242,0.7235040664672852
1701893487158892000,20.61589208984375,1.7300946712493896,-1.0131430625915527,-0.08878231048583984
1701893487175880200,20.632880126953125,1.7715768814086914,-1.1944541931152344,-1.0093154907226562
1701893487192869000,20.649869140625,2.079275608062744,-1.2921533584594727,-1.8160486221313477
1701893487209852700,20.666852783203126,2.362616777420044,-1.3251276016235352,-2.3626480102539062
1701893487226844400,20.683844482421875,2.410098075866699,-1.3014063835144043,-2.681367874145508
1701893487243844000,20.700843994140627,2.168426752090454,-1.3572971820831299,-2.870701789855957
1701893487260836000,20.717836181640624,1.7208051681518555,-1.6639349460601807,-3.0235071182250977
1701893487277831400,20.73483154296875,1.3851778507232666,-2.0401782989501953,-3.426107883453369
1701893487294819600,20.751819580078124,1.5216675996780396,-2.3796348571777344,-3.8672971725463867
1701893487311811300,20.768811279296877,1.8469187021255493,-2.770050525665283,-4.122680187225342
1701893487328803000,20.785802978515626,2.062197208404541,-3.059964656829834,-4.351523399353027
1701893487345794000,20.8027939453125,2.174427032470703,-3.475787401199341,-4.22692346572876
1701893487362786000,20.8197861328125,2.2118985652923584,-4.052799224853516,-3.8671398162841797
1701893487379777000,20.836777099609375,2.000652313232422,-4.772724151611328,-3.688478469848633
1701893487396768500,20.8537685546875,1.5820146799087524,-5.674076080322266,-3.7130050659179688
1701893487413760300,20.87076025390625,1.2007651329040527,-6.555978775024414,-3.738901138305664
1701893487430741000,20.887740966796876,0.7460395097732544,-7.0317206382751465,-3.850574493408203
1701893487447743000,20.904742919921876,0.39416348934173584,-7.462260723114014,-3.467163562774658
1701893487464733700,20.921733642578126,0.3244572877883911,-8.051289558410645,-2.4956130981445312
1701893487481726000,20.938725830078123,0.4765589237213135,-8.749239921569824,-1.2377214431762695
1701893487498717000,20.955717041015625,0.6766194105148315,-9.309516906738281,-0.08170604705810547
1701893487515708700,20.972708740234374,1.516890287399292,-8.771154403686523,0.3148765563964844
1701893487532700200,20.9897001953125,2.396368980407715,-7.0387654304504395,0.13613033294677734
1701893487549691400,21.00669140625,2.789775848388672,-5.381651878356934,0.4224081039428711
1701893487566671400,21.02367138671875,2.687359094619751,-4.199398994445801,0.8065099716186523
1701893487583671600,21.040671630859375,2.270000457763672,-3.5353970527648926,0.8375234603881836
1701893487600654000,21.057654052734375,1.8854905366897583,-3.1843419075012207,0.2866020202636719
1701893487617649400,21.0746494140625,1.6110581159591675,-2.822230815887451,-0.6645832061767578
1701893487634646500,21.091646484375,1.4877676963806152,-2.1817121505737305,-1.6835527420043945
1701893487651635700,21.1086357421875,1.2858846187591553,-1.369852066040039,-1.9809541702270508
1701893487668626200,21.125626220703126,1.0099194049835205,-0.4751396179199219,-1.4029769897460938
1701893487685612000,21.142612060546874,0.4597872495651245,0.4423961639404297,-0.520296573638916
1701893487702610000,21.15960986328125,-0.1579831838607788,1.4578022956848145,0.10291147232055664
1701893487719598000,21.17659814453125,-0.6816641092300415,2.4041213989257812,0.3367438316345215
1701893487736588300,21.19358837890625,-0.8959543704986572,3.2369096279144287,0.38637351989746094
1701893487753586700,21.210586669921874,-0.908074676990509,3.8751413822174072,0.5165505409240723
1701893487770570500,21.227570556640625,-0.9151850938796997,4.254024028778076,1.051414966583252
1701893487787562200,21.244562255859375,-1.0697259902954102,4.5045952796936035,2.117979049682617
1701893487804556800,21.261556884765625,-1.4529750347137451,4.724285125732422,3.270493984222412
1701893487821547000,21.278547119140626,-2.068352699279785,5.0076823234558105,3.7964720726013184
1701893487838540000,21.2955400390625,-2.6030168533325195,4.854273319244385,3.970029354095459
1701893487855539200,21.312539306640623,-2.874819040298462,4.329340934753418,3.9114489555358887
1701893487872518700,21.3295185546875,-2.434123992919922,3.6745190620422363,4.200547695159912
1701893487889512000,21.346511962890624,-1.515395164489746,3.1052370071411133,4.588537216186523
1701893487906509600,21.363509521484374,-0.4702862501144409,2.6429781913757324,4.904782772064209
1701893487923492000,21.3804921875,0.3413625955581665,2.5325984954833984,5.3304524421691895
1701893487940483300,21.3974833984375,0.7929020524024963,2.6077232360839844,6.011629581451416
1701893487957477400,21.414477294921873,0.6239386796951294,2.3024959564208984,7.139208793640137
1701893487974474500,21.431474609375,-0.16012710332870483,1.644455909729004,8.233222007751465
1701893487991466200,21.44846630859375,-0.7754114866256714,0.8787713050842285,9.091527938842773
1701893488008453600,21.46545361328125,-1.191075086593628,-0.313812255859375,9.892844200134277
1701893488025443800,21.48244384765625,-1.0341659784317017,-0.8453683853149414,9.756897926330566
1701893488042430500,21.499430419921875,-0.47324687242507935,-0.6030974388122559,9.066925048828125
1701893488059436500,21.5164365234375,-0.10156583786010742,0.19556856155395508,7.77303409576416
1701893488076410600,21.53341064453125,0.034626126289367676,1.0690240859985352,6.461543083190918
1701893488093418500,21.55041845703125,0.03198665380477905,1.293625831604004,5.728516578674316
1701893488110408000,21.567407958984376,-0.003989279270172119,0.7483253479003906,5.41695499420166
1701893488127399000,21.58439892578125,-0.1491071581840515,-0.26360177993774414,5.136438846588135
1701893488144391700,21.6013916015625,-0.15621960163116455,-1.28070068359375,4.5461320877075195
1701893488161382700,21.618382568359376,-0.047384560108184814,-2.146008014678955,3.627775192260742
1701893488178373600,21.63537353515625,0.28887939453125,-2.611229419708252,2.4904403686523438
