time,seconds_elapsed,z,y,x
1700944608539548400,0.11454833984375,-0.09330940246582031,0.2667117118835449,0.16113638877868652
1700944608556540700,0.131540771484375,0.793004035949707,-0.14194583892822266,0.15659916400909424
1700944608573535200,0.14853515625,1.862980842590332,-0.686978816986084,0.09216940402984619
1700944608590524200,0.165524169921875,2.613253116607666,-0.752685546875,-0.27752721309661865
1700944608607518000,0.18251806640625,2.207277774810791,-0.6207413673400879,-0.25829970836639404
1700944608624516000,0.19951611328125,1.3905243873596191,-0.5163497924804688,0.017143726348876953
1700944608641503700,0.216503662109375,1.0191850662231445,-0.327545166015625,0.4894390106201172
1700944608658498800,0.233498779296875,1.082475185394287,-0.3470621109008789,0.5241377353668213
1700944608675493400,0.250493408203125,1.448897361755371,-0.22506332397460938,-0.1144568920135498
1700944608692483800,0.26748388671875,1.0146842002868652,0.17319679260253906,-0.5795102119445801
1700944608709478700,0.284478759765625,0.027055740356445312,0.9975700378417969,-0.563772439956665
1700944608726471000,0.301470947265625,-0.8712344169616699,1.8087563514709473,-0.21787261962890625
1700944608743455000,0.318455078125,-0.5847887992858887,2.338949203491211,-0.07566595077514648
1700944608760454700,0.33545458984375,0.5383977890014648,2.423046112060547,0.29312896728515625
1700944608777450000,0.352449951171875,1.5927352905273438,2.3087339401245117,0.43905019760131836
1700944608794444800,0.36944482421875,1.5131893157958984,1.9338879585266113,-0.31803321838378906
1700944608811424300,0.38642431640625,0.18566417694091797,1.2270689010620117,-1.1397061347961426
1700944608828431600,0.403431640625,-1.5254583358764648,0.7157416343688965,-1.2542524337768555
1700944608845413400,0.420413330078125,-2.29854154586792,0.15989351272583008,-1.3669376373291016
1700944608862412800,0.437412841796875,-1.7008965015411377,-0.5471525192260742,-1.5588364601135254
1700944608879409200,0.4544091796875,-0.7024331092834473,-1.3052644729614258,-2.909463882446289
1700944608896401700,0.471401611328125,-0.16196012496948242,-2.3754196166992188,-4.420097351074219
1700944608913391400,0.488391357421875,-0.09431004524230957,-3.5112764835357666,-5.978331565856934
1700944608930385000,0.505385009765625,-0.898755669593811,-4.931662559509277,-6.8073625564575195
1700944608947380500,0.52238037109375,-1.6238107681274414,-6.029562473297119,-6.966818332672119
1700944608964364500,0.539364501953125,-1.2962127923965454,-6.505776882171631,-6.162074089050293
1700944608981364000,0.556364013671875,-0.4320846199989319,-6.447808265686035,-5.735659599304199
1700944608998359600,0.573359619140625,0.08162301778793335,-6.71247673034668,-4.9415435791015625
1700944609015354400,0.590354248046875,0.8233705163002014,-7.326104640960693,-4.031922817230225
1700944609032343300,0.60734326171875,1.7196506261825562,-8.060796737670898,-3.1074399948120117
1700944609049339400,0.62433935546875,2.732333183288574,-9.019865036010742,0.13904285430908203
1700944609066331600,0.64133154296875,3.916477680206299,-9.39192008972168,4.082151412963867
1700944609083320300,0.6583203125,4.276158332824707,-9.122968673706055,4.883256912231445
1700944609100315100,0.675315185546875,3.6717631816864014,-9.7457275390625,4.548398017883301
1700944609117310700,0.692310791015625,3.4010417461395264,-11.30193042755127,5.600186347961426
1700944609134305300,0.70930517578125,3.600804567337036,-12.475398063659668,7.510601997375488
1700944609151290400,0.726290283203125,3.5109000205993652,-12.8344144821167,8.946120262145996
1700944609168298000,0.743298095703125,3.5627281665802,-11.845755577087402,10.528897285461426
1700944609185299700,0.7602998046875,3.83851957321167,-9.957615852355957,11.701992988586426
1700944609202268200,0.77726806640625,4.570847034454346,-7.67019510269165,11.58956241607666
1700944609219269600,0.79426953125,5.10828971862793,-5.592823505401611,10.421693801879883
1700944609236260400,0.81126025390625,4.633571624755859,-4.0667195320129395,9.462118148803711
1700944609253261800,0.82826171875,3.632939338684082,-2.817014217376709,8.576523780822754
1700944609270244400,0.845244384765625,2.3122119903564453,-1.4431219100952148,7.813076019287109
1700944609287232500,0.862232421875,0.7450230121612549,-0.07621192932128906,7.256518840789795
1700944609304236000,0.879236083984375,-0.33578193187713623,1.7212777137756348,6.585074424743652
1700944609321224700,0.896224609375,-1.3209235668182373,3.2971181869506836,5.347542762756348
1700944609338221600,0.9132216796875,-2.2788782119750977,4.2676496505737305,4.161417484283447
1700944609355213800,0.9302138671875,-2.354229211807251,4.765907287597656,3.321518898010254
1700944609372204000,0.9472041015625,-2.063652753829956,4.882282257080078,2.796382427215576
1700944609389203700,0.96420361328125,-1.3216038942337036,4.916315078735352,2.968144416809082
1700944609406189000,0.98118896484375,-0.31685835123062134,5.006771087646484,3.106285572052002
1700944609423187200,0.998187255859375,0.625277042388916,5.148351669311523,3.3896284103393555
1700944609440177000,1.015177001953125,1.1739017963409424,5.325211048126221,2.9761505126953125
1700944609457171700,1.032171630859375,1.2097892761230469,5.164201736450195,2.2895655632019043
1700944609474166300,1.049166259765625,1.09406316280365,4.818995475769043,1.7339482307434082
1700944609491155700,1.06615576171875,1.5117758512496948,4.506048202514648,1.48765230178833
1700944609508151800,1.08315185546875,2.0591464042663574,4.276388168334961,1.884932518005371
1700944609525144300,1.100144287109375,2.632680654525757,4.450826644897461,1.8681082725524902
1700944609542134500,1.117134521484375,2.4918460845947266,4.495954513549805,1.3082342147827148
1700944609559128600,1.134128662109375,1.9726980924606323,4.615368843078613,0.5770401954650879
1700944609576125000,1.151125,1.1923794746398926,4.598292350769043,0.35069847106933594
1700944609593117400,1.168117431640625,0.4396834969520569,4.449975967407227,0.39525461196899414
1700944609610099500,1.185099365234375,-0.2329074740409851,4.313187599182129,0.2592353820800781
1700944609627102200,1.202102294921875,-0.46336430311203003,3.9311041831970215,0.37744855880737305
1700944609644096800,1.2190966796875,-0.17207443714141846,3.544283151626587,0.8253960609436035
1700944609661085700,1.236085693359375,0.13396158814430237,3.2618396282196045,1.664034366607666
1700944609678081300,1.253081298828125,-0.21027269959449768,3.080482244491577,2.038935661315918
1700944609695076000,1.270076171875,-0.7156060934066772,2.658816337585449,2.6333541870117188
1700944609712065000,1.28706494140625,-0.3088878393173218,2.1060545444488525,4.133100986480713
1700944609729061000,1.30406103515625,0.6783868074417114,1.9508771896362305,6.1162614822387695
1700944609746043000,1.32104296875,0.9090109467506409,1.5019426345825195,7.144670486450195
1700944609763053800,1.3380537109375,0.6043047308921814,0.6697573661804199,7.002387046813965
1700944609780039700,1.355039794921875,0.9274367690086365,-0.5946598052978516,7.598766326904297
1700944609797032700,1.37203271484375,1.1747229099273682,-1.2892251014709473,8.581014633178711
1700944609814030300,1.3890302734375,0.91798335313797,-0.8933978080749512,8.776912689208984
1700944609831018200,1.406018310546875,0.39184513688087463,-0.25464677810668945,8.011632919311523
1700944609848011500,1.423011474609375,0.819175124168396,0.033247947692871094,7.578047752380371
1700944609865006300,1.44000634765625,1.7512680292129517,-0.061290740966796875,7.42076301574707
1700944609881992000,1.456991943359375,3.0218820571899414,-0.27414798736572266,7.602887153625488
1700944609898994200,1.473994140625,3.377527952194214,-1.0517804622650146,7.444782257080078
1700944609915990500,1.490990478515625,3.219804286956787,-2.1570885181427,6.6207170486450195
1700944609932976400,1.507976318359375,3.216651201248169,-3.1613636016845703,5.700672149658203
1700944609949966800,1.524966796875,2.9534456729888916,-4.299892425537109,5.199989318847656
1700944609966969900,1.541969970703125,2.50608229637146,-4.823225021362305,4.029265403747559
1700944609983954400,1.558954345703125,2.0464839935302734,-4.8021745681762695,2.1914796829223633
1700944610000947700,1.57594775390625,1.8451242446899414,-4.6418609619140625,0.062053680419921875
1700944610017945000,1.592945068359375,2.150692939758301,-4.461825847625732,-1.7901830673217773
1700944610034937300,1.609937255859375,2.6961307525634766,-4.468463897705078,-3.2202205657958984
1700944610051925500,1.626925537109375,2.9517464637756348,-4.659698486328125,-4.339251518249512
1700944610068912600,1.64391259765625,2.875687599182129,-4.7689361572265625,-5.226522922515869
1700944610085914600,1.66091455078125,2.787842035293579,-4.658939361572266,-5.920662879943848
1700944610102905000,1.677905029296875,2.7550580501556396,-4.401623725891113,-6.4578752517700195
1700944610119901000,1.69490087890625,2.951000213623047,-4.152145862579346,-6.967160224914551
1700944610136893200,1.71189306640625,3.1642231941223145,-4.026231288909912,-7.236588478088379
1700944610153888000,1.728887939453125,3.1957263946533203,-4.19088888168335,-7.3522210121154785
1700944610170877000,1.745876953125,3.1632986068725586,-4.357877731323242,-7.344344139099121
1700944610187875300,1.762875244140625,3.0307745933532715,-4.6407694816589355,-6.991008758544922
1700944610204867300,1.779867431640625,2.9389150142669678,-5.036289215087891,-6.0031633377075195
1700944610221856000,1.79685595703125,3.603844165802002,-5.114693641662598,-4.711790561676025
1700944610238852400,1.813852294921875,4.322819709777832,-5.436489105224609,-3.7923460006713867
1700944610255844600,1.8308447265625,4.3080925941467285,-5.962460994720459,-3.547757625579834
1700944610272836000,1.847836181640625,4.1199140548706055,-6.698110103607178,-3.436967372894287
1700944610289821000,1.864821044921875,4.182850360870361,-7.423956871032715,-2.7561416625976562
1700944610306821600,1.881821533203125,3.9749903678894043,-8.203402519226074,-0.5745439529418945
1700944610323820500,1.898820556640625,3.5852646827697754,-8.036334037780762,1.8559951782226562
1700944610340804900,1.915804931640625,2.617882251739502,-7.798165798187256,3.9779109954833984
1700944610357805300,1.932805419921875,1.6809319257736206,-7.906277656555176,5.2053985595703125
1700944610374797600,1.949797607421875,0.809422492980957,-8.069754600524902,5.268501281738281
1700944610391786800,1.966786865234375,0.18776798248291016,-8.189767837524414,4.688510894775391
1700944610408783600,1.98378369140625,0.30964207649230957,-7.815071105957031,4.489833831787109
1700944610425775400,2.000775390625,0.8939568996429443,-6.30183219909668,4.320489883422852
1700944610442765000,2.01776513671875,2.262582302093506,-4.14754056930542,3.6742897033691406
1700944610459762000,2.034761962890625,3.443685531616211,-2.078509569168091,2.9338388442993164
1700944610476754200,2.051754150390625,3.3595023155212402,-1.0982747077941895,2.389214515686035
1700944610493749000,2.0687490234375,3.153717517852783,-0.5799145698547363,1.948451042175293
1700944610510738000,2.085738037109375,2.93149995803833,-0.47461938858032227,1.4158687591552734
1700944610527733500,2.1027333984375,2.825505256652832,-0.5168187618255615,1.7361412048339844
1700944610544727300,2.119727294921875,2.769249439239502,-0.23258066177368164,3.105863571166992
1700944610561717000,2.136717041015625,2.929009437561035,1.0050764083862305,2.805522918701172
1700944610578713600,2.153713623046875,2.3300819396972656,2.0642127990722656,1.6029129028320312
1700944610595704000,2.1707041015625,1.7915937900543213,2.857515335083008,0.48914623260498047
1700944610612699100,2.18769921875,1.4258742332458496,3.567605495452881,-0.0190887451171875
1700944610629692700,2.204692626953125,1.2580926418304443,4.052070617675781,0.07444190979003906
1700944610646684000,2.221683837890625,1.0125439167022705,4.583990097045898,0.5211000442504883
1700944610663679200,2.23867919921875,0.07894986867904663,4.930445671081543,0.5391297340393066
1700944610680668200,2.255668212890625,-0.4106742739677429,5.082614421844482,0.13090753555297852
1700944610697663700,2.272663818359375,-0.1925376057624817,5.26807975769043,-0.46282005310058594
1700944610714658600,2.289658447265625,0.1004047691822052,5.303287029266357,-0.40226030349731445
1700944610731647500,2.3066474609375,-0.09193670749664307,5.267064571380615,0.41454267501831055
1700944610748643000,2.32364306640625,-0.7973111867904663,5.120320796966553,1.3353042602539062
1700944610765637400,2.340637451171875,-1.5003265142440796,4.985836029052734,2.495192050933838
1700944610782626300,2.357626220703125,-1.8403844833374023,5.038524627685547,3.533445358276367
1700944610799612400,2.3746123046875,-1.5205354690551758,4.997496128082275,4.9917144775390625
1700944610816615200,2.391615234375,-0.930711030960083,5.295156002044678,6.186544418334961
1700944610833609700,2.408609619140625,-0.7185016870498657,5.567876815795898,6.852611064910889
1700944610850598700,2.4255986328125,-0.8481098413467407,5.5909013748168945,8.081409454345703
1700944610867594200,2.44259423828125,-1.0361461639404297,4.950839519500732,9.956125259399414
1700944610884588800,2.4595888671875,-0.24653032422065735,4.044893741607666,11.494784355163574
1700944610901577700,2.47657763671875,1.0182536840438843,3.283008337020874,12.503667831420898
1700944610918573600,2.493573486328125,1.8899483680725098,2.872516632080078,13.116579055786133
1700944610935568100,2.510568115234375,1.7814548015594482,2.6773452758789062,13.429335594177246
1700944610952557000,2.52755712890625,0.5776228308677673,2.5460145473480225,12.575064659118652
1700944610969553200,2.54455322265625,-0.5889177322387695,1.9961202144622803,10.570730209350586
1700944610986545700,2.561545654296875,-0.2886034846305847,0.871649980545044,8.30635929107666
1700944611003540200,2.578540283203125,0.5368704199790955,-0.6610982418060303,6.843752861022949
1700944611020529200,2.595529052734375,1.2184357643127441,-2.0464670658111572,5.947700500488281
1700944611037523000,2.61252294921875,1.7149931192398071,-3.3278493881225586,5.164905548095703
1700944611054521000,2.62952099609375,1.7208991050720215,-4.190747261047363,3.6873159408569336
1700944611071508500,2.646508544921875,1.6777101755142212,-4.479996204376221,1.762838363647461
1700944611088504300,2.66350439453125,1.804560661315918,-4.2267560958862305,-0.48112010955810547
1700944611105495300,2.680495361328125,1.9333348274230957,-4.047861576080322,-2.245255947113037
1700944611122498600,2.69749853515625,2.0092525482177734,-3.9830031394958496,-3.466843605041504
1700944611139481300,2.7144814453125,2.040372848510742,-4.086654186248779,-4.11565637588501
1700944611156478700,2.731478759765625,2.139230728149414,-4.189472198486328,-4.80401086807251
1700944611173470200,2.74847021484375,1.9203457832336426,-4.54000186920166,-4.717416763305664
1700944611190452500,2.765452392578125,1.9592278003692627,-4.610586166381836,-4.545767307281494
1700944611207455200,2.782455322265625,2.4409661293029785,-4.491187572479248,-5.011384010314941
1700944611224449800,2.79944970703125,2.851952075958252,-4.379953384399414,-5.642685890197754
1700944611241439200,2.816439208984375,3.1552391052246094,-4.419276714324951,-6.027377128601074
1700944611258433800,2.833433837890625,3.1491854190826416,-4.7879438400268555,-5.416292190551758
1700944611275423500,2.850423583984375,3.09291934967041,-5.314179420471191,-3.695307731628418
1700944611292418000,2.86741796875,3.381526470184326,-5.617354869842529,-2.601591110229492
1700944611309412000,2.884412109375,3.4895505905151367,-6.212601661682129,-2.196937084197998
1700944611326408700,2.90140869140625,3.9063949584960938,-6.875460147857666,-2.1426053047180176
1700944611343392800,2.918392822265625,4.372615337371826,-7.597898483276367,-1.6343035697937012
1700944611360387600,2.9353876953125,5.068743705749512,-8.033138275146484,-0.3840208053588867
1700944611377388300,2.95238818359375,5.647875785827637,-8.205440521240234,1.2914361953735352
1700944611394380300,2.96938037109375,5.465749263763428,-8.124775886535645,2.6487960815429688
1700944611411362000,2.986362060546875,5.547285079956055,-8.191939353942871,3.567620277404785
1700944611428364500,3.003364501953125,6.11705207824707,-8.779022216796875,3.4808530807495117
1700944611445348900,3.020348876953125,7.363222122192383,-8.467263221740723,2.462782859802246
1700944611462348300,3.037348388671875,7.054108619689941,-7.904280662536621,2.5263986587524414
1700944611479334400,3.05433447265625,5.7061052322387695,-6.77274227142334,3.269810676574707
1700944611496338000,3.071337890625,2.7362308502197266,-4.928670406341553,2.7868432998657227
1700944611513312800,3.088312744140625,-1.2660167217254639,-3.7503199577331543,2.198049545288086
1700944611530324200,3.10532421875,-4.787359237670898,-2.864839553833008,0.7563791275024414
1700944611547317200,3.122317138671875,-6.462538719177246,-2.5123605728149414,-0.6923370361328125
1700944611564292400,3.139292236328125,-5.349865913391113,-2.6166064739227295,-1.6389718055725098
1700944611581290800,3.156290771484375,-3.228076219558716,-2.9293763637542725,-2.0706043243408203
1700944611598296000,3.173296142578125,-1.330244541168213,-2.9003372192382812,-1.560621738433838
1700944611615289300,3.190289306640625,0.3046143054962158,-2.0457377433776855,-1.1139211654663086
1700944611632280600,3.207280517578125,1.1801395416259766,-0.8769485950469971,-1.5268287658691406
1700944611649277200,3.224277099609375,1.405778408050537,0.07801461219787598,-2.0506210327148438
1700944611666268400,3.241268310546875,1.5886470079421997,0.8032474517822266,-2.081162452697754
1700944611683248600,3.25824853515625,1.871631145477295,1.4254803657531738,-1.6024413108825684
1700944611700244700,3.27524462890625,2.03841233253479,1.7451813220977783,-0.3314323425292969
1700944611717250000,3.29225,2.3905062675476074,2.6701571941375732,0.4894390106201172
1700944611734251500,3.30925146484375,2.088573455810547,3.4085912704467773,0.4953775405883789
1700944611751233800,3.32623388671875,1.1074657440185547,3.8152332305908203,0.48500728607177734
1700944611768226800,3.343226806640625,0.530462384223938,4.154339790344238,0.8032021522521973
1700944611785223400,3.360223388671875,0.19874024391174316,4.448894023895264,1.7781333923339844
1700944611802210000,3.3772099609375,0.048940420150756836,4.266728401184082,3.254545211791992
1700944611819208200,3.394208251953125,-0.1517367959022522,4.06925106048584,4.9138665199279785
1700944611836199000,3.411198974609375,-0.9230858087539673,3.83978533744812,6.19786262512207
1700944611853192000,3.42819189453125,-1.8977774381637573,4.075282096862793,6.7004008293151855
1700944611870174700,3.4451748046875,-3.143218517303467,4.1568284034729,7.546388626098633
1700944611887178200,3.46217822265625,-4.092300891876221,4.353612899780273,9.085237503051758
1700944611904171000,3.4791708984375,-4.051013946533203,4.1833577156066895,11.292192459106445
1700944611921164000,3.4961640625,-3.58367919921875,4.069268226623535,11.995132446289062
1700944611938157000,3.513156982421875,-2.202716827392578,3.594277858734131,11.974308013916016
1700944611955149300,3.5301494140625,-0.24997952580451965,2.7100987434387207,13.28991413116455
1700944611972144000,3.54714404296875,1.4171383380889893,2.3459935188293457,15.373675346374512
1700944611989126400,3.56412646484375,1.1747031211853027,2.9927759170532227,14.982810974121094
1700944612006127400,3.58112744140625,-0.8745638132095337,3.691021680831909,12.158388137817383
1700944612023124200,3.598124267578125,-2.2637171745300293,3.7536025047302246,9.519889831542969
1700944612040115700,3.61511572265625,-2.6266045570373535,2.801867723464966,7.894617557525635
1700944612057108500,3.6321083984375,-2.1181564331054688,1.1527099609375,7.3487725257873535
1700944612074101200,3.649101318359375,-1.1822459697723389,-0.44191837310791016,7.109889030456543
1700944612091094800,3.6660947265625,-0.44244468212127686,-1.858400821685791,6.41148567199707
1700944612108087800,3.683087890625,0.23797845840454102,-2.654707908630371,5.220843315124512
1700944612125080600,3.70008056640625,1.1070635318756104,-2.7100985050201416,3.2072038650512695
1700944612142073600,3.717073486328125,1.7961235046386719,-2.4742591381073,1.4628486633300781
1700944612159067000,3.73406689453125,2.4868509769439697,-2.1148650646209717,0.010175704956054688
1700944612176059600,3.7510595703125,2.8038105964660645,-2.167067050933838,-0.8077211380004883
1700944612193052700,3.768052734375,3.1039035320281982,-2.392274856567383,-1.2487001419067383
1700944612210035500,3.785035400390625,3.24229097366333,-2.7858824729919434,-1.915229320526123
1700944612227038700,3.802038818359375,3.245697021484375,-3.2926619052886963,-2.5286169052124023
1700944612244043500,3.81904345703125,3.487853527069092,-3.7828593254089355,-3.112638473510742
1700944612261025300,3.836025390625,4.380548477172852,-3.8245346546173096,-3.761415481567383
1700944612278016500,3.8530166015625,5.203429698944092,-3.93593430519104,-3.7414941787719727
1700944612295012900,3.870012939453125,5.80866813659668,-4.170963764190674,-2.9609951972961426
1700944612312004000,3.887004150390625,5.559775352478027,-4.901481628417969,-2.2186641693115234
1700944612328997400,3.903997314453125,4.986093521118164,-5.583549499511719,-2.068293571472168
1700944612345980000,3.92097998046875,4.8236260414123535,-6.337981224060059,-1.9332466125488281
1700944612362983400,3.9379833984375,4.942990303039551,-7.01912784576416,-1.7266631126403809
1700944612379975000,3.954974853515625,5.191520690917969,-7.6845269203186035,-1.326833724975586
1700944612396971300,3.97197119140625,5.672623157501221,-8.33297348022461,-0.46259593963623047
1700944612413962500,3.98896240234375,5.928068161010742,-8.646305084228516,0.30716991424560547
1700944612430953200,4.005953125,5.945390224456787,-8.662841796875,0.6611928939819336
1700944612447950800,4.022950927734375,4.984694957733154,-8.632935523986816,0.7488222122192383
1700944612464941800,4.03994189453125,2.971666097640991,-8.64542293548584,0.8119783401489258
1700944612481934800,4.056934814453125,0.5472569465637207,-9.048142433166504,0.24619102478027344
1700944612498927600,4.073927734375,-0.10458946228027344,-8.715618133544922,-0.34332752227783203
1700944612515921000,4.0909208984375,0.9703018665313721,-7.44439697265625,-1.280043601989746
1700944612532914200,4.1079140625,2.268665075302124,-5.96066951751709,-1.2096195220947266
1700944612549910300,4.12491015625,2.569061517715454,-4.544314861297607,-0.782038688659668
1700944612566892500,4.141892578125,1.2300115823745728,-3.9633688926696777,-0.10823631286621094
1700944612583893000,4.15889306640625,0.3046131134033203,-3.7307240962982178,0.038219451904296875
1700944612600886300,4.17588623046875,0.4123334288597107,-3.621077060699463,-0.31917476654052734
1700944612617879000,4.192879150390625,0.8763790130615234,-3.4105067253112793,-0.5624866485595703
1700944612634872000,4.2098720703125,0.995056688785553,-3.0205419063568115,-0.5854597091674805
1700944612651854600,4.2268544921875,0.7981551885604858,-2.3136494159698486,-0.5102739334106445
1700944612668858400,4.2438583984375,0.40074098110198975,-1.3857197761535645,-0.5595226287841797
1700944612685851400,4.260851318359375,-0.036781907081604004,-0.3794891834259033,-0.4952726364135742
1700944612702844400,4.277844482421875,-0.7419753074645996,0.6315586566925049,-0.29143619537353516
1700944612719827000,4.294826904296875,-1.376693606376648,1.412511944770813,0.3007841110229492
1700944612736830200,4.311830322265625,-1.263993740081787,2.3371083736419678,0.8255424499511719
1700944612753823700,4.32882373046875,-0.9720213413238525,2.973738670349121,1.9893417358398438
1700944612770816800,4.345816650390625,-0.6359931826591492,3.7889411449432373,2.91477108001709
1700944612787809800,4.362809814453125,-0.6100283861160278,4.722860336303711,2.421579360961914
1700944612804802800,4.379802734375,-1.3236632347106934,5.140692710876465,1.8663463592529297
1700944612821795800,4.3967958984375,-1.8996882438659668,5.346593856811523,2.0165557861328125
1700944612838788900,4.413788818359375,-2.2858996391296387,5.614881992340088,2.733785629272461
1700944612855782000,4.430781982421875,-2.5200538635253906,5.79697847366333,4.083948612213135
1700944612872774700,4.447774658203125,-2.6654820442199707,6.185435771942139,4.522150993347168
1700944612889768000,4.464767822265625,-2.6784768104553223,6.425311088562012,3.984499931335449
1700944612906761000,4.481760986328125,-2.4084372520446777,6.176600456237793,3.4934048652648926
1700944612923754000,4.49875390625,-1.8368122577667236,5.838022232055664,3.3125386238098145
1700944612940744700,4.51574462890625,-1.3380024433135986,5.487476348876953,3.229288101196289
1700944612957742800,4.532742919921875,-1.2690545320510864,5.036017417907715,3.6020050048828125
1700944612974733000,4.549733154296875,-0.9551781415939331,4.567792892456055,4.0586256980896
1700944612991726000,4.56672607421875,-0.9106702208518982,3.8204846382141113,4.484681606292725
1700944613008704800,4.583704833984375,-0.7559581398963928,2.947256088256836,5.13530158996582
1700944613025712400,4.60071240234375,-0.6196833848953247,2.082864761352539,6.447375297546387
1700944613042705200,4.617705078125,-0.32982736825942993,1.7617278099060059,7.665617942810059
1700944613059698400,4.634698486328125,-0.6003341674804688,1.837984561920166,8.043862342834473
1700944613076702200,4.6517021484375,-1.3392701148986816,2.005575656890869,8.101811408996582
1700944613093686000,4.66868603515625,-1.5052390098571777,1.8454127311706543,7.763229846954346
1700944613110676200,4.68567626953125,-0.7601425051689148,0.5341143608093262,8.059764862060547
1700944613127670500,4.70267041015625,0.41091758012771606,-0.619910717010498,8.076715469360352
1700944613144663600,4.71966357421875,1.9734312295913696,-0.28905630111694336,7.2217631340026855
1700944613161656800,4.73665673828125,2.6562070846557617,0.5922918319702148,6.9078474044799805
1700944613178649900,4.75364990234375,2.011949062347412,1.6845135688781738,6.494060516357422
1700944613195643000,4.770642822265625,0.663306713104248,2.3963470458984375,5.494258880615234
1700944613212633300,4.78763330078125,-0.1601966917514801,2.2734932899475098,4.543822288513184
1700944613229629000,4.80462890625,0.8811677694320679,1.2695164680480957,4.6165876388549805
1700944613246624500,4.82162451171875,2.982703447341919,-0.0544428825378418,4.928105354309082
1700944613263612200,4.838612060546875,4.776525497436523,-1.0307316780090332,5.157975196838379
1700944613280605400,4.85560546875,5.500919818878174,-1.8159232139587402,4.958240509033203
1700944613297603600,4.872603515625,5.404264450073242,-2.1575355529785156,3.9314346313476562
1700944613314593000,4.889593017578125,5.127877235412598,-2.054354190826416,2.204011917114258
1700944613331586300,4.90658642578125,5.083561897277832,-1.9531011581420898,0.8444252014160156
1700944613348581600,4.92358154296875,5.349611282348633,-1.8512206077575684,-0.22739887237548828
1700944613365573400,4.940573486328125,5.868422508239746,-1.6986525058746338,-0.7123556137084961
1700944613382566400,4.95756640625,6.196171760559082,-1.5616986751556396,-0.7927742004394531
1700944613399559700,4.9745595703125,6.088197708129883,-1.6173778772354126,-1.1353693008422852
1700944613416542200,4.991542236328125,5.787296772003174,-1.6605645418167114,-2.0372676849365234
1700944613433543400,5.00854345703125,5.795500755310059,-1.5534770488739014,-3.122685432434082
1700944613450540800,5.025540771484375,5.971162796020508,-1.3673397302627563,-4.004819393157959
1700944613467531800,5.04253173828125,6.259383201599121,-1.0547094345092773,-4.2882280349731445
1700944613484531200,5.05953125,6.340564727783203,-1.0997198820114136,-3.857626438140869
1700944613501517600,5.076517578125,5.888300895690918,-1.4034533500671387,-3.11793851852417
1700944613518510800,5.0935107421875,5.61130428314209,-1.7564976215362549,-2.795848846435547
1700944613535504000,5.11050390625,5.718406677246094,-1.9011389017105103,-3.6020655632019043
1700944613552497200,5.1274970703125,5.975344657897949,-2.1279938220977783,-4.700001239776611
1700944613569490200,5.144490234375,6.203208923339844,-2.586989164352417,-5.318127632141113
1700944613586483000,5.16148291015625,6.32250452041626,-3.1646628379821777,-5.186244964599609
1700944613603476000,5.17847607421875,6.4232072830200195,-3.44075608253479,-4.12623929977417
1700944613620469200,5.19546923828125,6.201464653015137,-3.324946880340576,-3.356231689453125
1700944613637458200,5.212458251953125,5.542941093444824,-3.1624350547790527,-2.667214870452881
1700944613654442800,5.22944287109375,4.675821781158447,-3.065910577774048,-1.9687795639038086
1700944613671448300,5.2464482421875,3.610611915588379,-3.220947742462158,-1.3436589241027832
1700944613688439600,5.263439453125,2.9439101219177246,-3.756652355194092,-0.5308189392089844
1700944613705436200,5.280436279296875,2.3215301036834717,-4.598115921020508,0.7721633911132812
1700944613722427400,5.297427490234375,1.5892759561538696,-5.212847709655762,1.1259069442749023
1700944613739420700,5.314420654296875,0.7082021236419678,-5.372552871704102,0.2718677520751953
1700944613756398800,5.33139892578125,-0.2498781681060791,-4.9231696128845215,-0.5269403457641602
1700944613773406500,5.348406494140625,-1.5391833782196045,-4.6549506187438965,0.2466440200805664
1700944613790410200,5.36541015625,-2.6271350383758545,-4.359289169311523,1.672586441040039
1700944613807392500,5.382392578125,-2.1598658561706543,-3.3000433444976807,2.47750186920166
1700944613824386000,5.399385986328125,-1.7437245845794678,-2.493154764175415,3.128586769104004
1700944613841377500,5.41637744140625,-1.748237133026123,-1.541623830795288,2.9492969512939453
1700944613858373400,5.433373291015625,-2.522148609161377,-1.0931813716888428,2.41361141204834
1700944613875364900,5.45036474609375,-3.353947162628174,-0.8270413875579834,1.8648691177368164
1700944613892358000,5.46735791015625,-3.6514475345611572,-0.5173122882843018,1.677083969116211
1700944613909351000,5.484350830078125,-3.434689998626709,-0.07455778121948242,1.7492656707763672
1700944613926326000,5.501325927734375,-3.072028636932373,0.7357127666473389,1.877981185913086
1700944613943337200,5.518337158203125,-2.542387008666992,1.6529910564422607,2.3901844024658203
1700944613960330200,5.535330322265625,-1.8626593351364136,2.7276763916015625,2.505369186401367
1700944613977323300,5.5523232421875,-1.6809319257736206,3.488048791885376,2.1020240783691406
1700944613994316300,5.56931640625,-1.633199691772461,4.1899261474609375,1.3563199043273926
1700944614011296800,5.586296875,-1.5931164026260376,4.6455888748168945,1.0582561492919922
1700944614028302600,5.603302490234375,-1.4659552574157715,4.985260009765625,1.1367244720458984
1700944614045295600,5.620295654296875,-1.215171456336975,5.231229305267334,1.6222529411315918
1700944614062284300,5.6372841796875,-0.8468542098999023,5.408534526824951,2.2277703285217285
1700944614079286000,5.6542861328125,-0.6533164978027344,5.578535079956055,2.359774589538574
1700944614096274200,5.671274169921875,-0.9062572717666626,5.600597381591797,2.3402724266052246
1700944614113266400,5.688266357421875,-1.1409904956817627,5.7215070724487305,2.454300880432129
1700944614130258200,5.705258056640625,-1.2430380582809448,6.094510078430176,2.9055633544921875
1700944614147256000,5.722256103515625,-1.2119219303131104,6.606754779815674,3.4771432876586914
1700944614164244000,5.739243896484375,-0.724921464920044,6.7905449867248535,4.465713024139404
1700944614181232000,5.756232177734375,0.30018264055252075,6.850119590759277,5.082867622375488
1700944614198232800,5.77323291015625,1.1519649028778076,6.438289642333984,5.413956642150879
1700944614215226000,5.79022607421875,1.751988410949707,5.988457202911377,5.187556743621826
1700944614232219000,5.807218994140625,2.034740686416626,5.400094032287598,4.879471778869629
1700944614249212200,5.824212158203125,2.4235951900482178,4.559871673583984,5.356029987335205
1700944614266205200,5.841205078125,3.2716481685638428,3.6630029678344727,6.794926643371582
1700944614283198000,5.858197998046875,3.7280328273773193,2.759582757949829,7.908710479736328
1700944614300191000,5.87519091796875,3.5546326637268066,1.5471563339233398,8.492934226989746
1700944614317184300,5.892184326171875,3.4810948371887207,0.1824970245361328,9.260343551635742
1700944614334177300,5.90917724609375,3.486992359161377,-0.3916354179382324,9.567743301391602
1700944614351167700,5.926167724609375,3.4712562561035156,0.02592611312866211,8.816829681396484
1700944614368166100,5.943166259765625,3.3107352256774902,0.015653133392333984,8.246912956237793
1700944614385156600,5.960156494140625,3.963582992553711,-0.9585638046264648,7.708621978759766
1700944614402149400,5.9771494140625,5.142540454864502,-2.338263988494873,7.381634712219238
1700944614419142700,5.994142578125,6.082579612731934,-3.6600747108459473,7.308048248291016
1700944614436135700,6.0111357421875,6.000670433044434,-4.114521503448486,7.274126052856445
1700944614453128700,6.028128662109375,5.240229606628418,-3.6623435020446777,6.609945297241211
1700944614470121700,6.045121826171875,4.258605003356934,-3.122804880142212,5.336125373840332
1700944614487116300,6.0621162109375,3.9045581817626953,-2.7020137310028076,3.511791229248047
1700944614504100900,6.079100830078125,4.420479774475098,-2.9062447547912598,2.295710563659668
1700944614521097700,6.09609765625,5.077855587005615,-3.4897584915161133,1.59765625
1700944614538083300,6.113083251953125,5.556397438049316,-4.006169319152832,0.793065071105957
1700944614555084500,6.13008447265625,5.8597283363342285,-4.533432960510254,-0.24269485473632812
1700944614572076500,6.14707666015625,5.896506309509277,-5.555568695068359,-0.9232292175292969
1700944614589073400,6.164073486328125,6.026422500610352,-6.583042621612549,-0.9872236251831055
1700944614606055700,6.1810556640625,6.439142227172852,-7.071216106414795,-1.2265892028808594
1700944614623059200,6.19805908203125,6.587403297424316,-7.087553977966309,-1.9547443389892578
1700944614640052200,6.21505224609375,6.4305548667907715,-6.969330787658691,-2.3938112258911133
1700944614657045500,6.23204541015625,6.048083305358887,-7.472296714782715,-2.227717399597168
1700944614674038300,6.249038330078125,5.477568626403809,-7.907524108886719,-1.7804923057556152
1700944614691031300,6.26603125,5.179744243621826,-8.110723495483398,-1.5315308570861816
1700944614708024600,6.283024658203125,4.802574157714844,-8.289258003234863,-1.6217775344848633
1700944614725017600,6.300017578125,4.417545318603516,-8.45528793334961,-1.633298397064209
1700944614742008000,6.317008056640625,3.6161985397338867,-8.587858200073242,-1.202077865600586
1700944614758993200,6.3339931640625,2.0978200435638428,-8.827070236206055,-0.8113155364990234
1700944614775997000,6.350996826171875,0.4491593837738037,-9.019903182983398,-0.8796911239624023
1700944614792990000,6.367989990234375,-0.12189793586730957,-8.705081939697266,-1.6153559684753418
1700944614809977000,6.38497705078125,0.3867403268814087,-7.456667900085449,-2.1033830642700195
1700944614826975700,6.401975830078125,0.672776460647583,-5.889829635620117,-1.976597785949707
1700944614843969000,6.418968994140625,0.4079197645187378,-4.884458065032959,-0.2977638244628906
1700944614860962000,6.435962158203125,-0.2923877239227295,-4.577920436859131,2.3020029067993164
1700944614877956900,6.452956787109375,-1.3955092430114746,-4.295327186584473,3.5576562881469727
1700944614894947600,6.469947509765625,-2.5433149337768555,-3.906912326812744,2.6549882888793945
1700944614911944000,6.48694384765625,-3.211348056793213,-3.6506783962249756,0.8688945770263672
1700944614928934100,6.50393408203125,-2.675274133682251,-3.3390090465545654,-0.3583641052246094
1700944614945927200,6.52092724609375,-1.284100890159607,-2.8995933532714844,-0.2588386535644531
1700944614962920200,6.537920166015625,0.19168567657470703,-1.8672726154327393,0.7292499542236328
1700944614979913200,6.554913330078125,0.940929651260376,-0.5006341934204102,1.3638648986816406
1700944614996904000,6.571904052734375,0.9988128542900085,0.8897202014923096,1.2069435119628906
1700944615013902000,6.588902099609375,0.3179028630256653,1.6270568370819092,1.1458683013916016
1700944615030892500,6.605892578125,0.18364226818084717,2.59689998626709,1.104264259338379
1700944615047885600,6.622885498046875,0.2260037660598755,3.460252285003662,1.5740537643432617
1700944615064878300,6.63987841796875,-0.015604138374328613,4.390030860900879,2.148050308227539
1700944615081871600,6.65687158203125,-0.2862005829811096,5.22700309753418,2.273845672607422
1700944615098865000,6.673864990234375,-0.6847007870674133,5.592001914978027,2.3922815322875977
1700944615115858000,6.69085791015625,-0.6692964434623718,5.544816493988037,3.0263423919677734
1700944615132851000,6.707850830078125,-0.6447587609291077,5.459883213043213,3.7197656631469727
1700944615149844200,6.72484423828125,-0.8880501985549927,5.390109539031982,4.403767108917236
1700944615166837000,6.7418369140625,-1.2252670526504517,5.384387016296387,4.801521301269531
1700944615183830000,6.758830078125,-1.3271416425704956,5.1297526359558105,5.266666889190674
1700944615200823000,6.775822998046875,-1.5069332122802734,5.01362419128418,5.757654190063477
1700944615217816000,6.792816162109375,-2.0411195755004883,4.961114883422852,6.480134963989258
1700944615234809300,6.809809326171875,-2.1129963397979736,4.963924407958984,7.1008219718933105
1700944615251802000,6.826802001953125,-1.5916261672973633,4.501297950744629,8.014490127563477
1700944615268784400,6.843784423828125,-0.7983134984970093,3.708615303039551,8.73440170288086
1700944615285788400,6.860788330078125,0.15704858303070068,2.4278597831726074,9.949697494506836
1700944615302781400,6.877781494140625,1.020611047744751,1.345491886138916,11.380660057067871
1700944615319774200,6.894774169921875,1.3970322608947754,1.3929052352905273,12.324527740478516
1700944615336767500,6.911767578125,1.3323299884796143,2.2932076454162598,12.121105194091797
1700944615353760500,6.928760498046875,1.3216911554336548,3.280681848526001,10.589811325073242
1700944615370753500,6.94575341796875,1.2946038246154785,2.821505308151245,8.757896423339844
1700944615387745500,6.96274560546875,1.3604764938354492,1.144162654876709,7.14333438873291
1700944615404740600,6.97974072265625,1.9828612804412842,-0.8897829055786133,6.385395050048828
1700944615421743000,6.9967431640625,2.4993233680725098,-2.7975692749023438,6.41154670715332
1700944615438726000,7.013725830078125,2.593327760696411,-4.149772644042969,5.5966339111328125
1700944615455719000,7.030718994140625,2.5619022846221924,-4.784773826599121,3.7746543884277344
1700944615472711700,7.047711669921875,2.5850067138671875,-4.917401313781738,1.5739564895629883
1700944615489704700,7.06470458984375,2.624727249145508,-4.848143100738525,-0.17454814910888672
1700944615506698200,7.0816982421875,2.5011653900146484,-4.867431640625,-1.4220390319824219
1700944615523690800,7.098690673828125,2.3638973236083984,-4.808994293212891,-2.436915874481201
1700944615540684000,7.11568408203125,2.4542346000671387,-4.85138463973999,-3.1062145233154297
1700944615557677000,7.132677001953125,2.573392868041992,-5.112015724182129,-3.525662422180176
1700944615574670300,7.14967041015625,2.7577767372131348,-5.297187328338623,-4.069118022918701
1700944615591663000,7.1666630859375,2.7690508365631104,-5.481932640075684,-4.7521772384643555
1700944615608656100,7.18365625,2.9487040042877197,-5.424650192260742,-5.494987964630127
1700944615625638700,7.200638671875,3.015620708465576,-5.547637462615967,-5.946623802185059
1700944615642642700,7.217642578125,2.9450817108154297,-6.131053447723389,-5.546343803405762
1700944615659635700,7.2346357421875,3.1112217903137207,-7.105657577514648,-4.645663261413574
1700944615676628500,7.25162841796875,3.1469340324401855,-7.960291862487793,-3.9762473106384277
1700944615693621500,7.26862158203125,3.504943370819092,-8.312907218933105,-4.012365341186523
1700944615710614500,7.285614501953125,3.825265407562256,-8.509970664978027,-3.91972017288208
1700944615727607600,7.302607666015625,3.751856803894043,-8.939111709594727,-3.239108085632324
1700944615744611800,7.31961181640625,3.2822093963623047,-9.394977569580078,-1.6474218368530273
1700944615761594000,7.336593994140625,2.4602880477905273,-9.658429145812988,0.1473093032836914
1700944615778587000,7.3535869140625,1.7883931398391724,-9.887235641479492,1.588282585144043
1700944615795577300,7.370577392578125,1.3531533479690552,-9.965304374694824,1.9483423233032227
1700944615812565200,7.387565185546875,1.1149911880493164,-10.04416275024414,1.5792226791381836
1700944615829566200,7.404566162109375,1.333646297454834,-9.561254501342773,1.1252336502075195
1700944615846556700,7.421556640625,1.4324382543563843,-8.198450088500977,1.372309684753418
1700944615863554800,7.438554931640625,0.8085289597511292,-6.56646203994751,2.2514257431030273
1700944615880552000,7.455552001953125,0.08108973503112793,-4.94647741317749,3.0093212127685547
1700944615897538000,7.4725380859375,-0.6177974939346313,-3.847050428390503,2.8145132064819336
1700944615914531300,7.48953125,-1.1827569007873535,-3.1730949878692627,1.6837682723999023
1700944615931524400,7.5065244140625,-1.1821998357772827,-3.028857707977295,0.36691951751708984
1700944615948514800,7.523514892578125,-0.6092780828475952,-2.919482469558716,-0.5680809020996094
1700944615965513200,7.54051318359375,0.33608049154281616,-2.668757438659668,-0.45176029205322266
1700944615982503400,7.55750341796875,1.4204298257827759,-1.7546992301940918,0.029058456420898438
1700944615999496400,7.574496337890625,1.8616769313812256,-0.5188219547271729,0.6165637969970703
1700944616016489700,7.59148974609375,1.4809691905975342,0.9199542999267578,0.850926399230957
1700944616033480700,7.608480712890625,0.7280874252319336,2.1075639724731445,1.0127277374267578
1700944616050477600,7.6254775390625,-0.0015454888343811035,2.9822707176208496,1.4846019744873047
1700944616067469000,7.642468994140625,-0.11309707164764404,3.775625467300415,1.9404897689819336
1700944616084461300,7.65946142578125,-0.06201338768005371,4.521463871002197,2.663769245147705
1700944616101455600,7.67645556640625,-0.02329885959625244,5.340738296508789,3.0901432037353516
1700944616118447900,7.69344775390625,-0.1855943202972412,5.940263271331787,3.358790397644043
1700944616135430400,7.710430419921875,-0.22723346948623657,6.489269256591797,3.423701763153076
1700944616152434200,7.72743408203125,-0.5491846799850464,6.698299407958984,3.7427639961242676
1700944616169427000,7.744427001953125,-0.9500709772109985,6.6917924880981445,4.5465087890625
1700944616186420200,7.761420166015625,-1.152489423751831,6.551615238189697,5.287789821624756
1700944616203413500,7.77841357421875,-1.180095911026001,6.241310119628906,5.827691555023193
1700944616220406300,7.79540625,-1.0981314182281494,5.8415207862854,6.497227191925049
1700944616237399300,7.8123994140625,-0.9439870715141296,5.459597587585449,7.447845935821533
1700944616254376400,7.82937646484375,-1.1491605043411255,5.1498823165893555,8.381185531616211
1700944616271385600,7.846385498046875,-1.3963600397109985,4.6850385665893555,9.171764373779297
1700944616288380200,7.863380126953125,-0.5760819911956787,4.250656604766846,9.702259063720703
1700944616305369600,7.88036962890625,0.9702510237693787,3.405571460723877,11.308658599853516
1700944616322356500,7.8973564453125,1.919053554534912,2.3321032524108887,13.208236694335938
1700944616339357700,7.914357666015625,2.321571111679077,1.9433636665344238,13.935674667358398
1700944616356351000,7.93135107421875,2.2277493476867676,2.142134666442871,13.608011245727539
1700944616373343700,7.94834375,1.979490041732788,2.6060943603515625,12.644062042236328
1700944616390327000,7.9653271484375,1.6359597444534302,2.232311248779297,11.591382026672363
1700944616407330000,7.982330078125,1.295055627822876,0.9039654731750488,10.548433303833008
1700944616424323000,7.999322998046875,1.3833891153335571,-0.774207592010498,9.41258716583252
1700944616441313500,8.0163134765625,1.442824125289917,-2.4316930770874023,7.852179527282715
1700944616458311700,8.033311767578125,1.6939021348953247,-3.8649516105651855,6.075972557067871
1700944616475303400,8.050303466796874,1.99320387840271,-5.032680988311768,4.658864974975586
1700944616492294000,8.0672939453125,2.067469596862793,-5.78269624710083,3.5406265258789062
1700944616509288200,8.0842880859375,1.744074821472168,-5.729770660400391,1.734750747680664
1700944616526286000,8.1012861328125,1.3129899501800537,-5.467374324798584,-0.0008096694946289062
1700944616543271700,8.118271728515625,1.1396374702453613,-5.149131774902344,-1.5025453567504883
1700944616560270000,8.13527001953125,1.204941987991333,-5.062736988067627,-2.6163172721862793
1700944616577260500,8.152260498046875,1.4102636575698853,-5.561206817626953,-2.9861302375793457
1700944616594253600,8.169253662109375,1.426914930343628,-5.743606090545654,-3.6603808403015137
1700944616611241000,8.186240966796875,1.5670344829559326,-5.617396831512451,-4.5439653396606445
1700944616628239400,8.2032392578125,1.4099559783935547,-5.556954383850098,-5.5249457359313965
1700944616645232400,8.220232421875,1.291542887687683,-5.437458038330078,-6.424132347106934
1700944616662225700,8.2372255859375,1.3918700218200684,-5.851831912994385,-6.594071388244629
1700944616679220200,8.25422021484375,1.5517141819000244,-6.684092044830322,-6.149810791015625
1700944616696212000,8.2712119140625,1.7957789897918701,-7.329236030578613,-5.862729072570801
1700944616713205000,8.288205078125,2.3505005836486816,-7.6065168380737305,-5.767636299133301
1700944616730198000,8.305197998046875,2.6739609241485596,-7.929783821105957,-5.395263671875
1700944616747191000,8.32219091796875,2.767568349838257,-8.571060180664062,-4.7831525802612305
1700944616764183800,8.339183837890625,2.7981820106506348,-9.421869277954102,-3.7577924728393555
1700944616781176800,8.3561767578125,3.312519073486328,-9.580629348754883,-2.8560562133789062
1700944616798170000,8.373170166015624,3.5645205974578857,-9.533885955810547,-1.4767422676086426
1700944616815163100,8.3901630859375,3.2572357654571533,-9.581579208374023,0.2500286102294922
1700944616832153600,8.407153564453125,2.459796667098999,-9.968738555908203,1.7675580978393555
1700944616849151700,8.42415185546875,1.802051067352295,-10.327067375183105,1.979818344116211
1700944616866141700,8.4411416015625,1.5945380926132202,-10.09980583190918,1.3982086181640625
1700944616883136000,8.458135986328125,1.4047915935516357,-9.18919563293457,1.2205018997192383
1700944616900128300,8.475128173828125,1.2723959684371948,-7.500764846801758,2.0166683197021484
1700944616917124400,8.492124267578125,1.4379913806915283,-5.587948322296143,3.1831436157226562
1700944616934111700,8.50911181640625,1.2548270225524902,-4.227208614349365,4.016329765319824
1700944616951107600,8.526107666015625,0.4435614347457886,-3.38187313079834,3.7509546279907227
1700944616968100600,8.5431005859375,-0.22971177101135254,-2.786252975463867,2.328533172607422
1700944616985094000,8.560093994140624,-0.4932507276535034,-2.4168503284454346,0.6191892623901367
1700944617002076200,8.577076171875,-0.34193867444992065,-2.114717721939087,-0.5667171478271484
1700944617019079700,8.59407958984375,0.3783780634403229,-1.5320298671722412,-0.3883085250854492
1700944617036072700,8.61107275390625,1.2521344423294067,-0.4326820373535156,0.40592384338378906
1700944617053066000,8.62806591796875,1.0153623819351196,0.8782827854156494,0.8717126846313477
1700944617070059000,8.64505908203125,-0.3141702711582184,2.102874755859375,1.1034049987792969
1700944617087052000,8.662052001953125,-1.590631365776062,2.9766323566436768,1.5480432510375977
1700944617104045300,8.67904541015625,-2.090026617050171,3.7064456939697266,2.082951068878174
1700944617121038000,8.6960380859375,-1.9148664474487305,4.322418212890625,2.5834717750549316
1700944617138031000,8.713031005859374,-1.4871959686279297,4.936376571655273,3.2313504219055176
1700944617155024100,8.730024169921874,-1.2947849035263062,5.6618499755859375,3.4835352897644043
1700944617172017200,8.74701708984375,-1.251879096031189,6.157788276672363,3.754671096801758
1700944617189010400,8.764010498046876,-1.2246408462524414,6.391205787658691,4.160494327545166
1700944617206003500,8.78100341796875,-1.0926949977874756,6.671440124511719,4.222747802734375
1700944617222996500,8.79799658203125,-1.0041780471801758,6.644836902618408,4.162639141082764
1700944617239989800,8.81498974609375,-0.7343738675117493,5.90997314453125,5.026917934417725
1700944617256982500,8.831982421875,-0.7413288950920105,5.310691833496094,5.846668243408203
1700944617273975600,8.8489755859375,-1.6148568391799927,5.25227165222168,6.613873481750488
1700944617290968600,8.865968505859374,-2.9350874423980713,5.227609634399414,7.056033134460449
1700944617307964000,8.8829638671875,-3.418907642364502,5.361104965209961,7.350347518920898
1700944617324955000,8.899954833984374,-2.967768669128418,5.133110046386719,7.920100688934326
1700944617341947600,8.91694775390625,-1.7113970518112183,4.3139543533325195,8.872735977172852
1700944617358941000,8.93394091796875,-0.4500179886817932,3.400552272796631,9.952220916748047
1700944617375934200,8.950934326171875,0.27987390756607056,2.576587677001953,11.166360855102539
1700944617392927000,8.967927001953125,0.39963802695274353,1.4974427223205566,12.536039352416992
1700944617409914000,8.9849140625,1.0852835178375244,1.1664948463439941,13.18128776550293
1700944617426913000,9.0019130859375,1.8167551755905151,1.8110899925231934,12.817953109741211
1700944617443906300,9.01890625,2.1636195182800293,2.442380905151367,11.601451873779297
1700944617460899300,9.0358994140625,1.9757686853408813,2.138460636138916,9.685359954833984
1700944617477892400,9.052892333984374,1.6348460912704468,0.6369414329528809,8.093880653381348
1700944617494885400,9.069885498046874,1.1684077978134155,-1.3389801979064941,7.245177745819092
1700944617511878400,9.08687841796875,0.9111980199813843,-2.872616767883301,6.164985656738281
1700944617528871200,9.10387109375,0.9152299761772156,-3.760481834411621,4.656831741333008
1700944617545864700,9.12086474609375,1.2359085083007812,-4.095196723937988,2.8623266220092773
1700944617562857500,9.137857421875,1.6273702383041382,-4.136310577392578,1.1374921798706055
1700944617579850500,9.1548505859375,1.9755961894989014,-3.913517951965332,-0.3844175338745117
1700944617596843800,9.17184375,2.3735501766204834,-3.6396656036376953,-1.628835678100586
1700944617613838800,9.1888388671875,2.565030574798584,-3.4622976779937744,-2.5602197647094727
1700944617630830000,9.205830078125,2.4259557723999023,-3.3913965225219727,-3.2073469161987305
1700944617647822800,9.22282275390625,2.6773276329040527,-3.4789490699768066,-3.4919543266296387
1700944617664815600,9.239815673828126,2.8183693885803223,-3.724045515060425,-3.825456142425537
1700944617681809200,9.25680908203125,2.794318914413452,-4.160106658935547,-4.226346492767334
1700944617698802200,9.27380224609375,2.70245623588562,-4.354241847991943,-4.761103630065918
1700944617715795000,9.290794921875,2.8618249893188477,-4.412153720855713,-5.197359561920166
1700944617732788200,9.307788330078125,3.14510178565979,-4.488461494445801,-5.357570648193359
1700944617749778700,9.32477880859375,3.220038890838623,-4.659385681152344,-5.311075687408447
1700944617766766600,9.3417666015625,3.645331859588623,-5.106856346130371,-4.8120880126953125
1700944617783767000,9.35876708984375,3.745633840560913,-5.894735336303711,-4.141140937805176
1700944617800760600,9.375760498046875,3.8445820808410645,-6.423983097076416,-3.875333786010742
1700944617817753000,9.392753173828124,4.241623401641846,-6.79648494720459,-3.822434425354004
1700944617834746600,9.40974658203125,4.506343841552734,-7.327047824859619,-3.5098471641540527
1700944617851739400,9.426739501953126,4.6185431480407715,-7.886878967285156,-2.90451717376709
1700944617868732700,9.443732666015626,4.638740062713623,-8.364468574523926,-1.8247356414794922
1700944617885723100,9.46072314453125,4.017703056335449,-8.684067726135254,-0.5927057266235352
1700944617902721300,9.47772119140625,3.393362045288086,-9.073391914367676,0.9864225387573242
1700944617919711500,9.49471142578125,2.5768587589263916,-9.111337661743164,1.7550010681152344
1700944617936704500,9.51170458984375,1.459960699081421,-8.988433837890625,1.8319330215454102
1700944617953697800,9.52869775390625,1.2580642700195312,-7.588204860687256,1.2567253112792969
1700944617970691000,9.545691162109375,1.0283242464065552,-5.6308274269104,1.116225242614746
1700944617987684000,9.56268408203125,0.4435088634490967,-4.028181076049805,1.7812824249267578
1700944618004676900,9.5796767578125,-0.714718222618103,-2.950845241546631,2.763970375061035
1700944618021670100,9.596670166015626,-1.788846731185913,-2.056191921234131,2.776763916015625
1700944618038663200,9.6136630859375,-2.3506691455841064,-1.619779348373413,1.7604236602783203
1700944618055643400,9.630643310546875,-2.0975115299224854,-1.4378039836883545,0.21146678924560547
1700944618072638500,9.647638427734375,-1.329758644104004,-1.1285767555236816,-1.0129098892211914
1700944618089644800,9.664644775390625,-0.5244213938713074,-0.5896587371826172,-1.3975820541381836
1700944618106635300,9.68163525390625,0.19977255165576935,0.09419679641723633,-0.24849605560302734
1700944618123617500,9.698617431640624,0.5220358967781067,1.1335053443908691,0.7671470642089844
1700944618140618800,9.71561865234375,0.19222235679626465,2.1181387901306152,1.2637853622436523
1700944618157617400,9.732617431640625,-0.4277820289134979,2.95247220993042,1.225881576538086
1700944618174607600,9.749607666015624,-1.1299337148666382,3.39204740524292,1.0909147262573242
1700944618191600400,9.766600341796876,-1.3257192373275757,3.7517080307006836,1.0615172386169434
1700944618208593400,9.783593505859375,-1.1994531154632568,4.149824142456055,1.2245512008666992
1700944618225586700,9.800586669921875,-0.9191917777061462,4.534029960632324,2.079723358154297
1700944618242579700,9.817579833984375,-0.6902404427528381,4.986896991729736,2.630819320678711
1700944618259573000,9.834572998046875,-0.7201879024505615,5.393507480621338,2.7391843795776367
1700944618276562000,9.85156201171875,-1.0155088901519775,5.5980377197265625,2.6264028549194336
1700944618293563100,9.868563232421875,-1.2176347970962524,5.739262580871582,2.3996644020080566
1700944618310552000,9.885552001953124,-1.2706918716430664,5.75473690032959,2.4020276069641113
1700944618327544800,9.902544921875,-1.2153129577636719,5.735964775085449,2.6759438514709473
1700944618344537900,9.919537841796876,-1.0086729526519775,5.815164566040039,2.9776453971862793
1700944618361531100,9.93653125,-1.003745436668396,5.748258113861084,3.077000141143799
1700944618378524200,9.953524169921875,-1.1173979043960571,5.520089149475098,2.904820442199707
1700944618395517200,9.97051708984375,-1.1946899890899658,4.959047317504883,2.820727825164795
1700944618412510200,9.98751025390625,-1.061895489692688,4.30258321762085,2.8099308013916016
1700944618429503500,10.00450341796875,-0.9396821856498718,3.29830265045166,3.7854108810424805
1700944618446496300,10.021496337890625,-0.8706070184707642,2.602919578552246,5.34783935546875
1700944618463489300,10.0384892578125,-0.9886215329170227,2.1533560752868652,6.6852593421936035
1700944618480482600,10.055482666015624,-0.8303878903388977,2.1252012252807617,7.742843151092529
1700944618497475600,10.0724755859375,-0.6685320138931274,2.2134876251220703,8.296585083007812
1700944618514468900,10.08946875,-0.6004686951637268,2.4222240447998047,8.702611923217773
1700944618531461600,10.106461669921876,-0.5549161434173584,1.8508687019348145,9.63426399230957
1700944618548454700,10.12345458984375,-0.32406896352767944,0.7769169807434082,10.302292823791504
1700944618565447700,10.14044775390625,0.5450878739356995,0.13887357711791992,9.798650741577148
1700944618582441000,10.15744091796875,1.660823941230774,-0.009499073028564453,8.868664741516113
1700944618599433700,10.174433837890625,2.0906615257263184,0.5080499649047852,7.861085891723633
1700944618616427000,10.191427001953125,1.5855250358581543,1.2590160369873047,7.103886604309082
1700944618633420000,10.208419921875,0.6867989301681519,1.8523449897766113,6.357546806335449
1700944618650412800,10.225412841796874,-0.05477362871170044,1.7297935485839844,5.63046932220459
1700944618667406300,10.24240625,0.39906612038612366,0.8570466041564941,5.003057479858398
1700944618684398800,10.25939892578125,1.465712308883667,-0.9206228256225586,5.260486602783203
1700944618701392100,10.27639208984375,2.6625821590423584,-1.8954553604125977,4.563961982727051
1700944618718371600,10.29337158203125,3.7596569061279297,-2.5258946418762207,3.8283309936523438
1700944618735377200,10.310377197265625,5.07676362991333,-2.8242788314819336,3.1715221405029297
1700944618752367600,10.32736767578125,6.253450393676758,-3.10443115234375,2.4324607849121094
1700944618769368300,10.344368408203126,7.377964973449707,-3.5043623447418213,1.6178054809570312
1700944618786357200,10.361357177734375,7.7425737380981445,-3.826723337173462,1.1817760467529297
1700944618803350500,10.3783505859375,7.175549030303955,-3.8819737434387207,0.7226352691650391
1700944618820343600,10.395343505859374,6.368361473083496,-3.5013015270233154,-0.12065792083740234
1700944618837336300,10.41233642578125,5.906245708465576,-3.0360429286956787,-1.4023380279541016
1700944618854329600,10.42932958984375,5.558771133422852,-2.709799289703369,-2.5284366607666016
1700944618871323000,10.446322998046876,5.98560905456543,-2.4236326217651367,-3.3762664794921875
1700944618888313000,10.46331298828125,6.452380180358887,-2.2754530906677246,-3.962803840637207
1700944618905311200,10.480311279296876,6.41206693649292,-2.127988815307617,-4.42428731918335
1700944618922299400,10.49729931640625,6.1393585205078125,-2.0272440910339355,-4.80573034286499
1700944618939297300,10.51429736328125,5.701300621032715,-1.9238476753234863,-4.956757545471191
1700944618956300000,10.531300048828125,5.456787586212158,-1.83228600025177,-4.816869258880615
1700944618973281300,10.54828125,5.066991329193115,-1.8171722888946533,-4.711254596710205
1700944618990274300,10.5652744140625,4.5387396812438965,-1.996025562286377,-5.050253868103027
1700944619007265000,10.58226513671875,4.342092514038086,-2.1670687198638916,-5.782724380493164
1700944619024262100,10.59926220703125,4.6654558181762695,-2.22414231300354,-6.474456787109375
1700944619041253000,10.616253173828126,4.838321685791016,-2.320512056350708,-6.102143287658691
1700944619058246700,10.63324658203125,4.365378379821777,-2.25070858001709,-5.0364885330200195
1700944619075239200,10.6502392578125,3.4327800273895264,-2.22906756401062,-4.002654075622559
1700944619092232400,10.667232421875,2.5352625846862793,-2.299776315689087,-3.158799648284912
1700944619109225200,10.68422509765625,1.734529972076416,-2.5069775581359863,-2.724144458770752
1700944619126208000,10.7012080078125,1.1013379096984863,-2.6957130432128906,-2.4873576164245605
1700944619143211500,10.71821142578125,0.8540087938308716,-3.0616068840026855,-1.7070708274841309
1700944619160204500,10.73520458984375,0.5290896892547607,-3.456488609313965,-0.7431268692016602
1700944619177197800,10.75219775390625,0.5166599750518799,-3.785951614379883,0.06663036346435547
1700944619194190800,10.76919091796875,0.4569152593612671,-3.8040668964385986,0.30611324310302734
1700944619211183900,10.786183837890626,-0.2593165636062622,-4.021256446838379,0.654850959777832
1700944619228173800,10.803173828125,-1.1144660711288452,-4.11338472366333,0.7004594802856445
1700944619245167000,10.8201669921875,-1.771537184715271,-4.15738582611084,0.6914663314819336
1700944619262163200,10.8371630859375,-1.6265990734100342,-3.6625866889953613,0.5937891006469727
1700944619279156000,10.854156005859375,-0.971435546875,-3.1972599029541016,1.1203670501708984
1700944619296149200,10.871149169921875,-0.31998956203460693,-2.8207945823669434,1.829035758972168
1700944619313142300,10.888142333984375,-0.10519897937774658,-2.552706480026245,2.3956594467163086
1700944619330135300,10.90513525390625,-0.4579220414161682,-1.959766149520874,2.225393295288086
1700944619347128300,10.92212841796875,-1.3830987215042114,-1.0169432163238525,1.7524328231811523
1700944619364121300,10.939121337890626,-2.300320863723755,0.1706533432006836,1.3913898468017578
1700944619381114000,10.956114013671876,-3.3551440238952637,1.2835514545440674,1.4288082122802734
1700944619398107600,10.973107666015625,-4.170083999633789,1.9571313858032227,1.8073368072509766
1700944619415100400,10.990100341796875,-4.383072853088379,2.149960517883301,2.1306447982788086
1700944619432093400,11.007093505859375,-4.065836429595947,1.782038927078247,2.405071258544922
1700944619449086700,11.024086669921875,-3.2951724529266357,1.4910597801208496,2.3296594619750977
1700944619466079700,11.041079833984375,-2.617875099182129,1.3048043251037598,2.1085805892944336
1700944619483072500,11.058072509765625,-1.8365228176116943,1.425887107849121,2.0226359367370605
1700944619500065500,11.0750654296875,-0.6968294382095337,1.9980361461639404,2.221369743347168
1700944619517040600,11.09204052734375,0.20235323905944824,2.5262346267700195,2.620126247406006
1700944619534051800,11.1090517578125,0.764813244342804,3.274919033050537,2.7294516563415527
1700944619551044600,11.126044677734376,0.8012072443962097,3.8759331703186035,2.490924835205078
1700944619568038000,11.143037841796875,0.7106125950813293,4.176671981811523,2.1175475120544434
1700944619585032200,11.1600322265625,0.5535430908203125,4.237557888031006,1.793297290802002
1700944619602024200,11.177024169921875,0.4684053957462311,3.993095874786377,1.6740436553955078
1700944619619017000,11.194016845703125,0.9186415672302246,3.8499093055725098,1.9210071563720703
1700944619636010200,11.21101025390625,1.1067774295806885,3.964017868041992,2.19932222366333
1700944619653003300,11.228003173828125,0.9743223786354065,4.21108865737915,2.53135347366333
1700944619669996300,11.244996337890624,0.30892491340637207,4.395023345947266,2.8721790313720703
1700944619686989000,11.261989013671876,-0.3529808521270752,4.63592529296875,3.1155800819396973
1700944619703982600,11.278982666015626,-0.6629981994628906,4.713305473327637,3.5202226638793945
1700944619720975400,11.295975341796876,-0.7580238580703735,4.811797142028809,3.8624958992004395
1700944619737968400,11.312968505859375,-0.6141961812973022,4.760893821716309,4.050313472747803
1700944619754950700,11.32995068359375,-0.36470142006874084,4.522051811218262,4.016806602478027
1700944619771954400,11.346954345703125,-0.00397142767906189,4.01186466217041,3.8464884757995605
1700944619788945200,11.363945068359374,-0.11588385701179504,3.59799861907959,3.700073719024658
1700944619805943300,11.380943359375,-0.25963094830513,3.245255708694458,3.5452609062194824
1700944619822933500,11.39793359375,0.6651183366775513,2.840034246444702,3.342404365539551
1700944619839924200,11.41492431640625,3.0526223182678223,2.252493381500244,3.385857105255127
1700944619856910000,11.43191015625,5.891010761260986,1.6026206016540527,4.150028228759766
1700944619873912800,11.448912841796876,7.286183834075928,0.8008198738098145,5.222381114959717
1700944619890906000,11.465906005859376,6.247507095336914,0.5374460220336914,6.082641124725342
1700944619907899100,11.482899169921875,4.215975761413574,0.22442054748535156,7.161795139312744
1700944619924892200,11.49989208984375,3.5392684936523438,-0.4898347854614258,8.250986099243164
1700944619941885200,11.51688525390625,4.706179141998291,-1.0838942527770996,8.547463417053223
1700944619958868000,11.533867919921875,6.151679039001465,-1.4099454879760742,8.08153247833252
1700944619975871200,11.550871337890625,6.716272354125977,-1.3380846977233887,7.102756500244141
1700944619992864500,11.567864501953125,6.086373329162598,-1.4492814540863037,6.487513542175293
1700944620009856300,11.584856201171876,4.610913276672363,-2.05770206451416,5.941073417663574
1700944620026848000,11.601847900390625,3.800783634185791,-3.043177604675293,5.567685127258301
1700944620043846100,11.61884619140625,3.9150683879852295,-4.192646026611328,5.256757736206055
1700944620060836600,11.635836669921876,4.149364471435547,-4.782486915588379,4.544532775878906
1700944620077829600,11.65282958984375,4.056872844696045,-4.763551235198975,3.1063966751098633
1700944620094822700,11.66982275390625,4.066641807556152,-4.395475387573242,1.6000070571899414
1700944620111815700,11.686815673828125,3.868072271347046,-4.193117141723633,0.398712158203125
1700944620128809000,11.70380908203125,3.7860307693481445,-4.3025922775268555,-0.7315883636474609
1700944620145802000,11.720802001953125,3.808927059173584,-4.809328079223633,-1.7640924453735352
1700944620162794200,11.737794189453124,3.87678861618042,-5.350882053375244,-2.9366350173950195
1700944620179788300,11.754788330078124,4.305142402648926,-5.674448013305664,-4.140300273895264
1700944620196780800,11.77178076171875,4.621592044830322,-5.919207572937012,-5.059330940246582
1700944620213774000,11.788774169921876,5.04782772064209,-6.128243923187256,-5.534067153930664
1700944620230765600,11.805765625,5.285761833190918,-6.32354736328125,-5.373826026916504
1700944620247761400,11.822761474609376,5.51209831237793,-6.7697858810424805,-4.525827407836914
1700944620264753000,11.8397529296875,5.492308616638184,-6.790529251098633,-4.553357124328613
1700944620281740000,11.856739990234376,5.048761367797852,-6.769460678100586,-5.029740810394287
1700944620298739200,11.8737392578125,4.644774436950684,-6.6517133712768555,-5.21214485168457
1700944620315732200,11.890732177734375,4.522382736206055,-6.887916088104248,-4.299098014831543
1700944620332725500,11.9077255859375,4.607484817504883,-7.337747097015381,-1.7364516258239746
1700944620349718800,11.92471875,4.450382232666016,-7.539803981781006,0.17064476013183594
1700944620366711600,11.941711669921874,3.0346758365631104,-7.642911911010742,0.9392490386962891
1700944620383702000,11.958701904296875,0.7885105609893799,-7.901090145111084,1.1778955459594727
1700944620400700200,11.9757001953125,-1.0348918437957764,-8.013224601745605,1.2667407989501953
1700944620417690400,11.9926904296875,-1.5564839839935303,-7.945707321166992,1.4270086288452148
1700944620434684000,12.009683837890625,-0.9015138149261475,-8.076610565185547,2.4163990020751953
1700944620451666000,12.026666015625,0.7215631008148193,-7.354022979736328,3.0415420532226562
1700944620468668400,12.04366845703125,2.278250217437744,-5.696200847625732,3.2560911178588867
1700944620485664300,12.060664306640625,2.9502673149108887,-3.976229429244995,3.5528039932250977
1700944620502656300,12.07765625,2.434837818145752,-2.6543569564819336,3.874147415161133
1700944620519649000,12.09464892578125,0.862688422203064,-1.881612777709961,3.231226921081543
1700944620536642000,12.11164208984375,-0.5649420022964478,-1.5423195362091064,2.145388603210449
1700944620553634800,12.128634765625,-1.2013068199157715,-1.3561038970947266,1.3560800552368164
1700944620570628400,12.14562841796875,-0.7869484424591064,-1.1477885246276855,1.0086469650268555
1700944620587620900,12.162620849609375,0.0358925461769104,-0.6337738037109375,1.1354475021362305
1700944620604614100,12.1796142578125,0.8550014495849609,0.39105224609375,1.0956153869628906
1700944620621606400,12.1966064453125,0.918870210647583,1.5716395378112793,0.7646932601928711
1700944620638601200,12.213601318359375,0.150061696767807,2.5155606269836426,0.47580718994140625
1700944620655593200,12.23059326171875,-0.6265991926193237,3.306199073791504,0.3026103973388672
1700944620672584400,12.24758447265625,-0.732227087020874,3.7642483711242676,0.47915077209472656
1700944620689579500,12.26457958984375,-0.4803542196750641,4.1972856521606445,0.7024531364440918
1700944620706565600,12.281565673828124,-0.19077980518341064,4.605947494506836,0.8095436096191406
1700944620723565600,12.298565673828126,-0.27977272868156433,5.083152770996094,0.8063936233520508
1700944620740558600,12.31555859375,-0.6517986059188843,5.450455665588379,1.016275405883789
1700944620757551600,12.332551513671875,-1.2402373552322388,5.734519958496094,1.2297167778015137
1700944620774544600,12.349544677734375,-1.9137729406356812,5.675353527069092,1.3883228302001953
1700944620791537700,12.36653759765625,-2.138676643371582,5.438810348510742,1.6017708778381348
1700944620808530700,12.38353076171875,-1.904054880142212,4.885638236999512,2.1709089279174805
1700944620825523700,12.400523681640625,-1.475193738937378,4.193719863891602,3.204333782196045
1700944620842517200,12.417517333984375,-1.5257073640823364,3.6360349655151367,3.7575740814208984
1700944620859509800,12.434509765625,-1.8358893394470215,3.2913365364074707,3.797586441040039
1700944620876502800,12.451502685546876,-2.1929516792297363,2.9960007667541504,4.05049467086792
1700944620893484800,12.46848486328125,-1.956778883934021,2.7050743103027344,4.704230308532715
1700944620910489000,12.485489013671875,-0.591392993927002,2.3616936206817627,6.098135471343994
1700944620927482000,12.502482177734375,1.2309638261795044,1.9996552467346191,7.633808135986328
1700944620944475100,12.51947509765625,2.7421982288360596,1.379115104675293,8.505056381225586
1700944620961468400,12.536468505859375,3.5405402183532715,0.5499272346496582,8.465004920959473
1700944620978457300,12.553457275390626,4.243268013000488,-0.12999439239501953,8.690787315368652
1700944620995458300,12.570458251953125,4.250513553619385,-0.24522781372070312,9.618744850158691
1700944621012447500,12.587447509765624,2.566027879714966,0.2702641487121582,10.221088409423828
1700944621029440500,12.6044404296875,0.7259098887443542,1.2060823440551758,9.547966957092285
1700944621046433500,12.62143359375,-0.4991479218006134,1.5181326866149902,8.037185668945312
1700944621063423700,12.638423828125,-0.6147540211677551,0.49898576736450195,6.597795486450195
1700944621080411600,12.65541162109375,0.44846805930137634,-1.1678886413574219,5.377886772155762
1700944621097412900,12.672412841796875,1.9741027355194092,-2.8708441257476807,4.486185073852539
1700944621114406000,12.689406005859375,2.9469096660614014,-4.077652931213379,3.850545883178711
1700944621131399000,12.70639892578125,3.3445565700531006,-4.532581329345703,2.7970285415649414
1700944621148392000,12.723391845703125,3.294741153717041,-4.550561428070068,1.353236198425293
1700944621165385200,12.74038525390625,2.849909543991089,-4.360512733459473,-0.5763835906982422
1700944621182378200,12.757378173828124,2.3032066822052,-4.32616662979126,-2.3201088905334473
1700944621199371000,12.77437109375,1.9818477630615234,-4.3839616775512695,-3.6706318855285645
1700944621216364300,12.7913642578125,1.8092917203903198,-4.4976959228515625,-4.528501510620117
1700944621233357300,12.808357421875,1.9964385032653809,-4.487680435180664,-5.0334391593933105
1700944621250344700,12.8253447265625,2.2166402339935303,-4.46201229095459,-5.326366424560547
1700944621267346000,12.842345947265626,2.7003066539764404,-4.4091339111328125,-5.455434799194336
1700944621284336400,12.85933642578125,2.90394926071167,-4.480068683624268,-5.459864616394043
1700944621301329400,12.876329345703125,3.0209712982177734,-4.342523574829102,-5.7366132736206055
1700944621318311200,12.893311279296874,2.936830520629883,-4.314557075500488,-5.801811218261719
1700944621335315700,12.910315673828125,3.096759796142578,-4.369129180908203,-5.389309883117676
1700944621352308500,12.92730859375,3.3281264305114746,-4.58274507522583,-4.62876558303833
1700944621369301800,12.9443017578125,3.62880277633667,-5.229109764099121,-3.763111114501953
1700944621386294500,12.96129443359375,3.502485513687134,-6.217776298522949,-3.131587505340576
1700944621403287600,12.97828759765625,3.5558128356933594,-6.589356899261475,-2.86879301071167
1700944621420280800,12.99528076171875,3.4176526069641113,-6.856281280517578,-2.343583583831787
1700944621437273900,13.01227392578125,3.4342260360717773,-7.342392921447754,-1.1207275390625
1700944621454264000,13.02926416015625,3.545478343963623,-7.491993427276611,0.3072090148925781
1700944621471255300,13.04625537109375,3.7702832221984863,-7.33897590637207,1.696946144104004
1700944621488252700,13.063252685546875,3.4524550437927246,-7.4986252784729,2.5058746337890625
1700944621505246200,13.08024609375,3.7751502990722656,-7.809474468231201,2.881622314453125
1700944621522239000,13.097239013671874,3.2046005725860596,-8.408805847167969,2.7740602493286133
1700944621539232300,13.114232177734374,1.6715830564498901,-8.060935020446777,2.297703742980957
1700944621556224000,13.13122412109375,0.31057310104370117,-6.8022541999816895,2.9737586975097656
1700944621573219600,13.148219482421876,0.19574737548828125,-4.740792274475098,3.4239444732666016
1700944621590222800,13.165222900390624,0.03863322734832764,-3.1368746757507324,3.3564395904541016
1700944621607201800,13.182201904296875,-0.7698405981063843,-2.3646240234375,2.364999771118164
1700944621624200200,13.1992001953125,-1.5972493886947632,-2.005160331726074,1.0379009246826172
1700944621641190700,13.216190673828125,-2.251725673675537,-2.0588793754577637,0.033050537109375
1700944621658183400,13.233183349609375,-2.4938478469848633,-2.0060348510742188,-0.6018552780151367
1700944621675176700,13.2501767578125,-2.3950843811035156,-1.4976143836975098,-0.8183813095092773
1700944621692169500,13.26716943359375,-2.25146746635437,-0.6620430946350098,-0.4125242233276367
1700944621709162200,13.284162353515624,-1.6248639822006226,0.6508405208587646,-0.3305501937866211
1700944621726159400,13.301159423828125,-1.3394696712493896,1.6596260070800781,-0.40007781982421875
1700944621743145500,13.3181455078125,-0.8798803687095642,2.501552104949951,-0.8073205947875977
1700944621760141800,13.335141845703125,-0.49107974767684937,3.0297794342041016,-1.2792019844055176
1700944621777135000,13.352135009765625,-0.11833155155181885,3.248438835144043,-1.3470053672790527
1700944621794125600,13.36912548828125,0.026377201080322266,3.4671924114227295,-1.1618003845214844
1700944621811123200,13.386123291015625,0.055024921894073486,3.686087131500244,-0.7719788551330566
1700944621828114200,13.4031142578125,0.12198865413665771,3.838785171508789,0.07512283325195312
1700944621845107000,13.42010693359375,0.3972591161727905,3.9788284301757812,0.9692983627319336
1700944621862094600,13.437094482421875,0.2332354485988617,4.227657318115234,1.1382970809936523
1700944621879093000,13.454093017578124,0.023146629333496094,4.298398017883301,1.2406082153320312
1700944621896086300,13.471086181640626,-0.12708830833435059,3.996062994003296,2.34981107711792
1700944621913079300,13.488079345703126,-0.5543957948684692,3.560070276260376,3.6233930587768555
1700944621930069800,13.50506982421875,-1.0516204833984375,3.3279759883880615,4.775642395019531
1700944621947068000,13.52206787109375,-1.3391386270523071,3.4136695861816406,5.314448356628418
1700944621964055600,13.5390556640625,-1.2420216798782349,3.6692168712615967,5.679378986358643
1700944621981054000,13.556053955078125,-0.5670408010482788,3.59013295173645,6.482481956481934
1700944621998044400,13.57304443359375,-0.08005988597869873,3.382484197616577,7.473602294921875
1700944622015037700,13.59003759765625,0.1341400444507599,2.677480697631836,9.049158096313477
1700944622032032300,13.6070322265625,0.2914982736110687,2.0423731803894043,10.833619117736816
1700944622049023700,13.624023681640624,0.8014823794364929,1.9581489562988281,12.164817810058594
1700944622066016800,13.641016845703126,1.2064300775527954,2.7442145347595215,12.961587905883789
1700944622083009800,13.658009765625,1.006250023841858,4.0654449462890625,12.077537536621094
1700944622100003000,13.675003173828125,0.23450109362602234,4.316429138183594,9.997160911560059
1700944622116995800,13.691995849609375,-0.44498470425605774,3.20174503326416,7.90231466293335
1700944622133989000,13.708989013671875,-0.275267094373703,1.4168987274169922,6.728393077850342
1700944622150979600,13.7259794921875,0.02936112880706787,-0.4263620376586914,6.145715713500977
1700944622167977200,13.742977294921875,0.4532826840877533,-1.483116626739502,5.482821464538574
1700944622184969000,13.759968994140625,0.8806013464927673,-2.093136787414551,4.545868873596191
1700944622201961200,13.776961181640624,0.9931309819221497,-2.3554654121398926,3.231989860534668
1700944622218954200,13.793954345703124,1.087817668914795,-2.4188859462738037,1.543473243713379
1700944622235947000,13.810947021484376,1.3241435289382935,-2.4570183753967285,-0.038818359375
1700944622252940800,13.82794091796875,1.4603993892669678,-2.600902557373047,-1.1342945098876953
1700944622269933300,13.844933349609375,1.6128836870193481,-2.9032859802246094,-1.9618592262268066
1700944622286926300,13.86192626953125,1.937728762626648,-3.1859803199768066,-2.6071529388427734
1700944622303919600,13.878919677734375,2.0222623348236084,-3.653855800628662,-3.3025498390197754
1700944622320913000,13.895912841796875,2.326678991317749,-4.170177459716797,-3.7891244888305664
1700944622337895200,13.912895263671874,2.6921041011810303,-4.7569169998168945,-4.237339019775391
1700944622354902000,13.929902099609375,3.146042823791504,-5.180647373199463,-4.492734909057617
1700944622371894500,13.94689453125,3.29923152923584,-5.816373348236084,-4.289126873016357
1700944622388884700,13.963884765625,3.3586621284484863,-6.511096000671387,-3.9374489784240723
1700944622405881300,13.98088134765625,3.4091074466705322,-7.4800896644592285,-3.3850936889648438
1700944622422867500,13.997867431640625,3.426912784576416,-8.333888053894043,-2.9935693740844727
1700944622439863800,14.01486376953125,3.701512098312378,-8.99812126159668,-2.850400924682617
1700944622456857000,14.031857177734375,4.100943565368652,-9.164542198181152,-2.896991729736328
1700944622473849900,14.048849853515625,4.27067756652832,-9.279457092285156,-2.2883358001708984
1700944622490843000,14.0658427734375,3.769256591796875,-9.457874298095703,-0.9060430526733398
1700944622507836000,14.0828359375,2.9647631645202637,-9.642417907714844,0.6856012344360352
1700944622524829000,14.099828857421874,1.8960649967193604,-9.70114803314209,1.0412139892578125
1700944622541822500,14.116822509765624,1.2757521867752075,-9.237367630004883,0.3278179168701172
1700944622558815200,14.133815185546876,1.0874137878417969,-8.226985931396484,-0.5733213424682617
1700944622575808300,14.150808349609376,1.1894311904907227,-6.6157121658325195,-0.9472475051879883
1700944622592801300,14.16780126953125,1.049635648727417,-5.490811824798584,-0.025757789611816406
1700944622609790200,14.184790283203125,0.9600518941879272,-4.7763848304748535,1.3625097274780273
1700944622626787000,14.201787109375,0.4594112038612366,-4.071612358093262,1.8028545379638672
1700944622643776500,14.218776611328124,-0.7064655423164368,-3.670138359069824,1.2601814270019531
1700944622660777700,14.23577783203125,-1.9336190223693848,-3.245499610900879,-0.19546890258789062
1700944622677766700,14.2527666015625,-2.455961227416992,-2.7121787071228027,-1.5065202713012695
1700944622694759700,14.269759765625,-2.1630001068115234,-2.0644490718841553,-1.9387102127075195
1700944622711752700,14.286752685546874,-1.26963210105896,-1.4831359386444092,-0.9810943603515625
1700944622728746000,14.30374609375,-0.2802892327308655,-0.3386836051940918,-0.2559366226196289
1700944622745738800,14.32073876953125,0.1721482276916504,0.6345105171203613,-0.15517330169677734
1700944622762731800,14.337731689453125,0.290517121553421,1.517000675201416,-0.5722198486328125
1700944622779725000,14.35472509765625,0.1261705756187439,2.0639848709106445,-0.8716902732849121
1700944622796718000,14.371718017578125,0.27185115218162537,2.588879108428955,-0.7670865058898926
1700944622813711000,14.388711181640625,0.37745434045791626,3.0226147174835205,-0.09321784973144531
1700944622830701600,14.40570166015625,0.5996912121772766,3.674787759780884,0.9293112754821777
1700944622847697700,14.42269775390625,0.43373653292655945,4.148525238037109,2.0098915100097656
1700944622864692200,14.439692138671875,0.05217653512954712,4.665665626525879,2.5244107246398926
1700944622881673000,14.4566728515625,-0.590025007724762,4.871239185333252,3.168149948120117
1700944622898676200,14.47367626953125,-1.2138409614562988,4.820208549499512,4.099020957946777
1700944622915669500,14.49066943359375,-1.6375575065612793,4.241924285888672,5.564910888671875
1700944622932662300,14.507662353515625,-2.1680612564086914,3.797785997390747,7.0181660652160645
1700944622949656600,14.524656494140626,-2.539091110229492,3.5778708457946777,8.063484191894531
1700944622966647800,14.541647705078125,-2.3341920375823975,3.6791789531707764,8.671743392944336
1700944622983630800,14.558630859375,-1.6415135860443115,4.112289905548096,8.910096168518066
1700944623000634400,14.57563427734375,-0.7226318717002869,4.132248878479004,9.415315628051758
1700944623017627400,14.59262744140625,0.2323533594608307,3.926039934158325,9.907380104064941
1700944623034621000,14.609620849609374,1.1214607954025269,3.109614849090576,10.521282196044922
1700944623051614000,14.626614013671874,2.041588068008423,1.9898285865783691,11.738100051879883
1700944623068607000,14.64360693359375,2.769540309906006,1.9599957466125488,12.301742553710938
1700944623085601500,14.6606015625,2.7222824096679688,2.9336276054382324,11.510583877563477
1700944623102591500,14.677591552734375,1.821315884590149,3.798370361328125,9.891845703125
1700944623119585800,14.694585693359375,0.5269243717193604,3.5461313724517822,7.8849968910217285
1700944623136578800,14.711578857421875,-0.4747239947319031,2.2993626594543457,6.37235689163208
1700944623153571800,14.72857177734375,-0.5289111137390137,0.5986027717590332,5.871568202972412
1700944623170565000,14.745565185546875,-0.18730738759040833,-0.8125600814819336,5.513516902923584
1700944623187558400,14.762558349609375,0.5400292873382568,-1.5589828491210938,4.894373893737793
1700944623204551400,14.779551513671874,1.0380361080169678,-1.784097671508789,3.8363561630249023
1700944623221542400,14.79654248046875,1.3754605054855347,-1.80427885055542,2.5641050338745117
1700944623238539000,14.8135390625,1.497827410697937,-1.8599963188171387,0.9653682708740234
1700944623255530200,14.8305302734375,1.4876046180725098,-2.2090015411376953,-0.5473480224609375
1700944623272523300,14.847523193359375,1.9167733192443848,-2.2894351482391357,-2.145993709564209
1700944623289516500,14.8645166015625,1.8769500255584717,-1.6403770446777344,-3.6153125762939453
1700944623306509600,14.881509521484375,1.717333436012268,-1.676849126815796,-3.6197667121887207
1700944623323502000,14.898502197265625,2.3005475997924805,-2.3964388370513916,-2.5744872093200684
1700944623340496000,14.915495849609375,3.6240296363830566,-3.0813212394714355,-2.0392980575561523
1700944623357489000,14.932489013671875,4.461513996124268,-3.900902032852173,-2.610671043395996
1700944623374482000,14.94948193359375,4.6153059005737305,-4.450098514556885,-4.101009845733643
1700944623391474700,14.966474609375,4.582686424255371,-4.851227760314941,-4.9423346519470215
1700944623408467700,14.9834677734375,3.5660762786865234,-6.163361549377441,-4.203828811645508
1700944623425461000,15.0004609375,2.1105775833129883,-6.730918884277344,-3.5728936195373535
1700944623442454000,15.0174541015625,1.1124510765075684,-7.096372127532959,-3.0844926834106445
1700944623459447000,15.034447021484375,0.7804806232452393,-7.548247814178467,-2.800154685974121
1700944623476440000,15.051440185546875,1.2052699327468872,-8.23661994934082,-2.2448887825012207
1700944623493432800,15.068432861328125,1.812739372253418,-8.5127534866333,-1.8580999374389648
1700944623510426000,15.085426025390625,2.0620455741882324,-8.530804634094238,-1.5901470184326172
1700944623527419100,15.102419189453125,1.1930475234985352,-8.644855499267578,-0.8205165863037109
1700944623544409600,15.11940966796875,-0.30306297540664673,-9.270180702209473,0.34955883026123047
1700944623561408000,15.136407958984375,-1.4073612689971924,-9.69405746459961,0.4659900665283203
1700944623578398500,15.1533984375,-1.1929106712341309,-9.032195091247559,-0.5596475601196289
1700944623595391500,15.1703916015625,-0.15647441148757935,-7.364382743835449,-1.7062559127807617
1700944623612384500,15.187384521484375,0.9924681186676025,-5.558490753173828,-1.4167137145996094
1700944623629377500,15.20437744140625,1.6790075302124023,-4.135406494140625,-0.23639774322509766
1700944623646370800,15.221370849609375,1.0500147342681885,-3.672518253326416,1.2355985641479492
1700944623663363600,15.238363525390625,-0.4247477054595947,-3.1279664039611816,1.214076042175293
1700944623680356900,15.25535693359375,-2.004643440246582,-2.7227206230163574,0.07302570343017578
1700944623697349600,15.272349609375,-2.872645616531372,-2.552246570587158,-1.0097084045410156
1700944623714343000,15.289343017578124,-2.584441661834717,-2.351393222808838,-1.4861164093017578
1700944623731335700,15.306335693359374,-1.4652369022369385,-2.006885528564453,-1.0237197875976562
1700944623748329000,15.323328857421876,-0.3248838782310486,-1.5314369201660156,0.11159229278564453
1700944623765322200,15.340322265625,0.9041215181350708,-0.6808872222900391,1.4949941635131836
1700944623782315000,15.35731494140625,1.8432908058166504,0.6504511833190918,1.9616565704345703
1700944623799308300,15.374308349609375,2.2385690212249756,1.861311912536621,1.8129653930664062
1700944623816301000,15.391301025390625,2.160419225692749,2.9971184730529785,1.2171216011047363
1700944623833294000,15.408294189453125,1.995259165763855,3.8962113857269287,1.1106557846069336
1700944623850287400,15.425287353515625,1.6629256010055542,4.618473529815674,1.5342540740966797
1700944623867280400,15.4422802734375,1.3300981521606445,5.137956142425537,2.06644344329834
1700944623884273400,15.4592734375,0.9816153645515442,5.369060039520264,2.7458853721618652
1700944623901266400,15.476266357421874,0.7042985558509827,5.45621919631958,2.9811949729919434
1700944623918259500,15.493259521484376,0.3463417887687683,5.223358154296875,3.0912771224975586
1700944623935252200,15.510252197265626,0.3775879144668579,4.916253089904785,3.3055009841918945
1700944623952245500,15.52724560546875,0.6718218326568604,4.615458965301514,3.9022083282470703
1700944623969238800,15.54423876953125,0.9250574707984924,4.399327278137207,5.420287132263184
1700944623986231600,15.5612314453125,1.082439661026001,4.769430160522461,6.225765228271484
1700944624003224800,15.578224853515625,0.3708820939064026,4.75498628616333,5.902156352996826
1700944624020216800,15.595216796875,-0.5024040937423706,4.394122123718262,5.53066349029541
1700944624037211600,15.612211669921875,-0.7860123515129089,3.521373748779297,5.722106456756592
1700944624054203600,15.62920361328125,-0.23579376935958862,2.7152466773986816,5.939979076385498
1700944624071187500,15.6461875,0.33369725942611694,1.9098381996154785,6.557568550109863
1700944624088190000,15.66318994140625,0.3804682195186615,1.5189752578735352,6.926504611968994
1700944624105183000,15.680182861328126,-0.04685407876968384,1.5717172622680664,6.6035919189453125
1700944624122176000,15.697176025390625,-0.7074011564254761,1.7722225189208984,5.88800573348999
1700944624139166500,15.71416650390625,-1.0714764595031738,1.4077730178833008,5.999768257141113
1700944624156154000,15.731154052734375,-1.0843451023101807,0.7179241180419922,6.512786388397217
1700944624173155000,15.748155029296875,-0.7629562020301819,0.3389463424682617,6.76840877532959
1700944624190148000,15.765148193359375,-0.47525352239608765,0.5984740257263184,6.489748477935791
1700944624207138800,15.782138916015626,-0.5441103577613831,1.0159482955932617,6.080356121063232
1700944624224139500,15.799139404296875,-0.9093016386032104,1.3990602493286133,5.775838375091553
1700944624241124900,15.816124755859375,-1.3915090560913086,1.7160921096801758,5.446403503417969
1700944624258120400,15.833120361328126,-1.4753607511520386,1.5493426322937012,5.113165855407715
1700944624275113700,15.85011376953125,-0.6900098919868469,1.082883358001709,4.3564982414245605
1700944624292106800,15.867106689453125,1.0816792249679565,0.1045989990234375,3.8665289878845215
1700944624309099500,15.884099609375,2.914318799972534,-0.9573426246643066,3.224994659423828
1700944624326092500,15.901092529296875,4.408851623535156,-1.5174970626831055,2.3483076095581055
1700944624343085800,15.9180859375,5.4852705001831055,-1.6036977767944336,1.3702917098999023
1700944624360078600,15.93507861328125,6.321709632873535,-1.4743437767028809,0.40958213806152344
1700944624377063700,15.952063720703125,6.3767828941345215,-1.5158600807189941,-0.13092327117919922
1700944624394064600,15.969064697265624,5.991381645202637,-1.618485927581787,-0.6868429183959961
1700944624411058000,15.986057861328124,5.402480125427246,-1.396416187286377,-1.5128726959228516
1700944624428038700,16.00303857421875,4.913101673126221,-0.9721574783325195,-2.2720088958740234
1700944624445039900,16.020039794921875,4.5197954177856445,-0.6365694999694824,-2.6798453330993652
1700944624462026200,16.037026123046875,4.383101463317871,-0.3173205852508545,-2.582639694213867
1700944624479030300,16.0540302734375,4.671489238739014,0.006046772003173828,-2.5050711631774902
1700944624496023300,16.071023193359373,4.572737216949463,0.27322840690612793,-2.8479366302490234
1700944624513016300,16.088016357421875,4.260885715484619,0.36219286918640137,-3.4807205200195312
1700944624530009000,16.105009033203125,4.33357048034668,0.3833587169647217,-4.01334810256958
1700944624547002600,16.122002685546875,5.0311970710754395,0.5372781753540039,-3.8672995567321777
1700944624563995400,16.138995361328124,5.517668724060059,0.4414316415786743,-3.044813632965088
1700944624580988400,16.155988525390626,5.687033653259277,0.3779785633087158,-2.325320243835449
1700944624597981700,16.172981689453124,5.370062351226807,0.2508542537689209,-2.36065673828125
1700944624614974500,16.189974365234374,5.005937099456787,0.015564799308776855,-2.9253554344177246
1700944624631967700,16.2069677734375,5.018008232116699,-0.1251436471939087,-3.5604472160339355
1700944624648950300,16.2239501953125,5.345385551452637,-0.23308444023132324,-3.493140697479248
1700944624665953800,16.240953857421875,5.721773147583008,-0.244695782661438,-2.716254234313965
1700944624682946800,16.25794677734375,5.676982402801514,-0.356622576713562,-1.7810425758361816
1700944624699936500,16.2749365234375,5.25300931930542,-0.5120251178741455,-1.3391170501708984
1700944624716927500,16.291927490234375,4.28352165222168,-0.9366544485092163,-1.0616016387939453
1700944624733928700,16.3089287109375,3.37270188331604,-1.1126739978790283,-0.9501829147338867
1700944624750919000,16.3259189453125,2.4432592391967773,-1.4284828901290894,-0.5297746658325195
1700944624767912200,16.342912109375,1.803865909576416,-1.8535224199295044,0.3877296447753906
1700944624784903200,16.359903076171875,1.0038666725158691,-2.3709962368011475,1.4081573486328125
1700944624801900300,16.376900390625,0.038114190101623535,-3.036154270172119,1.7121858596801758
1700944624818891500,16.3938916015625,-1.0867263078689575,-3.5441882610321045,1.0262889862060547
1700944624835884300,16.41088427734375,-2.045905351638794,-3.2415502071380615,-0.5270366668701172
1700944624852876500,16.42787646484375,-2.311769962310791,-2.553100109100342,-1.5112037658691406
1700944624869870800,16.444870849609377,-2.1268672943115234,-2.0710365772247314,-1.1921300888061523
1700944624886863600,16.461863525390626,-1.7986962795257568,-2.1013951301574707,0.09082889556884766
1700944624903856600,16.478856689453124,-1.8444714546203613,-2.310026168823242,0.8774089813232422
1700944624920849700,16.495849609375,-2.182634115219116,-2.536404609680176,0.3839378356933594
1700944624937842700,16.5128427734375,-2.4433846473693848,-2.7407515048980713,-0.6109371185302734
1700944624954835500,16.52983544921875,-2.442087173461914,-2.575667142868042,-1.5521574020385742
1700944624971828500,16.546828369140623,-2.1217925548553467,-1.9824349880218506,-2.0542783737182617
1700944624988821800,16.56382177734375,-1.584984302520752,-1.1118488311767578,-1.8898277282714844
1700944625005812200,16.580812255859374,-1.0242202281951904,-0.3927912712097168,-1.1194887161254883
1700944625022810600,16.597810546875,-0.8596222400665283,0.16048502922058105,-0.5066862106323242
1700944625039800800,16.61480078125,-0.8339163661003113,0.6087102890014648,-0.2942323684692383
1700944625056793600,16.631793701171876,-1.0266542434692383,0.9811065196990967,-0.525115966796875
1700944625073787100,16.648787109375,-1.4288702011108398,1.2044415473937988,-0.8456377983093262
1700944625090780000,16.66577978515625,-1.521979808807373,1.3867745399475098,-0.8712081909179688
1700944625107773000,16.68277294921875,-1.406590223312378,1.4252164363861084,-0.23962116241455078
1700944625124766200,16.69976611328125,-1.219515085220337,1.5824768543243408,0.42873668670654297
1700944625141759200,16.71675927734375,-1.3484598398208618,1.7911913394927979,0.9960556030273438
1700944625158752500,16.73375244140625,-1.508866786956787,2.187511920928955,1.5104084014892578
1700944625175743000,16.750742919921876,-1.843317985534668,2.7080957889556885,1.7626051902770996
1700944625192741000,16.7677412109375,-1.963869333267212,3.258186101913452,1.8011932373046875
1700944625209724200,16.78472412109375,-1.5202829837799072,3.6900887489318848,1.9413390159606934
1700944625226724400,16.801724365234374,-0.7283980846405029,3.9430761337280273,2.373635768890381
1700944625243717400,16.81871728515625,0.4198452830314636,4.252008438110352,3.158963203430176
1700944625260710700,16.835710693359374,1.3574563264846802,4.7596635818481445,3.7923402786254883
1700944625277704000,16.852703857421876,1.5234137773513794,5.101492404937744,4.309124946594238
1700944625294696700,16.86969677734375,1.0907433032989502,5.280697345733643,4.898902893066406
1700944625311685000,16.88668505859375,0.641847550868988,5.404140949249268,5.512705326080322
1700944625328687400,16.903687255859374,0.5612474679946899,5.321277618408203,5.9654316902160645
1700944625345676000,16.920676025390627,1.4234846830368042,4.70366096496582,6.491099834442139
1700944625362668800,16.937668701171877,2.871889591217041,3.762148380279541,6.9027886390686035
1700944625379661800,16.954661865234375,4.206615924835205,2.6213736534118652,7.419703006744385
1700944625396654800,16.97165478515625,5.133922100067139,1.5526738166809082,7.932051181793213
1700944625413645600,16.9886455078125,5.043204307556152,0.8891000747680664,8.298516273498535
1700944625430643500,17.0056435546875,5.389775276184082,0.9038434028625488,8.316873550415039
1700944625447634200,17.02263427734375,5.875624656677246,1.110337734222412,7.8321123123168945
1700944625464627200,17.039627197265624,5.856204986572266,0.6306157112121582,7.028287410736084
1700944625481620200,17.0566201171875,5.977049350738525,-0.31655120849609375,6.008814811706543
1700944625498613200,17.07361328125,6.231767654418945,-1.1517539024353027,5.338916778564453
1700944625515606500,17.0906064453125,5.782766819000244,-1.5709686279296875,5.3354926109313965
1700944625532599600,17.107599609375,4.761192321777344,-1.304166316986084,5.422781944274902
1700944625549592300,17.12459228515625,3.5339901447296143,-0.4667181968688965,4.995861053466797
1700944625566581500,17.14158154296875,2.5140886306762695,0.0014462471008300781,4.265946388244629
1700944625583571700,17.15857177734375,2.4469285011291504,0.054183006286621094,3.1781463623046875
1700944625600562200,17.175562255859376,3.347965717315674,-0.3781099319458008,2.119839668273926
1700944625617564400,17.192564453125,4.550136566162109,-1.0436594486236572,1.1976337432861328
1700944625634557400,17.209557373046874,5.545086860656738,-1.6895520687103271,0.3751955032348633
1700944625651551000,17.226551025390624,5.9372687339782715,-2.2601611614227295,-0.9942388534545898
1700944625668543700,17.243543701171873,5.755609035491943,-2.8618552684783936,-2.1166696548461914
1700944625685528600,17.260528564453125,5.402505397796631,-3.0638175010681152,-2.897195339202881
1700944625702538800,17.277538818359375,6.30724573135376,-2.7685956954956055,-2.233163833618164
1700944625719523000,17.294523193359375,7.047951698303223,-2.498154640197754,-0.7309961318969727
1700944625736512300,17.31151220703125,6.851199150085449,-2.485252857208252,0.7901163101196289
1700944625753512400,17.328512451171875,6.3337178230285645,-2.5356295108795166,1.8596086502075195
1700944625770502400,17.34550244140625,6.022828102111816,-2.3777592182159424,2.7147960662841797
1700944625787495200,17.3624951171875,5.933541297912598,-2.308619976043701,4.689785003662109
1700944625804488200,17.37948828125,5.098489761352539,-3.006944179534912,6.811073303222656
1700944625821481500,17.3964814453125,3.8684115409851074,-3.8172614574432373,6.874194145202637
1700944625838474500,17.413474609375,3.2681832313537598,-4.590997219085693,5.137188911437988
1700944625855469300,17.43046923828125,3.356472969055176,-5.436734199523926,2.608401298522949
1700944625872464400,17.44746435546875,3.628948450088501,-6.4379963874816895,0.1962757110595703
1700944625889453600,17.46445361328125,3.816284418106079,-6.949875831604004,-2.053217887878418
1700944625906435800,17.481435791015624,3.6107757091522217,-7.683384895324707,-3.354633331298828
1700944625923439600,17.498439697265624,2.861870050430298,-8.651262283325195,-4.166916370391846
1700944625940432600,17.5154326171875,1.5191724300384521,-9.36591911315918,-5.1349005699157715
1700944625957423000,17.532423095703123,0.8036836385726929,-9.386465072631836,-6.348495006561279
1700944625974421200,17.549421142578126,0.5137747526168823,-9.238295555114746,-6.732149124145508
1700944625991411500,17.566411376953123,0.4010435938835144,-9.310928344726562,-5.849228858947754
1700944626008402200,17.583402099609376,0.008616328239440918,-9.463456153869629,-4.365174770355225
1700944626025391000,17.60039111328125,-0.6456079483032227,-9.383567810058594,-3.9999780654907227
1700944626042391000,17.61739111328125,-0.5411190986633301,-8.924952507019043,-3.7364416122436523
1700944626059381800,17.6343818359375,0.20228463411331177,-8.438413619995117,-2.447575092315674
1700944626076377000,17.651377197265624,1.315259337425232,-7.699217796325684,-0.45694828033447266
1700944626093370000,17.6683701171875,1.2863500118255615,-6.865921974182129,1.4511022567749023
1700944626110364700,17.68536474609375,0.46692997217178345,-5.669639587402344,2.348780632019043
1700944626127350000,17.70235009765625,-0.42092180252075195,-4.413559913635254,2.5075759887695312
1700944626144353500,17.719353515625,-0.7249417304992676,-3.263582944869995,2.4074630737304688
1700944626161342200,17.73634228515625,-0.07822525501251221,-2.179877996444702,2.5625667572021484
1700944626178335200,17.753335205078123,1.0743883848190308,-0.9388422966003418,2.583998680114746
1700944626195328500,17.77032861328125,1.8238656520843506,0.26029157638549805,2.6915740966796875
1700944626212321300,17.7873212890625,2.0791850090026855,1.3107013702392578,3.1248693466186523
1700944626229314600,17.804314453125,2.0310704708099365,2.3436031341552734,3.6820907592773438
1700944626246307300,17.821307373046874,1.5103023052215576,3.484623908996582,4.260607719421387
1700944626263300600,17.838300537109376,0.4563438296318054,4.512195587158203,4.795133113861084
1700944626280293400,17.85529345703125,-0.3110278844833374,5.362987995147705,5.561290264129639
1700944626297286700,17.87228662109375,-0.4190948009490967,5.911930084228516,6.228919506072998
1700944626314279700,17.88927978515625,-0.23726224899291992,6.192348480224609,6.512431621551514
1700944626331273000,17.90627294921875,-0.15790963172912598,6.237009048461914,6.63071870803833
1700944626348266000,17.923265869140625,-0.36326122283935547,6.245561599731445,6.949591636657715
1700944626365258800,17.9402587890625,-0.6911680102348328,5.860918045043945,7.581450462341309
1700944626382242800,17.957242919921875,-0.26433050632476807,5.542556285858154,8.2076416015625
1700944626399242500,17.974242431640626,0.5868367552757263,5.381279945373535,8.589693069458008
1700944626416230000,17.99122998046875,1.0440587997436523,5.181909561157227,9.245404243469238
1700944626433230800,18.00823095703125,1.407544493675232,4.487337112426758,9.712287902832031
1700944626450219800,18.0252197265625,1.9107238054275513,3.398448944091797,9.88102912902832
1700944626467217200,18.042217041015626,2.80281138420105,2.144697666168213,10.466005325317383
1700944626484210400,18.05921044921875,3.1366190910339355,1.1599302291870117,11.039884567260742
1700944626501203500,18.076203369140625,3.1026265621185303,1.0018258094787598,10.731618881225586
1700944626518196200,18.0931962890625,2.525595188140869,1.2214365005493164,9.442331314086914
1700944626535187700,18.110187744140624,1.6989548206329346,1.0530691146850586,8.008934020996094
1700944626552179000,18.127178955078126,1.0844085216522217,-0.09338760375976562,7.518731117248535
1700944626569179100,18.14417919921875,0.5794847011566162,-1.8250231742858887,7.642745018005371
1700944626586169900,18.161169921875,0.21576522290706635,-3.4205827713012695,6.904534339904785
1700944626603160300,18.178160400390624,0.18778526782989502,-4.506577014923096,5.338303565979004
1700944626620154600,18.195154541015626,0.40102601051330566,-5.334433078765869,3.6534061431884766
1700944626637132000,18.212132080078124,0.8154505491256714,-5.947029113769531,1.9499387741088867
1700944626654140700,18.229140625,1.3300285339355469,-6.282639026641846,0.6097898483276367
1700944626671134000,18.246134033203123,1.7508037090301514,-6.29701566696167,-0.3885660171508789
1700944626688127000,18.263126953125,2.1462676525115967,-5.854074478149414,-0.9705877304077148
1700944626705120000,18.2801201171875,2.1641314029693604,-5.750636100769043,-1.068608283996582
1700944626722112800,18.29711279296875,2.3401598930358887,-5.509215831756592,-1.820420265197754
1700944626739106000,18.31410595703125,2.460271120071411,-5.668671131134033,-2.7845120429992676
1700944626756099300,18.331099365234376,2.7342653274536133,-5.757139682769775,-3.938068389892578
1700944626773093400,18.34809326171875,2.9952800273895264,-5.806633472442627,-4.772368907928467
1700944626790083800,18.365083740234375,3.0826520919799805,-5.757043838500977,-5.188055515289307
1700944626807060000,18.38206005859375,2.9124691486358643,-5.7657084465026855,-5.131759166717529
1700944626824073000,18.399072998046876,2.9180283546447754,-5.664582252502441,-4.984058856964111
1700944626841063700,18.416063720703125,2.556450366973877,-5.672569751739502,-5.252246379852295
1700944626858058000,18.43305810546875,2.056756019592285,-5.721619606018066,-5.67815637588501
1700944626875050500,18.450050537109377,1.789392113685608,-5.745797634124756,-5.988226890563965
1700944626892043500,18.46704345703125,1.6300978660583496,-6.086075782775879,-5.7507734298706055
1700944626909036500,18.48403662109375,2.039443254470825,-6.6456427574157715,-5.078216075897217
1700944626926029300,18.501029296875,2.842684030532837,-7.121433734893799,-4.339046955108643
1700944626943022800,18.51802294921875,3.511481285095215,-7.669956207275391,-3.1997008323669434
1700944626960013600,18.535013671875,4.109915256500244,-7.992133140563965,-2.1053524017333984
1700944626977010700,18.5520107421875,4.207188606262207,-8.090021133422852,-1.2676382064819336
1700944626994002000,18.569001953125,3.8834331035614014,-7.969662666320801,-0.09441184997558594
1700944627010995000,18.585994873046875,3.17879581451416,-8.269535064697266,1.874608039855957
1700944627027988000,18.602988037109377,2.446786403656006,-8.815486907958984,3.51619815826416
1700944627044981000,18.61998095703125,2.0317139625549316,-8.811464309692383,4.0478057861328125
1700944627061974000,18.63697412109375,2.275254487991333,-8.294697761535645,3.5184860229492188
1700944627078967300,18.65396728515625,3.239851236343384,-6.978517055511475,2.85556697845459
1700944627095959800,18.670959716796876,4.092597961425781,-5.218873977661133,2.667973518371582
1700944627112953000,18.687953125,3.575321674346924,-3.836747646331787,3.4469261169433594
1700944627129946400,18.7049462890625,1.737236738204956,-2.7462968826293945,4.592865943908691
1700944627146941400,18.72194140625,-0.3525909185409546,-1.7065975666046143,4.446663856506348
1700944627163929900,18.738929931640627,-1.2898547649383545,-1.2788264751434326,3.0352296829223633
1700944627180925200,18.75592529296875,-0.6846405267715454,-1.3121371269226074,1.7825069427490234
1700944627197918500,18.77291845703125,0.5610090494155884,-1.2779457569122314,1.004465103149414
1700944627214909200,18.7899091796875,1.7020429372787476,-0.8827269077301025,1.1367130279541016
1700944627231907300,18.8069072265625,1.5224404335021973,0.2660558223724365,1.0432548522949219
1700944627248897500,18.8238974609375,0.9119020700454712,1.2423110008239746,0.4330463409423828
1700944627265890600,18.840890625,0.919438898563385,2.0624029636383057,-0.18622207641601562
1700944627282870000,18.8578701171875,1.2121272087097168,2.5250518321990967,-0.4056663513183594
1700944627299876600,18.874876708984374,1.5235390663146973,2.9882473945617676,-0.5484108924865723
1700944627316870000,18.891869873046875,1.662493109703064,3.4059243202209473,-0.37157297134399414
1700944627333862700,18.908862548828125,1.6221699714660645,3.877413272857666,0.041716575622558594
1700944627350855700,18.925855712890623,0.8608970642089844,4.2859110832214355,0.7769603729248047
1700944627367849000,18.942848876953125,-0.42168793082237244,4.459355354309082,1.373079776763916
1700944627384840400,18.95984033203125,-1.0256335735321045,4.671236515045166,1.4829001426696777
1700944627401836800,18.9768369140625,-0.8958139419555664,4.657543182373047,1.744591236114502
1700944627418828000,18.993828125,-0.3927747905254364,4.380744934082031,2.7200140953063965
1700944627435818200,19.010818359375,0.27530744671821594,4.363096237182617,4.074769496917725
1700944627452817000,19.02781689453125,-0.3990485370159149,4.478754997253418,5.272096633911133
1700944627469807000,19.04480712890625,-1.4491052627563477,4.640323638916016,6.069828510284424
1700944627486800100,19.061800048828125,-1.688337802886963,5.111797332763672,6.662189960479736
1700944627503800600,19.078800537109377,-0.829592227935791,5.541759967803955,7.40872859954834
1700944627520786400,19.095786376953125,0.321242094039917,5.7331109046936035,8.491666793823242
1700944627537779700,19.11277978515625,1.1943199634552002,5.363519668579102,9.546749114990234
1700944627554772500,19.1297724609375,1.9418166875839233,4.060683250427246,11.098307609558105
1700944627571765200,19.14676513671875,2.395470142364502,2.7348241806030273,12.339776992797852
1700944627588758800,19.1637587890625,1.7804664373397827,2.089045524597168,13.581098556518555
1700944627605749000,19.1807490234375,0.4700034558773041,2.101320743560791,13.926212310791016
1700944627622743000,19.197742919921875,-0.770417332649231,2.8481478691101074,12.288385391235352
1700944627639740400,19.214740478515626,-1.502198338508606,3.2317771911621094,9.821749687194824
1700944627656731000,19.23173095703125,-1.264216661453247,2.4999492168426514,7.6545610427856445
1700944627673723600,19.2487236328125,-0.48223763704299927,1.0574564933776855,5.852480888366699
1700944627690717200,19.26571728515625,0.5832548141479492,-0.48477792739868164,4.306815147399902
1700944627707710200,19.282710205078125,1.2804193496704102,-1.9766077995300293,3.537862777709961
1700944627724702700,19.29970263671875,1.4794409275054932,-2.8553948402404785,2.978268623352051
1700944627741696300,19.3166962890625,1.3180302381515503,-3.1797990798950195,1.7866954803466797
1700944627758689000,19.33368896484375,1.255777359008789,-2.9414799213409424,0.1048593521118164
1700944627775679700,19.3506796875,1.303678274154663,-2.6186940670013428,-1.4338674545288086
1700944627792677400,19.367677490234374,1.3015373945236206,-2.533785343170166,-2.5933499336242676
1700944627809663500,19.38466357421875,1.4144198894500732,-2.472416400909424,-3.531344413757324
1700944627826665700,19.401665771484375,1.6155630350112915,-2.604755401611328,-3.861691951751709
1700944627843654100,19.418654052734375,1.79627525806427,-2.7665061950683594,-3.729829788208008
1700944627860647400,19.4356474609375,2.0840964317321777,-2.843348979949951,-3.4252076148986816
1700944627877638000,19.452637939453126,2.2313926219940186,-3.036583185195923,-2.932170867919922
1700944627894636300,19.46963623046875,2.053823471069336,-3.3379971981048584,-2.6758947372436523
1700944627911626500,19.48662646484375,2.123223304748535,-3.4187304973602295,-2.5415468215942383
1700944627928619500,19.50361962890625,2.341076374053955,-3.367936372756958,-2.5760107040405273
1700944627945610200,19.5206103515625,2.5298519134521484,-3.5074453353881836,-2.5032668113708496
1700944627962608000,19.537608154296876,2.855414628982544,-4.081518173217773,-2.0321340560913086
1700944627979598800,19.554598876953126,3.021458864212036,-4.956343173980713,-1.2657012939453125
1700944627996591900,19.571591796875,3.270167350769043,-5.514792442321777,-0.68853759765625
1700944628013585000,19.5885849609375,3.9703755378723145,-5.6436357498168945,-0.4024991989135742
1700944628030578200,19.605578125,4.303722381591797,-5.923929691314697,-0.17672443389892578
1700944628047570700,19.62257080078125,4.372776031494141,-6.319969177246094,0.15683555603027344
1700944628064564000,19.63956396484375,4.1314802169799805,-6.865671634674072,0.8256082534790039
1700944628081557000,19.656556884765624,3.4702913761138916,-7.486827850341797,1.8487529754638672
1700944628098550000,19.673550048828126,2.696039915084839,-7.747108459472656,1.8760433197021484
1700944628115543000,19.69054296875,2.040524959564209,-8.043060302734375,0.6024484634399414
1700944628132536300,19.707536376953126,1.9139119386672974,-8.00609302520752,-1.0872201919555664
1700944628149529600,19.724529541015624,1.7497456073760986,-7.548506259918213,-2.260439395904541
1700944628166519600,19.74151953125,1.9883829355239868,-6.368366241455078,-2.768702983856201
1700944628183518200,19.758518310546876,1.6036314964294434,-5.2736639976501465,-2.370504856109619
1700944628200508400,19.77550830078125,0.4868788719177246,-4.4820556640625,-2.429655075073242
1700944628217501700,19.792501708984375,-0.13229167461395264,-3.9800281524658203,-2.746913433074951
1700944628234495000,19.809494873046877,-0.0677875280380249,-3.9031805992126465,-2.077421188354492
1700944628251487200,19.8264873046875,0.6253793239593506,-3.738166093826294,-1.4447336196899414
1700944628268480800,19.843480712890624,1.5124599933624268,-3.504457950592041,-0.579686164855957
1700944628285473500,19.8604736328125,2.304640054702759,-3.022810220718384,0.1566944122314453
1700944628302466800,19.877466796875,2.321345090866089,-2.2947001457214355,0.3995351791381836
1700944628319459800,19.8944599609375,1.6541392803192139,-1.5495924949645996,0.5461978912353516
1700944628336442400,19.9114423828125,1.1276447772979736,-0.690399169921875,0.7207040786743164
1700944628353446000,19.92844580078125,0.872109055519104,0.39635562896728516,1.1815690994262695
1700944628370439200,19.945439208984375,0.4581604301929474,1.318939447402954,1.8406734466552734
1700944628387432200,19.96243212890625,0.09176892042160034,2.2993266582489014,2.494741439819336
1700944628404425200,19.97942529296875,-0.36088764667510986,3.201215982437134,3.0094523429870605
1700944628421418000,19.99641796875,-1.1379519701004028,3.9258031845092773,3.781423568725586
1700944628438411300,20.013411376953126,-1.922943115234375,4.589953422546387,4.488816738128662
1700944628455404300,20.030404296875,-2.3956241607666016,5.230896949768066,4.873511791229248
1700944628472397000,20.04739697265625,-2.9127118587493896,5.530926704406738,5.180567264556885
1700944628489379800,20.0643798828125,-3.0829076766967773,5.532249927520752,5.6668314933776855
1700944628506383600,20.081383544921874,-3.085193157196045,5.567780494689941,6.1258320808410645
1700944628523376000,20.098376220703123,-3.284569501876831,5.510683059692383,6.558039665222168
1700944628540369400,20.115369384765625,-3.5743746757507324,5.4997358322143555,6.902279376983643
1700944628557360400,20.1323603515625,-3.900017738342285,5.349467754364014,7.60006856918335
1700944628574357800,20.149357666015625,-3.9089934825897217,4.912156105041504,8.333911895751953
1700944628591348500,20.166348388671874,-3.005138874053955,4.310521125793457,9.007957458496094
1700944628608341500,20.183341552734376,-1.7037951946258545,3.421724796295166,9.666435241699219
1700944628625333800,20.200333740234374,-0.2774055600166321,2.265727996826172,10.64206314086914
1700944628642327800,20.217327880859376,0.5526363849639893,1.5878219604492188,11.380125045776367
1700944628659316700,20.234316650390625,0.8594903945922852,1.950775146484375,11.323685646057129
1700944628676318200,20.251318115234376,0.8591851592063904,2.8955750465393066,10.452251434326172
1700944628693304300,20.26830419921875,0.8232855796813965,3.5330138206481934,8.991543769836426
1700944628710302500,20.285302490234375,0.564680814743042,3.008338451385498,7.497262001037598
1700944628727293000,20.30229296875,0.0955812931060791,1.6084461212158203,6.385209083557129
1700944628744286000,20.319285888671875,0.022285014390945435,0.14976072311401367,5.2907280921936035
1700944628761279200,20.336279296875,0.3113776445388794,-1.1153593063354492,4.104086875915527
1700944628778272000,20.35327197265625,0.745786190032959,-2.0673928260803223,2.961275100708008
1700944628795265000,20.37026513671875,1.5108838081359863,-2.5759730339050293,2.421370506286621
1700944628812258300,20.38725830078125,1.6531856060028076,-2.647278308868408,1.8998069763183594
1700944628829238000,20.404238037109376,1.3270041942596436,-2.4376885890960693,0.8264789581298828
1700944628846244900,20.421244873046874,1.0041768550872803,-2.068093776702881,-0.6418581008911133
1700944628863239200,20.4382392578125,1.0594652891159058,-1.926187515258789,-1.7799468040466309
1700944628880230400,20.45523046875,1.3790435791015625,-2.1468307971954346,-2.374368667602539
1700944628897223400,20.472223388671875,1.8553123474121094,-2.609955310821533,-2.6964426040649414
1700944628914216700,20.489216796875,2.396821975708008,-2.9361467361450195,-2.9632697105407715
1700944628931209700,20.506209716796874,2.875056266784668,-3.06712007522583,-3.201629638671875
1700944628948202800,20.52320263671875,3.217833995819092,-3.2455873489379883,-3.039794445037842
1700944628965195800,20.54019580078125,3.386544704437256,-3.4313766956329346,-3.1288514137268066
1700944628982178000,20.557177978515625,3.278787612915039,-3.8474411964416504,-3.401261806488037
1700944628999183400,20.574183349609374,3.307694911956787,-4.424797058105469,-3.299038887023926
1700944629016181500,20.591181396484377,3.4912450313568115,-5.019084453582764,-2.8187384605407715
1700944629033168100,20.608168212890625,3.7919442653656006,-5.4403533935546875,-2.1810898780822754
1700944629050161000,20.625160888671875,4.086832523345947,-5.700687408447266,-1.5844082832336426
1700944629067154200,20.642154296875,4.175994396209717,-5.984023094177246,-1.3763670921325684
1700944629084144400,20.659144287109374,4.2706499099731445,-6.190825939178467,-1.4767823219299316
1700944629101142800,20.676142822265625,4.346158504486084,-5.960210800170898,-1.7056455612182617
1700944629118133200,20.69313330078125,3.766873359680176,-5.851482391357422,-1.647801399230957
1700944629135126000,20.7101259765625,3.2154083251953125,-6.140514373779297,-0.9448709487915039
1700944629152119300,20.727119384765626,2.5986695289611816,-6.994317531585693,0.27596473693847656
1700944629169112600,20.744112548828124,2.4095757007598877,-7.250045299530029,0.4096412658691406
1700944629186105300,20.761105224609373,2.5708248615264893,-7.234772682189941,0.23087501525878906
1700944629203088000,20.778087890625,2.846064567565918,-6.48874568939209,-0.260589599609375
1700944629220095700,20.795095703125,2.473271369934082,-5.289548873901367,-0.5442047119140625
1700944629237084700,20.812084716796875,1.5015814304351807,-4.55965518951416,-0.21063518524169922
1700944629254077400,20.829077392578125,1.2274891138076782,-4.093401908874512,0.2110004425048828
1700944629271070500,20.846070556640626,1.3466240167617798,-3.8317294120788574,0.49135684967041016
1700944629288063700,20.863063720703124,1.6596317291259766,-3.7237391471862793,0.3716907501220703
1700944629305066800,20.880066650390624,1.638920545578003,-3.6309142112731934,0.1727924346923828
1700944629322050000,20.897050048828124,0.8997456431388855,-3.3088176250457764,-0.014623641967773438
1700944629339042600,20.91404248046875,-0.11929452419281006,-2.632249355316162,-0.6964092254638672
1700944629356035800,20.931035888671875,-1.0359539985656738,-1.8751096725463867,-1.37921142578125
1700944629373029000,20.948029052734373,-1.2062931060791016,-1.017462968826294,-1.6911935806274414
1700944629390022000,20.96502197265625,-0.7853652238845825,-0.3088507652282715,-1.6290836334228516
1700944629407001900,20.982001953125,0.017098069190979004,0.3662147521972656,-1.3593535423278809
1700944629423996700,20.99899658203125,0.7164134383201599,0.9665608406066895,-1.0976066589355469
1700944629441001000,21.0160009765625,1.2226102352142334,1.5857679843902588,-0.8050761222839355
1700944629457997800,21.032997802734375,1.0165852308273315,2.1845877170562744,-0.6829185485839844
1700944629474987300,21.0499873046875,0.5084036588668823,2.647737979888916,-0.12923049926757812
1700944629491980300,21.066980224609374,0.17981010675430298,3.1990625858306885,0.8672094345092773
1700944629508970800,21.083970703125,-0.05889999866485596,3.6355092525482178,1.8441400527954102
1700944629525969000,21.100968994140626,-0.429279088973999,4.006903648376465,2.8213586807250977
1700944629542959600,21.117959716796875,-0.7845935225486755,4.393585205078125,3.429401397705078
1700944629559952600,21.13495263671875,-0.9763946533203125,4.700817584991455,3.8146581649780273
1700944629576945700,21.151945556640626,-0.8609689474105835,4.799674034118652,4.586028575897217
1700944629593938700,21.168938720703125,-0.9589910507202148,4.660617828369141,5.480628490447998
1700944629610931700,21.185931640625,-1.1610594987869263,4.411352157592773,6.559540271759033
1700944629627924700,21.2029248046875,-1.9132933616638184,4.415334701538086,7.1644134521484375
1700944629644917500,21.21991748046875,-2.5687203407287598,4.732649803161621,7.598890781402588
1700944629661910500,21.23691064453125,-2.8137190341949463,5.18223762512207,7.747769355773926
1700944629678903800,21.25390380859375,-1.9680887460708618,5.374601364135742,8.49146842956543
1700944629695896800,21.270896728515623,-0.9535830020904541,5.139833450317383,9.739501953125
1700944629712888000,21.28788818359375,-0.2880573868751526,4.384516716003418,11.393068313598633
1700944629729887200,21.30488720703125,-0.20072486996650696,3.7928147315979004,12.64120101928711
1700944629746874000,21.3218740234375,-0.5644479990005493,3.561519145965576,13.098328590393066
1700944629763869200,21.338869140625,-0.6132741570472717,3.671267509460449,12.870784759521484
1700944629780862200,21.3558623046875,-0.5274803638458252,3.9998440742492676,11.843603134155273
1700944629797855000,21.37285498046875,-0.4002237319946289,4.01292085647583,10.294955253601074
1700944629814848300,21.38984814453125,-0.3612203598022461,3.3634960651397705,8.547768592834473
1700944629831841300,21.40684130859375,-0.3622714877128601,1.9656729698181152,7.5808186531066895
1700944629848834300,21.423834228515624,-0.05929479002952576,0.44933176040649414,7.141840934753418
1700944629865827600,21.44082763671875,0.41648155450820923,-0.7624368667602539,6.526892185211182
1700944629882820600,21.457820556640623,0.8320683836936951,-1.8333549499511719,5.758323669433594
1700944629899813400,21.4748134765625,1.2347513437271118,-2.5498738288879395,4.7872819900512695
1700944629916806400,21.491806396484375,1.3146259784698486,-2.8769989013671875,3.4060134887695312
1700944629933797000,21.508797119140624,1.2024879455566406,-2.967470169067383,1.9639101028442383
1700944629950795300,21.525795166015627,1.232333779335022,-2.9250547885894775,0.8123979568481445
1700944629967785700,21.54278564453125,1.3244493007659912,-2.9257495403289795,-0.04857921600341797
1700944629984779000,21.559779052734374,1.5009772777557373,-2.938486099243164,-1.0073766708374023
1700944630001772000,21.57677197265625,1.750230073928833,-3.0380163192749023,-1.7724666595458984
1700944630018765000,21.59376513671875,2.0027530193328857,-3.133023977279663,-2.5666122436523438
1700944630035757800,21.6107578125,2.242684841156006,-3.2699365615844727,-3.359562873840332
1700944630052750800,21.627750732421877,2.4290385246276855,-3.5207056999206543,-3.8850765228271484
1700944630069744000,21.644744140625,2.639988660812378,-3.8389225006103516,-4.197564125061035
1700944630086737200,21.661737060546876,3.0169129371643066,-4.216120719909668,-4.280945301055908
1700944630103730000,21.67872998046875,3.6537890434265137,-4.471112251281738,-4.095963001251221
1700944630120720400,21.695720458984376,3.8523945808410645,-4.932624340057373,-3.6768479347229004
