time,seconds_elapsed,z,y,x
1701104902728567800,0.16856787109375,-0.6509976387023926,-0.38816308975219727,0.08144807815551758
1701104902745561900,0.185561767578125,-0.22736072540283203,-0.4991273880004883,0.04781460762023926
1701104902762557200,0.20255712890625,0.014946937561035156,-0.4752774238586426,-0.146561861038208
1701104902779543800,0.219543701171875,-0.22321653366088867,-0.555264949798584,-0.28370916843414307
1701104902796540000,0.236539794921875,-0.491549015045166,-0.6366395950317383,-0.5492162704467773
1701104902813524200,0.253524169921875,-0.6696348190307617,-0.6836366653442383,-1.0569344758987427
1701104902830521300,0.270521240234375,-0.3103046417236328,-0.7061963081359863,-1.4203115701675415
1701104902847517000,0.287516845703125,-0.4922304153442383,-0.24900293350219727,-1.5079319477081299
1701104902864500700,0.304500732421875,-1.3519549369812012,-0.29780054092407227,-1.4722145795822144
1701104902881499400,0.32149951171875,-1.811075210571289,-0.2477860450744629,-1.805666446685791
1701104902898498000,0.338498046875,-1.314591407775879,-0.321016788482666,-2.4056057929992676
1701104902915482400,0.355482421875,-0.14702367782592773,-0.6671032905578613,-2.8510541915893555
1701104902932483300,0.3724833984375,0.12183666229248047,-0.8880658149719238,-2.4573287963867188
1701104902949470700,0.389470703125,-0.9199490547180176,-0.8605546951293945,-2.1351747512817383
1701104902966464800,0.40646484375,-2.549281358718872,-0.9339756965637207,-2.401014804840088
1701104902983457300,0.423457275390625,-3.173349380493164,-0.8196535110473633,-2.390181541442871
1701104903000443400,0.440443359375,-2.2482264041900635,-1.598996639251709,-2.6452560424804688
1701104903017442600,0.457442626953125,-0.5526039600372314,-2.1522927284240723,-3.3857855796813965
1701104903034432000,0.474431884765625,0.19524073600769043,-2.2242565155029297,-4.236240386962891
1701104903051418600,0.491418701171875,-0.8843845129013062,-2.277528762817383,-4.040269374847412
1701104903068417500,0.50841748046875,-2.7484869956970215,-2.5881032943725586,-2.532778739929199
1701104903085409500,0.525409423828125,-3.6175904273986816,-2.7324118614196777,-1.270803451538086
1701104903102408700,0.54240869140625,-2.410757064819336,-2.7444562911987305,-0.9517087936401367
1701104903119393300,0.559393310546875,-0.7261930704116821,-2.9115657806396484,-1.5052499771118164
1701104903136389400,0.576389404296875,0.5984530448913574,-3.2234292030334473,-2.4482297897338867
1701104903153382000,0.5933818359375,0.96933913230896,-3.6623401641845703,-3.1231021881103516
1701104903170371800,0.610371826171875,0.7669550180435181,-4.4754252433776855,-3.0995960235595703
1701104903187355400,0.62735546875,0.5206724405288696,-5.4372711181640625,-1.9976825714111328
1701104903204348700,0.6443486328125,0.5689501762390137,-6.124251842498779,-0.10205650329589844
1701104903221347600,0.66134765625,0.3926506042480469,-6.740170001983643,1.083399772644043
1701104903238344700,0.6783447265625,0.15087354183197021,-7.681641101837158,1.4969587326049805
1701104903255334400,0.69533447265625,-0.000638127326965332,-8.491822242736816,1.4168081283569336
1701104903272330000,0.712330078125,-0.23102712631225586,-9.610233306884766,2.1860151290893555
1701104903289310500,0.729310546875,0.22919625043869019,-10.582816123962402,3.647510528564453
1701104903306312700,0.746312744140625,1.3101998567581177,-10.99476432800293,4.677891731262207
1701104903323307300,0.763307373046875,2.233872890472412,-10.919755935668945,5.603269577026367
1701104903340293400,0.78029345703125,2.94848370552063,-10.296346664428711,6.9070587158203125
1701104903357292800,0.797292724609375,3.489964008331299,-9.164018630981445,8.388993263244629
1701104903374283300,0.814283203125,3.68467378616333,-7.852569103240967,9.627079010009766
1701104903391272700,0.831272705078125,3.5960144996643066,-6.643276214599609,10.406926155090332
1701104903408268800,0.848268798828125,3.5474727153778076,-5.264739513397217,10.768930435180664
1701104903425259500,0.865259521484375,3.346839427947998,-3.5264997482299805,10.294153213500977
1701104903442254600,0.882254638671875,3.2653706073760986,-1.3827061653137207,8.957735061645508
1701104903459242800,0.89924267578125,2.9333629608154297,0.7234606742858887,7.609060764312744
1701104903476237600,0.916237548828125,2.481837749481201,2.671060085296631,6.722836494445801
1701104903493230600,0.933230712890625,1.7962325811386108,4.2330217361450195,6.397031784057617
1701104903510231600,0.9502314453125,1.1196837425231934,5.1912407875061035,6.370666980743408
1701104903527211500,0.96721142578125,0.553831934928894,5.897615432739258,6.118720531463623
1701104903544224500,0.984224609375,-0.372760534286499,6.160276889801025,5.7280802726745605
1701104903561197600,1.001197509765625,-0.4412434697151184,6.306860446929932,5.232163429260254
1701104903578192000,1.01819189453125,-0.1447610855102539,6.5397748947143555,4.794328689575195
1701104903595184000,1.03518408203125,0.2566009759902954,6.458324432373047,4.749979019165039
1701104903612178000,1.052177978515625,0.7395785450935364,6.231409072875977,4.324377059936523
1701104903629166600,1.06916650390625,1.3252050876617432,5.775755882263184,3.9593591690063477
1701104903646163500,1.08616357421875,1.9385287761688232,5.4132866859436035,3.944760322570801
1701104903663155200,1.1031552734375,2.16355299949646,5.264196872711182,4.131847381591797
1701104903680145700,1.120145751953125,1.8155055046081543,5.128253936767578,4.874955654144287
1701104903697136600,1.13713671875,1.1144030094146729,4.7549943923950195,6.021841049194336
1701104903714133800,1.1541337890625,0.6206302642822266,4.102189064025879,7.444004535675049
1701104903731120400,1.171120361328125,0.01526409387588501,3.350010871887207,9.032629013061523
1701104903748102400,1.188102294921875,-0.5982589721679688,2.6184635162353516,10.140043258666992
1701104903765106200,1.205106201171875,-1.1340858936309814,1.6853280067443848,10.791280746459961
1701104903782105300,1.222105224609375,-1.357621431350708,0.21553421020507812,12.011665344238281
1701104903799090200,1.239090087890625,-2.0060386657714844,-1.1330785751342773,12.928370475769043
1701104903816080400,1.256080322265625,-2.8740384578704834,-1.340254306793213,12.044676780700684
1701104903833079300,1.273079345703125,-2.711057186126709,-0.6809601783752441,10.34299087524414
1701104903850069200,1.2900693359375,-1.3620609045028687,-0.6430644989013672,9.21422004699707
1701104903867062500,1.3070625,0.6071889400482178,-2.63667631149292,10.053634643554688
1701104903884058000,1.32405810546875,1.9223930835723877,-5.128583908081055,10.596187591552734
1701104903901045000,1.341044921875,2.2683353424072266,-7.231595039367676,9.570411682128906
1701104903918041900,1.358041748046875,2.0284430980682373,-8.584502220153809,7.121233940124512
1701104903935032300,1.3750322265625,2.2569665908813477,-10.568780899047852,5.894397735595703
1701104903952027600,1.392027587890625,2.5568795204162598,-11.024253845214844,4.386695861816406
1701104903969015300,1.409015380859375,2.823700428009033,-10.380107879638672,2.500790596008301
1701104903986011400,1.426011474609375,2.46523118019104,-9.471829414367676,0.6141910552978516
1701104904003003600,1.443003662109375,2.086620569229126,-8.640511512756348,-1.286320686340332
1701104904019993000,1.4599931640625,2.2888684272766113,-8.559762954711914,-2.6963353157043457
1701104904036987100,1.476987060546875,3.2372114658355713,-9.076578140258789,-3.545541763305664
1701104904053982200,1.493982177734375,4.18848991394043,-9.011772155761719,-4.413878440856934
1701104904070969300,1.51096923828125,4.443562030792236,-8.805683135986328,-5.097586631774902
1701104904087966200,1.52796630859375,4.07882022857666,-8.582331657409668,-5.725191593170166
1701104904104957200,1.544957275390625,3.553171396255493,-8.381028175354004,-6.175525188446045
1701104904121952300,1.5619521484375,3.201054573059082,-8.458036422729492,-6.4371256828308105
1701104904138939000,1.57893896484375,3.132319211959839,-8.608406066894531,-6.662694454193115
1701104904155935200,1.595935302734375,3.294867992401123,-8.711604118347168,-6.895384788513184
1701104904172925700,1.61292578125,3.5541653633117676,-8.810630798339844,-6.811840534210205
1701104904189920500,1.62992041015625,4.080610275268555,-8.881131172180176,-6.795306205749512
1701104904206911500,1.646911376953125,4.624753952026367,-9.189282417297363,-6.5925116539001465
1701104904223910700,1.66391064453125,5.066491603851318,-9.671671867370605,-6.026884078979492
1701104904240894200,1.680894287109375,5.043512344360352,-10.07435417175293,-5.040209770202637
1701104904257890800,1.697890869140625,4.599046230316162,-10.601737022399902,-3.2492284774780273
1701104904274881000,1.714881103515625,4.190865516662598,-10.910569190979004,-1.543281078338623
1701104904291876600,1.731876708984375,3.584210157394409,-11.386346817016602,-0.11356639862060547
1701104904308863700,1.74886376953125,3.0053906440734863,-11.840007781982422,1.6024303436279297
1701104904325849600,1.765849609375,2.295320987701416,-11.729360580444336,2.867128372192383
1701104904342852600,1.7828525390625,1.1084822416305542,-11.152868270874023,3.2846527099609375
1701104904359842000,1.799842041015625,0.0979001522064209,-10.195093154907227,4.0574798583984375
1701104904376838000,1.816837890625,0.07213020324707031,-8.896492004394531,5.989015579223633
1701104904393829400,1.833829345703125,0.4163559675216675,-7.452695846557617,7.951266288757324
1701104904410815500,1.8508154296875,0.7218650579452515,-5.794737815856934,8.002307891845703
1701104904427817700,1.867817626953125,0.7588731050491333,-4.816903114318848,6.809257507324219
1701104904444798500,1.884798583984375,0.7975453734397888,-4.073248863220215,5.125475883483887
1701104904461801200,1.90180126953125,0.8543710708618164,-3.1824395656585693,3.7430267333984375
1701104904478787800,1.918787841796875,0.46227097511291504,-2.0846948623657227,3.025127410888672
1701104904495784200,1.9357841796875,-0.02528691291809082,-0.7504839897155762,2.7053699493408203
1701104904512777200,1.952777099609375,-0.18198108673095703,0.7507667541503906,2.3464183807373047
1701104904529767000,1.969766845703125,-0.1732463836669922,1.9092183113098145,2.212069511413574
1701104904546760400,1.986760498046875,0.010991573333740234,2.8946123123168945,2.261967658996582
1701104904563756500,2.003756591796875,0.1631401777267456,3.7782740592956543,1.9718284606933594
1701104904580736000,2.020736083984375,0.2027374505996704,4.545571327209473,1.478071689605713
1701104904597748700,2.037748779296875,0.07673752307891846,4.984963417053223,1.4201850891113281
1701104904614723300,2.054723388671875,0.20806455612182617,5.468219757080078,1.602243423461914
1701104904631725000,2.07172509765625,0.36164557933807373,5.79746150970459,2.0965890884399414
1701104904648707300,2.088707275390625,0.32422006130218506,6.035464763641357,2.688243865966797
1701104904665700400,2.105700439453125,0.1348663568496704,5.870440483093262,3.0044450759887695
1701104904682704600,2.12270458984375,0.01921379566192627,5.4929423332214355,3.102341651916504
1701104904699691000,2.13969091796875,0.32628440856933594,4.910700798034668,3.5840139389038086
1701104904716684800,2.156684814453125,0.7046381235122681,4.554391384124756,4.576086044311523
1701104904733680400,2.173680419921875,0.9255326986312866,4.621927261352539,6.168300151824951
1701104904750667300,2.190667236328125,0.41026246547698975,4.873049736022949,7.577402591705322
1701104904767664000,2.2076640625,-0.6171827912330627,5.03344202041626,8.425775527954102
1701104904784654800,2.22465478515625,-1.566976547241211,4.849615573883057,8.742475509643555
1701104904801650200,2.241650146484375,-1.739048957824707,4.007290840148926,9.171817779541016
1701104904818635300,2.25863525390625,-0.966859757900238,2.415989398956299,10.497586250305176
1701104904835635000,2.275635009765625,-0.10879093408584595,1.3327293395996094,12.10064697265625
1701104904852627000,2.292626953125,0.1739567220211029,1.3885259628295898,13.321809768676758
1701104904869608400,2.3096083984375,-0.30219462513923645,2.3272271156311035,12.91515827178955
1701104904886609400,2.326609375,-0.8244311809539795,3.121981620788574,11.138225555419922
1701104904903602000,2.343601806640625,-0.6992913484573364,2.4365034103393555,9.530391693115234
1701104904920594200,2.36059423828125,-0.0810491144657135,0.5597710609436035,8.813045501708984
1701104904937588700,2.377588623046875,0.36830034852027893,-1.8338336944580078,8.745351791381836
1701104904954579000,2.394578857421875,0.676013171672821,-3.807589530944824,8.19442081451416
1701104904971574300,2.41157421875,1.073862075805664,-5.131702899932861,6.826440811157227
1701104904988561700,2.428561767578125,1.8563146591186523,-6.157939434051514,5.352017402648926
1701104905005558000,2.44555810546875,2.72308349609375,-6.581104278564453,3.917534828186035
1701104905022539800,2.462539794921875,3.162015199661255,-6.404029846191406,2.2938232421875
1701104905039540000,2.4795400390625,2.6574931144714355,-6.126699447631836,0.5762643814086914
1701104905056525000,2.496525146484375,1.9870431423187256,-5.9205708503723145,-0.9193897247314453
1701104905073526500,2.513526611328125,1.5079091787338257,-5.972193717956543,-1.9195795059204102
1701104905090518500,2.5305185546875,1.3261966705322266,-6.267412185668945,-2.6351184844970703
1701104905107512800,2.547512939453125,1.5366055965423584,-6.462867736816406,-3.3893327713012695
1701104905124493300,2.564493408203125,1.952480673789978,-6.489389896392822,-4.266171455383301
1701104905141502000,2.581501953125,2.348629951477051,-6.483931541442871,-5.015844821929932
1701104905158498600,2.59849853515625,2.7528820037841797,-6.579233646392822,-5.532184600830078
1701104905175477800,2.615477783203125,2.9182348251342773,-6.944805145263672,-5.679532051086426
1701104905192476700,2.6324765625,3.163191318511963,-7.321175575256348,-5.786709308624268
1701104905209465600,2.649465576171875,3.587603807449341,-7.619357109069824,-5.983807563781738
1701104905226444000,2.666444091796875,3.537368059158325,-7.894769668579102,-6.183287620544434
1701104905243453400,2.683453369140625,3.270097255706787,-8.576597213745117,-6.205602645874023
1701104905260442400,2.7004423828125,3.7131829261779785,-9.550448417663574,-5.853979587554932
1701104905277435100,2.71743505859375,4.758282661437988,-10.511863708496094,-4.936099529266357
1701104905294424800,2.7344248046875,5.718348503112793,-11.004528045654297,-3.659526824951172
1701104905311419000,2.7514189453125,6.615749359130859,-11.212821960449219,-2.0447120666503906
1701104905328414200,2.768414306640625,6.754700660705566,-11.543360710144043,-0.21915817260742188
1701104905345409000,2.785408935546875,5.509891510009766,-11.988097190856934,0.8879079818725586
1701104905362400300,2.802400146484375,3.9997615814208984,-11.891457557678223,0.9634637832641602
1701104905379389200,2.81938916015625,3.429398536682129,-10.86032485961914,0.8918590545654297
1701104905396382500,2.836382568359375,3.306516647338867,-9.448760986328125,2.062437057495117
1701104905413366300,2.8533662109375,2.837345838546753,-8.057251930236816,3.630160331726074
1701104905430364700,2.87036474609375,2.1557490825653076,-6.73799991607666,4.4047346115112305
1701104905447361800,2.88736181640625,1.361713171005249,-5.795685291290283,4.207944869995117
1701104905464356000,2.904356201171875,0.8067184686660767,-5.259871006011963,3.373988151550293
1701104905481345000,2.921344970703125,0.5948609113693237,-4.813766956329346,2.1112537384033203
1701104905498337000,2.9383369140625,0.4055447578430176,-4.219769477844238,0.9549312591552734
1701104905515330800,2.955330810546875,0.3422275185585022,-3.4003617763519287,0.40290164947509766
1701104905532323800,2.97232373046875,0.6211146116256714,-2.3264248371124268,0.43426513671875
1701104905549313500,2.9893134765625,1.0351049900054932,-1.0521812438964844,0.7665739059448242
1701104905566307000,3.00630712890625,1.2559535503387451,0.2323312759399414,1.0698051452636719
1701104905583302100,3.02330224609375,1.212388277053833,1.2118020057678223,1.4261760711669922
1701104905600292000,3.0402919921875,1.041101336479187,2.032824993133545,1.9745383262634277
1701104905617284000,3.0572841796875,0.8984377384185791,2.8227198123931885,2.6168365478515625
1701104905634274800,3.07427490234375,0.5574758648872375,3.6225051879882812,3.159086227416992
1701104905651273700,3.091273681640625,0.14753353595733643,4.223065376281738,4.0217814445495605
1701104905668262700,3.1082626953125,-0.20742452144622803,4.74064826965332,4.928524494171143
1701104905685256200,3.125256103515625,-0.5272179245948792,4.9077324867248535,5.711989879608154
1701104905702247200,3.1422470703125,-0.5760331749916077,4.898715019226074,6.560075759887695
1701104905719241000,3.159240966796875,-0.5181604027748108,4.78424072265625,7.702847480773926
1701104905736230000,3.17622998046875,-0.732585072517395,4.774335861206055,9.089716911315918
1701104905753228800,3.193228759765625,-1.142561674118042,5.16047477722168,10.464279174804688
1701104905770217200,3.21021728515625,-1.7764110565185547,5.752143859863281,11.714859008789062
1701104905787210800,3.227210693359375,-2.0786447525024414,5.8637824058532715,13.127306938171387
1701104905804190700,3.244190673828125,-1.466576337814331,5.664072036743164,13.820463180541992
1701104905821192700,3.261192626953125,-0.5046687126159668,4.365986347198486,14.430233001708984
1701104905838176500,3.278176513671875,0.38082829117774963,2.439085006713867,15.604297637939453
1701104905855178000,3.295177978515625,0.8815194964408875,1.5926532745361328,16.548934936523438
1701104905872174600,3.312174560546875,0.6547871232032776,2.1234283447265625,15.997903823852539
1701104905889165800,3.329165771484375,-0.2032393217086792,2.5333714485168457,13.633438110351562
1701104905906156800,3.34615673828125,-0.6953456997871399,1.848724365234375,10.738435745239258
1701104905923150600,3.363150634765625,-0.42512646317481995,-0.037662506103515625,8.548291206359863
1701104905940144000,3.38014404296875,0.12234082818031311,-2.298734664916992,7.127701282501221
1701104905957133300,3.39713330078125,0.7976784706115723,-4.129441261291504,5.779842853546143
1701104905974126600,3.414126708984375,1.5680415630340576,-5.060429573059082,4.221680641174316
1701104905991120100,3.4311201171875,2.25344181060791,-5.274018287658691,2.4442291259765625
1701104906008101000,3.44810107421875,2.7562525272369385,-4.957582473754883,0.6060400009155273
1701104906025105400,3.46510546875,3.0863983631134033,-4.5426344871521,-1.067896842956543
1701104906042093600,3.482093505859375,3.349942684173584,-4.3164873123168945,-2.4601545333862305
1701104906059089700,3.499089599609375,3.5405991077423096,-4.099018096923828,-3.671955108642578
1701104906076081400,3.516081298828125,3.4729270935058594,-3.8753154277801514,-4.709959030151367
1701104906093075200,3.5330751953125,3.245208501815796,-3.7019710540771484,-5.165531158447266
1701104906110053000,3.55005322265625,3.164484977722168,-3.6501870155334473,-5.266313552856445
1701104906127051000,3.567051025390625,3.236548900604248,-3.839601516723633,-5.199559211730957
1701104906144046600,3.584046630859375,3.745276927947998,-4.130244255065918,-5.160758972167969
1701104906161040600,3.60104052734375,4.252127170562744,-4.573348522186279,-4.991718292236328
1701104906178031600,3.618031494140625,4.736895561218262,-5.269193649291992,-4.515108108520508
1701104906195018200,3.635018310546875,5.27486515045166,-6.091799736022949,-3.797360897064209
1701104906212022000,3.65202197265625,5.611644744873047,-6.882237911224365,-2.849087715148926
1701104906229008000,3.6690078125,5.812877655029297,-7.6884307861328125,-1.5744028091430664
1701104906245995000,3.6859951171875,6.009768486022949,-8.341792106628418,-0.6144866943359375
1701104906262994200,3.702994140625,6.1455559730529785,-8.970564842224121,0.1371316909790039
1701104906279982000,3.719982177734375,5.989903450012207,-9.234057426452637,0.6532125473022461
1701104906296980200,3.736980224609375,5.394030570983887,-9.327244758605957,0.853179931640625
1701104906313967400,3.75396728515625,4.518508434295654,-9.803776741027832,0.645848274230957
1701104906330960100,3.770960205078125,4.143585681915283,-10.262972831726074,-0.2360067367553711
1701104906347956000,3.7879560546875,4.401668548583984,-9.973466873168945,-1.6348180770874023
1701104906364943000,3.804943115234375,4.390503883361816,-8.7852783203125,-2.9423751831054688
1701104906381947600,3.82194775390625,3.494126081466675,-7.279676914215088,-3.4436092376708984
1701104906398938600,3.838938720703125,1.8360546827316284,-6.184472560882568,-2.9863147735595703
1701104906415930000,3.85593017578125,0.23731374740600586,-5.582124710083008,-2.5453948974609375
1701104906432924000,3.872923828125,-0.8903372287750244,-5.402098655700684,-2.2617311477661133
1701104906449915000,3.889914794921875,-1.2735211849212646,-5.2650017738342285,-1.8609590530395508
1701104906466898200,3.906898193359375,-1.1529066562652588,-5.004619598388672,-1.256683349609375
1701104906483896300,3.923896240234375,-0.8663902282714844,-4.368044853210449,-0.8206281661987305
1701104906500897800,3.940897705078125,-0.6212068796157837,-3.655590772628784,-0.5236587524414062
1701104906517884700,3.957884765625,-0.28157496452331543,-2.865644693374634,-0.09938716888427734
1701104906534878500,3.97487841796875,0.20572209358215332,-2.1428568363189697,0.4356412887573242
1701104906551862800,3.99186279296875,0.7943614721298218,-1.2751641273498535,0.8710670471191406
1701104906568863500,4.008863525390625,1.227309226989746,-0.341888427734375,1.0672521591186523
1701104906585844000,4.025843994140625,1.5171754360198975,0.624720573425293,1.1152572631835938
1701104906602848300,4.04284814453125,1.6534299850463867,1.3858227729797363,1.4402599334716797
1701104906619839500,4.059839599609375,1.5093141794204712,1.9994168281555176,1.9520058631896973
1701104906636833500,4.07683349609375,1.0953247547149658,2.703136444091797,2.6004867553710938
1701104906653824300,4.09382421875,0.4154353737831116,3.1662416458129883,3.601644992828369
1701104906670818000,4.110818115234375,-0.34684357047080994,3.568587303161621,4.478067874908447
1701104906687807200,4.12780712890625,-0.9698569178581238,3.7568836212158203,5.105238437652588
1701104906704805600,4.1448056640625,-1.3398770093917847,3.743837594985962,5.775166034698486
1701104906721791500,4.16179150390625,-1.614405632019043,3.779426097869873,6.6601057052612305
1701104906738790400,4.178790283203125,-1.9773340225219727,3.892538070678711,7.617636203765869
1701104906755779300,4.195779296875,-2.393939733505249,3.9980454444885254,8.51828670501709
1701104906772772900,4.21277294921875,-2.623034715652466,4.100968360900879,9.3126802444458
1701104906789764000,4.22976416015625,-2.5363197326660156,4.173487186431885,9.819265365600586
1701104906806757600,4.246757568359375,-2.1254820823669434,3.9221134185791016,10.3718900680542
1701104906823749000,4.2637490234375,-1.3303570747375488,3.204667091369629,11.374059677124023
1701104906840742700,4.28074267578125,-0.4269193410873413,1.9406042098999023,12.724702835083008
1701104906857733600,4.297733642578125,0.15421780943870544,0.8971157073974609,13.9088134765625
1701104906874727400,4.3147275390625,0.34784212708473206,1.1817870140075684,14.029937744140625
1701104906891719000,4.331718994140625,0.15106642246246338,2.3390731811523438,12.765539169311523
1701104906908694000,4.348694091796875,-0.24593845009803772,2.9396677017211914,10.758532524108887
1701104906925698300,4.3656982421875,-0.4032551348209381,2.302969455718994,8.850082397460938
1701104906942699500,4.382699462890625,-0.30408722162246704,0.6495380401611328,7.319857597351074
1701104906959688400,4.3996884765625,-0.10958400368690491,-1.1502785682678223,5.915081977844238
1701104906976677400,4.416677490234375,0.19637680053710938,-2.542860984802246,4.467007160186768
1701104906993673200,4.433673095703125,0.5642896294593811,-3.233410358428955,2.9225196838378906
1701104907010667000,4.4506669921875,0.8663225173950195,-3.3785667419433594,1.2773284912109375
1701104907027658500,4.467658447265625,1.184578537940979,-3.2414960861206055,-0.28367137908935547
1701104907044652300,4.48465234375,1.5834481716156006,-2.83046817779541,-1.626089096069336
1701104907061643300,4.501643310546875,1.6375694274902344,-2.5720996856689453,-2.4495458602905273
1701104907078636300,4.51863623046875,1.610405445098877,-2.313908815383911,-3.0685205459594727
1701104907095629800,4.5356298828125,1.649070382118225,-2.106167793273926,-3.595719337463379
1701104907112610000,4.552610107421875,1.7143864631652832,-2.0674326419830322,-3.8998470306396484
1701104907129613000,4.569613037109375,1.8197879791259766,-2.1420538425445557,-4.042775630950928
1701104907146606600,4.586606689453125,2.0631520748138428,-2.3779397010803223,-4.145139217376709
1701104907163594500,4.603594482421875,2.562251091003418,-2.706639289855957,-4.140789985656738
1701104907180589000,4.620589111328125,3.198500394821167,-3.2915921211242676,-3.7898802757263184
1701104907197585200,4.637585205078125,3.901925802230835,-4.014421463012695,-3.2659406661987305
1701104907214576400,4.654576416015625,4.579931735992432,-5.072601318359375,-2.541396141052246
1701104907231567600,4.671567626953125,5.306196689605713,-6.073244571685791,-1.852292537689209
1701104907248562000,4.68856201171875,5.884686470031738,-7.152246475219727,-1.0343341827392578
1701104907265552400,4.705552490234375,6.41182804107666,-7.932099342346191,-0.7769908905029297
1701104907282546200,4.722546142578125,6.482146739959717,-8.747802734375,-0.7572174072265625
1701104907299538000,4.739537841796875,6.559533596038818,-9.14040756225586,-0.7325010299682617
1701104907316521500,4.756521484375,6.223608493804932,-9.000338554382324,-0.6413326263427734
1701104907333522000,4.77352197265625,5.3321943283081055,-8.760773658752441,-0.4296102523803711
1701104907350516000,4.790515869140625,3.8907485008239746,-8.99605941772461,-0.32456111907958984
1701104907367492400,4.807492431640625,2.5452423095703125,-9.419524192810059,-0.6569185256958008
1701104907384488400,4.824488525390625,1.9187172651290894,-9.401575088500977,-1.4505620002746582
1701104907401492000,4.841491943359375,1.7736103534698486,-8.341950416564941,-2.4152889251708984
1701104907418482400,4.858482421875,1.7453887462615967,-6.738187313079834,-2.532388687133789
1701104907435477000,4.87547705078125,1.3724262714385986,-5.455472469329834,-1.3718833923339844
1701104907452471000,4.892470947265625,0.8373778462409973,-4.588269233703613,0.19746875762939453
1701104907469462000,4.9094619140625,0.3104168176651001,-3.8693127632141113,0.8781557083129883
1701104907486455600,4.92645556640625,0.034013986587524414,-3.468411445617676,0.28574371337890625
1701104907503447000,4.943447021484375,0.14008212089538574,-3.02549147605896,-1.2102737426757812
1701104907520440600,4.960440673828125,0.3194965124130249,-2.4258201122283936,-2.6590189933776855
1701104907537431600,4.977431640625,0.4324387311935425,-1.8481743335723877,-3.1959939002990723
1701104907554423300,4.99442333984375,0.824745774269104,-1.2122840881347656,-2.5517959594726562
1701104907571418600,5.011418701171875,1.2000788450241089,-0.48681640625,-1.3030543327331543
1701104907588412200,5.028412109375,1.2963297367095947,0.24084949493408203,-0.21978473663330078
1701104907605401300,5.0454013671875,1.0952942371368408,1.0102324485778809,0.6642045974731445
1701104907622395100,5.06239501953125,0.5281080007553101,1.7534570693969727,1.206833839416504
1701104907639386400,5.079386474609375,-0.32040220499038696,2.3227477073669434,1.3596973419189453
1701104907656378000,5.096378173828125,-0.9337875843048096,2.664628505706787,1.56544828414917
1701104907673373200,5.113373291015625,-1.1718534231185913,2.8412137031555176,2.313920021057129
1701104907690365000,5.130364990234375,-1.0661896467208862,3.08677077293396,3.2788405418395996
1701104907707356400,5.1473564453125,-1.165890097618103,3.2013182640075684,4.057433605194092
1701104907724356900,5.16435693359375,-1.2841167449951172,2.9002938270568848,4.65867805480957
1701104907741343200,5.18134326171875,-1.1320098638534546,2.5703296661376953,5.1328935623168945
1701104907758332200,5.198332275390625,-1.0605334043502808,2.314138412475586,5.7348809242248535
1701104907775326000,5.215325927734375,-1.257461428642273,2.4322080612182617,6.961812496185303
1701104907792319700,5.23231982421875,-1.5083764791488647,3.042621612548828,8.663644790649414
1701104907809300200,5.24930029296875,-1.6030447483062744,3.565546989440918,10.478036880493164
1701104907826302200,5.26630224609375,-1.6144300699234009,3.748344898223877,11.730223655700684
1701104907843298300,5.28329833984375,-1.1902281045913696,3.300337791442871,12.708250999450684
1701104907860281300,5.30028125,-0.41736096143722534,2.7241082191467285,13.638873100280762
1701104907877283000,5.317282958984375,0.006342649459838867,2.8468480110168457,14.789745330810547
1701104907894274000,5.334274169921875,0.03720314800739288,3.2865381240844727,15.432645797729492
1701104907911265500,5.351265625,-0.4138621687889099,4.025155067443848,13.9430513381958
1701104907928259600,5.368259521484375,-1.1666414737701416,3.4941577911376953,11.157039642333984
1701104907945249800,5.385249755859375,-1.527156114578247,1.945420265197754,8.420974731445312
1701104907962244900,5.402244873046875,-1.2754065990447998,-0.006123542785644531,6.37062931060791
1701104907979235000,5.419235107421875,-0.49361109733581543,-1.7997450828552246,4.99576473236084
1701104907996229400,5.4362294921875,0.7350215911865234,-2.919707775115967,3.7996087074279785
1701104908013210400,5.45321044921875,1.663956880569458,-3.440401077270508,2.750129222869873
1701104908030203600,5.47020361328125,2.274742841720581,-3.38424015045166,1.579880714416504
1701104908047205400,5.487205322265625,2.4105303287506104,-3.0379247665405273,0.3529338836669922
1701104908064189200,5.504189208984375,2.119884729385376,-2.6887054443359375,-0.8910112380981445
1701104908081180200,5.52118017578125,1.7141984701156616,-2.3741493225097656,-2.0110435485839844
1701104908098180600,5.5381806640625,1.5228028297424316,-2.164409875869751,-2.782620429992676
1701104908115177000,5.555177001953125,1.8183295726776123,-2.122941255569458,-3.019387722015381
1701104908132168700,5.572168701171875,2.3631629943847656,-2.3373401165008545,-3.0089497566223145
1701104908149159700,5.58915966796875,2.9640703201293945,-2.597541093826294,-3.3908228874206543
1701104908166153500,5.606153564453125,3.30403470993042,-2.987269878387451,-4.10996675491333
1701104908183144400,5.62314453125,3.0954976081848145,-3.5679826736450195,-4.678012371063232
1701104908200141800,5.640141845703125,2.8927183151245117,-3.973557710647583,-5.056978225708008
1701104908217134600,5.657134521484375,3.147444725036621,-4.39356803894043,-4.869375228881836
1701104908234116900,5.674116943359375,3.6315455436706543,-4.8781514167785645,-4.193521499633789
1701104908251107800,5.69110791015625,4.106494903564453,-5.737861156463623,-3.1160378456115723
1701104908268103700,5.708103759765625,4.507286071777344,-6.369556903839111,-2.2044529914855957
1701104908285092400,5.72509228515625,4.508361339569092,-6.898992538452148,-1.7209501266479492
1701104908302090000,5.742090087890625,4.178620338439941,-7.52590799331665,-1.6278462409973145
1701104908319075300,5.759075439453125,4.0005879402160645,-8.331772804260254,-1.0846529006958008
1701104908336075500,5.776075439453125,4.091238975524902,-8.807441711425781,-0.2288818359375
1701104908353068000,5.793068115234375,3.934025764465332,-9.195992469787598,0.3948221206665039
1701104908370058500,5.81005859375,3.3376619815826416,-9.651543617248535,0.4900083541870117
1701104908387051300,5.82705126953125,2.8007636070251465,-9.660364151000977,-0.2935667037963867
1701104908404051700,5.8440517578125,2.791576623916626,-8.890851020812988,-1.8671345710754395
1701104908421042200,5.861042236328125,3.4372785091400146,-7.348006725311279,-2.8371310234069824
1701104908438018000,5.87801806640625,3.7601752281188965,-6.243218421936035,-2.1368889808654785
1701104908455022600,5.895022705078125,3.452785015106201,-5.519960880279541,-0.5560922622680664
1701104908472019200,5.912019287109375,2.582085132598877,-4.870110511779785,0.20831775665283203
1701104908488998700,5.92899853515625,1.5477049350738525,-4.680262565612793,-0.14132022857666016
1701104908506002400,5.94600244140625,1.0221712589263916,-4.256577491760254,-1.2407169342041016
1701104908522994000,5.962993896484375,0.7512796521186829,-3.445612907409668,-2.237865447998047
1701104908539987500,5.979987548828125,0.6273164749145508,-2.6017062664031982,-1.9575185775756836
1701104908556978400,5.996978515625,0.7048249244689941,-1.583751916885376,-0.5646495819091797
1701104908573972200,6.01397216796875,0.4956313967704773,-0.382720947265625,0.6779499053955078
1701104908590963500,6.03096337890625,0.05186665058135986,0.7073378562927246,1.6070270538330078
1701104908607951400,6.047951416015625,-0.5316308736801147,1.665532112121582,1.9731407165527344
1701104908624952000,6.0649521484375,-0.8032109141349792,2.3994083404541016,1.7122106552124023
1701104908641942000,6.08194189453125,-0.6345921754837036,2.91733455657959,1.5231671333312988
1701104908658922200,6.098922119140625,-0.43857520818710327,3.275411605834961,1.9503393173217773
1701104908675927000,6.115927001953125,-0.3306865990161896,3.4723780155181885,3.1317644119262695
1701104908692918000,6.13291796875,-0.4929255247116089,3.7027454376220703,4.544577121734619
1701104908709893000,6.14989306640625,-1.0247890949249268,3.878512144088745,5.356882572174072
1701104908726903300,6.1669033203125,-2.021531820297241,3.815457820892334,5.686614036560059
1701104908743896800,6.183896728515625,-2.996701240539551,3.7000608444213867,5.728193759918213
1701104908760887800,6.2008876953125,-3.404813766479492,3.545614242553711,6.28346061706543
1701104908777881300,6.21788134765625,-3.1512436866760254,3.7770791053771973,7.001506805419922
1701104908794868500,6.234868408203125,-2.716129779815674,4.205990314483643,7.500380992889404
1701104908811864000,6.251864013671875,-2.16801118850708,4.525487422943115,7.85780143737793
1701104908828860200,6.268860107421875,-1.779308557510376,4.123107433319092,8.340592384338379
1701104908845841000,6.2858408203125,-1.4133460521697998,3.215513229370117,9.101312637329102
1701104908862842600,6.302842529296875,-0.5573336482048035,2.282914638519287,10.351634979248047
1701104908879826200,6.319826171875,0.5160176753997803,1.647939682006836,11.715864181518555
1701104908896827400,6.336827392578125,1.5084673166275024,2.190746784210205,12.427093505859375
1701104908913821000,6.353821044921875,1.6029753684997559,3.3018245697021484,12.164775848388672
1701104908930810000,6.37081005859375,1.0187060832977295,4.064571380615234,10.726114273071289
1701104908947809000,6.38780908203125,0.07172387838363647,3.552389144897461,8.796676635742188
1701104908964797200,6.404797119140625,-0.7040747404098511,2.0280518531799316,7.191717147827148
1701104908981791000,6.421791015625,-0.8697996139526367,0.17712163925170898,6.077988624572754
1701104908998779600,6.438779541015625,-0.44109198451042175,-1.3213343620300293,5.07426118850708
1701104909015776500,6.455776611328125,0.2644299566745758,-2.369330406188965,3.9643797874450684
1701104909032766700,6.4727666015625,0.863979697227478,-2.8375091552734375,2.652568817138672
1701104909049761300,6.48976123046875,1.2908347845077515,-2.7558488845825195,1.2042169570922852
1701104909066752000,6.506751953125,1.4425880908966064,-2.369783401489258,-0.24125099182128906
1701104909083749000,6.5237490234375,1.4923601150512695,-2.0651049613952637,-1.482600212097168
1701104909100733400,6.5407333984375,1.4853744506835938,-2.0015809535980225,-2.3830437660217285
1701104909117727700,6.557727783203125,1.6372852325439453,-2.1734018325805664,-2.9943056106567383
1701104909134722000,6.57472216796875,1.9316051006317139,-2.467904806137085,-3.529632568359375
1701104909151718000,6.5917177734375,2.301459550857544,-2.739039182662964,-4.042410850524902
1701104909168706600,6.60870654296875,2.6917643547058105,-2.9643630981445312,-4.6445488929748535
1701104909185691000,6.62569091796875,3.0481815338134766,-3.130082607269287,-5.178390979766846
1701104909202691600,6.642691650390625,3.383225440979004,-3.445890426635742,-5.336423873901367
1701104909219685400,6.659685302734375,3.593919277191162,-3.9092695713043213,-5.0257568359375
1701104909236676400,6.67667626953125,3.9594924449920654,-4.420356273651123,-4.391505241394043
1701104909253667300,6.693667236328125,4.293456554412842,-4.8761515617370605,-3.5895862579345703
1701104909270664400,6.71066455078125,4.4418625831604,-5.268829345703125,-2.8154983520507812
1701104909287647000,6.72764697265625,4.443253993988037,-5.790029525756836,-1.9548711776733398
1701104909304643600,6.7446435546875,4.456235885620117,-6.3195061683654785,-1.206242561340332
1701104909321642000,6.76164208984375,4.584059715270996,-6.816272735595703,-0.4088325500488281
1701104909338631400,6.77863134765625,4.43035364151001,-7.157973289489746,0.17866230010986328
1701104909355622100,6.7956220703125,3.815173387527466,-7.585051536560059,0.6011714935302734
1701104909372618500,6.812618408203125,3.0966382026672363,-8.17638874053955,0.8097982406616211
1701104909389599000,6.829598876953125,2.759916067123413,-8.797826766967773,0.6475248336791992
1701104909406601200,6.846601318359375,2.7781853675842285,-9.022644996643066,-0.229461669921875
1701104909423594800,6.8635947265625,3.1734843254089355,-7.895330905914307,-1.7002825736999512
1701104909440585500,6.88058544921875,3.4890875816345215,-6.093735218048096,-2.4248046875
1701104909457568800,6.89756884765625,3.3726420402526855,-4.661785125732422,-2.090512275695801
1701104909474570800,6.91457080078125,2.8905184268951416,-4.121989727020264,-0.8227043151855469
1701104909491564500,6.931564453125,2.3485164642333984,-3.5426740646362305,-0.044310569763183594
1701104909508551400,6.948551513671875,1.4827039241790771,-3.091139554977417,-0.21166419982910156
1701104909525553200,6.96555322265625,0.553327739238739,-2.7744076251983643,-1.041254997253418
1701104909542545700,6.982545654296875,0.13345766067504883,-2.2796037197113037,-1.3868308067321777
1701104909559534000,6.9995341796875,0.09036514163017273,-1.495739459991455,-1.1709403991699219
1701104909576525000,7.016525146484375,-0.061360299587249756,-0.7042279243469238,-0.7582864761352539
1701104909593518800,7.033518798828125,-0.13262882828712463,0.20124006271362305,-0.2383737564086914
1701104909610510300,7.05051025390625,-0.43151119351387024,1.1496548652648926,0.09485530853271484
1701104909627496200,7.06749609375,-0.8535987734794617,1.9999337196350098,0.1689591407775879
1701104909644485600,7.084485595703125,-1.220794916152954,2.684347152709961,0.20630168914794922
1701104909661478700,7.101478759765625,-1.4577124118804932,3.2031826972961426,0.4465012550354004
1701104909678471000,7.118470947265625,-1.6593286991119385,3.6714038848876953,0.7418050765991211
1701104909695468500,7.135468505859375,-1.9933680295944214,3.9975149631500244,1.3705496788024902
1701104909712456000,7.1524560546875,-2.3591203689575195,4.184469223022461,2.0576324462890625
1701104909729454600,7.16945458984375,-2.6523938179016113,4.278931617736816,2.6166024208068848
1701104909746441200,7.186441162109375,-2.9440524578094482,4.087329387664795,3.2990899085998535
1701104909763438300,7.203438232421875,-3.1089940071105957,3.5033035278320312,4.334431171417236
1701104909780428800,7.2204287109375,-3.1083016395568848,2.7047510147094727,5.61294412612915
1701104909797426400,7.237426513671875,-3.0961661338806152,2.0951881408691406,6.656959533691406
1701104909814424800,7.2544248046875,-2.8842291831970215,2.1339340209960938,7.298919677734375
1701104909831404500,7.271404541015625,-2.403963565826416,2.398495674133301,7.757319450378418
1701104909848404500,7.288404541015625,-1.3476417064666748,2.774946689605713,7.974891662597656
1701104909865398300,7.305398193359375,-0.09112536907196045,3.1137304306030273,8.111202239990234
1701104909882388200,7.32238818359375,0.724176287651062,2.999958038330078,8.356969833374023
1701104909899371500,7.33937158203125,0.5357567667961121,2.4772558212280273,8.815718650817871
1701104909916376600,7.35637646484375,-0.28809916973114014,1.3628349304199219,9.613100051879883
1701104909933364000,7.373364013671875,-0.9504309296607971,0.16626548767089844,10.58395767211914
1701104909950359000,7.390359130859375,-1.1383904218673706,0.11447000503540039,10.87307357788086
1701104909967342600,7.407342529296875,-0.9914267659187317,1.3228034973144531,10.138334274291992
1701104909984356900,7.42435693359375,-0.7473112940788269,2.609926700592041,8.870011329650879
1701104910001341000,7.4413408203125,-0.5634952187538147,2.900155544281006,7.542878150939941
1701104910018323000,7.458322998046875,-0.2066284418106079,1.9321527481079102,6.326901912689209
1701104910035325200,7.4753251953125,0.4427056312561035,0.16949129104614258,5.6757426261901855
1701104910052314000,7.492314208984375,0.9282805919647217,-1.4194293022155762,5.014009475708008
1701104910069307600,7.5093076171875,1.3089032173156738,-1.918327808380127,3.8519105911254883
1701104910086299000,7.526298828125,1.545743703842163,-1.7043609619140625,2.6793508529663086
1701104910103292000,7.5432919921875,1.7516837120056152,-1.1501517295837402,1.3981399536132812
1701104910120281600,7.560281494140625,1.8945441246032715,-0.7827849388122559,0.23751449584960938
1701104910137279500,7.577279541015625,2.0600478649139404,-0.8384099006652832,-0.6045684814453125
1701104910154261000,7.594260986328125,2.251465320587158,-1.0876893997192383,-1.3128528594970703
1701104910171262200,7.61126220703125,2.4789185523986816,-1.5526659488677979,-1.790454387664795
1701104910188253400,7.62825341796875,2.594721794128418,-1.904750108718872,-2.316054344177246
1701104910205247000,7.6452470703125,2.6475777626037598,-2.066187858581543,-2.9949564933776855
1701104910222238200,7.66223828125,2.802044630050659,-2.23085618019104,-3.463057518005371
1701104910239232000,7.67923193359375,3.130645990371704,-2.4845287799835205,-3.7504749298095703
1701104910256223200,7.69622314453125,3.513112783432007,-2.9027509689331055,-3.8949480056762695
1701104910273216800,7.713216796875,3.970767021179199,-3.783972978591919,-3.677687644958496
1701104910290208500,7.73020849609375,4.458714008331299,-4.592728614807129,-3.430093765258789
1701104910307202000,7.7472021484375,4.7982306480407715,-5.32620906829834,-3.0543746948242188
1701104910324184300,7.764184326171875,4.9959259033203125,-6.068663597106934,-2.6389970779418945
1701104910341184000,7.78118408203125,5.286687850952148,-6.803489685058594,-2.0419673919677734
1701104910358162000,7.798161865234375,5.5496015548706055,-7.267364501953125,-1.7495594024658203
1701104910375171600,7.815171630859375,5.614620208740234,-7.188684940338135,-1.9293222427368164
1701104910392162600,7.83216259765625,5.284298896789551,-6.897627830505371,-1.7019200325012207
1701104910409155800,7.84915576171875,4.416751861572266,-6.97810173034668,-0.9401865005493164
1701104910426137600,7.8661376953125,3.4392709732055664,-7.320888996124268,0.092803955078125
1701104910443141400,7.883141357421875,2.5752389430999756,-7.606784820556641,0.32421302795410156
1701104910460130000,7.900130126953125,2.3793933391571045,-7.241877555847168,-0.7615518569946289
1701104910477128200,7.917128173828125,2.6272976398468018,-5.855836868286133,-1.894676685333252
1701104910494117400,7.934117431640625,2.4893369674682617,-4.041935443878174,-1.95294189453125
1701104910511111200,7.951111083984375,1.3754080533981323,-2.816976308822632,-1.1580705642700195
1701104910528098000,7.96809814453125,-0.24109411239624023,-2.346874952316284,-0.026609420776367188
1701104910545103000,7.98510302734375,-1.1374731063842773,-1.9007740020751953,0.5254650115966797
1701104910562084400,8.00208447265625,-1.0311189889907837,-1.5498957633972168,0.05520057678222656
1701104910579081000,8.0190810546875,-0.633209228515625,-1.431119441986084,-1.182281494140625
1701104910596072000,8.036072021484374,-0.277285099029541,-1.2651290893554688,-2.1658449172973633
1701104910613065700,8.053065673828126,-0.022057056427001953,-0.773789644241333,-2.112673759460449
1701104910630057000,8.070056884765625,-0.13433319330215454,0.18435335159301758,-1.3644485473632812
1701104910647048700,8.087048583984375,-0.5648643970489502,1.3259100914001465,-0.8767538070678711
1701104910664044000,8.1040439453125,-0.9815369248390198,2.4438633918762207,-0.8335294723510742
1701104910681035300,8.12103515625,-1.1756144762039185,3.2380833625793457,-0.9461326599121094
1701104910698026800,8.13802685546875,-1.173093318939209,3.7279152870178223,-1.1386065483093262
1701104910715020500,8.1550205078125,-1.1163238286972046,4.044735431671143,-1.240626335144043
1701104910732011500,8.172011474609375,-1.2707449197769165,4.089835166931152,-0.7349977493286133
1701104910749005300,8.18900537109375,-1.413555383682251,4.272841453552246,0.11582326889038086
1701104910765996500,8.20599658203125,-1.5983176231384277,4.495843887329102,1.050126552581787
1701104910782990300,8.222990234375,-1.8912386894226074,4.352662086486816,1.9894156455993652
1701104910799981000,8.23998095703125,-2.33855938911438,3.9255189895629883,2.645918846130371
1701104910816975000,8.25697509765625,-2.600461006164551,3.265589475631714,3.142159938812256
1701104910833966300,8.27396630859375,-2.67692494392395,2.729778289794922,3.730386257171631
1701104910850960100,8.290960205078125,-2.6758739948272705,2.329592704772949,4.814826011657715
1701104910867951000,8.307951171875,-2.403458595275879,2.345564842224121,5.639682769775391
1701104910884946200,8.3249462890625,-2.0541696548461914,2.088542938232422,6.384642601013184
1701104910901934800,8.341934814453126,-1.358285665512085,1.7197437286376953,6.979915142059326
1701104910918930000,8.358929931640626,-0.510952353477478,1.3944311141967773,7.3922438621521
1701104910935919600,8.375919677734375,0.09148524701595306,1.353299617767334,7.667063236236572
1701104910952915200,8.392915283203125,0.5836743712425232,1.674191951751709,8.056413650512695
1701104910969906000,8.409906005859375,0.8961642980575562,2.0369553565979004,8.707914352416992
1701104910986899700,8.426899658203125,0.8006561398506165,2.1709485054016113,9.481937408447266
1701104911003890400,8.443890380859376,-0.3208698332309723,2.2932114601135254,9.975845336914062
1701104911020884200,8.46088427734375,-1.3548121452331543,1.570028305053711,10.527379989624023
1701104911037865200,8.477865234375,-0.9666962623596191,0.8055758476257324,10.755401611328125
1701104911054869200,8.494869140625,-0.2719656825065613,0.5858464241027832,10.22618579864502
1701104911071860500,8.511860595703125,-0.10097736120223999,0.6834945678710938,8.821601867675781
1701104911088854000,8.52885400390625,-0.3082391619682312,1.301116943359375,6.4032769203186035
1701104911105834800,8.545834716796875,-0.2851698398590088,1.768484115600586,4.4594035148620605
1701104911122839000,8.562839111328126,-0.01755237579345703,1.7552423477172852,3.4559268951416016
1701104911139830000,8.579830078125,0.8427727818489075,1.403613567352295,2.6174068450927734
1701104911156823300,8.5968232421875,2.3214659690856934,0.6418514251708984,2.0139355659484863
1701104911173815600,8.613815673828125,3.6804819107055664,-0.3759040832519531,1.3716979026794434
1701104911190796300,8.63079638671875,4.869537353515625,-0.970428466796875,0.4189586639404297
1701104911207799800,8.6477998046875,5.645542621612549,-1.4363641738891602,-0.0013756752014160156
1701104911224791000,8.664791015625,5.902381896972656,-1.2943034172058105,-0.1788311004638672
1701104911241787400,8.681787353515626,5.8132805824279785,-0.850243091583252,-0.21031904220581055
1701104911258777900,8.69877783203125,5.41987419128418,-0.36719226837158203,-0.2500638961791992
1701104911275769600,8.71576953125,5.428250312805176,0.16439199447631836,-0.5085830688476562
1701104911292763400,8.732763427734374,5.92703914642334,0.3869800567626953,-0.7237582206726074
1701104911309755000,8.7497548828125,6.6526994705200195,0.4094986915588379,-0.822239875793457
1701104911326746000,8.76674609375,7.398192405700684,0.4555506706237793,-0.6785268783569336
1701104911343742000,8.783741943359376,7.705636978149414,0.5175538063049316,-0.32995033264160156
1701104911360733000,8.80073291015625,7.76220178604126,0.6562743186950684,-0.6048402786254883
1701104911377724400,8.817724365234374,7.537822246551514,0.5903875827789307,-1.4080171585083008
1701104911394718200,8.83471826171875,7.411036491394043,0.27146100997924805,-2.2014312744140625
1701104911411709200,8.851709228515626,7.393097877502441,-0.17197465896606445,-2.8156890869140625
1701104911428703500,8.868703369140626,7.115346431732178,-0.6519739627838135,-3.1990718841552734
1701104911445700400,8.885700439453124,6.878875732421875,-1.088062047958374,-3.4565649032592773
1701104911462688000,8.90268798828125,6.673638343811035,-1.258683204650879,-3.7777485847473145
1701104911479679000,8.919678955078124,6.478914737701416,-1.34745192527771,-3.8305654525756836
1701104911496672800,8.9366728515625,6.141763687133789,-1.7109522819519043,-3.1742191314697266
1701104911513664000,8.9536640625,5.514255523681641,-2.0257985591888428,-2.4141364097595215
1701104911530657800,8.97065771484375,4.87782096862793,-2.2200827598571777,-1.484914779663086
1701104911547648800,8.987648681640625,4.051271438598633,-2.5550215244293213,-0.9273490905761719
1701104911564642600,9.004642578125,3.1097207069396973,-3.211909532546997,-1.085127830505371
1701104911581620700,9.021620849609375,2.1686315536499023,-3.9626035690307617,-1.410567283630371
1701104911598624300,9.038624267578125,1.4525471925735474,-4.275028228759766,-2.104409694671631
1701104911615620600,9.05562060546875,1.0085959434509277,-4.395053863525391,-2.7443370819091797
1701104911632612400,9.0726123046875,0.36233973503112793,-4.389596939086914,-2.467794418334961
1701104911649603800,9.089603759765625,-0.885434627532959,-4.2470574378967285,-1.65478515625
1701104911666597400,9.106597412109375,-2.129100799560547,-4.134283065795898,-0.5875053405761719
1701104911683588400,9.12358837890625,-2.6550564765930176,-4.052480697631836,0.045882225036621094
1701104911700582000,9.140581787109374,-1.393809199333191,-3.0252108573913574,0.05370807647705078
1701104911717573400,9.157573486328126,0.4922335743904114,-1.4854741096496582,0.7538604736328125
1701104911734562800,9.174562744140625,1.572204828262329,-0.24456787109375,2.2471418380737305
1701104911751558700,9.19155859375,1.4217146635055542,0.4300203323364258,3.407939910888672
1701104911768545300,9.208545166015625,-0.02189326286315918,0.2948436737060547,3.62298583984375
1701104911785533400,9.225533447265626,-1.8131815195083618,0.1151738166809082,2.8101511001586914
1701104911802526200,9.242526123046876,-3.4009034633636475,0.23283910751342773,1.4683361053466797
1701104911819520300,9.259520263671876,-4.038498401641846,0.7570095062255859,0.5838327407836914
1701104911836515800,9.276515869140624,-3.8798420429229736,1.7941412925720215,0.266664981842041
1701104911853506000,9.293506103515625,-3.342299461364746,2.453195095062256,0.7776165008544922
1701104911870494200,9.310494140625,-2.7611782550811768,2.8848190307617188,1.936917781829834
1701104911887499800,9.327499755859375,-2.3607871532440186,3.424679756164551,2.380560874938965
1701104911904481000,9.34448095703125,-2.3907504081726074,3.7407784461975098,2.098541736602783
1701104911921480000,9.36147998046875,-2.601339340209961,3.70171856880188,1.7242708206176758
1701104911938478800,9.378478759765626,-2.6447510719299316,3.518982410430908,1.450338363647461
1701104911955467300,9.39546728515625,-2.252044200897217,3.404618263244629,1.3605775833129883
1701104911972461000,9.4124609375,-1.439909815788269,3.1866283416748047,1.7015161514282227
1701104911989452500,9.42945263671875,-0.23687490820884705,3.0271425247192383,2.295114040374756
1701104912006447900,9.44644775390625,0.8620821237564087,3.081501007080078,2.8644490242004395
1701104912023435300,9.463435302734375,1.5292435884475708,3.40889310836792,3.145282745361328
1701104912040430800,9.480430908203125,1.7957080602645874,3.7050952911376953,3.4159131050109863
1701104912057422000,9.497422119140625,2.027101516723633,4.04408597946167,3.6587557792663574
1701104912074415900,9.514415771484375,2.310851573944092,4.3694167137146,3.8270459175109863
1701104912091406800,9.53140673828125,2.4490575790405273,4.450257301330566,3.8974685668945312
1701104912108391000,9.548390869140626,2.4623262882232666,4.373139381408691,3.4553542137145996
1701104912125392100,9.56539208984375,2.64656925201416,4.076659202575684,3.2157206535339355
1701104912142385700,9.5823857421875,3.0296788215637207,3.717094898223877,3.586137294769287
1701104912159376600,9.599376708984375,3.1377639770507812,3.464444637298584,4.649478435516357
1701104912176360400,9.6163603515625,2.4994654655456543,3.321072578430176,6.057042121887207
1701104912193355800,9.633355712890625,1.6995718479156494,3.3135313987731934,7.169321060180664
1701104912210355500,9.65035546875,1.3525826930999756,2.890566825866699,8.244829177856445
1701104912227347000,9.667346923828125,2.0287280082702637,2.0933752059936523,9.543699264526367
1701104912244331000,9.6843310546875,3.289437770843506,1.0077729225158691,11.110637664794922
1701104912261326600,9.70132666015625,4.214420795440674,-0.11005163192749023,12.029499053955078
1701104912278328600,9.71832861328125,4.696291923522949,-0.3184189796447754,11.376840591430664
1701104912295316200,9.735316162109376,4.806975364685059,-0.29705381393432617,9.799213409423828
1701104912312309800,9.752309814453126,5.210978984832764,-0.7720832824707031,8.587348937988281
1701104912329301500,9.769301513671875,5.920078277587891,-1.9446587562561035,7.831883907318115
1701104912346284800,9.786284912109375,6.700109958648682,-2.7992916107177734,6.7188005447387695
1701104912363285800,9.80328564453125,7.220103740692139,-3.0057597160339355,5.387411117553711
1701104912380277000,9.820277099609376,7.122847557067871,-2.8020505905151367,4.221735954284668
1701104912397273600,9.837273681640625,6.561676979064941,-2.552283763885498,2.9760427474975586
1701104912414264600,9.8542646484375,5.895475387573242,-2.391042470932007,1.3971118927001953
1701104912431255600,9.871255615234375,5.339832305908203,-2.618501663208008,-0.4058666229248047
1701104912448249600,9.88824951171875,5.386118412017822,-2.9859209060668945,-2.123887062072754
1701104912465241000,9.905240966796875,6.095176696777344,-3.162959337234497,-3.4955453872680664
1701104912482234400,9.922234375,6.745561122894287,-3.5283422470092773,-4.153937339782715
1701104912499223000,9.93922314453125,6.994522571563721,-4.146732330322266,-4.351997375488281
1701104912516222000,9.956221923828124,6.6264801025390625,-5.140468120574951,-4.228301525115967
1701104912533210600,9.973210693359375,6.20924186706543,-5.703441143035889,-4.318739891052246
1701104912550204700,9.99020458984375,6.348929405212402,-5.780666351318359,-4.365029335021973
1701104912567201500,10.007201416015626,6.844082355499268,-5.870645523071289,-3.866361618041992
1701104912584178400,10.024178466796876,7.111313343048096,-6.0461745262146,-3.1069021224975586
1701104912601180400,10.041180419921876,6.834145545959473,-6.597512722015381,-1.821972370147705
1701104912618174200,10.05817431640625,6.476754188537598,-7.007518291473389,-0.6070308685302734
1701104912635165000,10.0751650390625,5.96180534362793,-7.338324546813965,0.32241153717041016
1701104912652158700,10.09215869140625,5.294528007507324,-7.592556476593018,1.075495719909668
1701104912669150000,10.10914990234375,4.586037635803223,-8.177791595458984,1.647648811340332
1701104912686133200,10.12613330078125,3.8151259422302246,-8.723276138305664,1.0974769592285156
1701104912703134700,10.143134765625,3.5771327018737793,-9.496800422668457,-0.4290494918823242
1701104912720127500,10.16012744140625,4.242374897003174,-9.684309959411621,-2.265657424926758
1701104912737110300,10.1771103515625,5.249805450439453,-9.149195671081543,-3.1599535942077637
1701104912754109400,10.194109375,5.6584906578063965,-7.947432518005371,-3.1830577850341797
1701104912771108900,10.21110888671875,5.207409858703613,-6.989191055297852,-2.377804756164551
1701104912788098600,10.2280986328125,4.002866268157959,-6.268893241882324,-1.331747055053711
1701104912805089800,10.24508984375,1.8427934646606445,-5.873109340667725,-0.21363353729248047
1701104912822083300,10.262083251953126,-0.5684537887573242,-5.440351486206055,0.3722696304321289
1701104912839074300,10.27907421875,-2.2388386726379395,-5.176558017730713,0.6564388275146484
1701104912856068000,10.296068115234375,-2.5203356742858887,-4.464766502380371,1.1686429977416992
1701104912873059300,10.313059326171874,-1.6104130744934082,-3.754185199737549,1.8479833602905273
1701104912890052600,10.330052490234374,-0.23806583881378174,-2.8650765419006348,2.965421676635742
1701104912907044000,10.347044189453126,0.9099934697151184,-1.7152581214904785,4.6362624168396
1701104912924038400,10.364038330078126,1.1833486557006836,-0.15227699279785156,5.331614971160889
1701104912941020200,10.381020263671875,0.4988413155078888,1.1275887489318848,4.956247329711914
1701104912958023000,10.39802294921875,-0.21260114014148712,2.13895845413208,4.1288580894470215
1701104912975011300,10.41501123046875,-0.6014162302017212,2.9136438369750977,3.506317138671875
1701104912992013600,10.432013671875,-0.6774458885192871,3.675158977508545,3.3651843070983887
1701104913008999200,10.448999267578126,-0.8696459531784058,4.199707508087158,3.9329171180725098
1701104913025993000,10.465992919921876,-1.4282361268997192,4.517862796783447,4.520296573638916
1701104913042983700,10.482983642578125,-2.637087345123291,4.661198139190674,4.9181671142578125
1701104913059976400,10.4999765625,-4.022609710693359,4.759607791900635,5.003289699554443
1701104913076969500,10.516969482421874,-4.834030628204346,4.873772144317627,5.177720546722412
1701104913093951200,10.533951171875,-4.892094135284424,4.849466800689697,5.55519437789917
1701104913110943000,10.55094287109375,-4.38889741897583,4.670894145965576,6.145625114440918
1701104913127934000,10.567933837890624,-3.750120162963867,4.2974467277526855,6.931019306182861
1701104913144928300,10.58492822265625,-3.3537344932556152,3.8324055671691895,7.642179489135742
1701104913161929700,10.6019296875,-3.012488842010498,3.5140275955200195,7.90830659866333
1701104913178921000,10.6189208984375,-2.0508956909179688,2.7766003608703613,8.467412948608398
1701104913195910700,10.63591064453125,-0.5763949751853943,1.40523099899292,9.746418952941895
1701104913212897300,10.652897216796875,0.7916492223739624,0.1533517837524414,11.037471771240234
1701104913229898200,10.669898193359375,1.7427403926849365,-0.27842044830322266,11.529735565185547
1701104913246887200,10.68688720703125,2.5044145584106445,0.5647463798522949,10.549684524536133
1701104913263885800,10.7038857421875,2.741642475128174,1.51426362991333,8.70107364654541
1701104913280870700,10.72087060546875,2.476820945739746,1.5921878814697266,6.912102222442627
1701104913297862400,10.7378623046875,1.6067663431167603,0.5766773223876953,5.7359232902526855
1701104913314857500,10.754857421875,0.6857415437698364,-1.0397186279296875,5.161379814147949
1701104913331857000,10.77185693359375,0.1489306092262268,-2.5941100120544434,4.604926109313965
1701104913348837000,10.788837158203124,0.1749102920293808,-3.8043103218078613,3.865865707397461
1701104913365831200,10.8058310546875,0.8312019109725952,-4.112547397613525,2.6089067459106445
1701104913382832400,10.822832275390626,1.8626759052276611,-3.8343377113342285,1.2259769439697266
1701104913399826200,10.839826171875,2.7511065006256104,-3.505527973175049,0.3355073928833008
1701104913416817700,10.856817626953125,3.3129496574401855,-3.359590768814087,-0.34184741973876953
1701104913433811500,10.8738115234375,3.553295373916626,-3.515302896499634,-0.8175106048583984
1701104913450802200,10.89080224609375,3.7307353019714355,-4.1178388595581055,-1.2273173332214355
1701104913467796000,10.9077958984375,4.184259414672852,-4.623868942260742,-1.9565000534057617
1701104913484787500,10.924787353515624,4.617434978485107,-5.2186174392700195,-2.604079246520996
1701104913501781000,10.941781005859376,5.24937105178833,-5.765637397766113,-3.0403552055358887
1701104913518772000,10.95877197265625,5.854414939880371,-6.57033634185791,-3.1714468002319336
1701104913535764500,10.975764404296875,6.2545061111450195,-7.550658702850342,-3.0725746154785156
1701104913552758300,10.99275830078125,6.466378211975098,-8.135759353637695,-2.984349250793457
1701104913569750800,11.009750732421875,6.248096942901611,-8.591896057128906,-2.7913646697998047
1701104913586744800,11.026744873046875,6.062680244445801,-8.948119163513184,-2.7740936279296875
1701104913603735300,11.0437353515625,5.832637786865234,-9.232638359069824,-2.926182746887207
1701104913620726800,11.060726806640625,5.618827819824219,-9.372769355773926,-3.129183769226074
1701104913637720300,11.07772021484375,5.039214134216309,-9.670037269592285,-2.932034492492676
1701104913654711300,11.094711181640625,4.226228713989258,-10.150282859802246,-2.6513442993164062
1701104913671705300,11.111705322265625,3.4212646484375,-10.802408218383789,-2.454782485961914
1701104913688696800,11.12869677734375,2.854875326156616,-10.645782470703125,-3.2115135192871094
1701104913705698800,11.14569873046875,2.8598291873931885,-9.650585174560547,-4.0806732177734375
1701104913722673400,11.16267333984375,2.8601202964782715,-8.686592102050781,-3.8819808959960938
1701104913739670500,11.17967041015625,2.027073621749878,-8.0222749710083,-2.9971084594726562
1701104913756655900,11.19665576171875,0.7322050929069519,-7.542275905609131,-2.820803642272949
1701104913773660200,11.21366015625,-0.10253632068634033,-6.971609115600586,-3.2101306915283203
1701104913790647300,11.230647216796875,-0.2751908302307129,-6.660559177398682,-2.8723154067993164
1701104913807648500,11.2476484375,0.046572327613830566,-6.125852108001709,-1.5202302932739258
1701104913824636200,11.26463623046875,0.23155653476715088,-5.09450101852417,-0.14739608764648438
1701104913841632000,11.281632080078126,-0.1425967812538147,-4.111465930938721,0.971954345703125
1701104913858618600,11.29861865234375,-0.5286652445793152,-2.97446608543396,1.6775646209716797
1701104913875614500,11.315614501953124,-0.8051185607910156,-1.8407855033874512,2.187436103820801
1701104913892606000,11.33260595703125,-0.711260974407196,-0.8125333786010742,2.4571094512939453
1701104913909599700,11.349599853515626,-0.46063852310180664,0.02800273895263672,2.763455867767334
1701104913926589200,11.366589111328125,-0.23900263011455536,0.8243589401245117,3.410348415374756
1701104913943582700,11.383582763671875,-0.1737987995147705,1.5659327507019043,4.3996148109436035
1701104913960578600,11.40057861328125,-0.6220666170120239,2.249436378479004,5.372702121734619
1701104913977569300,11.4175693359375,-1.3826978206634521,2.7824554443359375,6.390984535217285
1701104913994560300,11.434560302734376,-2.1393775939941406,3.299985408782959,7.627221584320068
1701104914011554000,11.451553955078126,-2.681563377380371,3.419471263885498,8.760871887207031
1701104914028545500,11.468545654296875,-2.784379005432129,3.331393241882324,9.590766906738281
1701104914045539000,11.4855390625,-2.684633493423462,3.4809274673461914,10.044715881347656
1701104914062530000,11.502530029296874,-2.949026584625244,3.841691017150879,10.295008659362793
1701104914079523800,11.51952392578125,-3.3457722663879395,4.702816486358643,9.939098358154297
1701104914096515000,11.53651513671875,-3.5385146141052246,5.327751636505127,9.169731140136719
1701104914113508900,11.5535087890625,-2.9581034183502197,5.5362677574157715,8.491926193237305
1701104914130499800,11.570499755859375,-1.9367270469665527,4.931397914886475,8.341300964355469
1701104914147493600,11.58749365234375,-1.0132646560668945,3.996518135070801,8.386336326599121
1701104914164474600,11.604474609375,-0.35208362340927124,2.871188163757324,9.207246780395508
1701104914181477000,11.62147705078125,0.06946378946304321,2.416090488433838,10.288902282714844
1701104914198471000,11.638470947265626,0.23240435123443604,3.1425228118896484,11.179304122924805
1701104914215463400,11.65546337890625,-0.5020580291748047,4.299511432647705,11.470386505126953
1701104914232455000,11.672454833984375,-1.6296645402908325,4.704784393310547,11.37989616394043
1701104914249448400,11.689448486328125,-2.164978504180908,3.8964877128601074,10.785164833068848
1701104914266439200,11.706439208984374,-1.6499814987182617,2.0974011421203613,9.743581771850586
1701104914283433000,11.723432861328124,-0.4474717378616333,-0.16028594970703125,8.61111068725586
1701104914300424400,11.740424560546876,0.7275879979133606,-2.182187557220459,7.424023628234863
1701104914317418200,11.757418212890625,1.7967368364334106,-3.2719717025756836,6.088037014007568
1701104914334409200,11.7744091796875,2.243673801422119,-3.853592872619629,4.807575702667236
1701104914351402800,11.79140283203125,2.420400381088257,-4.0467448234558105,3.513662338256836
1701104914368394200,11.808394287109374,2.4573278427124023,-4.139223575592041,2.2823734283447266
1701104914385388000,11.825387939453124,2.4879679679870605,-4.090173721313477,1.0768699645996094
1701104914402378800,11.842378662109375,2.518521547317505,-4.076915740966797,0.03658294677734375
1701104914419372300,11.859372314453125,2.446117877960205,-4.098881721496582,-0.8230981826782227
1701104914436364300,11.8763642578125,2.5039563179016113,-4.27528190612793,-1.5041508674621582
1701104914453357600,11.893357666015625,2.9455628395080566,-4.442075729370117,-2.2077994346618652
1701104914470348500,11.9103486328125,3.4444704055786133,-4.625748157501221,-2.8206229209899902
1701104914487353000,11.92735302734375,3.786670207977295,-4.749781131744385,-3.358977794647217
1701104914504329200,11.9443291015625,3.9953773021698,-4.874543190002441,-3.853240966796875
1701104914521325000,11.961324951171875,4.3265156745910645,-5.089670658111572,-4.166597366333008
1701104914538321000,11.97832080078125,4.3691558837890625,-5.443933486938477,-4.407924652099609
1701104914555312000,11.99531201171875,4.298060417175293,-6.017941474914551,-4.436751365661621
1701104914572303400,12.012303466796874,4.503663539886475,-6.499261379241943,-4.53139066696167
1701104914589297400,12.02929736328125,4.854282855987549,-7.207380294799805,-4.526042461395264
1701104914606288100,12.0462880859375,5.348908424377441,-7.765305519104004,-4.533428192138672
1701104914623282000,12.063281982421875,5.746550559997559,-8.444284439086914,-4.068323135375977
1701104914640265000,12.080264892578125,6.196210861206055,-8.874967575073242,-3.2191805839538574
1701104914657269500,12.09726953125,6.23524284362793,-8.957003593444824,-2.144866943359375
1701104914674258000,12.1142578125,5.419052600860596,-9.185133934020996,-0.617340087890625
1701104914691251500,12.13125146484375,3.8749966621398926,-9.534223556518555,0.17850875854492188
1701104914708240400,12.148240478515625,2.705868721008301,-9.758282661437988,-0.3466806411743164
1701104914725239300,12.1652392578125,2.4557876586914062,-9.219108581542969,-1.6437735557556152
1701104914742227700,12.182227783203125,2.9195685386657715,-7.764991283416748,-2.6293182373046875
1701104914759221200,12.19922119140625,3.145737648010254,-6.405580043792725,-2.0295982360839844
1701104914776212700,12.216212646484376,2.468808889389038,-5.619035720825195,-0.1794137954711914
1701104914793206500,12.23320654296875,1.1718659400939941,-4.802286148071289,1.1740474700927734
1701104914810197200,12.250197265625,-0.7145877480506897,-4.181092739105225,1.0072240829467773
1701104914827180500,12.2671806640625,-2.5105977058410645,-3.7171804904937744,-0.41632080078125
1701104914844172300,12.28417236328125,-3.539992570877075,-3.4822278022766113,-1.9736957550048828
1701104914861176300,12.30117626953125,-3.4903512001037598,-3.3314359188079834,-3.066438674926758
1701104914878167000,12.3181669921875,-2.525662899017334,-3.353074073791504,-3.1321964263916016
1701104914895160800,12.335160888671876,-0.9250538349151611,-3.2654659748077393,-1.9812493324279785
1701104914912152000,12.352152099609375,0.4854966402053833,-3.0277323722839355,-0.48184776306152344
1701104914929146000,12.36914599609375,1.6224573850631714,-2.428713321685791,0.6740541458129883
1701104914946136800,12.38613671875,2.472658157348633,-1.85166597366333,1.7280387878417969
1701104914963130600,12.403130615234375,3.01492977142334,-1.1796469688415527,2.8593344688415527
1701104914980118300,12.4201181640625,3.030674695968628,-0.35297536849975586,4.174332141876221
1701104914997110500,12.437110595703125,1.8796567916870117,0.3793210983276367,5.443873882293701
1701104915014106600,12.454106689453125,0.24603649973869324,1.338531494140625,5.712153434753418
1701104915031100400,12.471100341796875,-0.8297200202941895,2.17899751663208,5.566901683807373
1701104915048092000,12.488091796875,-0.7693592309951782,2.4344654083251953,6.28540563583374
1701104915065086000,12.5050859375,0.004959583282470703,2.5099682807922363,7.566060543060303
1701104915082064000,12.52206396484375,0.6415740251541138,2.991008758544922,8.515674591064453
1701104915099058200,12.53905810546875,0.9513077735900879,4.053403854370117,9.129087448120117
1701104915116054500,12.556054443359375,1.4598689079284668,5.246021270751953,9.767446517944336
1701104915133057500,12.5730576171875,2.5698416233062744,5.699893951416016,10.98615550994873
1701104915150046200,12.590046142578124,3.9890236854553223,5.143740653991699,12.805562019348145
1701104915167040000,12.6070400390625,5.232629299163818,4.783897399902344,14.1110200881958
1701104915184028700,12.624028564453125,5.577785015106201,4.085303783416748,15.217864990234375
1701104915201026600,12.641026611328124,5.210028648376465,3.6812191009521484,15.367061614990234
1701104915218017000,12.65801708984375,4.190375804901123,3.7661027908325195,13.82668685913086
1701104915235007700,12.6750078125,2.7220866680145264,3.780803680419922,11.56545639038086
1701104915252000300,12.692000244140624,1.2128328084945679,3.230457305908203,9.679128646850586
1701104915268984000,12.708984130859376,0.07845574617385864,2.456364631652832,8.149123191833496
1701104915285974000,12.72597412109375,-0.6640719771385193,1.3758397102355957,7.105985164642334
1701104915302978600,12.742978515625,-0.8449593782424927,0.14896821975708008,6.673359394073486
1701104915319959300,12.759959228515624,-0.5180584788322449,-0.8930826187133789,6.439123630523682
1701104915336962300,12.77696240234375,-0.2118808925151825,-1.6925630569458008,5.956493377685547
1701104915353950000,12.793949951171875,0.05223512649536133,-2.02913236618042,5.10634183883667
1701104915370946600,12.810946533203126,0.47796663641929626,-1.938352108001709,3.929171085357666
1701104915387931100,12.82793115234375,0.9788243770599365,-1.8016138076782227,2.813040256500244
1701104915404935400,12.844935302734376,1.4318923950195312,-2.0602188110351562,2.0145668983459473
1701104915421925000,12.861925048828125,1.6609039306640625,-2.3212599754333496,1.1108245849609375
1701104915438918700,12.878918701171875,1.8793232440948486,-2.4585790634155273,0.010265350341796875
1701104915455910100,12.89591015625,2.093651533126831,-2.5208287239074707,-1.0090351104736328
1701104915472904200,12.912904296875,2.455152750015259,-2.6934814453125,-1.6708984375
1701104915489895000,12.92989501953125,2.821614980697632,-3.2350268363952637,-1.8806943893432617
1701104915506886700,12.94688671875,3.21978759765625,-4.033912181854248,-1.8595142364501953
1701104915523882000,12.963882080078125,3.804715633392334,-4.792913436889648,-1.9471511840820312
1701104915540873700,12.980873779296875,4.274361610412598,-5.501742362976074,-2.1197423934936523
1701104915557854200,12.997854248046876,4.5130295753479,-6.160604476928711,-2.3621363639831543
1701104915574858200,13.014858154296874,4.687705039978027,-6.959855079650879,-2.521968364715576
1701104915591849700,13.031849609375,4.842700004577637,-8.199932098388672,-2.371743679046631
1701104915608843800,13.04884375,5.4928364753723145,-9.15314769744873,-2.8065500259399414
1701104915625823700,13.06582373046875,6.582751274108887,-9.390645980834961,-3.5968260765075684
1701104915642828000,13.082828125,6.707917213439941,-9.743230819702148,-3.7184243202209473
1701104915659810000,13.09981005859375,5.703629493713379,-10.340248107910156,-3.698272705078125
1701104915676810500,13.116810546875,4.695112705230713,-10.997553825378418,-3.410982608795166
1701104915693806600,13.133806640625,4.481319904327393,-11.04379940032959,-3.414999485015869
1701104915710797800,13.1507978515625,5.134964466094971,-9.826217651367188,-3.8933024406433105
1701104915727789300,13.167789306640625,5.462201118469238,-8.184723854064941,-3.8166418075561523
1701104915744783000,13.184783203125,4.4240827560424805,-7.274066925048828,-3.050640106201172
1701104915761773800,13.20177392578125,2.721652030944824,-6.758024215698242,-2.481815814971924
1701104915778767400,13.218767333984376,1.5521043539047241,-6.269700050354004,-2.8945178985595703
1701104915795758800,13.2357587890625,0.8659172654151917,-5.886526107788086,-3.7178006172180176
1701104915812752600,13.252752685546875,0.6438918113708496,-5.344358444213867,-4.272814750671387
1701104915829738500,13.269738525390625,0.5433380603790283,-4.851726531982422,-4.38977575302124
1701104915846739000,13.286739013671875,0.9164039492607117,-4.169304847717285,-3.6378173828125
1701104915863724500,13.303724609375,1.0481704473495483,-3.341600179672241,-2.2834601402282715
1701104915880728600,13.320728515625,0.9266065359115601,-2.3923745155334473,-0.9265141487121582
1701104915897711600,13.337711669921875,0.5427913665771484,-1.3811373710632324,0.16800498962402344
1701104915914707000,13.35470703125,0.16690820455551147,-0.6406121253967285,0.9677972793579102
1701104915931698400,13.371698486328125,0.13039430975914001,-0.08603143692016602,1.8726091384887695
1701104915948683300,13.388683349609375,0.23435643315315247,0.4687943458557129,3.1212658882141113
1701104915965673200,13.405673095703126,-0.003712870180606842,1.123997688293457,4.448659896850586
1701104915982676700,13.4226767578125,-0.658562421798706,1.691856861114502,5.5972137451171875
1701104915999668000,13.43966796875,-1.5583795309066772,2.0911879539489746,6.778987407684326
1701104916016662000,13.456662109375,-2.6887121200561523,2.3491992950439453,7.806584358215332
1701104916033652700,13.47365283203125,-3.1521313190460205,2.3323802947998047,8.852783203125
1701104916050654500,13.490654541015624,-2.6835317611694336,2.566589832305908,9.848069190979004
1701104916067638300,13.50763818359375,-2.012530565261841,3.059814453125,10.92941665649414
1701104916084631600,13.524631591796876,-1.6740281581878662,4.038036346435547,11.631664276123047
1701104916101619000,13.541618896484374,-1.6705012321472168,4.886271953582764,12.189891815185547
1701104916118620000,13.558619873046876,-1.4168895483016968,4.7137227058410645,13.099952697753906
1701104916135607600,13.575607666015625,-0.5954210758209229,4.242779731750488,13.756990432739258
1701104916152601600,13.5926015625,0.06653010845184326,3.395782470703125,14.135147094726562
1701104916169592600,13.609592529296876,0.3331620693206787,2.927915096282959,13.691984176635742
1701104916186586000,13.626586181640626,0.1271546483039856,3.2479381561279297,12.383391380310059
1701104916203577300,13.643577392578125,-0.5379475951194763,3.7894320487976074,10.526750564575195
1701104916220571400,13.6605712890625,-1.064540982246399,3.8617491722106934,8.683412551879883
1701104916237561900,13.677561767578124,-1.2402758598327637,3.2539501190185547,7.247272491455078
1701104916254555600,13.6945556640625,-1.1404471397399902,2.218639373779297,6.104801654815674
1701104916271544600,13.711544677734375,-0.8534485101699829,0.9570064544677734,5.15563440322876
1701104916288530400,13.728530517578125,-0.5346708297729492,-0.2334294319152832,4.332682132720947
1701104916305532000,13.745531982421875,0.042419761419296265,-0.938931941986084,3.505573272705078
1701104916322525400,13.762525390625,0.6772793531417847,-1.1584725379943848,2.7582430839538574
1701104916339517000,13.779516845703125,1.0581082105636597,-0.9277896881103516,1.9071106910705566
1701104916356500700,13.796500732421874,1.1820043325424194,-0.483551025390625,1.015385627746582
1701104916373501700,13.813501708984376,1.0734617710113525,-0.21346664428710938,0.2811470031738281
1701104916390495200,13.8304951171875,1.013559103012085,-0.3013935089111328,-0.29430198669433594
1701104916407487000,13.847487060546875,1.2551460266113281,-0.648470401763916,-0.9656147956848145
1701104916424470300,13.86447021484375,1.8254220485687256,-1.1886787414550781,-1.5281667709350586
1701104916441471500,13.881471435546874,2.4948697090148926,-1.6624889373779297,-2.1085500717163086
1701104916458454000,13.8984541015625,2.9594361782073975,-1.8288061618804932,-2.6883702278137207
1701104916475456300,13.915456298828126,2.476161479949951,-1.8410842418670654,-2.9314489364624023
1701104916492450000,13.932449951171876,1.8239998817443848,-2.488670825958252,-2.223219871520996
1701104916509441000,13.94944091796875,2.708237409591675,-3.716665267944336,-1.0721712112426758
1701104916526434800,13.966434814453125,4.387045860290527,-4.939548015594482,-0.47884368896484375
1701104916543423500,13.983423583984376,5.748664855957031,-6.115434646606445,0.03848075866699219
1701104916560422400,14.00042236328125,6.270989418029785,-6.97245454788208,0.019908905029296875
1701104916577410800,14.017410888671876,5.845022678375244,-7.475562572479248,-0.9785099029541016
1701104916594394600,14.03439453125,5.09036922454834,-7.939305305480957,-2.0290212631225586
1701104916611393000,14.05139306640625,4.321623802185059,-8.428143501281738,-2.482868194580078
1701104916628383700,14.0683837890625,3.4827687740325928,-8.953054428100586,-2.5857057571411133
1701104916645369900,14.085369873046876,2.62606143951416,-9.653722763061523,-2.5154504776000977
1701104916662371300,14.102371337890625,2.0577027797698975,-10.281994819641113,-2.7208199501037598
1701104916679363300,14.11936328125,1.8656328916549683,-10.409984588623047,-3.4111504554748535
1701104916696356400,14.1363564453125,2.2262485027313232,-9.234838485717773,-4.524965286254883
1701104916713341000,14.1533408203125,2.7025532722473145,-7.665387153625488,-4.839463233947754
1701104916730334200,14.170334228515625,2.7849020957946777,-6.5210371017456055,-3.678874969482422
1701104916747331000,14.1873310546875,2.3679590225219727,-5.951555252075195,-2.5189146995544434
1701104916764322000,14.204322021484375,1.5456945896148682,-5.751686096191406,-2.115042209625244
1701104916781315600,14.221315673828125,0.8064870834350586,-5.462139129638672,-2.4583959579467773
1701104916798306300,14.238306396484376,0.06428447365760803,-4.780779838562012,-3.2600717544555664
1701104916815306000,14.255305908203125,-0.7456854581832886,-3.778118848800659,-3.8164873123168945
1701104916832298800,14.272298828125,-1.7465423345565796,-2.6733057498931885,-3.5257978439331055
1701104916849289500,14.28928955078125,-2.467526912689209,-1.6691763401031494,-2.359304428100586
1701104916866283500,14.306283447265624,-2.3693156242370605,-0.6800558567047119,-0.9827075004577637
1701104916883272000,14.32327197265625,-1.7038755416870117,0.1877131462097168,0.3098735809326172
1701104916900255200,14.340255126953124,-1.3761858940124512,0.5504903793334961,1.5930652618408203
1701104916917261800,14.35726171875,-1.6120949983596802,1.0554523468017578,2.2697057723999023
1701104916934253000,14.374253173828125,-1.8960565328598022,1.6110706329345703,2.2485098838806152
1701104916951244500,14.39124462890625,-1.8119803667068481,2.1154417991638184,2.3476691246032715
1701104916968227800,14.408227783203126,-1.2022191286087036,2.648200273513794,2.9818177223205566
1701104916985229000,14.42522900390625,-0.4439324140548706,3.4296674728393555,3.6292996406555176
1701104917002222800,14.442222900390625,-0.360504150390625,3.626819133758545,4.4534196853637695
1701104917019214300,14.45921435546875,-0.46564197540283203,3.3424320220947266,5.184809684753418
1701104917036208000,14.4762080078125,-0.5415204167366028,3.115009307861328,5.840456962585449
1701104917053198800,14.49319873046875,-0.9273121953010559,2.8794755935668945,7.110022068023682
1701104917070192600,14.510192626953126,-1.4699138402938843,3.064270496368408,8.895127296447754
1701104917087185000,14.527184814453125,-1.7471147775650024,3.618093490600586,10.668111801147461
1701104917104166400,14.54416650390625,-1.1802335977554321,3.774214744567871,12.111328125
1701104917121158000,14.561157958984374,0.033580392599105835,3.6933536529541016,12.92553997039795
1701104917138159900,14.578159912109374,1.422276258468628,3.3037538528442383,13.767723083496094
1701104917155156200,14.59515625,2.4293251037597656,3.379603862762451,14.726337432861328
1701104917172147500,14.6121474609375,2.150629997253418,4.192573547363281,15.521742820739746
1701104917189138400,14.629138427734375,0.8416886925697327,5.440595626831055,15.03585147857666
1701104917206132200,14.64613232421875,-0.663240909576416,5.963785171508789,12.708839416503906
1701104917223123500,14.66312353515625,-1.76906418800354,5.185449600219727,9.728851318359375
1701104917240115000,14.680114990234374,-1.9187092781066895,3.825207233428955,7.046648979187012
1701104917257110300,14.6971103515625,-1.5228767395019531,2.091846466064453,5.319583415985107
1701104917274101800,14.714101806640626,-0.7087961435317993,0.5901341438293457,4.366730690002441
1701104917291093200,14.73109326171875,0.0940275490283966,-0.5972442626953125,4.0228190422058105
1701104917308099600,14.748099609375,0.8950340747833252,-0.9669361114501953,3.380199909210205
1701104917325078000,14.765078125,0.8682431578636169,-0.910250186920166,2.109785556793213
1701104917342069000,14.782069091796876,0.38962191343307495,-0.3579244613647461,0.3320479393005371
1701104917359065300,14.7990654296875,0.0025687366724014282,0.3133277893066406,-1.0628514289855957
1701104917376046600,14.816046630859375,0.015469610691070557,0.4996910095214844,-1.311544418334961
1701104917393047600,14.833047607421875,0.6764030456542969,0.3120722770690918,-0.947300910949707
1701104917410041300,14.850041259765625,1.6690289974212646,-0.1164083480834961,-0.8060746192932129
1701104917427032800,14.86703271484375,2.5302700996398926,-0.8336567878723145,-1.1462140083312988
1701104917444026400,14.8840263671875,3.3860952854156494,-1.6259913444519043,-1.5164785385131836
1701104917461017300,14.901017333984376,4.3767218589782715,-2.213972330093384,-1.4049725532531738
1701104917478012700,14.9180126953125,5.343935489654541,-2.6940112113952637,-0.6208353042602539
1701104917495000600,14.93500048828125,5.94523286819458,-3.412001132965088,0.37714290618896484
1701104917511995000,14.951994873046875,6.175724029541016,-4.3534255027771,1.1692266464233398
1701104917528987100,14.968987060546874,6.236776828765869,-5.365261077880859,1.3949670791625977
1701104917545981000,14.98598095703125,6.444413185119629,-6.229616165161133,1.2149486541748047
1701104917562972200,15.00297216796875,6.685868263244629,-6.911072731018066,0.5744953155517578
1701104917579967700,15.0199677734375,6.716340065002441,-7.5521979331970215,-0.21412372589111328
1701104917596955000,15.036954833984375,6.256443023681641,-8.21750259399414,-1.0065078735351562
1701104917613950500,15.053950439453125,5.356425762176514,-8.585376739501953,-1.9995498657226562
1701104917630942500,15.0709423828125,4.2970428466796875,-8.736605644226074,-3.3206300735473633
1701104917647935000,15.08793505859375,3.6747326850891113,-8.671121597290039,-4.59792947769165
1701104917664926500,15.104926513671876,3.9162063598632812,-7.876861095428467,-5.51094388961792
1701104917681920000,15.121919921875,4.130899906158447,-6.519596576690674,-5.441926002502441
1701104917698911500,15.138911376953125,3.2499749660491943,-5.542263507843018,-4.24914026260376
1701104917715905500,15.155905517578125,1.4122331142425537,-5.09600305557251,-3.0691351890563965
1701104917732896300,15.172896240234374,-0.5011929273605347,-4.599432468414307,-2.8692312240600586
1701104917749887200,15.18988720703125,-1.7040258646011353,-4.429588794708252,-3.4710216522216797
1701104917766890200,15.20689013671875,-2.101593494415283,-4.355486869812012,-4.261830806732178
1701104917783872500,15.22387255859375,-1.7003363370895386,-4.40632438659668,-4.702126979827881
1701104917800868600,15.24086865234375,-0.6500606536865234,-4.126018047332764,-4.474287033081055
1701104917817859600,15.257859619140625,0.4892852306365967,-3.4646401405334473,-3.2920875549316406
1701104917834851000,15.27485107421875,0.9378623962402344,-2.546163320541382,-1.553295612335205
1701104917851844900,15.291844970703124,0.9790365099906921,-1.307920217514038,-0.07501506805419922
1701104917868827600,15.30882763671875,0.8723552823066711,0.03311967849731445,0.526545524597168
1701104917885819000,15.32581884765625,0.7296137809753418,1.097702980041504,0.4774513244628906
1701104917902820900,15.34282080078125,0.545587420463562,1.8399877548217773,0.27781200408935547
1701104917919814700,15.359814697265625,0.45768678188323975,2.386561870574951,0.6992611885070801
1701104917936805400,15.376805419921874,0.19135931134223938,2.9276034832000732,1.7869901657104492
1701104917953788200,15.3937880859375,-0.31628915667533875,3.3575618267059326,2.8206639289855957
1701104917970781000,15.410781005859375,-0.9057157039642334,3.9182987213134766,3.261336326599121
1701104917987784400,15.427784423828125,-1.6968497037887573,4.171411991119385,3.4512906074523926
1701104918004773600,15.444773681640624,-2.4215939044952393,4.05605411529541,3.890063762664795
1701104918021770200,15.461770263671875,-2.9097180366516113,3.88775634765625,4.3593549728393555
1701104918038760200,15.47876025390625,-3.1061065196990967,3.6549601554870605,5.347243785858154
1701104918055751000,15.4957509765625,-3.3279919624328613,3.609099864959717,6.451777935028076
1701104918072748000,15.512748046875,-3.555840492248535,3.838531017303467,6.677854537963867
1701104918089736000,15.52973583984375,-3.480414867401123,3.384021282196045,6.676340103149414
1701104918106732500,15.546732666015625,-2.7627172470092773,2.3762197494506836,6.82309627532959
1701104918123723800,15.563723876953125,-1.4602367877960205,1.6342358589172363,6.831916332244873
1701104918140714500,15.580714599609376,-0.39237895607948303,1.402247428894043,6.782778263092041
1701104918157708500,15.59770849609375,0.22369708120822906,1.2877120971679688,7.08215856552124
1701104918174699800,15.61469970703125,0.648597240447998,1.3971476554870605,7.607968330383301
1701104918191693300,15.631693359375,0.25825071334838867,1.6886205673217773,8.068151473999023
1701104918208684300,15.648684326171875,-0.6590629816055298,1.828761100769043,8.477001190185547
1701104918225671000,15.6656708984375,-1.3911733627319336,0.8861675262451172,9.184345245361328
1701104918242672000,15.682672119140625,-1.5554629564285278,0.14509820938110352,9.406595230102539
1701104918259663000,15.6996630859375,-1.5901501178741455,0.11327791213989258,9.166833877563477
1701104918276653800,15.71665380859375,-1.873612403869629,0.7359352111816406,8.254711151123047
1701104918293647600,15.733647705078125,-2.1570181846618652,1.7250394821166992,6.644150733947754
1701104918310639400,15.750639404296875,-2.284137725830078,2.391026020050049,5.509375095367432
1701104918327622700,15.76762255859375,-1.8488138914108276,2.6354546546936035,4.805557727813721
1701104918344623900,15.784623779296876,-0.7398797273635864,2.217942714691162,4.319300651550293
1701104918361615000,15.801614990234375,0.7410580515861511,1.6016101837158203,3.5597429275512695
1701104918378611500,15.818611572265626,2.1135921478271484,1.033203125,2.399350166320801
1701104918395602400,15.8356025390625,3.1804921627044678,0.4698920249938965,1.2639870643615723
1701104918412593400,15.852593505859375,4.102408409118652,0.05918455123901367,0.28425025939941406
1701104918429587200,15.869587158203124,5.192235946655273,-0.27651214599609375,-0.5166635513305664
1701104918446579000,15.886578857421876,5.90619421005249,-0.2630481719970703,-1.238304615020752
1701104918463570200,15.903570068359375,5.498712539672852,-0.1165628433227539,-1.8227577209472656
1701104918480558600,15.92055859375,4.21366548538208,0.1720433235168457,-2.2307605743408203
1701104918497561300,15.937561279296874,2.9217283725738525,0.44010019302368164,-2.5544376373291016
1701104918514548200,15.95454833984375,1.9414680004119873,0.5100908279418945,-2.6878275871276855
1701104918531542000,15.9715419921875,1.86309814453125,0.7383036613464355,-2.6071043014526367
1701104918548522200,15.988522216796875,2.688899517059326,1.1796603202819824,-2.2634100914001465
1701104918565517600,16.005517578125,3.5331482887268066,1.6201534271240234,-1.7909164428710938
1701104918582518000,16.02251806640625,4.097423553466797,2.0691182613372803,-0.6330151557922363
1701104918599499500,16.03949951171875,4.180124759674072,2.551126480102539,0.4461030960083008
1701104918616498400,16.05649853515625,3.5947299003601074,2.670440435409546,0.8605055809020996
1701104918633505300,16.07350537109375,3.477586269378662,3.054088592529297,0.8739962577819824
1701104918650487800,16.09048779296875,3.9151949882507324,3.1028857231140137,1.91514253616333
1701104918667481300,16.1074814453125,4.894806861877441,2.9482383728027344,3.7421364784240723
1701104918684462000,16.124462158203126,5.70957088470459,2.605724811553955,5.187035083770752
1701104918701462800,16.141462890625,5.861220836639404,2.0220589637756348,4.831484794616699
1701104918718460700,16.158460693359373,5.874767780303955,1.44767427444458,3.218984603881836
1701104918735448600,16.175448486328126,6.123869895935059,0.9858355522155762,1.8206157684326172
1701104918752439600,16.192439453125,6.652031898498535,0.3279123306274414,1.4390621185302734
1701104918769431800,16.209431884765625,7.109813690185547,0.07307958602905273,0.9574985504150391
1701104918786418700,16.226418701171873,6.908160209655762,-0.10439586639404297,0.30408191680908203
1701104918803410000,16.243409912109374,5.963430404663086,-0.7177932262420654,-0.12374019622802734
1701104918820402200,16.260402099609376,5.0749382972717285,-1.434922218322754,-0.5018367767333984
1701104918837401600,16.277401611328123,4.53800106048584,-2.1147491931915283,-0.7944097518920898
1701104918854395100,16.29439501953125,4.132150650024414,-2.9328713417053223,-0.5877151489257812
1701104918871383000,16.311383056640626,3.466233730316162,-3.536442279815674,-0.5995407104492188
1701104918888383200,16.32838330078125,2.6633331775665283,-3.823786497116089,-1.5689430236816406
1701104918905375500,16.34537548828125,1.7263643741607666,-4.1679840087890625,-2.9134464263916016
1701104918922367000,16.362366943359376,0.5859442949295044,-4.54094123840332,-4.267313003540039
1701104918939372500,16.37937255859375,-0.765932559967041,-4.622768878936768,-5.532058238983154
1701104918956351200,16.396351318359375,-1.7672724723815918,-4.461008548736572,-6.035632133483887
1701104918973345000,16.413344970703125,-2.1478052139282227,-4.121612548828125,-5.319075584411621
1701104918990336300,16.430336181640627,-2.4048752784729004,-3.491767168045044,-3.9716529846191406
1701104919007330000,16.447330078125,-3.0889408588409424,-2.557142734527588,-3.0369105339050293
1701104919024314000,16.464314208984376,-3.952242374420166,-1.8487119674682617,-2.598695755004883
1701104919041313800,16.481313720703124,-4.558804512023926,-1.8565905094146729,-2.2916927337646484
1701104919058306000,16.49830615234375,-4.2992048263549805,-2.3974757194519043,-1.6291332244873047
1701104919075299800,16.5152998046875,-3.362812042236328,-3.0078234672546387,-0.7031145095825195
1701104919092290600,16.53229052734375,-2.747004508972168,-3.4653267860412598,0.03649330139160156
1701104919109281800,16.54928173828125,-2.2130885124206543,-3.344027519226074,0.34313201904296875
1701104919126278400,16.5662783203125,-1.737648844718933,-2.78389310836792,0.5871400833129883
1701104919143269400,16.583269287109374,-1.1404849290847778,-1.9736499786376953,1.0716218948364258
1701104919160257800,16.6002578125,-0.5981177687644958,-1.2041497230529785,1.6713247299194336
1701104919177256700,16.617256591796874,-0.30472198128700256,-0.6169257164001465,2.186689853668213
1701104919194245400,16.634245361328126,-0.019372254610061646,-0.0845346450805664,2.530141830444336
1701104919211239200,16.6512392578125,0.16995728015899658,0.34444284439086914,2.6046056747436523
1701104919228230100,16.668230224609374,0.019987180829048157,0.6575961112976074,2.6299967765808105
1701104919245224000,16.685223876953124,-0.26036229729652405,1.0342340469360352,2.6981735229492188
1701104919262214100,16.702214111328125,-0.6216816902160645,1.4584360122680664,2.8169422149658203
1701104919279206100,16.7192060546875,-0.9590151906013489,1.8488779067993164,3.125650405883789
1701104919296199700,16.73619970703125,-1.2069638967514038,2.342517375946045,3.4761271476745605
1701104919313193500,16.753193359375,-1.4670052528381348,2.756765365600586,3.7170357704162598
1701104919330183700,16.77018359375,-1.7408742904663086,3.0540642738342285,3.90916109085083
1701104919347181300,16.787181396484375,-1.9883545637130737,3.356505870819092,4.085319519042969
1701104919364161300,16.804161376953125,-2.052797317504883,3.688591957092285,4.235229969024658
1701104919381163300,16.821163330078125,-1.9854398965835571,4.0121235847473145,4.502776145935059
1701104919398154500,16.838154541015626,-1.6691060066223145,4.405107021331787,4.5740509033203125
1701104919415148500,16.8551484375,-1.2429492473602295,4.682674884796143,4.685741901397705
1701104919432139000,16.872138916015626,-0.8924510478973389,4.7325286865234375,4.900547504425049
1701104919449126000,16.8891259765625,-0.6157757043838501,4.635074615478516,5.12448263168335
1701104919466132200,16.90613232421875,-0.6785291433334351,4.385854721069336,4.873429775238037
1701104919483115800,16.92311572265625,-0.8196854591369629,4.107017517089844,4.450004577636719
1701104919500110600,16.940110595703125,-0.5595827698707581,3.644947052001953,4.680688858032227
1701104919517103000,16.95710302734375,-0.26162755489349365,3.111074447631836,5.358013153076172
1701104919534095600,16.974095703125,0.017112255096435547,2.3836069107055664,6.300111293792725
1701104919551083800,16.991083740234377,0.1383400559425354,1.4993305206298828,6.949982166290283
1701104919568077000,17.0080771484375,0.5773605108261108,0.6157617568969727,7.151806354522705
1701104919585077000,17.025076904296874,1.5890650749206543,-0.6063051223754883,7.68696403503418
1701104919602063600,17.042063720703126,2.8216116428375244,-1.5108532905578613,7.784213066101074
1701104919619057700,17.0590576171875,4.136829376220703,-1.4747300148010254,7.0665364265441895
1701104919636045800,17.0760458984375,5.204875946044922,-0.5124616622924805,5.696585178375244
1701104919653042200,17.093042236328124,5.318789005279541,-0.0005221366882324219,4.703891277313232
1701104919670036000,17.110035888671874,4.495656967163086,-0.6049995422363281,4.149667739868164
1701104919687027200,17.127027099609375,3.7241458892822266,-1.7959284782409668,3.7619681358337402
1701104919704018200,17.14401806640625,3.456019878387451,-3.0639705657958984,3.3360347747802734
1701104919721011700,17.16101171875,4.109968185424805,-3.5577502250671387,2.638369083404541
1701104919738003200,17.178003173828124,5.219886302947998,-3.0382137298583984,2.145112991333008
1701104919754996700,17.194996826171874,5.545804023742676,-2.139634132385254,1.8077750205993652
1701104919771987700,17.21198779296875,4.770761489868164,-1.219677448272705,1.2472953796386719
1701104919788981500,17.2289814453125,3.5031776428222656,-0.5291996002197266,0.8003711700439453
1701104919805973000,17.245972900390626,2.7630467414855957,-0.05276155471801758,0.5429534912109375
1701104919822966500,17.262966552734376,2.933155059814453,0.04826545715332031,0.38670921325683594
1701104919839955000,17.279954833984377,3.92439603805542,-0.060662269592285156,0.4785346984863281
1701104919856954000,17.2969541015625,4.848641395568848,-0.27678632736206055,1.078683853149414
1701104919873939700,17.313939697265624,5.262237548828125,-0.6776905059814453,1.8202896118164062
1701104919890939000,17.33093896484375,5.568331718444824,-1.1916015148162842,2.1950912475585938
1701104919907934000,17.347933837890626,5.998281478881836,-1.7147648334503174,1.7627334594726562
1701104919924907800,17.36490771484375,6.3206377029418945,-2.361468553543091,0.3453664779663086
1701104919941915400,17.381915283203124,6.976700782775879,-2.946803569793701,-1.1033401489257812
1701104919958906000,17.398906005859374,7.457951545715332,-3.7289037704467773,-1.4666061401367188
1701104919975896800,17.415896728515627,7.432247638702393,-4.244396209716797,-1.3620805740356445
1701104919992891000,17.432890869140625,6.695214748382568,-4.619822978973389,-1.170053482055664
1701104920009882000,17.449882080078126,5.583571910858154,-4.85795259475708,-1.383519172668457
1701104920026876000,17.4668759765625,4.5939741134643555,-5.170371055603027,-1.913651466369629
1701104920043864300,17.4838642578125,4.255463123321533,-5.587505340576172,-2.4303436279296875
1701104920060862700,17.50086279296875,4.675224781036377,-6.206706523895264,-2.6218490600585938
1701104920077841200,17.517841064453126,5.146451473236084,-6.74424934387207,-2.689918041229248
1701104920094837000,17.5348369140625,5.03641414642334,-7.342113494873047,-2.4395980834960938
1701104920111826000,17.551825927734374,4.036532402038574,-8.200728416442871,-1.707200527191162
1701104920128824800,17.568824951171877,2.1836793422698975,-9.040205001831055,-1.6447343826293945
1701104920145812200,17.585812255859373,0.8204102516174316,-9.771013259887695,-2.6912121772766113
1701104920162809600,17.6028095703125,0.5274858474731445,-10.44731616973877,-4.081754207611084
1701104920179805200,17.61980517578125,1.7626194953918457,-10.8349609375,-4.696052551269531
1701104920196797000,17.636796875,3.404433250427246,-10.78099250793457,-3.436147689819336
1701104920213781000,17.653781005859376,3.432548761367798,-9.781511306762695,-1.4734277725219727
1701104920230774300,17.670774169921874,1.6488782167434692,-8.365687370300293,-0.3132057189941406
1701104920247772700,17.687772705078125,-0.4839586019515991,-7.256671905517578,0.42293453216552734
1701104920264759300,17.70475927734375,-2.058502197265625,-6.66732120513916,1.5019350051879883
1701104920281751800,17.721751708984375,-2.408158302307129,-6.164095878601074,2.9403820037841797
1701104920298744300,17.738744384765624,-1.970194697380066,-5.611288070678711,4.285247802734375
1701104920315733200,17.755733154296873,-1.289323091506958,-5.0740275382995605,5.416276931762695
1701104920332739000,17.772739013671874,-0.6162697672843933,-4.183278560638428,6.647083282470703
1701104920349730800,17.789730712890623,-0.24416160583496094,-2.8964357376098633,7.221802234649658
1701104920366720800,17.806720703125,-0.4394482374191284,-1.4390273094177246,6.726257801055908
1701104920383704800,17.823704833984376,-0.6514615416526794,0.07857084274291992,5.82673454284668
1701104920400706300,17.840706298828124,-0.6952505707740784,1.34873628616333,5.234724044799805
1701104920417700000,17.8577001953125,-0.9014012813568115,2.5581841468811035,4.76694917678833
1701104920434696700,17.87469677734375,-1.2263200283050537,3.806070327758789,4.6409010887146
1701104920451685000,17.89168505859375,-1.4638677835464478,5.011066913604736,4.3515472412109375
1701104920468678700,17.9086787109375,-1.655735731124878,5.8402934074401855,3.9389524459838867
1701104920485675800,17.92567578125,-1.7009003162384033,6.160222053527832,3.692361354827881
1701104920502653200,17.942653076171876,-1.7192832231521606,6.220695495605469,3.5644588470458984
1701104920519654700,17.959654541015624,-1.8425734043121338,6.103029251098633,3.635495662689209
1701104920536648200,17.976648193359374,-1.887196660041809,5.956321716308594,3.683478355407715
1701104920553639700,17.9936396484375,-2.1772193908691406,5.856696128845215,3.727287769317627
1701104920570633500,18.010633544921873,-2.437844753265381,5.773566246032715,3.9097466468811035
1701104920587626200,18.027626220703127,-2.7503795623779297,5.663352012634277,3.833043098449707
1701104920604616200,18.0446162109375,-2.9785099029541016,5.223460674285889,3.975775718688965
1701104920621616400,18.061616455078124,-2.965385675430298,4.628396034240723,4.366841793060303
1701104920638605800,18.078605712890624,-2.9111080169677734,3.806704521179199,4.872767448425293
1701104920655594000,18.095593994140625,-2.5324745178222656,2.9597973823547363,5.43835973739624
1701104920672587500,18.11258740234375,-1.8783694505691528,2.036858081817627,5.857508182525635
1701104920689579300,18.129579345703124,-1.2221341133117676,1.17063570022583,6.21897554397583
1701104920706572800,18.14657275390625,-0.5989447832107544,0.6544156074523926,6.530914306640625
1701104920723563800,18.163563720703124,-0.1247360110282898,-0.16543817520141602,7.358712673187256
1701104920740557300,18.180557373046874,0.352014422416687,-1.2825946807861328,8.221954345703125
1701104920757548800,18.197548828125,0.8390214443206787,-2.7846059799194336,8.946392059326172
1701104920774542600,18.21454248046875,1.1682329177856445,-3.830549716949463,9.150092124938965
1701104920791533300,18.231533203125,1.3787586688995361,-3.7721076011657715,9.076215744018555
1701104920808535600,18.24853564453125,1.3770006895065308,-2.906862735748291,8.454809188842773
1701104920825518600,18.2655185546875,0.9175260066986084,-2.134275436401367,7.4314751625061035
1701104920842512400,18.282512451171876,0.5483920574188232,-2.0709147453308105,6.3024444580078125
1701104920859503000,18.299503173828125,0.4347051978111267,-2.7670984268188477,5.230048179626465
1701104920876496600,18.31649658203125,0.7613465785980225,-3.6246418952941895,4.221489906311035
1701104920893477000,18.33347705078125,1.2185261249542236,-4.644341945648193,3.498537063598633
1701104920910480100,18.350480224609374,2.1302316188812256,-5.126757621765137,2.4168834686279297
1701104920927475000,18.367474853515624,3.004822015762329,-5.225350379943848,1.1898736953735352
1701104920944456000,18.3844560546875,3.6801376342773438,-5.066366195678711,-0.10433673858642578
1701104920961438200,18.401438232421874,4.115441799163818,-4.6837897300720215,-1.4387788772583008
1701104920978453500,18.41845361328125,4.273154258728027,-4.413991451263428,-2.5488033294677734
1701104920995442400,18.4354423828125,3.9956421852111816,-4.154751777648926,-3.307941436767578
1701104921012436200,18.452436279296876,4.17440938949585,-3.859611749649048,-3.6106157302856445
1701104921029409500,18.469409423828125,4.4928388595581055,-3.735579490661621,-3.863152503967285
1701104921046421500,18.48642138671875,4.829449653625488,-3.7426891326904297,-4.292605400085449
1701104921063412200,18.503412109375,5.209156513214111,-3.7966017723083496,-4.9284796714782715
1701104921080405800,18.52040576171875,5.544886589050293,-3.7674949169158936,-5.633141994476318
1701104921097397200,18.537397216796876,5.782985687255859,-3.769679069519043,-6.153703212738037
1701104921114391300,18.554391357421874,5.810655117034912,-3.8266842365264893,-6.2263689041137695
1701104921131375000,18.571375,5.778575897216797,-3.9176018238067627,-5.97509241104126
1701104921148375800,18.588375732421873,5.735566139221191,-4.156313896179199,-5.616720676422119
1701104921165367000,18.605366943359375,5.610922813415527,-4.773715019226074,-5.198253631591797
1701104921182360600,18.622360595703125,5.5945916175842285,-5.434683322906494,-5.0565032958984375
1701104921199351600,18.6393515625,5.74729585647583,-6.271647930145264,-4.853951454162598
1701104921216345300,18.656345458984376,5.918344974517822,-6.714258193969727,-4.39955472946167
1701104921233336600,18.673336669921873,5.962433815002441,-7.311511516571045,-3.291187286376953
1701104921250330400,18.690330322265623,5.670255661010742,-7.9403276443481445,-1.8999147415161133
1701104921267321300,18.7073212890625,5.300110340118408,-8.260199546813965,-0.49330997467041016
1701104921284297500,18.72429736328125,4.715285778045654,-8.424968719482422,0.6344833374023438
1701104921301306400,18.741306396484376,3.9076297283172607,-8.697039604187012,1.6378145217895508
1701104921318300400,18.758300537109374,2.93990159034729,-8.965612411499023,2.524831771850586
1701104921335280400,18.7752802734375,1.6594971418380737,-8.560839653015137,2.803389549255371
1701104921352284700,18.79228466796875,0.45806169509887695,-7.529285907745361,2.8528175354003906
1701104921369276400,18.8092763671875,-0.05283856391906738,-5.594507217407227,2.5177745819091797
1701104921386270000,18.82627001953125,0.0006368160247802734,-3.963491678237915,1.9920978546142578
1701104921403260700,18.8432607421875,0.41068994998931885,-3.1243910789489746,1.8430356979370117
1701104921420252000,18.860251953125,0.5939738154411316,-2.615817070007324,1.8387365341186523
1701104921437248300,18.877248291015626,0.4552561044692993,-2.4669551849365234,1.973036766052246
1701104921454239700,18.89423974609375,-0.1791677474975586,-2.5196309089660645,2.0090255737304688
1701104921471231700,18.911231689453125,-1.0613019466400146,-2.393439769744873,1.8157892227172852
1701104921488223200,18.92822314453125,-1.490871548652649,-1.6518473625183105,1.4161882400512695
1701104921505215700,18.9452158203125,-1.614966869354248,-0.7139902114868164,1.1084346771240234
1701104921522209300,18.962209228515626,-1.6119673252105713,0.24204111099243164,0.9795780181884766
1701104921539200000,18.979199951171875,-1.4938634634017944,1.1716055870056152,1.1518735885620117
1701104921556183300,18.996183349609375,-1.4502655267715454,1.9223499298095703,1.399487018585205
1701104921573185300,19.013185302734374,-1.662280559539795,2.464719772338867,1.7525691986083984
1701104921590179000,19.030178955078124,-1.9089435338974,3.083789587020874,2.0388126373291016
1701104921607170000,19.047170166015626,-1.9284485578536987,3.833371162414551,2.1842308044433594
1701104921624173600,19.064173583984374,-1.9349558353424072,4.488264560699463,2.3258237838745117
1701104921641154800,19.08115478515625,-2.047940254211426,5.0650634765625,2.663210391998291
1701104921658148600,19.098148681640627,-1.9469481706619263,5.366420745849609,3.346344470977783
1701104921675139300,19.115139404296876,-2.179896116256714,5.8678412437438965,3.591660976409912
1701104921692133000,19.132133056640626,-2.6458654403686523,6.053804397583008,3.8353328704833984
1701104921709124600,19.14912451171875,-2.997093439102173,5.981006622314453,4.081863880157471
1701104921726118400,19.166118408203126,-2.906635284423828,5.761842250823975,4.419100284576416
1701104921743105500,19.18310546875,-2.299241781234741,5.107223987579346,5.324059963226318
1701104921760118800,19.200118896484376,-1.3776144981384277,4.268682479858398,6.633660793304443
1701104921777090000,19.217090087890625,-0.7731196284294128,3.765035629272461,7.784191131591797
1701104921794090500,19.234090576171877,-0.9176628589630127,3.2832179069519043,8.703527450561523
1701104921811079000,19.251078857421874,-1.116808533668518,3.1254405975341797,8.92379379272461
1701104921828062500,19.2680625,-0.654684841632843,2.6354427337646484,8.965455055236816
1701104921845064200,19.285064208984377,0.5439289212226868,1.9363212585449219,8.851995468139648
1701104921862057700,19.3020576171875,2.1457204818725586,0.6395926475524902,9.726194381713867
1701104921879048400,19.31904833984375,3.221733570098877,-1.1902360916137695,10.966026306152344
1701104921896042200,19.336042236328126,2.9367752075195312,-2.4431705474853516,10.89518928527832
1701104921913033700,19.35303369140625,1.9139909744262695,-2.4766812324523926,9.725860595703125
1701104921930027300,19.37002734375,0.8255887627601624,-1.4358606338500977,8.681306838989258
1701104921947018500,19.3870185546875,0.24524027109146118,-0.06602907180786133,7.814824104309082
1701104921964011800,19.40401171875,0.0012822449207305908,0.2625904083251953,7.0557332038879395
1701104921981001000,19.4210009765625,-0.003251969814300537,-0.9282999038696289,6.4028754234313965
1701104921997998600,19.43799853515625,0.3935432732105255,-2.5798230171203613,5.396396160125732
1701104922014989300,19.4549892578125,1.0984011888504028,-4.0807905197143555,4.19313907623291
1701104922031981600,19.471981689453123,1.8270962238311768,-4.871425151824951,2.707566261291504
1701104922048973000,19.48897314453125,2.3176000118255615,-5.073899745941162,1.3101234436035156
1701104922065966800,19.505966796875,2.7020859718322754,-4.823397159576416,-0.10263633728027344
1701104922082959400,19.52295947265625,2.721977949142456,-4.483497619628906,-1.4939041137695312
1701104922099938600,19.5399384765625,2.5206031799316406,-4.020158767700195,-3.0616846084594727
1701104922116935200,19.55693505859375,2.3971965312957764,-3.6026432514190674,-4.266838550567627
1701104922133939200,19.573939208984374,2.3595921993255615,-3.404818534851074,-4.818875789642334
1701104922150927400,19.59092724609375,2.174513816833496,-3.4397616386413574,-4.924454212188721
1701104922167921400,19.60792138671875,2.067049026489258,-3.5236430168151855,-5.1624674797058105
1701104922184912600,19.62491259765625,2.162635326385498,-3.5981884002685547,-5.578283786773682
1701104922201906200,19.64190625,2.4914400577545166,-3.664651393890381,-5.969315052032471
1701104922218897000,19.65889697265625,2.6141726970672607,-3.8261537551879883,-5.7359514236450195
1701104922235885000,19.675885009765626,2.698978900909424,-4.167900085449219,-5.070649147033691
1701104922252877300,19.692877197265624,2.680576801300049,-4.599454402923584,-4.306967735290527
1701104922269871900,19.709871826171874,2.6292319297790527,-4.962456703186035,-3.7314391136169434
1701104922286860000,19.726860107421874,2.6957600116729736,-5.374532699584961,-3.4288625717163086
1701104922303855000,19.743855224609376,3.0716116428375244,-5.895968914031982,-3.239105224609375
1701104922320840400,19.76084033203125,3.491952657699585,-6.777080535888672,-2.8321380615234375
1701104922337845000,19.777844970703125,3.994478702545166,-7.531278610229492,-2.517888069152832
1701104922354832600,19.79483251953125,4.388529300689697,-8.022232055664062,-2.330015182495117
1701104922371832300,19.811832275390625,4.594616889953613,-8.399622917175293,-1.969477653503418
1701104922388822000,19.828822021484374,4.407306671142578,-8.80253791809082,-1.3027868270874023
1701104922405807900,19.845807861328126,3.9824788570404053,-9.361442565917969,-0.6634149551391602
1701104922422804200,19.86280419921875,3.6746468544006348,-9.911495208740234,-0.5591096878051758
1701104922439788800,19.879788818359376,3.5573816299438477,-10.112577438354492,-1.0660457611083984
1701104922456791000,19.896791015625,3.9042274951934814,-9.053584098815918,-2.043577194213867
1701104922473785300,19.913785400390626,4.289298057556152,-7.53330135345459,-1.7710185050964355
1701104922490775800,19.93077587890625,4.105417251586914,-6.482451438903809,-0.14489459991455078
1701104922507759000,19.947759033203123,4.105484962463379,-5.5006914138793945,1.041025161743164
1701104922524761000,19.964760986328123,3.8435590267181396,-4.608808994293213,1.216482162475586
1701104922541755000,19.9817548828125,2.7967662811279297,-3.9449808597564697,0.5790395736694336
1701104922558745300,19.998745361328126,1.21714186668396,-3.54156494140625,-0.3290691375732422
1701104922575739100,20.0157392578125,-0.2504209280014038,-3.1143383979797363,-0.7056961059570312
1701104922592730600,20.032730712890626,-1.161102056503296,-2.5148959159851074,0.19173908233642578
1701104922609723100,20.04972314453125,-1.2289659976959229,-1.3948493003845215,1.7602310180664062
1701104922626716400,20.06671630859375,-1.3009990453720093,-0.10212278366088867,2.9678683280944824
1701104922643709000,20.083708984375,-1.6492068767547607,1.189039707183838,3.5444846153259277
1701104922660680200,20.10068017578125,-2.0256433486938477,2.2410802841186523,3.825838088989258
1701104922677696500,20.117696533203127,-2.5777840614318848,3.21518611907959,3.622486114501953
1701104922694685000,20.134684814453124,-2.8451342582702637,3.8569087982177734,3.663970947265625
1701104922711668200,20.151668212890623,-2.604823350906372,4.187788963317871,4.249659061431885
1701104922728670000,20.168669921875,-1.9342950582504272,4.521782875061035,5.209497451782227
1701104922745657600,20.18565771484375,-1.3091154098510742,4.932652473449707,5.768918991088867
1701104922762654500,20.202654541015626,-1.1211447715759277,4.989128112792969,5.940536022186279
1701104922779648300,20.219648193359376,-1.177893877029419,4.532012462615967,5.874022483825684
1701104922796640000,20.236639892578125,-1.0618510246276855,4.142307281494141,5.746059417724609
1701104922813633800,20.2536337890625,-0.9218132495880127,3.746333599090576,6.349486827850342
1701104922830623700,20.270623779296876,-0.8823675513267517,3.6527366638183594,7.438168525695801
1701104922847618000,20.2876181640625,-0.8973352313041687,3.887204170227051,8.451963424682617
1701104922864609500,20.304609619140624,-0.6933595538139343,4.478114604949951,9.050151824951172
1701104922881600800,20.321600830078125,-0.19064129889011383,4.9066667556762695,9.636358261108398
1701104922898596600,20.3385966796875,0.7192922234535217,4.4685163497924805,10.485387802124023
1701104922915587600,20.355587646484373,1.5732920169830322,3.114377975463867,11.319533348083496
1701104922932579000,20.3725791015625,2.0424740314483643,1.217559814453125,12.076201438903809
1701104922949572600,20.389572509765625,2.0484280586242676,-0.05783367156982422,12.069475173950195
1701104922966563800,20.406563720703126,1.9513202905654907,-0.19082164764404297,11.59520149230957
1701104922983557400,20.423557373046876,2.011817693710327,0.4864349365234375,10.95736312866211
1701104923000548900,20.440548828125,2.2468137741088867,1.1348285675048828,10.09090805053711
1701104923017542400,20.45754248046875,2.2698278427124023,0.5847339630126953,9.66007137298584
1701104923034530600,20.474530517578124,1.7428719997406006,-0.8912348747253418,9.359963417053223
1701104923051529700,20.49152978515625,1.1291228532791138,-2.529625415802002,8.639596939086914
1701104923068518400,20.508518310546876,0.9300596714019775,-3.9367356300354004,7.36050271987915
1701104923085512200,20.52551220703125,1.449810266494751,-4.83309268951416,5.619102954864502
1701104923102503200,20.542503173828123,2.2996275424957275,-6.189881324768066,4.536349773406982
1701104923119496700,20.55949658203125,2.8939809799194336,-6.739892482757568,3.0850868225097656
1701104923136488000,20.576488037109375,3.2625370025634766,-6.52935266494751,1.299539566040039
1701104923153482200,20.593482177734376,3.1799447536468506,-5.957263946533203,-0.4136085510253906
1701104923170472700,20.61047265625,2.9061310291290283,-5.44437837600708,-1.8596086502075195
1701104923187466500,20.627466552734376,2.7458648681640625,-5.329065799713135,-2.7503104209899902
1701104923204447200,20.644447265625,2.8066725730895996,-5.571523666381836,-3.305818557739258
1701104923221451500,20.661451416015623,3.0964272022247314,-5.712500095367432,-4.159503936767578
1701104923238442000,20.67844189453125,3.4886465072631836,-5.548879623413086,-5.200671672821045
1701104923255436000,20.69543603515625,3.834089756011963,-5.291865348815918,-6.103542804718018
1701104923272427300,20.71242724609375,4.028724193572998,-5.366583824157715,-6.459488391876221
1701104923289418800,20.729418701171873,3.9944772720336914,-5.712146759033203,-6.334014415740967
1701104923306414800,20.746414794921876,3.97921085357666,-5.986232280731201,-6.107069492340088
1701104923323405800,20.76340576171875,4.027410984039307,-6.086856842041016,-6.178321361541748
1701104923340397000,20.78039697265625,4.195666790008545,-6.16212272644043,-6.461381435394287
1701104923357384200,20.79738427734375,4.330863952636719,-6.455197334289551,-6.68898868560791
1701104923374381600,20.814381591796874,4.3263936042785645,-7.18390417098999,-6.59162712097168
1701104923391375400,20.831375244140624,4.4589924812316895,-7.903144836425781,-6.089483261108398
1701104923408366800,20.848366943359373,4.64238977432251,-8.567049026489258,-4.916623115539551
1701104923425362700,20.86536279296875,4.8160529136657715,-8.662797927856445,-2.696861743927002
1701104923442349300,20.882349365234376,4.395527362823486,-8.568909645080566,-0.7510004043579102
1701104923459345200,20.89934521484375,2.9749975204467773,-8.821508407592773,0.32701683044433594
1701104923476336400,20.91633642578125,1.8100820779800415,-9.480363845825195,0.9365777969360352
1701104923493330200,20.933330078125,1.8226189613342285,-10.028207778930664,1.3209590911865234
1701104923510321200,20.950321044921875,3.0357584953308105,-9.432605743408203,1.2287425994873047
1701104923527315200,20.967315185546877,3.670053482055664,-8.094725608825684,1.9322023391723633
1701104923544306200,20.98430615234375,3.077798843383789,-6.322343826293945,2.9679346084594727
1701104923561300000,21.001300048828124,1.7007441520690918,-4.885419845581055,3.3456878662109375
1701104923578281200,21.01828125,0.08724033832550049,-3.7963881492614746,2.6107177734375
1701104923595282400,21.035282470703127,-1.4284923076629639,-3.0212740898132324,1.2345314025878906
1701104923612264700,21.0522646484375,-2.305901050567627,-2.6674370765686035,-0.17002582550048828
1701104923629263000,21.06926318359375,-2.3464713096618652,-2.4641785621643066,-0.917445182800293
1701104923646252800,21.086252685546874,-1.157961130142212,-1.8889236450195312,-0.5958242416381836
1701104923663245300,21.103245361328124,0.06381404399871826,-1.013998031616211,0.4745020866394043
1701104923680235300,21.1202353515625,1.0666441917419434,0.1932816505432129,1.3343682289123535
1701104923697232100,21.137232177734376,1.3663851022720337,1.3476581573486328,1.965266227722168
1701104923714224000,21.15422412109375,0.9882358312606812,2.3300724029541016,2.224886417388916
1701104923731222500,21.171222412109376,0.30728912353515625,3.129298210144043,2.113420009613037
1701104923748205600,21.18820556640625,-0.16764050722122192,3.671881675720215,2.002152442932129
1701104923765200000,21.205199951171874,-0.3159579336643219,4.040984153747559,2.057878017425537
1701104923782187800,21.222187744140626,-0.08946803212165833,4.286415100097656,2.4144744873046875
1701104923799190500,21.2391904296875,0.31603217124938965,4.445642471313477,3.284677505493164
1701104923816187400,21.2561875,0.5157379508018494,4.779585361480713,3.906341552734375
1701104923833179000,21.273178955078127,0.03526186943054199,4.762059211730957,4.101924896240234
1701104923850169300,21.29016943359375,-0.6215529441833496,4.470425605773926,4.500860691070557
1701104923867163100,21.3071630859375,-0.8628000617027283,4.093306064605713,5.626125812530518
1701104923884154400,21.324154296875,-0.8657361268997192,3.7570981979370117,6.976428031921387
1701104923901150700,21.341150634765626,-0.9654964208602905,3.621746063232422,8.000494956970215
1701104923918128400,21.35812841796875,-1.2313522100448608,3.528843879699707,8.506078720092773
1701104923935133000,21.3751328125,-1.2089154720306396,3.6601104736328125,8.572574615478516
1701104923952120000,21.3921201171875,-0.7630330324172974,3.540349006652832,8.538984298706055
1701104923969122000,21.4091220703125,-0.062649667263031,3.1165943145751953,8.638896942138672
1701104923986109000,21.42610888671875,0.574440062046051,2.2364754676818848,9.053522109985352
1701104924003102500,21.4431025390625,0.8062917590141296,0.8952178955078125,9.628780364990234
1701104924020097500,21.46009765625,0.8376327753067017,0.05449199676513672,9.751962661743164
1701104924037084000,21.477083984375,0.8186867237091064,0.04951953887939453,9.637401580810547
1701104924054078500,21.494078369140624,0.8211930990219116,1.0904369354248047,9.069463729858398
1701104924071072300,21.511072265625,0.5306403636932373,2.0180931091308594,8.469529151916504
1701104924088063700,21.528063720703123,0.23498180508613586,2.084944248199463,7.889551162719727
1701104924105054700,21.5450546875,0.1673474907875061,0.9501743316650391,7.4811811447143555
1701104924122050600,21.562050537109375,0.30444246530532837,-0.8471288681030273,7.0617241859436035
1701104924139041800,21.579041748046876,0.5519649982452393,-2.5525450706481934,6.2643961906433105
1701104924156033300,21.596033203125,0.8068062663078308,-3.637237548828125,5.096418380737305
1701104924173024500,21.6130244140625,1.0709480047225952,-4.180288791656494,3.866687297821045
1701104924190020400,21.630020263671874,1.3312631845474243,-4.244516849517822,2.4348878860473633
1701104924207001600,21.647001708984376,1.5479257106781006,-4.064393520355225,1.0012540817260742
1701104924224003000,21.664003173828124,1.6880906820297241,-3.9546823501586914,-0.34795284271240234
1701104924240996600,21.68099658203125,1.8366245031356812,-3.8985729217529297,-1.7237424850463867
1701104924257987300,21.6979873046875,2.038245439529419,-3.8086745738983154,-2.9408693313598633
1701104924274988300,21.71498828125,2.210063934326172,-3.709285020828247,-4.016823768615723
