time,seconds_elapsed,z,y,x
1701893778840308200,0.16930810546875,-0.6337180137634277,-0.40555286407470703,-0.3979496955871582
1701893778857296600,0.186296630859375,0.14310598373413086,-0.6285858154296875,-0.704495906829834
1701893778874281700,0.20328173828125,0.6407413482666016,-0.9200162887573242,-0.8285534381866455
1701893778891280100,0.220280029296875,0.036342620849609375,-0.9797539710998535,-0.40705132484436035
1701893778908277200,0.23727734375,-0.5298476219177246,-1.1385140419006348,-0.054659128189086914
1701893778925266000,0.254265869140625,-0.8359293937683105,-0.8792781829833984,-0.37716102600097656
1701893778942260000,0.271260009765625,-0.9127030372619629,-0.8421535491943359,-1.067657470703125
1701893778959254300,0.288254150390625,-0.39081859588623047,-0.7632260322570801,-2.0727572441101074
1701893778976242400,0.305242431640625,0.09272909164428711,-0.9135303497314453,-1.938631296157837
1701893778993237200,0.3222373046875,0.29334163665771484,-0.6230931282043457,-1.041581153869629
1701893779010219500,0.339219482421875,0.08394670486450195,-0.2954373359680176,-0.539024829864502
1701893779027219700,0.3562197265625,-0.3870658874511719,0.09332990646362305,-0.6273136138916016
1701893779044215000,0.373215087890625,-0.5282750129699707,0.39086246490478516,-1.3267745971679688
1701893779061206300,0.390206298828125,-0.04702425003051758,0.3823709487915039,-1.9287934303283691
1701893779078199000,0.407198974609375,0.05252838134765625,0.4016537666320801,-1.301499366760254
1701893779095189200,0.424189208984375,-0.02066493034362793,0.7115249633789062,-0.34484243392944336
1701893779112182800,0.441182861328125,-0.35576415061950684,0.897608757019043,0.10976409912109375
1701893779129171700,0.458171630859375,-0.4968070983886719,1.0865578651428223,-0.27147626876831055
1701893779146164700,0.475164794921875,-0.2579338550567627,1.065608024597168,-0.9872627258300781
1701893779163159600,0.49215966796875,-0.21519708633422852,0.671933650970459,-1.448904037475586
1701893779180153600,0.509153564453125,-0.4566843509674072,0.30564022064208984,-1.6305999755859375
1701893779197142000,0.52614208984375,-0.6468625068664551,0.16844940185546875,-1.7768058776855469
1701893779214134000,0.543134033203125,-0.734290599822998,0.07286834716796875,-1.894179344177246
1701893779231128800,0.56012890625,-0.7121320962905884,-0.0997304916381836,-2.3130860328674316
1701893779248123000,0.577122802734375,-0.7877767086029053,-0.5866713523864746,-2.486966133117676
1701893779265108500,0.5941083984375,-0.7750324010848999,-1.0772082805633545,-1.9329538345336914
1701893779282097400,0.611097412109375,-0.23440730571746826,-1.1990106105804443,-1.3877124786376953
1701893779299114200,0.6281142578125,-0.10456180572509766,-1.2818553447723389,-1.5122804641723633
1701893779316086800,0.645086669921875,-0.3782541751861572,-1.6260795593261719,-2.1322383880615234
1701893779333081000,0.6620810546875,-0.7016371488571167,-2.1548120975494385,-2.8384041786193848
1701893779350080800,0.679080810546875,-0.5513283610343933,-2.783390760421753,-2.9249210357666016
1701893779367064800,0.69606494140625,0.306342214345932,-3.049571990966797,-2.5815324783325195
1701893779384063000,0.71306298828125,1.1229016780853271,-3.366295337677002,-1.6591320037841797
1701893779401048300,0.73004833984375,1.3126939535140991,-3.9171671867370605,-0.48587799072265625
1701893779418045000,0.747044921875,1.2878353595733643,-4.3317413330078125,0.4700298309326172
1701893779435033600,0.76403369140625,0.8104674816131592,-4.744273662567139,1.0211248397827148
1701893779452017700,0.781017578125,0.21248775720596313,-4.99602746963501,0.9435081481933594
1701893779469004000,0.798004150390625,-0.3304799795150757,-5.216571807861328,0.7783823013305664
1701893779486014700,0.8150146484375,-0.4930821657180786,-5.439112663269043,1.1490459442138672
1701893779503005000,0.8320048828125,-0.3476598262786865,-5.650925636291504,1.9228649139404297
1701893779519995600,0.84899560546875,-0.18601995706558228,-5.865879058837891,2.526543617248535
1701893779536987100,0.865987060546875,0.5201796293258667,-5.663978576660156,2.968369483947754
1701893779553982500,0.882982421875,1.3593456745147705,-4.7395124435424805,3.525524139404297
1701893779570974500,0.899974365234375,1.7814383506774902,-3.6384520530700684,4.420705795288086
1701893779587967000,0.916967041015625,1.8220620155334473,-2.5816869735717773,5.399824142456055
1701893779604953600,0.93395361328125,1.584453821182251,-1.8871712684631348,5.898541450500488
1701893779621955000,0.950955078125,1.4298183917999268,-1.4650683403015137,5.734299659729004
1701893779638944800,0.96794482421875,1.660224437713623,-1.1329293251037598,4.994665145874023
1701893779655939600,0.984939697265625,1.872335433959961,-0.8900995254516602,4.45490026473999
1701893779672928000,1.001927978515625,2.0461225509643555,-0.44028472900390625,4.320813179016113
1701893779689921300,1.01892138671875,2.2388079166412354,0.44289684295654297,4.316840648651123
1701893779706910000,1.035909912109375,2.234166145324707,1.431173324584961,4.219013690948486
1701893779723902000,1.05290185546875,2.0139403343200684,2.304055690765381,3.9048585891723633
1701893779740896800,1.069896728515625,1.6167805194854736,2.976454734802246,3.466770648956299
1701893779757890300,1.086890380859375,1.1469721794128418,3.388984203338623,3.1437816619873047
1701893779774879500,1.10387939453125,0.5652425289154053,3.679744243621826,3.039519786834717
1701893779791856000,1.120856201171875,0.08882105350494385,4.021223545074463,3.193297863006592
1701893779808869400,1.137869384765625,-0.37225502729415894,4.270859718322754,3.354766845703125
1701893779825857000,1.15485693359375,-0.7606071829795837,4.436265468597412,3.219460964202881
1701893779842851300,1.171851318359375,-1.0014184713363647,4.4453558921813965,2.9066548347473145
1701893779859839700,1.18883984375,-0.9373940825462341,4.410580635070801,2.6387009620666504
1701893779876830500,1.20583056640625,-0.6200488209724426,4.398860931396484,2.7089009284973145
1701893779893826300,1.222826416015625,-0.24848425388336182,4.3705267906188965,2.898467540740967
1701893779910811000,1.239810791015625,-0.167146235704422,4.216469764709473,3.187338352203369
1701893779927810300,1.256810302734375,-0.282906711101532,4.022878646850586,3.3088784217834473
1701893779944800000,1.273800048828125,-0.565971314907074,3.7268130779266357,3.215167999267578
1701893779961796900,1.290796875,-0.9754670262336731,3.1844959259033203,2.9991798400878906
1701893779978787000,1.307787109375,-1.1518709659576416,2.402533531188965,3.117868423461914
1701893779995778000,1.324778076171875,-1.0261167287826538,1.3235626220703125,3.5757222175598145
1701893780012775400,1.341775390625,-0.6747599840164185,0.0601654052734375,4.590607643127441
1701893780029769000,1.35876904296875,-0.22505995631217957,-0.5015826225280762,5.634018898010254
1701893780046755800,1.375755859375,-0.29698023200035095,-0.7119793891906738,6.11318302154541
1701893780063750400,1.39275048828125,-0.8695380091667175,-0.9966526031494141,6.183850288391113
1701893780080742100,1.4097421875,-0.8835773468017578,-1.803293228149414,6.565924167633057
1701893780097722400,1.426722412109375,0.039251383394002914,-2.8733177185058594,7.322900295257568
1701893780114730000,1.44372998046875,1.4388618469238281,-3.4934287071228027,8.076065063476562
1701893780131710000,1.4607099609375,2.528684616088867,-2.936140537261963,8.558956146240234
1701893780148710000,1.4777099609375,2.5466904640197754,-1.9395885467529297,8.260808944702148
1701893780165693700,1.494693603515625,1.8481537103652954,-1.4574007987976074,7.22553825378418
1701893780182691800,1.51169189453125,0.8914878368377686,-2.2020487785339355,5.798708915710449
1701893780199683800,1.528683837890625,0.36612898111343384,-3.665241241455078,4.3561906814575195
1701893780216675300,1.54567529296875,0.2603633999824524,-5.080719947814941,2.63480281829834
1701893780233672000,1.562671875,0.539272665977478,-5.762998580932617,0.6581182479858398
1701893780250655200,1.5796552734375,1.0176458358764648,-5.745625972747803,-1.2459001541137695
1701893780267650000,1.596650146484375,1.4575496912002563,-5.573904037475586,-2.8230342864990234
1701893780284647700,1.613647705078125,1.9070110321044922,-5.141733646392822,-4.266002655029297
1701893780301634000,1.630634033203125,2.3906264305114746,-4.5125813484191895,-5.208962440490723
1701893780318632400,1.647632568359375,2.472550630569458,-4.122724533081055,-5.598809242248535
1701893780335627800,1.664627685546875,2.205260992050171,-3.9386682510375977,-5.644633769989014
1701893780352609000,1.681609130859375,1.865532636642456,-3.8255972862243652,-5.474635124206543
1701893780369609500,1.698609375,1.6817939281463623,-3.711625099182129,-5.127137184143066
1701893780386600000,1.715599853515625,1.7188057899475098,-3.593977689743042,-4.896754264831543
1701893780403602700,1.732602783203125,2.069265842437744,-3.4131317138671875,-4.853303909301758
1701893780420581400,1.749581298828125,2.520580530166626,-3.343824625015259,-4.746859550476074
1701893780437576200,1.766576171875,2.924227714538574,-3.3938422203063965,-4.563323974609375
1701893780454572500,1.783572509765625,3.0942044258117676,-3.5382261276245117,-4.134016036987305
1701893780471564000,1.80056396484375,3.394914150238037,-3.6058437824249268,-3.7604875564575195
1701893780488557300,1.817557373046875,3.859297275543213,-3.689063310623169,-3.6868863105773926
1701893780505546000,1.8345458984375,4.107430458068848,-4.009188652038574,-3.8113012313842773
1701893780522539800,1.851539794921875,4.205981731414795,-4.438727378845215,-3.9104461669921875
1701893780539535400,1.868535400390625,4.117047309875488,-4.945469379425049,-3.9797654151916504
1701893780556523800,1.885523681640625,3.896815538406372,-5.44036340713501,-3.955465316772461
1701893780573517000,1.90251708984375,3.64874005317688,-5.982842922210693,-3.6425299644470215
1701893780590513000,1.919512939453125,3.5123708248138428,-6.501176357269287,-3.2263383865356445
1701893780607498800,1.936498779296875,3.5211265087127686,-6.827155113220215,-2.657332420349121
1701893780624496000,1.95349609375,3.5225934982299805,-6.869980812072754,-1.769364356994629
1701893780641486300,1.970486328125,3.2863681316375732,-7.345324993133545,-0.16931438446044922
1701893780658470100,1.98747021484375,2.6250901222229004,-7.959072589874268,2.0652151107788086
1701893780675468800,2.00446875,1.804213285446167,-8.229697227478027,3.95992374420166
1701893780692463600,2.021463623046875,0.47304296493530273,-8.293323516845703,4.380889892578125
1701893780709460200,2.038460205078125,-0.30248570442199707,-7.590611934661865,3.3223447799682617
1701893780726443800,2.05544384765625,0.1226656436920166,-5.944045066833496,2.0216751098632812
1701893780743437000,2.07243701171875,1.1746410131454468,-3.8679940700531006,1.7556180953979492
1701893780760436200,2.089436279296875,1.657749891281128,-2.0925984382629395,2.4113712310791016
1701893780777422000,2.106422119140625,1.5359954833984375,-0.7063899040222168,3.0654544830322266
1701893780794417700,2.123417724609375,1.0868479013442993,0.14134740829467773,3.3368301391601562
1701893780811406300,2.14040625,0.38813984394073486,0.44556236267089844,2.8418045043945312
1701893780828402400,2.15740234375,-0.2976635694503784,0.472353458404541,1.8674306869506836
1701893780845391000,2.17439111328125,-0.8024163246154785,0.5155177116394043,1.026524543762207
1701893780862386000,2.191385986328125,-1.0735481977462769,0.9478654861450195,0.8399109840393066
1701893780879380000,2.2083798828125,-0.9304732084274292,1.7648963928222656,0.9180026054382324
1701893780896368600,2.22536865234375,-0.6591874361038208,2.6844964027404785,0.863985538482666
1701893780913362700,2.24236279296875,-0.2831222414970398,3.470154285430908,0.5679163932800293
1701893780930352600,2.2593525390625,0.05432403087615967,4.054618835449219,0.12420940399169922
1701893780947338800,2.2763388671875,0.3848823010921478,4.347792625427246,-0.20241022109985352
1701893780964340700,2.2933408203125,0.595807671546936,4.497408390045166,-0.09759283065795898
1701893780981331700,2.310331787109375,0.5861547589302063,4.829394340515137,0.26351261138916016
1701893780998325000,2.327324951171875,0.3024705946445465,4.986695289611816,0.8523879051208496
1701893781015315700,2.344315673828125,-0.2491956651210785,4.960465431213379,1.3296542167663574
1701893781032308200,2.36130810546875,-0.6582531332969666,4.684265613555908,1.9074201583862305
1701893781049292800,2.378292724609375,-0.814171314239502,4.397871971130371,2.538102149963379
1701893781066290700,2.395290771484375,-0.9472313523292542,4.131321430206299,3.430354118347168
1701893781083283700,2.41228369140625,-1.2672425508499146,3.818427085876465,4.490267276763916
1701893781100278000,2.429278076171875,-1.5980913639068604,3.4827117919921875,5.413427352905273
1701893781117257500,2.446257568359375,-1.7969368696212769,2.9100894927978516,6.276410102844238
1701893781134260000,2.463260009765625,-1.8653663396835327,2.144253730773926,6.776251792907715
1701893781151254800,2.4802548828125,-1.827426552772522,1.1949515342712402,7.205545902252197
1701893781168248800,2.497248779296875,-1.7376794815063477,0.08440303802490234,7.67072868347168
1701893781185236500,2.514236572265625,-1.7464416027069092,-1.3028826713562012,8.429323196411133
1701893781202236200,2.531236083984375,-1.5458247661590576,-2.294679641723633,8.642814636230469
1701893781219225300,2.548225341796875,-0.8598275184631348,-2.5525078773498535,8.0865478515625
1701893781236214300,2.56521435546875,0.29691430926322937,-2.1688365936279297,7.558708667755127
1701893781253204200,2.582204345703125,1.3547624349594116,-1.0445542335510254,6.862514495849609
1701893781270189000,2.59918896484375,1.6246269941329956,-0.3540506362915039,5.989231109619141
1701893781287193000,2.616193115234375,1.3578526973724365,-0.46526336669921875,4.816043853759766
1701893781304186000,2.63318603515625,0.949204683303833,-1.2161197662353516,3.433563232421875
1701893781321173800,2.650173828125,0.7708866596221924,-2.074674129486084,1.801736831665039
1701893781338171400,2.66717138671875,0.8391058444976807,-2.7374110221862793,0.0029163360595703125
1701893781355159600,2.68415966796875,1.2160577774047852,-2.8199334144592285,-1.7452340126037598
1701893781372154600,2.701154541015625,1.5884811878204346,-2.6936697959899902,-2.994752883911133
1701893781389148000,2.71814794921875,1.8390557765960693,-2.504268169403076,-3.7708005905151367
1701893781406136000,2.735135986328125,1.9004119634628296,-2.3983755111694336,-4.109355926513672
1701893781423131000,2.752130859375,1.8565545082092285,-2.3484082221984863,-4.379616737365723
1701893781440125200,2.769125244140625,1.7776033878326416,-2.2513537406921387,-4.562204360961914
1701893781457112800,2.78611279296875,1.6140966415405273,-2.2439558506011963,-4.537228584289551
1701893781474107100,2.803107177734375,1.3989721536636353,-2.26926326751709,-4.418116569519043
1701893781491114800,2.82011474609375,1.3675485849380493,-2.265072822570801,-4.264132499694824
1701893781508085800,2.837085693359375,1.5841853618621826,-2.153003215789795,-4.231575965881348
1701893781525081600,2.85408154296875,1.9333975315093994,-2.0202975273132324,-4.2320332527160645
1701893781542084000,2.871083984375,2.3147804737091064,-1.9428751468658447,-4.137735366821289
1701893781559073500,2.888073486328125,2.652639389038086,-1.9529249668121338,-3.956751823425293
1701893781576059100,2.90505908203125,2.830284595489502,-2.15368914604187,-3.648723602294922
1701893781593037600,2.92203759765625,3.137286424636841,-2.3302133083343506,-3.5268850326538086
1701893781610037200,2.939037353515625,3.379058361053467,-2.5318496227264404,-3.6149959564208984
1701893781627036000,2.956035888671875,3.78045392036438,-2.706512212753296,-4.014493942260742
1701893781644025300,2.973025390625,3.9942991733551025,-2.9190309047698975,-4.472516059875488
1701893781661024800,2.990024658203125,3.7881999015808105,-3.2087996006011963,-4.624475002288818
1701893781678014200,3.00701416015625,3.3206276893615723,-3.6900954246520996,-4.450087070465088
1701893781695005000,3.0240048828125,2.8607592582702637,-4.500045299530029,-3.883007049560547
1701893781711997200,3.0409970703125,2.6383309364318848,-5.240073204040527,-3.104640007019043
1701893781728993300,3.0579931640625,2.5733470916748047,-5.546755313873291,-2.3056249618530273
1701893781745985000,3.074985107421875,2.4927968978881836,-5.688591957092285,-0.9461812973022461
1701893781762977300,3.091977294921875,2.078845262527466,-5.718766212463379,0.5678672790527344
1701893781779971300,3.108971435546875,1.4225820302963257,-5.926969528198242,1.933572769165039
1701893781796961500,3.12596142578125,0.91690593957901,-6.425539493560791,3.3972854614257812
1701893781813954000,3.1429541015625,0.6846461296081543,-7.182400226593018,4.968400955200195
1701893781830940700,3.159940673828125,0.6208354234695435,-7.486327171325684,5.64788818359375
1701893781847943000,3.17694287109375,0.9595363736152649,-6.654394626617432,5.382410049438477
1701893781864928000,3.193927978515625,1.6889464855194092,-4.656621932983398,4.909894943237305
1701893781881934300,3.210934326171875,2.1294913291931152,-2.1855506896972656,4.654349327087402
1701893781898915300,3.227915283203125,1.6560907363891602,-0.22222375869750977,4.5200910568237305
1701893781915895600,3.2448955078125,0.5071704983711243,0.7640600204467773,4.164641380310059
1701893781932896800,3.261896728515625,-0.5801383256912231,1.1993036270141602,3.1115803718566895
1701893781949881900,3.2788818359375,-1.196733832359314,1.4246816635131836,1.7902483940124512
1701893781966884400,3.29588427734375,-1.7779103517532349,1.8938841819763184,0.5391225814819336
1701893781983876900,3.312876953125,-2.360799551010132,2.5021209716796875,-0.27150678634643555
1701893782000868900,3.329868896484375,-2.8045716285705566,3.069344997406006,-0.5935564041137695
1701893782017860400,3.3468603515625,-2.8964688777923584,3.594942092895508,-0.44147491455078125
1701893782034854400,3.3638544921875,-2.643165111541748,4.076203346252441,-0.3144211769104004
1701893782051846100,3.38084619140625,-2.2681312561035156,4.386520862579346,-0.24837923049926758
1701893782068838000,3.397837890625,-1.9035664796829224,4.702184200286865,-0.4713273048400879
1701893782085829400,3.414829345703125,-1.5630106925964355,4.887652397155762,-0.8970751762390137
1701893782102823400,3.431823486328125,-1.0282039642333984,4.995760917663574,-1.383845329284668
1701893782119804700,3.4488046875,-0.4831717014312744,5.026506423950195,-1.7446227073669434
1701893782136804400,3.465804443359375,-0.30310115218162537,4.836343765258789,-1.6919288635253906
1701893782153799000,3.482798828125,-0.29241234064102173,4.687638759613037,-1.5750832557678223
1701893782170788600,3.49978857421875,-0.23981356620788574,4.397662162780762,-1.5265588760375977
1701893782187781600,3.51678173828125,-0.2655086815357208,3.972376823425293,-1.5404753684997559
1701893782204774100,3.533774169921875,-0.11673504114151001,3.4121458530426025,-1.2069015502929688
1701893782221761500,3.550761474609375,0.09494158625602722,2.8538119792938232,-0.5826535224914551
1701893782238755600,3.567755615234375,0.0911988615989685,2.2111282348632812,0.4543576240539551
1701893782255752000,3.584751953125,-0.14271217584609985,1.6320247650146484,1.9103736877441406
1701893782272736500,3.601736572265625,-0.8314428925514221,1.2615694999694824,2.853046417236328
1701893782289727500,3.6187275390625,-1.79461669921875,0.8504347801208496,3.037996768951416
1701893782306726700,3.6357265625,-2.2487952709198,0.1727428436279297,3.211513042449951
1701893782323713500,3.652713623046875,-1.523790955543518,-0.4268488883972168,3.739267349243164
1701893782340713700,3.669713623046875,-0.4272679090499878,-0.9384760856628418,4.621425628662109
1701893782357700400,3.686700439453125,0.4527566134929657,-1.3273038864135742,5.359108924865723
1701893782374689300,3.703689208984375,0.5837979912757874,-2.104487419128418,5.735032558441162
1701893782391693600,3.720693603515625,0.5951967239379883,-3.1048097610473633,5.685340404510498
1701893782408682200,3.73768212890625,0.9330652356147766,-3.521688461303711,5.63673210144043
1701893782425676500,3.754676513671875,1.6403024196624756,-2.704157829284668,5.672961711883545
1701893782442668000,3.77166796875,2.016860008239746,-1.211195468902588,5.66691255569458
1701893782459660500,3.78866064453125,2.025300979614258,0.09679412841796875,5.538543701171875
1701893782476652500,3.805652587890625,1.8495824337005615,0.4415411949157715,5.189071178436279
1701893782493640000,3.822639892578125,1.5257372856140137,-0.15602588653564453,4.357834815979004
1701893782510637300,3.83963720703125,1.139275074005127,-1.062716007232666,3.037825584411621
1701893782527627300,3.856627197265625,0.8871992230415344,-1.6812653541564941,1.7156448364257812
1701893782544623900,3.873623779296875,0.644314169883728,-1.8359713554382324,0.7320756912231445
1701893782561613800,3.89061376953125,0.41433653235435486,-1.627922534942627,0.03962993621826172
1701893782578606000,3.907606201171875,0.034844398498535156,-1.3111858367919922,-0.6613006591796875
1701893782595598800,3.924598876953125,-0.28284233808517456,-0.9312548637390137,-1.4273109436035156
1701893782612590600,3.941590576171875,-0.3909651041030884,-0.5887565612792969,-2.2083444595336914
1701893782629583000,3.9585830078125,-0.20418334007263184,-0.26569223403930664,-3.027106761932373
1701893782646572500,3.975572509765625,0.15173661708831787,-0.09490776062011719,-3.5925769805908203
1701893782663567000,3.992567138671875,0.4754852056503296,-0.05851030349731445,-3.924736499786377
1701893782680559400,4.009559326171875,0.8110844492912292,-0.08162140846252441,-4.3325958251953125
1701893782697552100,4.02655224609375,1.2744226455688477,-0.1527872085571289,-4.7858757972717285
1701893782714544400,4.04354443359375,1.7952520847320557,-0.26604175567626953,-5.221123695373535
1701893782731533800,4.060533935546875,2.2660021781921387,-0.44188427925109863,-5.612687110900879
1701893782748528600,4.077528564453125,2.53078031539917,-0.8408224582672119,-5.699209213256836
1701893782765521200,4.094521240234375,2.7339465618133545,-1.3632230758666992,-5.582102298736572
1701893782782513400,4.111513427734375,2.8666467666625977,-1.972907304763794,-5.375284194946289
1701893782799506000,4.128505859375,2.9846904277801514,-2.4772770404815674,-4.987203121185303
1701893782816497700,4.14549755859375,3.1489474773406982,-3.0296380519866943,-4.0873212814331055
1701893782833490400,4.162490478515625,3.245091438293457,-3.7330939769744873,-2.96160888671875
1701893782850478600,4.179478515625,3.1954970359802246,-4.331014633178711,-1.9970507621765137
1701893782867475700,4.196475830078125,2.8986597061157227,-4.771056175231934,-1.2468609809875488
1701893782884466700,4.213466796875,2.517043113708496,-5.1444501876831055,-0.4731330871582031
1701893782901459500,4.23045947265625,2.175252914428711,-5.4136247634887695,0.41576099395751953
1701893782918450700,4.24745068359375,1.6227282285690308,-5.614933013916016,1.4334783554077148
1701893782935445000,4.264445068359375,1.0707703828811646,-5.474720001220703,2.068187713623047
1701893782952436000,4.28143603515625,0.7312633991241455,-5.552931308746338,2.5641088485717773
1701893782969417700,4.298417724609375,0.6679081916809082,-6.067381381988525,3.0204524993896484
1701893782986418200,4.315418212890625,0.9895186424255371,-6.594308853149414,3.266691207885742
1701893783003415800,4.332415771484375,1.489030361175537,-6.327932834625244,2.8325939178466797
1701893783020401200,4.349401123046875,2.1177542209625244,-4.418629169464111,1.823843002319336
1701893783037368600,4.36636865234375,2.627586841583252,-1.9089198112487793,1.4957551956176758
1701893783054386700,4.38338671875,2.284411907196045,-0.3335142135620117,2.1288061141967773
1701893783071380000,4.4003798828125,1.3920685052871704,0.22894811630249023,2.7428483963012695
1701893783088378400,4.41737841796875,0.34656012058258057,0.19374799728393555,2.490900993347168
1701893783105364500,4.434364501953125,-0.9629636406898499,0.07116317749023438,1.2879467010498047
1701893783122358800,4.45135888671875,-2.5310521125793457,0.32851314544677734,-0.3133049011230469
1701893783139340800,4.4683408203125,-3.8517603874206543,0.9715619087219238,-1.5904431343078613
1701893783156343300,4.48534326171875,-4.108010768890381,1.6861701011657715,-2.1393847465515137
1701893783173332700,4.502332763671875,-3.1882870197296143,2.1615467071533203,-1.8931422233581543
1701893783190328000,4.519328125,-1.763771414756775,2.6805419921875,-1.3114814758300781
1701893783207320300,4.5363203125,-0.7234067916870117,3.1987571716308594,-1.107067584991455
1701893783224312000,4.55331201171875,-0.28519755601882935,3.6227502822875977,-1.467453956604004
1701893783241301800,4.5703017578125,-0.16027723252773285,3.8821024894714355,-1.9646363258361816
1701893783258296800,4.587296875,-0.08607649803161621,4.091180324554443,-2.4601707458496094
1701893783275289300,4.604289306640625,0.154448464512825,4.2254486083984375,-2.653310775756836
1701893783292281300,4.62128125,0.434099406003952,4.197412967681885,-2.385434627532959
1701893783309279500,4.638279541015625,0.7798583507537842,4.155176639556885,-1.7575459480285645
1701893783326266000,4.65526611328125,0.7701864838600159,3.981462001800537,-0.7671151161193848
1701893783343258600,4.672258544921875,0.37781065702438354,3.709756374359131,0.006033420562744141
1701893783360250400,4.68925048828125,-0.13925066590309143,3.2322916984558105,0.391843318939209
1701893783377238300,4.70623828125,-0.47740083932876587,2.675647258758545,0.8738307952880859
1701893783394237700,4.72323779296875,-0.8001798391342163,2.2185397148132324,1.5539302825927734
1701893783411225600,4.7402255859375,-1.427802562713623,1.7022643089294434,2.580082416534424
1701893783428216600,4.757216552734375,-2.4974772930145264,1.1250367164611816,3.4078445434570312
1701893783445214200,4.774214111328125,-2.8205456733703613,0.8956623077392578,3.5600829124450684
1701893783462204700,4.79120458984375,-1.8974868059158325,0.2684950828552246,3.853288173675537
1701893783479196400,4.808196533203125,-0.3331456780433655,-0.6997637748718262,4.219305992126465
1701893783496189000,4.82518896484375,1.2470366954803467,-1.496915340423584,4.658315181732178
1701893783513181200,4.84218115234375,2.2427384853363037,-2.59549617767334,5.3801116943359375
1701893783530173400,4.85917333984375,2.470992088317871,-3.471485137939453,5.798648357391357
1701893783547166000,4.876166015625,2.4010746479034424,-3.629549980163574,5.6633758544921875
1701893783564154600,4.893154541015625,2.6013076305389404,-2.9558753967285156,5.121811389923096
1701893783581150000,4.91014990234375,3.2225821018218994,-1.681570053100586,4.518584728240967
1701893783598142700,4.927142822265625,3.83001446723938,-0.3142814636230469,4.189486980438232
1701893783615135000,4.944135009765625,3.650334119796753,0.5227689743041992,4.087378025054932
1701893783632114700,4.96111474609375,2.644007921218872,0.5487112998962402,4.192279815673828
1701893783649108500,4.9781083984375,1.145698070526123,-0.009974479675292969,4.351316928863525
1701893783666107100,4.995107177734375,-0.5439931154251099,-0.6406407356262207,4.166647911071777
1701893783683102700,5.012102783203125,-2.2205042839050293,-0.6362295150756836,3.1438212394714355
1701893783700093700,5.02909375,-3.3505499362945557,-0.3630366325378418,1.891730785369873
1701893783717077800,5.046077880859375,-3.7063493728637695,-0.2921180725097656,0.9986486434936523
1701893783734076000,5.063075927734375,-3.0702786445617676,-0.34790468215942383,0.49738168716430664
1701893783751065900,5.08006591796875,-1.4223777055740356,-0.4174966812133789,-0.12511444091796875
1701893783768061700,5.097061767578125,0.4017529785633087,-0.6412935256958008,-0.9818477630615234
1701893783785047600,5.114047607421875,1.7795201539993286,-0.9575090408325195,-1.9018220901489258
1701893783802040800,5.131040771484375,2.6373708248138428,-1.3277807235717773,-2.8078818321228027
1701893783819035100,5.14803515625,3.0241541862487793,-1.7053093910217285,-3.6211347579956055
1701893783836030200,5.1650302734375,3.076586961746216,-1.9153668880462646,-4.254385948181152
1701893783853019000,5.182018798828125,2.8766021728515625,-1.9880802631378174,-4.894941329956055
1701893783870008600,5.199008544921875,2.683960437774658,-1.8900606632232666,-5.587070941925049
1701893783887007500,5.216007568359375,2.5974624156951904,-1.874753475189209,-5.903205871582031
1701893783903997700,5.232997802734375,2.5548129081726074,-2.0822582244873047,-5.765428066253662
1701893783920998400,5.249998291015625,2.571910858154297,-2.4336178302764893,-5.433561325073242
1701893783937976300,5.266976318359375,2.5352327823638916,-2.782731771469116,-5.097962379455566
1701893783954981000,5.283981201171875,2.3043527603149414,-3.2804148197174072,-4.7014570236206055
1701893783971972400,5.300972412109375,2.194633960723877,-3.7541134357452393,-4.2711286544799805
1701893783988960800,5.317960693359375,2.1566901206970215,-4.492504119873047,-3.514024257659912
1701893784005956000,5.3349560546875,2.0346884727478027,-5.137863636016846,-2.7219467163085938
1701893784022950400,5.351950439453125,1.9345316886901855,-5.553884029388428,-1.973829746246338
1701893784039941400,5.36894140625,1.611238718032837,-6.184839248657227,-1.0264930725097656
1701893784056934000,5.385933837890625,1.1486707925796509,-6.815966606140137,0.044236183166503906
1701893784073922800,5.4029228515625,0.789377748966217,-7.302769660949707,1.130589485168457
1701893784090921500,5.41992138671875,0.24660539627075195,-7.616312026977539,1.8113431930541992
1701893784107910400,5.436910400390625,-0.46332359313964844,-7.371025085449219,1.7073659896850586
1701893784124902700,5.453902587890625,-0.03143024444580078,-6.309556484222412,1.2005176544189453
1701893784141895200,5.470895263671875,0.8552854657173157,-4.566100120544434,0.9640645980834961
1701893784158887700,5.4878876953125,1.3452454805374146,-2.760051727294922,1.0873708724975586
1701893784175879400,5.50487939453125,1.2850579023361206,-1.3977398872375488,1.2611942291259766
1701893784192872200,5.5218720703125,0.8691951632499695,-0.733464241027832,1.269709587097168
1701893784209864200,5.5388642578125,0.2649381756782532,-0.5264739990234375,0.7116422653198242
1701893784226854100,5.555854248046875,-0.31390708684921265,-0.5446362495422363,-0.26186180114746094
1701893784243850800,5.572850830078125,-0.6257827281951904,-0.1596508026123047,-1.54024076461792
1701893784260838000,5.589837890625,-0.8117652535438538,0.4823880195617676,-2.505314826965332
1701893784277833000,5.6068330078125,-0.8378936648368835,1.1186251640319824,-2.6239500045776367
1701893784294826000,5.623825927734375,-0.5567172765731812,1.6807441711425781,-2.2397561073303223
1701893784311817700,5.640817626953125,-0.287164568901062,2.1294426918029785,-1.612947940826416
1701893784328794600,5.657794677734375,-0.08150005340576172,2.5651626586914062,-0.8554306030273438
1701893784345802500,5.674802490234375,-0.18458053469657898,3.070727825164795,-0.42220592498779297
1701893784362795500,5.69179541015625,-0.7231640219688416,3.5329127311706543,-0.35191917419433594
1701893784379786500,5.708786376953125,-1.1099883317947388,3.9882264137268066,-0.32642602920532227
1701893784396779300,5.725779296875,-1.052590250968933,4.217752456665039,-0.09611129760742188
1701893784413771500,5.742771484375,-0.7290477752685547,4.120069980621338,0.5074167251586914
1701893784430755800,5.759755859375,-0.4434954524040222,4.121994495391846,1.2404828071594238
1701893784447755000,5.776755126953125,-0.6401464939117432,4.243532657623291,1.676002025604248
1701893784464762400,5.793762451171875,-1.0832431316375732,4.074074745178223,1.7745981216430664
1701893784481731000,5.81073095703125,-1.34861159324646,3.6132442951202393,1.8037338256835938
1701893784498733000,5.827733154296875,-1.1488378047943115,3.0855302810668945,1.9199047088623047
1701893784515725600,5.8447255859375,-0.5924060940742493,2.5175890922546387,2.3100833892822266
1701893784532716800,5.861716796875,-0.15148532390594482,2.018526077270508,2.6754446029663086
1701893784549722600,5.87872265625,0.026738643646240234,1.3884263038635254,2.879420757293701
1701893784566702000,5.8957021484375,0.12753763794898987,0.8512706756591797,2.9456405639648438
1701893784583688400,5.9126884765625,0.3267194628715515,0.32133007049560547,3.298419952392578
1701893784600689200,5.929689208984375,0.43069592118263245,-0.19477081298828125,4.17298698425293
1701893784617678600,5.9466787109375,0.25172170996665955,-0.6983590126037598,5.187234878540039
1701893784634668800,5.963668701171875,-0.1604180634021759,-1.5037446022033691,6.30983304977417
1701893784651659800,5.98065966796875,-0.387930303812027,-2.256166458129883,6.877677917480469
1701893784668655600,5.997655517578125,0.15919706225395203,-2.475501537322998,6.886258602142334
1701893784685650400,6.014650390625,1.3044332265853882,-1.8721446990966797,6.845879554748535
1701893784702640400,6.031640380859375,2.1762166023254395,-0.42273807525634766,6.793666362762451
1701893784719629600,6.048629638671875,2.0171401500701904,0.8483543395996094,7.047215461730957
1701893784736627200,6.065627197265625,1.089573860168457,1.246401309967041,7.269713401794434
1701893784753617200,6.0826171875,-0.11149026453495026,0.7402772903442383,6.873414993286133
1701893784770598000,6.099597900390625,-0.6559889316558838,-0.10860919952392578,5.812684059143066
1701893784787601200,6.11660107421875,-0.5089626908302307,-0.7126960754394531,4.651439666748047
1701893784804593700,6.13359375,-0.1745029091835022,-1.1090855598449707,3.8157577514648438
1701893784821586000,6.1505859375,0.0802701860666275,-1.328195571899414,2.8962836265563965
1701893784838577700,6.16757763671875,0.3773961067199707,-1.4670109748840332,1.6518187522888184
1701893784855571000,6.184571044921875,0.5249596834182739,-1.5383086204528809,0.2948904037475586
1701893784872563000,6.20156298828125,0.5787076950073242,-1.491055965423584,-0.8855705261230469
1701893784889555200,6.21855517578125,0.6706329584121704,-1.3818879127502441,-1.8682198524475098
1701893784906545200,6.235545166015625,0.80440753698349,-1.4186296463012695,-2.5683236122131348
1701893784923542000,6.2525419921875,1.0222288370132446,-1.5369722843170166,-3.299656391143799
1701893784940532000,6.269531982421875,1.3387421369552612,-1.63028883934021,-4.029688835144043
1701893784957524000,6.28652392578125,1.6816974878311157,-1.7085225582122803,-4.629385948181152
1701893784974513700,6.303513671875,1.9170515537261963,-1.8478195667266846,-5.115516185760498
1701893784991508500,6.320508544921875,2.1526551246643066,-2.038940668106079,-5.478681564331055
1701893785008501000,6.3375009765625,2.4358973503112793,-2.228478193283081,-5.825308322906494
1701893785025493200,6.3544931640625,2.9113495349884033,-2.256629467010498,-6.278789043426514
1701893785042485800,6.37148583984375,3.4585962295532227,-2.2362661361694336,-6.418798446655273
1701893785059477500,6.3884775390625,3.684109687805176,-2.4423489570617676,-6.183870792388916
1701893785076470000,6.405469970703125,3.67387056350708,-2.723123550415039,-5.755513668060303
1701893785093451800,6.42245166015625,3.2717723846435547,-3.305307388305664,-5.287519454956055
1701893785110446300,6.4394462890625,2.725356101989746,-4.1114068031311035,-5.046258449554443
1701893785127444700,6.45644482421875,2.498371124267578,-4.895287990570068,-4.827564716339111
1701893785144439000,6.47343896484375,2.4299659729003906,-5.925814628601074,-4.278400421142578
1701893785161428200,6.49042822265625,2.434215545654297,-6.8648247718811035,-3.389050006866455
1701893785178424000,6.507424072265625,2.4149398803710938,-7.397070407867432,-1.7820024490356445
1701893785195406000,6.524406005859375,1.9988430738449097,-7.4694294929504395,-0.1353006362915039
1701893785212408300,6.541408203125,1.0844119787216187,-7.4270734786987305,0.9167089462280273
1701893785229390000,6.55839013671875,0.1959308385848999,-7.639181137084961,1.3635587692260742
1701893785246390500,6.575390625,0.04079759120941162,-8.105937957763672,1.2970199584960938
1701893785263387100,6.59238720703125,1.0170259475708008,-8.04482650756836,1.287938117980957
1701893785280377300,6.60937744140625,2.177781581878662,-6.499813556671143,2.3517932891845703
1701893785297369900,6.626369873046875,2.060431718826294,-4.183413505554199,4.3793840408325195
1701893785314360000,6.643360107421875,0.5658577680587769,-2.0364842414855957,5.777482986450195
1701893785331356200,6.660356201171875,-1.7564963102340698,-0.597381591796875,5.474226951599121
1701893785348345600,6.677345703125,-4.0941362380981445,-0.21405458450317383,4.189631462097168
1701893785365338400,6.69433837890625,-4.946582317352295,-0.2730903625488281,2.3170976638793945
1701893785382331100,6.7113310546875,-4.295718193054199,-0.23662567138671875,0.33771371841430664
1701893785399322000,6.728322021484375,-2.735214948654175,0.23204994201660156,-1.1601414680480957
1701893785416316700,6.745316650390625,-0.8923691511154175,1.0117602348327637,-1.7555480003356934
1701893785433308000,6.762307861328125,0.6747118234634399,1.7129034996032715,-1.4996285438537598
1701893785450300400,6.779300537109375,1.7474565505981445,2.180241107940674,-0.9596943855285645
1701893785467292200,6.796292236328125,2.5315017700195312,2.784086227416992,-0.6519060134887695
1701893785484281300,6.81328125,2.8484292030334473,3.339573860168457,-0.540308952331543
1701893785501266400,6.830266357421875,2.4713876247406006,3.7373390197753906,-0.6530656814575195
1701893785518269400,6.84726953125,1.8641283512115479,4.045949459075928,-0.6772832870483398
1701893785535257300,6.86425732421875,1.3018637895584106,4.160092830657959,-0.3252134323120117
1701893785552257500,6.881257568359375,0.8988546133041382,4.198971748352051,0.3466525077819824
1701893785569235700,6.898235595703125,0.5449626445770264,4.220602512359619,1.0268521308898926
1701893785586238700,6.91523876953125,0.31177249550819397,4.167979717254639,1.7369585037231445
1701893785603228400,6.932228515625,0.05188387632369995,3.9361023902893066,2.332766532897949
1701893785620225000,6.94922509765625,-0.23110169172286987,3.6485838890075684,2.6363940238952637
1701893785637203000,6.966202880859375,-0.3678967356681824,3.5175280570983887,2.727830410003662
1701893785654207700,6.983207763671875,-0.3652154207229614,3.391714572906494,2.7323880195617676
1701893785671196200,7.000196044921875,-0.2547916769981384,3.0082454681396484,2.8080687522888184
1701893785688191700,7.017191650390625,-0.06955653429031372,2.3535165786743164,2.8738064765930176
1701893785705181400,7.034181396484375,0.11774584650993347,1.551398754119873,2.8001537322998047
1701893785722173700,7.051173583984375,0.26861572265625,0.2329578399658203,3.1136856079101562
1701893785739165000,7.0681650390625,0.4319259524345398,-1.180696964263916,3.627696990966797
1701893785756151600,7.085151611328125,0.6873924136161804,-2.6754961013793945,4.709903717041016
1701893785773144600,7.10214453125,1.071305274963379,-3.8293142318725586,5.887598037719727
1701893785790135000,7.119135009765625,1.5312765836715698,-4.008703708648682,6.568888187408447
1701893785807134700,7.136134765625,2.084653377532959,-2.9097814559936523,6.666582107543945
1701893785824130800,7.153130859375,2.7490694522857666,-1.293309211730957,6.791738986968994
1701893785841118700,7.17011865234375,3.0063772201538086,-0.02992534637451172,7.103519916534424
1701893785858103600,7.187103515625,2.5651519298553467,0.44156837463378906,7.549613952636719
1701893785875099000,7.204098876953125,1.5638413429260254,0.28594017028808594,7.093350410461426
1701893785892091400,7.22109130859375,0.5532664060592651,-0.38475656509399414,5.800508499145508
1701893785909082000,7.23808203125,0.021585524082183838,-1.1161251068115234,4.36568546295166
1701893785926073300,7.2550732421875,-0.1014866828918457,-1.5349760055541992,3.1168556213378906
1701893785943074600,7.272074462890625,-0.19045865535736084,-1.5664849281311035,2.244187831878662
1701893785960060400,7.289060302734375,-0.7866413593292236,-1.31486177444458,1.4662280082702637
1701893785977060600,7.306060546875,-1.643296480178833,-0.6839098930358887,0.6585226058959961
1701893785994050000,7.323050048828125,-2.0721516609191895,0.07107400894165039,-0.33316469192504883
1701893786011044900,7.340044921875,-2.199173927307129,0.5117902755737305,-1.1920161247253418
1701893786028027100,7.357027099609375,-1.8160134553909302,0.7200980186462402,-1.8038392066955566
1701893786045029600,7.374029541015625,-0.8750557899475098,0.7142238616943359,-2.2007579803466797
1701893786062021000,7.391021240234375,0.28376543521881104,0.5692086219787598,-2.4169931411743164
1701893786079015000,7.408014892578125,1.4329708814620972,0.5652594566345215,-2.7303881645202637
1701893786096013600,7.425013671875,2.3683035373687744,0.49671173095703125,-3.181062698364258
1701893786112999000,7.4419990234375,2.855292320251465,0.2941908836364746,-3.663501262664795
1701893786129988000,7.458988037109375,2.9998176097869873,-0.14923954010009766,-4.084061145782471
1701893786146983000,7.47598291015625,3.0786118507385254,-0.5742239952087402,-4.49668025970459
1701893786163975400,7.492975341796875,3.2525041103363037,-0.9589371681213379,-4.804337501525879
1701893786180964600,7.509964599609375,3.7259316444396973,-1.3558084964752197,-4.81901216506958
1701893786197960200,7.526960205078125,4.146230220794678,-1.9983139038085938,-4.46102237701416
1701893786214954500,7.54395458984375,4.554488658905029,-2.5928561687469482,-4.269238471984863
1701893786231942400,7.5609423828125,4.834080696105957,-3.265880584716797,-4.105021953582764
1701893786248936200,7.577936279296875,4.979640960693359,-3.9947171211242676,-3.855947494506836
1701893786265930200,7.59493017578125,4.799690246582031,-4.902754783630371,-3.4563522338867188
1701893786282921200,7.611921142578125,4.49459981918335,-5.614959239959717,-3.2750444412231445
1701893786299913700,7.628913818359375,4.382818222045898,-5.758436679840088,-3.6185054779052734
1701893786316906000,7.645906005859375,4.308733940124512,-5.689356803894043,-3.9292917251586914
1701893786333898500,7.6628984375,4.245100021362305,-5.469391345977783,-3.7098937034606934
1701893786350879700,7.679879638671875,3.7735085487365723,-5.368131637573242,-2.6648507118225098
1701893786367882200,7.69688232421875,2.7908520698547363,-5.632723808288574,-0.9909019470214844
1701893786384877600,7.713877685546875,1.6314070224761963,-5.8731513023376465,0.2705860137939453
1701893786401866000,7.730865966796875,0.5549148321151733,-5.736323833465576,1.0261917114257812
1701893786418859500,7.747859619140625,0.170887291431427,-4.685758113861084,1.6570281982421875
1701893786435851000,7.76485107421875,0.3446888327598572,-2.914193630218506,2.6442432403564453
1701893786452845000,7.781844970703125,0.27742186188697815,-1.3001704216003418,4.264100074768066
1701893786469835500,7.79883544921875,-0.4493599534034729,-0.0646052360534668,5.699777603149414
1701893786486819300,7.8158193359375,-1.6381791830062866,0.7325143814086914,6.374957084655762
1701893786503817700,7.832817626953125,-2.7978527545928955,0.9706454277038574,6.140299320220947
1701893786520816000,7.849816162109375,-3.679647207260132,1.1788363456726074,5.327794075012207
1701893786537805600,7.8668056640625,-3.8618273735046387,1.588536262512207,4.465968608856201
1701893786554797600,7.883797607421875,-3.510432004928589,2.182636260986328,3.9355783462524414
1701893786571787000,7.900787109375,-2.8889641761779785,2.7423152923583984,3.6893253326416016
1701893786588782300,7.9177822265625,-1.9979534149169922,3.0022687911987305,3.4890084266662598
1701893786605781000,7.934781005859375,-0.9570869207382202,3.041560173034668,3.1694469451904297
1701893786622767000,7.95176708984375,-0.20656953752040863,2.8345861434936523,2.6012535095214844
1701893786639759000,7.968759033203125,0.33210325241088867,2.673896312713623,1.6755175590515137
1701893786656754700,7.985754638671875,0.7076144218444824,2.7063326835632324,0.5340161323547363
1701893786673740800,8.00274072265625,1.0147277116775513,3.00927734375,-0.3230710029602051
1701893786690721800,8.0197216796875,1.1458252668380737,3.379687786102295,-0.6179184913635254
1701893786707728100,8.03672802734375,1.1314454078674316,3.725980281829834,-0.5363273620605469
1701893786724720400,8.053720458984374,0.9376853704452515,4.036303520202637,-0.46213483810424805
1701893786741713200,8.070713134765626,0.35780948400497437,4.144558429718018,-0.2653183937072754
1701893786758704000,8.0877041015625,-0.19440677762031555,4.165318012237549,0.008493900299072266
1701893786775698200,8.1046982421875,-0.5444714426994324,4.076790809631348,0.23467588424682617
1701893786792690000,8.12168994140625,-0.8834270238876343,3.8000566959381104,0.46094274520874023
1701893786809682200,8.13868212890625,-1.0826592445373535,3.41084623336792,0.5677223205566406
1701893786826674000,8.155673828125,-1.1191121339797974,2.941751003265381,0.5311493873596191
1701893786843667000,8.1726669921875,-0.9355922937393188,2.43613862991333,0.4472675323486328
1701893786860658700,8.18965869140625,-0.6607106924057007,1.7921562194824219,0.30559825897216797
1701893786877651200,8.206651123046875,-0.34793180227279663,1.0773839950561523,-0.19467496871948242
1701893786894639900,8.223639892578126,0.15070445835590363,0.506406307220459,-0.7722353935241699
1701893786911635700,8.2406357421875,0.6966919898986816,0.19721364974975586,-1.2387785911560059
1701893786928625200,8.257625244140625,0.9594762921333313,0.1289372444152832,-1.5361871719360352
1701893786945622800,8.274622802734376,1.0606104135513306,0.24572086334228516,-1.7869300842285156
1701893786962610400,8.2916103515625,1.283233404159546,0.34439802169799805,-1.7778096199035645
1701893786979606300,8.308606201171875,1.5052398443222046,0.02769613265991211,-1.239151954650879
1701893786996596700,8.3255966796875,1.4839287996292114,-0.6372933387756348,-0.10386466979980469
1701893787013586400,8.34258642578125,1.461450457572937,-1.2174243927001953,0.9271407127380371
1701893787030581200,8.359581298828125,1.0037752389907837,-1.6930551528930664,1.8451056480407715
1701893787047563300,8.376563232421875,-0.10765047371387482,-2.194573402404785,2.7147178649902344
1701893787064566000,8.39356591796875,-1.3651809692382812,-2.991211414337158,3.8035974502563477
1701893787081555500,8.410555419921875,-2.0469491481781006,-3.5274744033813477,4.4124579429626465
1701893787098550300,8.42755029296875,-1.6224870681762695,-3.6812076568603516,4.494991779327393
1701893787115543000,8.44454296875,-0.15129490196704865,-2.900547504425049,3.894848346710205
1701893787132522800,8.461522705078124,1.6832444667816162,-1.4084258079528809,3.2582831382751465
1701893787149528000,8.478528076171875,2.9493248462677,-0.09079504013061523,3.0813474655151367
1701893787166514700,8.4955146484375,3.3845207691192627,0.8008065223693848,2.9713425636291504
1701893787183503600,8.512503662109374,3.042027235031128,1.1066184043884277,2.7437191009521484
1701893787200498700,8.529498779296874,1.9721864461898804,1.0794029235839844,2.460330009460449
1701893787217493800,8.54649365234375,0.9398820996284485,1.2259716987609863,1.9148273468017578
1701893787234482700,8.563482666015625,0.2956046462059021,1.6430397033691406,1.3942289352416992
1701893787251476700,8.580476806640625,0.049315452575683594,2.273674964904785,1.0186500549316406
1701893787268469800,8.5974697265625,0.17400383949279785,3.0068416595458984,0.9138550758361816
1701893787285462800,8.614462890625,0.39294368028640747,3.6612281799316406,1.0769309997558594
1701893787302449000,8.631448974609375,0.6198647022247314,4.170066833496094,1.202408790588379
1701893787319439400,8.648439453125,0.7786620855331421,4.361563682556152,1.2658720016479492
1701893787336437800,8.665437744140625,0.4776356518268585,4.066957473754883,1.3429737091064453
1701893787353425000,8.6824248046875,0.4208568334579468,3.647231101989746,1.2105393409729004
1701893787370421800,8.699421875,0.906497597694397,3.0297746658325195,0.9049801826477051
1701893787387419100,8.716419189453125,1.9082896709442139,2.4536895751953125,0.8290557861328125
1701893787404408300,8.733408203125,3.07456111907959,1.908022403717041,1.145416259765625
1701893787421404000,8.75040380859375,3.985553741455078,1.532440185546875,1.6785540580749512
1701893787438396000,8.76739599609375,4.574737548828125,1.293670654296875,2.3176217079162598
1701893787455388400,8.784388427734376,4.903785228729248,1.170407772064209,2.9086337089538574
1701893787472370200,8.8013701171875,5.357417583465576,1.1760683059692383,3.3250856399536133
1701893787489362700,8.81836279296875,5.787205696105957,1.091425895690918,3.669041156768799
1701893787506361600,8.835361572265626,6.140290260314941,0.6434898376464844,4.170846462249756
1701893787523356200,8.852356201171874,6.40023136138916,-0.21933507919311523,4.712964057922363
1701893787540349700,8.869349609375,6.680974006652832,-1.0878558158874512,4.809401512145996
1701893787557340000,8.88633984375,6.766213893890381,-1.8845767974853516,4.379356384277344
1701893787574336300,8.903336181640626,6.480106830596924,-2.6010308265686035,3.517711639404297
1701893787591323600,8.92032373046875,6.096608638763428,-2.885293960571289,2.415152072906494
1701893787608318700,8.937318603515624,5.680777549743652,-3.2610974311828613,2.0008397102355957
1701893787625311200,8.954311279296874,5.0898919105529785,-3.6998767852783203,1.9631080627441406
1701893787642300400,8.971300537109375,4.547147750854492,-3.602217197418213,1.351243019104004
1701893787659298000,8.988298095703126,4.129575729370117,-2.62673282623291,0.14487361907958984
1701893787676287700,9.005287841796875,3.6420974731445312,-1.4311432838439941,-0.8756499290466309
1701893787693277700,9.022277587890626,2.826918601989746,-0.6690731048583984,-1.2506170272827148
1701893787710274800,9.03927490234375,1.6968705654144287,-0.44637346267700195,-1.3318986892700195
1701893787727264800,9.0562646484375,0.3130362033843994,-0.764432430267334,-1.70697021484375
1701893787744256800,9.0732568359375,-0.7395252585411072,-1.4618492126464844,-2.4928078651428223
1701893787761249500,9.09024951171875,-1.1271677017211914,-2.368227958679199,-3.3860344886779785
1701893787778240300,9.107240234375,-1.0459189414978027,-2.894754409790039,-4.503686904907227
1701893787795224000,9.12422412109375,-0.6194863319396973,-2.951014280319214,-5.456404209136963
1701893787812226000,9.14122607421875,0.022523343563079834,-2.7528014183044434,-5.895648002624512
1701893787829208000,9.1582080078125,0.533320426940918,-2.3447210788726807,-5.650211811065674
1701893787846209500,9.17520947265625,0.5933178067207336,-1.9882822036743164,-5.053654193878174
1701893787863203600,9.19220361328125,0.3042544722557068,-1.8407073020935059,-4.571620464324951
1701893787880195000,9.209195068359374,-0.0788470208644867,-1.8335797786712646,-4.355800151824951
1701893787897187600,9.2261875,-0.26056066155433655,-1.8804998397827148,-4.104662895202637
1701893787914176300,9.24317626953125,-0.2214670181274414,-1.8973197937011719,-3.8964314460754395
1701893787931160600,9.26016064453125,-0.13459841907024384,-1.9143099784851074,-3.4833316802978516
1701893787948165400,9.277165283203125,-0.22764649987220764,-1.7419657707214355,-2.723310947418213
1701893787965139000,9.294138916015624,-0.6266131401062012,-1.4214515686035156,-2.029499053955078
1701893787982151000,9.31115087890625,-1.2895350456237793,-1.1362671852111816,-1.4009771347045898
1701893787999141000,9.32814111328125,-1.9506863355636597,-0.8449544906616211,-0.9426965713500977
1701893788016133000,9.345133056640625,-2.2511661052703857,-0.4042210578918457,-0.47817325592041016
1701893788033126100,9.362126220703125,-2.3085527420043945,-0.053302764892578125,0.17021560668945312
1701893788050117400,9.379117431640625,-2.0500550270080566,0.25868654251098633,0.850184440612793
1701893788067110100,9.396110107421874,-1.290988802909851,0.5506701469421387,1.48362398147583
1701893788084102400,9.413102294921876,-0.3430770933628082,0.9238138198852539,2.335024356842041
1701893788101091800,9.430091796875,0.3403221666812897,1.2560129165649414,3.3680148124694824
1701893788118086700,9.447086669921875,0.6529653072357178,1.6992883682250977,4.107935905456543
1701893788135079200,9.4640791015625,0.6529817581176758,2.190484046936035,4.3231024742126465
1701893788152070400,9.4810703125,0.46438169479370117,2.3491406440734863,4.35566520690918
1701893788169054000,9.498053955078126,0.29664117097854614,2.177110195159912,4.437488555908203
1701893788186061800,9.515061767578125,0.40398627519607544,1.8739495277404785,4.6550822257995605
1701893788203051000,9.532051025390626,0.7305800914764404,1.2868537902832031,5.2689208984375
1701893788220037600,9.54903759765625,1.2617987394332886,0.6227197647094727,5.788196086883545
1701893788237033200,9.566033203125,2.223775863647461,0.7641901969909668,5.74135684967041
1701893788254025000,9.58302490234375,2.9231953620910645,1.4778485298156738,5.832123279571533
1701893788271017500,9.600017578125,2.645005702972412,1.9337682723999023,6.128170490264893
1701893788287997000,9.616996826171874,2.0111539363861084,1.692277431488037,6.337296009063721
1701893788304995600,9.63399560546875,1.7965022325515747,0.8871216773986816,6.285109519958496
1701893788321997800,9.650997802734375,2.0112264156341553,0.03708314895629883,6.009589672088623
1701893788338986500,9.667986572265624,2.3485913276672363,-0.18614625930786133,5.443604469299316
1701893788355978000,9.68497802734375,2.4583442211151123,0.19793415069580078,4.768734455108643
1701893788372972300,9.70197216796875,2.2123053073883057,0.8686404228210449,3.9794998168945312
1701893788389961200,9.718961181640625,1.7542026042938232,1.427785873413086,3.210052967071533
1701893788406958300,9.735958251953125,1.4698766469955444,1.7041683197021484,2.390252113342285
1701893788423944700,9.75294482421875,1.4018480777740479,1.7022080421447754,1.4225902557373047
1701893788440940500,9.7699404296875,1.44524085521698,1.4360861778259277,0.4840216636657715
1701893788457932300,9.786932373046875,1.5976417064666748,1.1461296081542969,-0.48227405548095703
1701893788474924800,9.8039248046875,1.7619457244873047,0.8561897277832031,-1.2834129333496094
1701893788491906800,9.82090673828125,1.9860610961914062,0.5575051307678223,-1.85701322555542
1701893788508909300,9.837909423828124,2.2570595741271973,0.2529268264770508,-2.294686794281006
1701893788525901000,9.854901123046876,2.5124824047088623,-0.09060430526733398,-2.7465434074401855
1701893788542893800,9.871893798828125,2.732325792312622,-0.386688232421875,-2.9465112686157227
1701893788559885800,9.8888857421875,2.942624092102051,-0.8744854927062988,-2.729938507080078
1701893788576878600,9.905878662109375,3.0671377182006836,-1.3045263290405273,-2.4292402267456055
1701893788593870300,9.922870361328124,3.2521004676818848,-2.0214881896972656,-2.05893611907959
1701893788610852600,9.9398525390625,3.597655773162842,-2.8034768104553223,-1.8317928314208984
1701893788627844600,9.9568447265625,4.164620399475098,-3.6228761672973633,-1.5153417587280273
1701893788644848600,9.9738486328125,4.666486740112305,-4.487394332885742,-0.9624814987182617
1701893788661838600,9.990838623046875,5.05055046081543,-5.138778209686279,-0.34023475646972656
1701893788678831000,10.0078310546875,5.216832637786865,-5.470863342285156,0.2105703353881836
1701893788695825000,10.024824951171874,4.815067291259766,-5.625439643859863,0.6513442993164062
1701893788712817000,10.04181689453125,3.7285122871398926,-6.03678035736084,0.8653364181518555
1701893788729799000,10.058798828125,2.634669780731201,-6.70640230178833,0.8563318252563477
1701893788746801200,10.07580126953125,1.7806293964385986,-7.302372932434082,0.16722869873046875
1701893788763793200,10.092793212890625,1.296120047569275,-6.945500373840332,-1.4862580299377441
1701893788780782800,10.109782958984376,1.3594802618026733,-5.388420581817627,-3.230443000793457
1701893788797776100,10.126776123046875,1.5845531225204468,-3.6611361503601074,-3.6152544021606445
1701893788814774800,10.14377490234375,1.4610717296600342,-2.3949413299560547,-2.7305688858032227
1701893788831775700,10.160775634765624,0.7658670544624329,-1.9058113098144531,-1.4195780754089355
1701893788848753000,10.1777529296875,-0.005112767219543457,-2.1309947967529297,-0.5979576110839844
1701893788865747700,10.194747802734375,-0.359238862991333,-2.6019034385681152,-0.6374526023864746
1701893788882748700,10.211748779296874,-0.2999539375305176,-3.0508036613464355,-1.0670080184936523
1701893788899731500,10.2287314453125,0.04439052939414978,-3.1208715438842773,-1.446962833404541
1701893788916724000,10.245723876953125,0.4949358105659485,-2.782989025115967,-1.431081771850586
1701893788933713400,10.26271337890625,0.8330856561660767,-2.128633975982666,-0.7138681411743164
1701893788950696700,10.27969677734375,1.243918776512146,-1.3455662727355957,0.1390695571899414
1701893788967700700,10.29670068359375,1.4027317762374878,-0.6796360015869141,0.4079904556274414
1701893788984693800,10.31369384765625,1.282808542251587,0.055504798889160156,0.17830324172973633
1701893789001681000,10.330680908203124,1.0087776184082031,0.8938150405883789,-0.09129858016967773
1701893789018677500,10.347677490234375,0.6868466138839722,1.8202896118164062,-0.2884488105773926
1701893789035669500,10.36466943359375,0.2953827977180481,2.635441303253174,-0.28194761276245117
1701893789052659700,10.38165966796875,-0.06721121072769165,3.3502197265625,-0.04745149612426758
1701893789069656600,10.398656494140624,-0.4685288965702057,4.047535419464111,0.34972572326660156
1701893789086644000,10.41564404296875,-0.9793634414672852,4.677239418029785,0.7408204078674316
1701893789103641600,10.4326416015625,-1.649831771850586,5.202141761779785,0.9571361541748047
1701893789120631300,10.44963134765625,-2.392949104309082,5.447933673858643,1.2500801086425781
1701893789137623000,10.466623046875,-2.977330207824707,5.530980587005615,1.6145024299621582
1701893789154615800,10.48361572265625,-3.360751152038574,5.54006814956665,2.000365734100342
1701893789171608000,10.500608154296875,-3.6066689491271973,5.378599166870117,2.518284320831299
1701893789188599600,10.517599609375,-3.938201904296875,4.7149200439453125,3.372537612915039
1701893789205580500,10.53458056640625,-4.051269054412842,3.9038968086242676,4.0231757164001465
1701893789222584800,10.551584716796874,-3.8161158561706543,2.9237747192382812,4.5453996658325195
1701893789239572000,10.568572021484375,-3.344526529312134,1.8673310279846191,5.043954849243164
1701893789256560000,10.58556005859375,-2.44771146774292,0.9444065093994141,5.402828216552734
1701893789273557200,10.60255712890625,-1.2133491039276123,-0.11957550048828125,5.966646194458008
1701893789290547200,10.619547119140625,0.25729596614837646,-0.9301280975341797,6.412169456481934
1701893789307541000,10.636541015625,1.518456220626831,-1.9618282318115234,6.994725227355957
1701893789324532000,10.653531982421875,2.0262088775634766,-2.89935302734375,7.2596540451049805
1701893789341522400,10.6705224609375,1.6766985654830933,-3.528731346130371,7.089756488800049
1701893789358514400,10.687514404296875,0.8488599061965942,-4.017035484313965,7.103694438934326
1701893789375517700,10.704517578125,0.18444126844406128,-3.475221633911133,6.831617832183838
1701893789392507600,10.721507568359375,0.021551191806793213,-2.139955520629883,6.213818550109863
1701893789409499600,10.738499755859374,0.2467513084411621,-0.5824995040893555,5.315210819244385
1701893789426485800,10.75548583984375,0.49722152948379517,0.16190814971923828,4.794634819030762
1701893789443475200,10.77247509765625,0.5239212512969971,-0.21213769912719727,4.599184036254883
1701893789460474000,10.78947412109375,0.570796012878418,-1.0326886177062988,3.927394390106201
1701893789477471500,10.806471435546875,0.7975438237190247,-1.7189197540283203,2.7344746589660645
1701893789494461000,10.8234609375,1.4903905391693115,-2.0064501762390137,1.4376497268676758
1701893789511450000,10.8404501953125,2.148210287094116,-2.0457534790039062,0.5933017730712891
1701893789528446000,10.857446044921875,2.3228347301483154,-1.963637351989746,0.018424034118652344
1701893789545427200,10.87442724609375,2.003920316696167,-1.7013015747070312,-0.6843609809875488
1701893789562430200,10.89143017578125,1.6212023496627808,-1.2938804626464844,-1.561537742614746
1701893789579422500,10.90842236328125,1.50832200050354,-0.8356552124023438,-2.4557952880859375
1701893789596415000,10.9254150390625,1.6372779607772827,-0.5652556419372559,-2.974681854248047
1701893789613406700,10.94240673828125,1.7094383239746094,-0.4074583053588867,-3.4337143898010254
1701893789630399500,10.9593994140625,1.761767864227295,-0.3463015556335449,-3.948139190673828
1701893789647389000,10.976388916015624,1.7353192567825317,-0.2871589660644531,-4.41780948638916
1701893789664386600,10.993386474609375,1.7230949401855469,-0.18372249603271484,-4.900205135345459
1701893789681376000,11.0103759765625,1.7953715324401855,-0.13266849517822266,-5.510862350463867
1701893789698367500,11.027367431640625,1.8750412464141846,-0.27445507049560547,-5.94468879699707
1701893789715342600,11.044342529296875,2.0130858421325684,-0.6172685623168945,-6.1764092445373535
1701893789732353300,11.061353271484375,2.388131618499756,-1.0405149459838867,-6.059459209442139
1701893789749334500,11.07833447265625,2.688007354736328,-1.5804393291473389,-5.722011089324951
1701893789766336500,11.09533642578125,2.908902645111084,-2.142594337463379,-5.377013683319092
1701893789783330300,11.112330322265626,3.1008806228637695,-2.7940056324005127,-5.04263973236084
1701893789800322300,11.129322265625,3.363584041595459,-3.6436774730682373,-4.5972089767456055
1701893789817313800,11.146313720703125,3.4878382682800293,-4.652637958526611,-3.98193359375
1701893789834303500,11.163303466796876,3.56614351272583,-5.350378036499023,-3.327272415161133
1701893789851296800,11.180296875,3.4392471313476562,-5.916660785675049,-2.381497383117676
1701893789868293400,11.19729345703125,2.895714521408081,-6.248480319976807,-1.5787372589111328
1701893789885283000,11.214282958984375,2.2451484203338623,-6.578457355499268,-0.800969123840332
1701893789902275600,11.231275634765625,1.7740709781646729,-7.269650459289551,-0.06731319427490234
1701893789919267600,11.248267578125,1.4937783479690552,-8.54482650756836,0.3342876434326172
1701893789936260400,11.26526025390625,2.1134023666381836,-9.147202491760254,-0.34172630310058594
1701893789953252600,11.282252685546876,3.892376661300659,-8.381444931030273,-0.9509153366088867
1701893789970244400,11.299244384765625,5.395055770874023,-6.5913405418396,-0.5680375099182129
1701893789987236900,11.31623681640625,5.515016555786133,-4.869613170623779,1.0299735069274902
1701893790004229600,11.333229736328125,3.9506335258483887,-3.604135036468506,2.848323345184326
1701893790021218000,11.350218017578126,1.3405102491378784,-2.5837841033935547,3.1971917152404785
1701893790038214000,11.3672138671875,-1.2878434658050537,-1.696335792541504,2.1666297912597656
1701893790055206100,11.3842060546875,-3.139716386795044,-0.9988031387329102,0.9519734382629395
1701893790072198400,11.401198486328125,-3.806250810623169,-0.38375091552734375,0.3814067840576172
1701893790089175300,11.41817529296875,-3.2030210494995117,0.26055479049682617,0.4309406280517578
1701893790106187000,11.43518701171875,-2.013181447982788,0.993098258972168,0.6924076080322266
1701893790123171600,11.452171630859375,-0.873854398727417,1.7495646476745605,1.0664901733398438
1701893790140158000,11.469157958984376,-0.12459802627563477,2.745662212371826,1.3921208381652832
1701893790157159400,11.486159423828125,0.06415897607803345,3.797405242919922,1.5584368705749512
1701893790174152000,11.50315185546875,-0.25058597326278687,4.517047882080078,1.8022065162658691
1701893790191144200,11.520144287109375,-0.7313514947891235,4.8908305168151855,2.265746593475342
1701893790208136000,11.537135986328124,-1.1503115892410278,5.332976341247559,2.6307897567749023
1701893790225126700,11.554126708984375,-1.5513744354248047,5.621123313903809,3.115290641784668
1701893790242123500,11.57112353515625,-2.071326971054077,5.753890037536621,3.519634485244751
1701893790259113200,11.58811328125,-2.5095443725585938,5.599971771240234,3.850827217102051
1701893790276105000,11.60510498046875,-2.5803961753845215,5.111515998840332,4.265588760375977
1701893790293098500,11.622098388671875,-2.5493102073669434,4.311261177062988,4.7675628662109375
1701893790310096100,11.63909619140625,-2.6011440753936768,3.608100414276123,5.00242805480957
1701893790327082500,11.65608251953125,-2.7014570236206055,2.93111515045166,5.233798980712891
1701893790344072000,11.673072021484375,-2.6459269523620605,2.2809391021728516,5.346623420715332
1701893790361066800,11.690066650390625,-2.2779788970947266,1.693166732788086,5.306972503662109
1701893790378059300,11.707059326171875,-1.3631565570831299,1.197439193725586,5.241865158081055
1701893790395051500,11.724051513671874,-0.1404942274093628,0.7921504974365234,5.093771934509277
1701893790412041000,11.741041015625,0.938363790512085,0.5997552871704102,4.956694602966309
1701893790429040000,11.7580400390625,1.5843877792358398,-0.12048530578613281,5.57736873626709
1701893790446028300,11.7750283203125,1.4966099262237549,-1.1203632354736328,6.37580680847168
1701893790463010000,11.792010009765624,0.8444170355796814,-2.2161436080932617,6.769593238830566
1701893790480010000,11.809010009765625,0.3366551995277405,-3.1463623046875,6.805517673492432
1701893790497004800,11.8260048828125,0.5882585048675537,-3.02632999420166,6.193386077880859
1701893790513997600,11.84299755859375,1.3247238397598267,-1.9962739944458008,5.523225784301758
1701893790530986500,11.859986572265624,1.82835054397583,-1.0957622528076172,5.788677215576172
1701893790547982000,11.876982177734375,1.392938494682312,-0.3657493591308594,6.415024757385254
1701893790564977000,11.893976806640625,0.3224525451660156,-0.042205810546875,6.868683338165283
1701893790581963500,11.910963623046875,-0.6861923933029175,0.06659412384033203,6.359352111816406
1701893790598957800,11.927957763671875,-0.6792793869972229,-0.17385101318359375,5.430269241333008
1701893790615952000,11.944951904296875,0.23861515522003174,-0.7124543190002441,4.454220294952393
1701893790632930300,11.961930419921876,1.1108806133270264,-1.31187105178833,3.416393280029297
1701893790649928200,11.97892822265625,1.5472424030303955,-1.7674269676208496,2.4286646842956543
1701893790666924800,11.9959248046875,1.746196985244751,-2.0193710327148438,1.5047335624694824
1701893790683915300,12.012915283203125,1.9296268224716187,-1.9831748008728027,0.48664331436157227
1701893790700903400,12.0299033203125,2.1224076747894287,-1.730234146118164,-0.7156519889831543
1701893790717894400,12.046894287109374,2.1559395790100098,-1.5040650367736816,-1.868751049041748
1701893790734898400,12.0638984375,1.9196289777755737,-1.3429303169250488,-2.902949333190918
1701893790751879400,12.08087939453125,1.7803435325622559,-1.1418852806091309,-3.8045663833618164
1701893790768880400,12.09788037109375,1.7534849643707275,-0.978424072265625,-4.366248607635498
1701893790785863000,12.11486279296875,1.8878499269485474,-0.885134220123291,-4.857216835021973
1701893790802857700,12.131857666015625,2.1590540409088135,-0.9066658020019531,-5.312601566314697
1701893790819850000,12.14885009765625,2.3950257301330566,-1.029874324798584,-5.660226345062256
1701893790836852200,12.165852294921875,2.4552230834960938,-1.335399866104126,-5.833140850067139
1701893790853839000,12.182839111328125,2.515565872192383,-1.8085579872131348,-5.930743217468262
1701893790870823200,12.1998232421875,2.609646797180176,-2.5787360668182373,-6.001553058624268
1701893790887827500,12.216827392578125,2.8875319957733154,-3.285292625427246,-5.989493370056152
1701893790904819500,12.2338193359375,3.265821933746338,-3.8846490383148193,-5.836216449737549
1701893790921811500,12.2508115234375,3.663520336151123,-4.2671098709106445,-5.563154697418213
1701893790938785800,12.267785888671876,3.845561981201172,-4.74727201461792,-4.895292282104492
1701893790955787500,12.28478759765625,3.6875061988830566,-5.4053802490234375,-4.248058319091797
1701893790972789000,12.3017890625,3.525383949279785,-6.031412601470947,-3.799380302429199
1701893790989783300,12.318783203125,3.3261449337005615,-6.319510459899902,-3.223094940185547
1701893791006768400,12.335768310546875,2.8871660232543945,-6.343966484069824,-2.554427146911621
1701893791023765800,12.352765869140624,2.0875563621520996,-6.500226020812988,-1.5070953369140625
1701893791040760300,12.36976025390625,1.3092001676559448,-6.93382453918457,-0.5044918060302734
1701893791057750000,12.38675,1.0330970287322998,-7.670029640197754,0.44739723205566406
1701893791074742300,12.4037421875,1.188495397567749,-7.742981910705566,0.5246696472167969
1701893791091735000,12.420735107421875,1.3094652891159058,-6.3792338371276855,-0.13526439666748047
1701893791108726000,12.43772607421875,0.7002226710319519,-4.153616428375244,-0.20659923553466797
1701893791125720300,12.45472021484375,-0.6371565461158752,-2.430251121520996,0.46796321868896484
1701893791142711000,12.4717109375,-1.6910663843154907,-1.5533647537231445,1.3589754104614258
1701893791159701200,12.488701171875,-1.5880603790283203,-1.255387306213379,1.4977226257324219
1701893791176697000,12.505697021484375,-0.5800682902336121,-1.5111899375915527,0.8358254432678223
1701893791193689600,12.522689697265625,0.25184494256973267,-1.4654440879821777,-0.3040304183959961
1701893791210668500,12.53966845703125,0.9331591129302979,-0.929234504699707,-1.0372862815856934
1701893791227673000,12.556673095703125,1.499988079071045,-0.26926136016845703,-0.43266725540161133
1701893791244662300,12.573662353515624,1.8888345956802368,0.7241878509521484,0.9811563491821289
1701893791261660000,12.590659912109375,1.9596521854400635,2.0144429206848145,1.7315587997436523
1701893791278649600,12.607649658203124,1.4898196458816528,3.035059928894043,1.7667808532714844
1701893791295642000,12.62464208984375,0.6328031420707703,3.702456474304199,1.3433027267456055
1701893791312634000,12.641634033203125,-0.12808983027935028,4.118990898132324,1.0438828468322754
1701893791329626600,12.658626708984375,-0.6965368986129761,4.403628826141357,1.2459626197814941
1701893791346616000,12.675615966796874,-1.1377803087234497,4.6701836585998535,2.0640106201171875
1701893791363611600,12.692611572265625,-1.7276310920715332,5.296978950500488,2.991703510284424
1701893791380605000,12.70960498046875,-2.5220301151275635,5.6482253074646,3.7111563682556152
1701893791397595400,12.726595458984375,-3.223444700241089,5.659224033355713,4.1904168128967285
1701893791414580200,12.743580322265625,-3.3084499835968018,5.069293975830078,4.772847652435303
1701893791431578400,12.760578369140624,-2.7332499027252197,4.404741287231445,5.12826681137085
1701893791448572200,12.777572265625,-2.2023136615753174,3.6281023025512695,5.806056499481201
1701893791465564400,12.794564453125,-1.930535078048706,3.073699951171875,6.535344123840332
1701893791482543600,12.811543701171875,-1.954087734222412,2.627871513366699,6.872276306152344
1701893791499551700,12.8285517578125,-2.0227279663085938,2.0368423461914062,6.948637962341309
1701893791516541000,12.845541015625,-1.6217325925827026,1.3885602951049805,6.964946746826172
1701893791533534000,12.862533935546875,-0.6835949420928955,0.491668701171875,7.243234634399414
1701893791550526000,12.87952587890625,0.3520122766494751,-0.5176620483398438,7.741860389709473
1701893791567504100,12.896504150390625,0.9713757038116455,-1.8453845977783203,8.453481674194336
1701893791584510200,12.91351025390625,1.2807562351226807,-2.778834342956543,8.548698425292969
1701893791601502700,12.930502685546875,1.5016374588012695,-3.1690196990966797,8.138819694519043
1701893791618493000,12.947492919921874,1.7675013542175293,-2.70407772064209,7.56282901763916
1701893791635489800,12.96448974609375,1.8905748128890991,-1.6237611770629883,7.104843616485596
1701893791652469800,12.9814697265625,1.4573196172714233,-0.7486705780029297,6.896542549133301
1701893791669471700,12.9984716796875,0.6365997791290283,-0.5655555725097656,6.8362555503845215
1701893791686465000,13.015465087890625,-0.05002325773239136,-1.0045151710510254,6.652997016906738
1701893791703455700,13.032455810546875,-0.13324415683746338,-1.8666129112243652,6.113579750061035
1701893791720448500,13.049448486328124,0.3258112072944641,-2.8144030570983887,5.092386245727539
1701893791737440800,13.066440673828126,1.0726943016052246,-3.4917960166931152,3.6613807678222656
1701893791754430200,13.08343017578125,1.8382763862609863,-3.7404074668884277,2.1364855766296387
1701893791771425800,13.10042578125,2.266003131866455,-3.6661601066589355,0.7143425941467285
1701893791788417500,13.11741748046875,2.2594032287597656,-3.51088285446167,-0.5485353469848633
1701893791805410000,13.13441015625,2.121927499771118,-3.255908489227295,-1.800025463104248
1701893791822402300,13.15140234375,2.2460691928863525,-2.9599595069885254,-2.85044002532959
1701893791839394600,13.16839453125,2.418735980987549,-2.7535829544067383,-3.801950454711914
1701893791856386600,13.185386474609375,2.5171074867248535,-2.5795626640319824,-4.7389020919799805
1701893791873368600,13.20236865234375,2.559899091720581,-2.3893020153045654,-5.757393836975098
1701893791890371300,13.219371337890625,2.536734104156494,-2.2101316452026367,-6.563080787658691
1701893791907363800,13.23636376953125,2.429905414581299,-2.0807549953460693,-7.146081924438477
1701893791924355600,13.25335546875,2.2291455268859863,-2.074002981185913,-7.443464279174805
1701893791941345000,13.270344970703125,2.1399998664855957,-2.1078872680664062,-7.6188201904296875
1701893791958340400,13.28734033203125,2.181725025177002,-2.2884016036987305,-7.671976089477539
1701893791975332900,13.304332763671875,2.2491369247436523,-2.5550954341888428,-7.725959777832031
1701893791992324600,13.32132470703125,2.345609664916992,-2.951442241668701,-7.450565338134766
1701893792009305900,13.338305908203125,2.411677360534668,-3.5312609672546387,-6.679747104644775
1701893792026310400,13.355310302734376,2.476306200027466,-4.042988300323486,-5.852544784545898
1701893792043302000,13.372302001953125,2.5069756507873535,-4.523028373718262,-5.161786079406738
1701893792060294000,13.3892939453125,2.5648908615112305,-4.9603352546691895,-4.574254989624023
1701893792077296000,13.406296142578125,2.360811233520508,-5.530115127563477,-3.979428291320801
1701893792094278700,13.423278564453126,2.088944435119629,-5.949337959289551,-3.4095706939697266
1701893792111271400,13.440271484375,1.8617961406707764,-6.288991928100586,-2.832766056060791
1701893792128262100,13.45726220703125,1.5117908716201782,-6.750150680541992,-1.6978569030761719
1701893792145253600,13.474253662109374,1.0855059623718262,-7.570345401763916,-0.07062339782714844
1701893792162250200,13.491250244140625,0.7430253028869629,-8.701677322387695,1.3555545806884766
1701893792179240200,13.508240234375,1.0821192264556885,-9.339700698852539,2.2447357177734375
1701893792196231200,13.525231201171875,2.2329657077789307,-8.588150024414062,2.375659942626953
1701893792213225500,13.5422255859375,3.7385597229003906,-6.382338047027588,2.3394603729248047
1701893792230216700,13.559216796875,4.666840553283691,-3.912868022918701,3.1120524406433105
1701893792247200000,13.576199951171875,4.567668437957764,-2.178896903991699,4.2793731689453125
1701893792264186000,13.59318603515625,3.7047550678253174,-1.4506068229675293,5.102478504180908
1701893792281193500,13.610193359375,2.415390729904175,-1.283156394958496,4.980408668518066
1701893792298185700,13.627185791015625,0.7568997144699097,-1.2342724800109863,3.7680187225341797
1701893792315178500,13.644178466796875,-0.9727944731712341,-0.7879323959350586,2.1881003379821777
1701893792332167200,13.661167236328126,-2.4085094928741455,0.03979778289794922,0.8544020652770996
1701893792349161500,13.678161376953126,-2.9691927433013916,1.1118378639221191,0.2635498046875
1701893792366156000,13.695156005859374,-2.855205535888672,2.2086730003356934,0.9767470359802246
1701893792383147300,13.712147216796875,-2.567265748977661,3.107398509979248,1.8567380905151367
1701893792400139300,13.72913916015625,-2.509049415588379,3.5900774002075195,2.41623592376709
1701893792417131800,13.7461318359375,-2.582378387451172,4.038283348083496,2.5094709396362305
1701893792434124300,13.763124267578124,-2.6930739879608154,4.538489818572998,2.4162487983703613
1701893792451113500,13.780113525390625,-2.696136474609375,4.943082332611084,2.5985450744628906
1701893792468108300,13.7971083984375,-2.5300493240356445,5.369534492492676,2.97518253326416
1701893792485098200,13.81409814453125,-2.4306721687316895,5.637908935546875,3.4260828495025635
1701893792502095600,13.831095703125,-2.5241386890411377,5.672206878662109,3.848588466644287
1701893792519083000,13.8480830078125,-2.7567288875579834,5.580623149871826,4.002012729644775
1701893792536080100,13.865080078125,-2.8838844299316406,5.19680118560791,4.311612129211426
1701893792553070000,13.882070068359376,-2.697462558746338,4.832585334777832,4.700310230255127
1701893792570062300,13.899062255859375,-2.450969934463501,4.248664855957031,5.386190891265869
1701893792587052500,13.916052490234375,-2.2849209308624268,3.5907793045043945,6.242741584777832
1701893792604046600,13.933046630859375,-2.1535253524780273,2.898540496826172,6.997805595397949
1701893792621039000,13.9500390625,-1.9787321090698242,2.3640871047973633,7.454098224639893
1701893792638031000,13.967031005859376,-1.599550485610962,1.8041677474975586,7.804757118225098
1701893792655023900,13.98402392578125,-1.016860008239746,0.8457202911376953,8.259431838989258
1701893792672015600,14.001015625,-0.36320605874061584,-0.2966165542602539,8.606706619262695
1701893792689007900,14.0180078125,0.18019556999206543,-1.7418270111083984,8.982852935791016
1701893792705994800,14.034994873046875,0.6484255790710449,-3.136782646179199,8.859840393066406
1701893792722992600,14.05199267578125,1.1731972694396973,-3.8400802612304688,8.543235778808594
1701893792739979300,14.068979248046874,1.4830513000488281,-3.2595815658569336,8.136523246765137
1701893792756967000,14.085966796875,1.3908740282058716,-2.0142078399658203,7.443171977996826
1701893792773960400,14.10296044921875,0.9614362120628357,-1.0194072723388672,6.579432964324951
1701893792790952000,14.119951904296874,0.4297276437282562,-0.9612598419189453,6.035787582397461
1701893792807949300,14.13694921875,0.0993451178073883,-1.788419246673584,5.64426326751709
1701893792824941800,14.15394189453125,-0.040412724018096924,-2.8319435119628906,4.565134048461914
1701893792841934800,14.170934814453124,0.08632083237171173,-3.414360523223877,3.199326992034912
1701893792858922800,14.1879228515625,0.3398910164833069,-3.5834059715270996,1.9156765937805176
1701893792875925200,14.20492529296875,0.817522406578064,-3.4995779991149902,0.7465963363647461
1701893792892906500,14.221906494140624,1.1999688148498535,-3.343430519104004,-0.2172994613647461
1701893792909898200,14.238898193359375,1.3726682662963867,-3.396725654602051,-1.0913991928100586
1701893792926901200,14.2559013671875,1.6773170232772827,-3.42830753326416,-2.4202880859375
1701893792943890700,14.272890625,2.134378671646118,-3.1907873153686523,-3.6139278411865234
1701893792960884500,14.289884521484375,2.3921866416931152,-2.8551523685455322,-4.413349151611328
1701893792977874400,14.30687451171875,2.394569158554077,-2.5245611667633057,-4.82509183883667
1701893792994869000,14.323868896484376,2.163323163986206,-2.2740478515625,-5.042856216430664
1701893793011876600,14.340876708984375,1.9575316905975342,-2.150937795639038,-4.9286298751831055
1701893793028852700,14.357852783203125,1.936316967010498,-2.064239025115967,-4.759400367736816
1701893793045846500,14.374846435546875,2.1593751907348633,-2.1062071323394775,-5.106154441833496
1701893793062831600,14.39183154296875,2.361273765563965,-2.3375985622406006,-5.539637565612793
1701893793079830000,14.408830078125,2.5088953971862793,-2.7388439178466797,-5.759209632873535
1701893793096822500,14.425822509765625,2.6910624504089355,-3.1667847633361816,-5.88175630569458
1701893793113814800,14.442814697265625,2.912771701812744,-3.5538277626037598,-5.793178558349609
1701893793130797300,14.45979736328125,3.1122488975524902,-3.9584434032440186,-5.614678382873535
1701893793147798000,14.476798095703124,3.23455548286438,-4.389843940734863,-5.769909858703613
1701893793164792800,14.493792724609374,3.3111186027526855,-4.913304805755615,-5.811404228210449
1701893793181784000,14.5107841796875,3.3788042068481445,-5.469973087310791,-5.681941986083984
1701893793198776300,14.5277763671875,3.123039722442627,-6.268583297729492,-5.2188334465026855
1701893793215767600,14.544767578125,2.8824567794799805,-6.78855562210083,-4.745497703552246
1701893793232759000,14.561759033203124,2.6932859420776367,-7.062589645385742,-3.9733362197875977
1701893793249755600,14.578755615234375,2.306037425994873,-7.288306713104248,-2.9513492584228516
1701893793266742800,14.59574267578125,1.36672043800354,-7.230478286743164,-2.429776668548584
1701893793283740000,14.612739990234376,0.050466179847717285,-7.971014976501465,-1.6894631385803223
1701893793300729900,14.629729736328125,-0.8075728416442871,-9.278942108154297,-0.31871700286865234
1701893793317722000,14.64672216796875,-0.6837843656539917,-9.944903373718262,1.1249065399169922
1701893793334714600,14.663714599609374,0.22552788257598877,-9.862604141235352,2.542041778564453
1701893793351703300,14.680703369140625,1.8781734704971313,-8.284419059753418,3.6805849075317383
1701893793368699000,14.697698974609375,3.2586984634399414,-5.616386890411377,4.736889839172363
1701893793385681000,14.714680908203125,3.4340391159057617,-3.170987129211426,5.419304370880127
1701893793402683600,14.73168359375,2.722083568572998,-1.6484365463256836,5.584682464599609
1701893793419675400,14.74867529296875,1.8273515701293945,-1.2329211235046387,5.431300640106201
1701893793436668000,14.76566796875,1.3506426811218262,-1.2216453552246094,4.827235698699951
1701893793453660400,14.782660400390625,0.7676451802253723,-1.0575523376464844,4.3370232582092285
1701893793470642200,14.79964208984375,-0.029640689492225647,-0.3043994903564453,4.173851013183594
1701893793487644700,14.816644775390625,-0.7493685483932495,0.8379449844360352,4.292759418487549
1701893793504637000,14.833636962890624,-1.1619510650634766,2.1455769538879395,4.6327972412109375
1701893793521629400,14.85062939453125,-1.2946689128875732,3.3974361419677734,4.978166103363037
1701893793538621000,14.867620849609375,-1.4377621412277222,4.267758846282959,5.073635101318359
1701893793555602700,14.884602783203125,-1.623903512954712,4.752410888671875,4.962831497192383
1701893793572606200,14.901606201171875,-1.970672845840454,4.958462715148926,4.797457695007324
1701893793589598500,14.918598388671874,-2.39103102684021,5.26779842376709,4.399178981781006
1701893793606588200,14.935588134765625,-2.7076239585876465,5.636622428894043,3.9845917224884033
1701893793623585300,14.952585205078124,-2.6633224487304688,5.8705220222473145,3.606149196624756
1701893793640575200,14.9695751953125,-2.201186418533325,5.760002613067627,3.584636926651001
1701893793657567500,14.9865673828125,-1.7376049757003784,5.374220848083496,3.796030044555664
1701893793674557000,15.003556884765626,-1.5077344179153442,5.121572017669678,3.65834641456604
1701893793691541500,15.02054150390625,-1.6512079238891602,4.657101631164551,3.448939561843872
1701893793708544300,15.037544189453126,-1.7000041007995605,4.032747745513916,3.1236155033111572
1701893793725536500,15.05453662109375,-1.407200574874878,3.278104782104492,3.0982606410980225
1701893793742530600,15.071530517578125,-1.1018503904342651,2.4910879135131836,3.593379020690918
1701893793759519200,15.088519287109374,-0.8157829642295837,2.0766868591308594,3.984152317047119
1701893793776513500,15.105513427734374,-0.6859636306762695,1.5769553184509277,4.690077781677246
1701893793793503500,15.12250341796875,-0.780998706817627,0.6714420318603516,5.8682780265808105
1701893793810497800,15.139497802734375,-0.8061920404434204,-0.20752906799316406,6.959924697875977
1701893793827492600,15.15649267578125,-0.5157943964004517,-1.304366111755371,7.886003017425537
1701893793844482300,15.173482421875,-0.08621257543563843,-2.3343706130981445,8.341117858886719
1701893793861471500,15.190471435546876,0.5304373502731323,-2.8926315307617188,8.558357238769531
1701893793878464500,15.207464599609375,1.072954773902893,-2.885819435119629,8.797014236450195
1701893793895461600,15.224461669921874,0.8088678121566772,-2.126112937927246,8.600297927856445
1701893793912451800,15.241451904296875,-0.03943765163421631,-0.9331607818603516,7.831245422363281
1701893793929432300,15.258432373046874,-1.0511949062347412,-0.0637664794921875,6.805591106414795
1701893793946436400,15.275436279296875,-1.6756619215011597,-0.08945274353027344,5.808043956756592
1701893793963428600,15.2924287109375,-1.6240500211715698,-1.2754864692687988,5.214261531829834
1701893793980420600,15.309420654296876,-1.2656255960464478,-2.2262558937072754,4.14160680770874
1701893793997412900,15.326412841796875,-0.6685265898704529,-2.6909666061401367,2.646498680114746
1701893794014407700,15.34340771484375,0.19663965702056885,-2.4626965522766113,1.0406198501586914
1701893794031394000,15.36039404296875,0.9966762065887451,-1.9409174919128418,-0.13929986953735352
1701893794048388900,15.377388916015626,1.819324254989624,-1.4320611953735352,-0.9780402183532715
1701893794065382700,15.394382568359376,2.6443278789520264,-0.998166561126709,-1.8038735389709473
1701893794082372600,15.41137255859375,2.8009228706359863,-0.8268833160400391,-2.404789447784424
1701893794099366100,15.4283662109375,2.5121164321899414,-0.7400951385498047,-3.280880928039551
1701893794116358000,15.44535791015625,2.2001848220825195,-0.6725220680236816,-4.2639007568359375
1701893794133340400,15.46234033203125,2.194289207458496,-0.560572624206543,-5.076059341430664
1701893794150334500,15.47933447265625,2.5137109756469727,-0.5201606750488281,-5.546051979064941
1701893794167335400,15.49633544921875,3.0709877014160156,-0.5622882843017578,-5.677646636962891
1701893794184323800,15.51332373046875,3.4915544986724854,-0.6161222457885742,-5.70424747467041
1701893794201314000,15.53031396484375,3.62431263923645,-0.6966638565063477,-5.563965797424316
1701893794218302700,15.547302734375,3.544517993927002,-0.9568266868591309,-5.1078877449035645
1701893794235294200,15.564294189453125,3.5364081859588623,-1.531813144683838,-4.385000228881836
1701893794252290600,15.58129052734375,3.768768787384033,-2.2641167640686035,-3.841279983520508
1701893794269279700,15.59827978515625,4.302680492401123,-2.828254222869873,-3.4792518615722656
1701893794286273000,15.61527294921875,4.918371200561523,-3.3247642517089844,-3.145453453063965
1701893794303272200,15.632272216796874,5.154213905334473,-4.120039463043213,-2.4809956550598145
1701893794320261000,15.64926123046875,4.847308158874512,-5.102622985839844,-1.7542963027954102
1701893794337247500,15.66624755859375,4.36726188659668,-5.78346586227417,-1.4958839416503906
1701893794354244400,15.683244384765626,3.829665184020996,-5.976210117340088,-1.6531381607055664
1701893794371233300,15.7002333984375,3.312865734100342,-5.837857723236084,-1.8246402740478516
1701893794388219400,15.717219482421875,2.6648943424224854,-6.05646276473999,-1.351259708404541
1701893794405225700,15.734225830078126,2.1823606491088867,-6.751713752746582,-0.4647684097290039
1701893794422218800,15.75121875,2.2081375122070312,-7.091540813446045,0.20297718048095703
1701893794439210800,15.768210693359375,2.321770668029785,-6.244210243225098,0.5607433319091797
1701893794456196400,15.7851962890625,1.6510369777679443,-3.8647704124450684,0.7294645309448242
1701893794473200400,15.802200439453125,-0.17925065755844116,-1.4939970970153809,1.3544445037841797
1701893794490189000,15.81918896484375,-2.581505298614502,0.03154468536376953,2.169825553894043
1701893794507180800,15.836180908203126,-4.408586025238037,0.7188324928283691,2.6684422492980957
1701893794524173000,15.853173095703125,-4.6162896156311035,0.5601367950439453,3.2186522483825684
1701893794541165600,15.87016552734375,-3.345778226852417,0.16985559463500977,3.0349464416503906
1701893794558158000,15.887157958984375,-1.6300562620162964,0.22745275497436523,2.1717166900634766
1701893794575150000,15.904150146484374,-0.2833234667778015,0.5671477317810059,1.3464508056640625
1701893794592142600,15.921142578125,0.5572584867477417,1.1777634620666504,1.042436122894287
1701893794609134600,15.938134521484375,0.7935162782669067,1.8738765716552734,1.1101932525634766
1701893794626124500,15.95512451171875,0.5895937085151672,2.7035651206970215,1.1303458213806152
1701893794643121400,15.972121337890625,0.1462700068950653,3.463916301727295,0.9864516258239746
1701893794660098600,15.9890986328125,-0.34210947155952454,3.946315288543701,0.7629804611206055
1701893794677106000,16.00610595703125,-0.6502847075462341,4.224401950836182,0.641545295715332
1701893794694093800,16.02309375,-0.9262831211090088,4.493081092834473,0.6070680618286133
1701893794711089400,16.04008935546875,-1.1775517463684082,4.782853603363037,0.6585264205932617
1701893794728080600,16.05708056640625,-1.580242395401001,4.954041004180908,0.7801117897033691
1701893794745070000,16.074070068359376,-1.9595274925231934,4.976069450378418,1.0061211585998535
1701893794762065000,16.09106494140625,-2.195976734161377,4.796152114868164,1.2448534965515137
1701893794779057200,16.10805712890625,-2.284177780151367,4.269570827484131,1.6937222480773926
1701893794796049700,16.125049560546874,-2.2774014472961426,3.780735492706299,1.836616039276123
1701893794813042000,16.1420419921875,-2.2042176723480225,3.5159316062927246,1.8052005767822266
1701893794830038000,16.1590380859375,-2.1291756629943848,3.096064567565918,2.0327000617980957
1701893794847026000,16.17602587890625,-1.8979699611663818,2.67936372756958,2.266165256500244
1701893794864008200,16.19300830078125,-1.663884162902832,1.9796996116638184,2.4274535179138184
1701893794881005600,16.210005615234376,-1.3252054452896118,1.082587718963623,2.482530117034912
1701893794898003500,16.22700341796875,-0.957939863204956,0.1525897979736328,2.5959863662719727
1701893794914995200,16.2439951171875,-0.5818018913269043,-0.33591461181640625,2.7791905403137207
1701893794931988000,16.260988037109374,-0.21878916025161743,-0.6413593292236328,3.641427516937256
1701893794948979500,16.2779794921875,-0.16849863529205322,-1.0489559173583984,5.017326354980469
1701893794965973200,16.29497314453125,-0.37566205859184265,-1.9869928359985352,6.334595680236816
1701893794982964200,16.311964111328123,-0.337685763835907,-3.0364561080932617,7.137934684753418
1701893794999957000,16.32895703125,0.38373619318008423,-3.4663257598876953,7.459888935089111
1701893795016949000,16.345948974609374,1.502572774887085,-2.7009057998657227,7.214613437652588
1701893795033941800,16.362941650390624,2.509404420852661,-1.1445398330688477,6.837876319885254
1701893795050933500,16.37993359375,3.043607473373413,0.23504638671875,6.924140930175781
1701893795067923200,16.396923095703126,2.8589227199554443,0.9648265838623047,7.293527603149414
1701893795084920800,16.4139208984375,1.9239768981933594,1.0720229148864746,7.272891044616699
1701893795101910500,16.43091064453125,0.5687706470489502,0.811955451965332,6.548374176025391
1701893795118902500,16.447902587890624,-0.14426225423812866,0.3463315963745117,5.515557289123535
1701893795135893000,16.46489306640625,0.2758597135543823,-0.3229999542236328,4.496937274932861
1701893795152889300,16.481889404296876,1.6829047203063965,-1.0869026184082031,3.4489974975585938
1701893795169880000,16.498880126953125,3.3556220531463623,-1.9024124145507812,2.4882259368896484
1701893795186871600,16.51587158203125,4.818869113922119,-2.212390899658203,1.4070606231689453
1701893795203864000,16.532864013671876,4.93610954284668,-1.8516359329223633,0.2897624969482422
1701893795220856300,16.549856201171874,3.6223068237304688,-1.1682133674621582,-0.8516459465026855
1701893795237848800,16.566848876953124,1.8124375343322754,-0.2501049041748047,-1.9198412895202637
1701893795254825700,16.58382568359375,0.8533238172531128,0.26205015182495117,-2.5072779655456543
1701893795271834600,16.600834716796875,1.273147702217102,0.3462686538696289,-2.8880462646484375
1701893795288825600,16.61782568359375,2.3770599365234375,0.30949926376342773,-3.5086827278137207
1701893795305818600,16.634818603515626,3.6674716472625732,0.5078639984130859,-4.566612243652344
1701893795322808800,16.651808837890623,4.353206157684326,0.9023575782775879,-5.286565780639648
1701893795339802400,16.66880224609375,4.261369228363037,1.3442316055297852,-5.588577747344971
1701893795356794600,16.685794677734375,3.582822322845459,1.5962495803833008,-5.611347198486328
1701893795373787100,16.702787109375,2.928372383117676,1.7145776748657227,-5.5931077003479
1701893795390768400,16.719768310546876,2.668984889984131,1.5375761985778809,-5.602507591247559
1701893795407771100,16.736771240234376,3.0896804332733154,0.8876404762268066,-5.7522873878479
1701893795424762000,16.75376220703125,3.7669944763183594,0.1734485626220703,-6.164156913757324
1701893795441757200,16.770757080078123,3.988248586654663,-0.4943265914916992,-6.115385055541992
1701893795458747100,16.7877470703125,3.6235580444335938,-0.894965648651123,-5.439499855041504
1701893795475740400,16.804740478515626,2.9965648651123047,-1.0982437133789062,-4.26945686340332
1701893795492743000,16.821742919921874,2.386387348175049,-1.2282981872558594,-3.0590672492980957
1701893795509715000,16.83871484375,2.071850299835205,-1.646130084991455,-2.07789945602417
1701893795526716200,16.855716064453127,1.9735010862350464,-2.3646230697631836,-1.3630728721618652
1701893795543710200,16.872710205078125,1.929893970489502,-3.003544330596924,-0.9701495170593262
1701893795560701700,16.88970166015625,1.6910738945007324,-3.6082987785339355,-0.4754800796508789
1701893795577688800,16.906688720703126,1.1150531768798828,-3.769125461578369,-0.19245624542236328
1701893795594686500,16.9236865234375,0.6156506538391113,-3.6420326232910156,0.16694879531860352
1701893795611678700,16.9406787109375,0.40298378467559814,-3.546383857727051,0.9646487236022949
1701893795628671000,16.9576708984375,0.47169697284698486,-3.4315223693847656,2.002976417541504
1701893795645663200,16.974663330078126,0.7918961048126221,-2.9368252754211426,2.918458938598633
1701893795662655000,16.991655029296876,1.0789884328842163,-1.3924517631530762,3.347262382507324
1701893795679647500,17.0086474609375,0.6173941493034363,0.8917808532714844,3.6136298179626465
1701893795696643300,17.025643310546876,-0.7550265789031982,2.8836545944213867,3.9612722396850586
1701893795713621800,17.042621826171874,-2.5700974464416504,4.250973224639893,4.161345481872559
1701893795730633500,17.059633544921876,-4.22279167175293,4.746329307556152,4.041635990142822
1701893795747615700,17.07661572265625,-4.787860870361328,4.495163917541504,3.678835868835449
1701893795764609800,17.09360986328125,-4.280879497528076,3.579965114593506,3.1487984657287598
1701893795781598200,17.11059814453125,-2.9116954803466797,2.7508492469787598,2.7038822174072266
1701893795798593300,17.12759326171875,-1.5378713607788086,2.380614757537842,2.545238494873047
1701893795815586800,17.1445869140625,-0.567398190498352,2.3514485359191895,2.6241326332092285
1701893795832577300,17.161577392578124,0.05221927538514137,2.494013786315918,2.82021427154541
1701893795849569800,17.17856982421875,0.5033739805221558,2.645716667175293,3.0493459701538086
1701893795866560500,17.195560546875,0.9842774868011475,2.603504180908203,3.030208110809326
1701893795883557400,17.212557373046874,1.5809544324874878,2.3747758865356445,2.963165283203125
1701893795900547000,17.229547119140626,2.2633042335510254,2.102118492126465,2.842446804046631
1701893795917537500,17.24653759765625,2.8455381393432617,1.7512645721435547,2.688798427581787
1701893795934535700,17.26353564453125,3.042189359664917,1.5382041931152344,2.4732003211975098
1701893795951523000,17.280523193359375,2.6868839263916016,1.4600682258605957,2.2346558570861816
1701893795968515300,17.297515380859377,1.9457731246948242,1.402909755706787,2.054471969604492
1701893795985510000,17.314510009765623,1.131218433380127,1.290837287902832,1.9012422561645508
1701893796002490600,17.33149072265625,0.5356445908546448,1.2569689750671387,1.6806244850158691
1701893796019492900,17.348492919921874,0.3368607461452484,1.155285358428955,1.524275779724121
1701893796036484400,17.365484375,0.5172067284584045,1.0017786026000977,1.2358574867248535
1701893796053478700,17.382478759765625,0.8324198722839355,0.8522233963012695,0.8947649002075195
1701893796070469600,17.3994697265625,1.1890959739685059,0.6976809501647949,0.6563868522644043
1701893796087462100,17.416462158203124,1.5286158323287964,0.5124497413635254,0.5100674629211426
1701893796104451000,17.433451171875,1.997391700744629,0.31197071075439453,0.5567779541015625
1701893796121447000,17.450447021484376,2.4638969898223877,0.20344161987304688,0.8949198722839355
1701893796138436000,17.46743603515625,2.566772699356079,0.2726902961730957,1.6244778633117676
1701893796155420700,17.484420654296876,2.6943607330322266,0.2937474250793457,2.3697242736816406
1701893796172422000,17.501421875,3.637946128845215,0.2614150047302246,3.0180840492248535
1701893796189403000,17.51840283203125,4.316891193389893,-0.38651514053344727,3.602458953857422
1701893796206404000,17.535404052734375,4.434589385986328,-1.2794628143310547,3.464010715484619
1701893796223392300,17.552392333984375,4.299849987030029,-2.380932331085205,2.9739527702331543
1701893796240383200,17.56938330078125,4.462278842926025,-3.229430675506592,2.260207176208496
1701893796257380000,17.586380126953124,5.33772611618042,-2.8678231239318848,1.3362932205200195
1701893796274369500,17.60336962890625,6.196572303771973,-1.6158018112182617,1.0777502059936523
1701893796291360800,17.62036083984375,5.835265159606934,-0.6666808128356934,1.4345331192016602
1701893796308353500,17.637353515625,4.758667945861816,-0.43750858306884766,1.6704039573669434
1701893796325350100,17.65435009765625,3.654191255569458,-0.5283298492431641,1.1022915840148926
1701893796342342000,17.671341796875,2.788050889968872,-0.7132163047790527,0.2750835418701172
1701893796359329000,17.6883291015625,2.352022171020508,-0.7781014442443848,-0.3779773712158203
1701893796376331500,17.70533154296875,2.260972023010254,-0.5038132667541504,-0.812690258026123
1701893796393323300,17.7223232421875,2.1857001781463623,-0.0031909942626953125,-1.0117082595825195
1701893796410315000,17.73931494140625,1.9264789819717407,0.5791144371032715,-1.2525520324707031
1701893796427307500,17.7563076171875,1.4719160795211792,1.0159993171691895,-1.6095552444458008
1701893796444299500,17.773299560546874,1.1919834613800049,1.245673656463623,-1.9742789268493652
1701893796461292300,17.790292236328124,1.103846549987793,1.2385377883911133,-2.4374828338623047
1701893796478284000,17.807283935546874,1.3714015483856201,1.0730218887329102,-2.993501663208008
1701893796495276500,17.824276611328123,1.7105618715286255,0.7016005516052246,-3.3271732330322266
1701893796512269000,17.84126904296875,2.095679521560669,0.15864133834838867,-3.426820755004883
1701893796529252000,17.858252197265625,2.495190382003784,-0.5240988731384277,-3.4634923934936523
1701893796546252300,17.875252197265624,2.925408363342285,-1.2751460075378418,-3.1120314598083496
1701893796563248000,17.892248046875,3.3679614067077637,-1.8332462310791016,-2.402338981628418
1701893796580225300,17.909225341796876,3.307251453399658,-2.2509026527404785,-1.6396970748901367
1701893796597230300,17.926230224609377,3.0423178672790527,-2.70512056350708,-0.9717035293579102
1701893796614219300,17.94321923828125,3.0537567138671875,-3.4709768295288086,-0.2948732376098633
1701893796631214800,17.96021484375,3.259305000305176,-4.469757080078125,0.17653465270996094
1701893796648193500,17.977193603515627,3.5637471675872803,-5.4247822761535645,0.19632244110107422
1701893796665202200,17.9942021484375,3.769162178039551,-6.155551433563232,-0.2203502655029297
1701893796682185200,18.011185302734376,3.775587320327759,-6.278266906738281,-0.9423084259033203
1701893796699183600,18.02818359375,3.4784317016601562,-6.11968994140625,-1.4048652648925781
1701893796716188000,18.04518798828125,2.6801578998565674,-5.71187686920166,-1.7977499961853027
1701893796733168600,18.062168701171874,1.8324038982391357,-5.026559829711914,-2.5319442749023438
1701893796750160400,18.079160400390624,1.588229775428772,-3.69236421585083,-3.2917795181274414
1701893796767153000,18.09615283203125,1.5103089809417725,-2.057863235473633,-3.5473880767822266
1701893796784145000,18.113144775390627,0.7384081482887268,-1.034743309020996,-2.953815460205078
1701893796801137700,18.1301376953125,-0.6471847295761108,-0.6649289131164551,-2.0468711853027344
1701893796818129400,18.14712939453125,-2.059049606323242,-0.6209449768066406,-1.6533927917480469
1701893796835122000,18.164121826171876,-2.794175863265991,-0.607001781463623,-1.7272791862487793
1701893796852114200,18.1811142578125,-2.601733684539795,-0.588010311126709,-1.8991680145263672
1701893796869095200,18.19809521484375,-1.9254796504974365,-0.4631209373474121,-1.7141375541687012
1701893796886099200,18.21509912109375,-1.1630096435546875,-0.08728361129760742,-1.1114249229431152
1701893796903091000,18.232091064453126,-0.8987656235694885,0.34891605377197266,-0.12914180755615234
1701893796920083200,18.249083251953124,-1.0549942255020142,0.959477424621582,0.8982424736022949
1701893796937075700,18.26607568359375,-1.3775511980056763,1.401538372039795,1.8945350646972656
1701893796954067700,18.283067626953127,-1.6004692316055298,1.7662467956542969,2.5864028930664062
1701893796971060200,18.300060302734376,-1.5309123992919922,2.137296199798584,3.0325145721435547
1701893796988052500,18.317052490234374,-1.2576189041137695,2.4077634811401367,3.4008283615112305
1701893797005042700,18.334042724609375,-0.7713899612426758,2.5501255989074707,3.7583584785461426
1701893797022028300,18.3510283203125,-0.33413392305374146,2.6878867149353027,4.2002177238464355
1701893797039029000,18.368029052734375,-0.23640668392181396,2.84647798538208,4.615387439727783
1701893797056020500,18.3850205078125,-0.5944715738296509,3.0110740661621094,4.846202373504639
1701893797073006300,18.40200634765625,-0.8823755383491516,3.04010009765625,5.137401103973389
1701893797090002700,18.419002685546875,-0.994785726070404,2.8507299423217773,5.437508583068848
1701893797107000600,18.43600048828125,-0.7625256180763245,2.4772586822509766,5.459827423095703
1701893797123988200,18.45298828125,-0.3631478250026703,1.8248181343078613,5.446856498718262
1701893797140983000,18.469983154296877,0.10728690028190613,1.0641703605651855,5.514802932739258
1701893797157974800,18.486974853515626,0.6080276966094971,0.33165645599365234,5.713826656341553
1701893797174967300,18.50396728515625,1.0330088138580322,-0.44211483001708984,6.038466453552246
1701893797191949600,18.520949462890623,1.3497198820114136,-1.623082160949707,6.34397554397583
1701893797208952000,18.5379521484375,1.860353708267212,-2.858458995819092,6.038781642913818
1701893797225941200,18.554941162109376,2.593273401260376,-4.139094352722168,5.5160136222839355
1701893797242939000,18.57193896484375,3.5643410682678223,-4.649204254150391,4.970828056335449
1701893797259929000,18.58892919921875,4.6345038414001465,-3.514285087585449,4.077329158782959
1701893797276920600,18.605920654296874,4.854677677154541,-1.733811378479004,3.5812158584594727
1701893797293913000,18.6229130859375,3.9951393604278564,-0.8423829078674316,3.9216270446777344
1701893797310895400,18.639895263671875,2.758263349533081,-1.0307722091674805,4.6958513259887695
1701893797327897600,18.656897705078126,1.646562099456787,-1.9123358726501465,5.049040794372559
1701893797344890000,18.67389013671875,1.258125901222229,-2.8858399391174316,4.367361068725586
1701893797361881900,18.6908818359375,1.4045486450195312,-3.7674317359924316,3.2913880348205566
1701893797378873600,18.70787353515625,1.7429486513137817,-4.426738262176514,2.2948431968688965
1701893797395865000,18.724864990234376,1.9248799085617065,-4.6692728996276855,1.151388168334961
1701893797412862000,18.741862060546875,1.9782785177230835,-4.556726455688477,-0.22804927825927734
1701893797429851100,18.75885107421875,2.0050246715545654,-4.2438645362854,-1.6874566078186035
1701893797446842600,18.775842529296874,2.1009156703948975,-3.910168170928955,-2.98492431640625
1701893797463836700,18.792836669921876,2.3643271923065186,-3.6344382762908936,-4.087396144866943
1701893797480828400,18.809828369140625,2.7671451568603516,-3.4257850646972656,-4.965325355529785
1701893797497820200,18.826820068359375,3.1058194637298584,-3.247626781463623,-5.5315728187561035
1701893797514813000,18.84381298828125,3.3122310638427734,-2.981661796569824,-5.95593786239624
1701893797531805000,18.860804931640626,3.2632570266723633,-2.737248182296753,-6.38112735748291
1701893797548797400,18.87779736328125,2.919996976852417,-2.6591696739196777,-6.682952404022217
1701893797565787000,18.894786865234376,2.5057506561279297,-2.7762444019317627,-6.8343095779418945
1701893797582784000,18.911783935546875,2.230668067932129,-2.87548828125,-6.973757743835449
1701893797599774000,18.92877392578125,2.0050504207611084,-3.0736746788024902,-6.982871055603027
1701893797616750600,18.94575048828125,1.8201613426208496,-3.449409008026123,-6.79398775100708
1701893797633758500,18.962758544921876,1.7493557929992676,-4.03980016708374,-6.313785552978516
1701893797650730200,18.979730224609376,1.8436388969421387,-4.801753520965576,-5.5042219161987305
1701893797667734500,18.996734619140625,2.0415279865264893,-5.460566520690918,-4.556700706481934
1701893797684732400,19.013732421875,2.1754097938537598,-5.951386451721191,-3.677436351776123
1701893797701720800,19.030720947265625,1.7816468477249146,-6.443036079406738,-3.0868921279907227
1701893797718709200,19.047709228515625,0.9932173490524292,-7.121088981628418,-2.6813254356384277
1701893797735706000,19.0647060546875,0.32673752307891846,-8.038225173950195,-2.1215696334838867
1701893797752698600,19.08169873046875,0.22727108001708984,-8.78551197052002,-1.6530780792236328
1701893797769689000,19.098689208984375,0.9054970741271973,-8.92624282836914,-1.4346389770507812
1701893797786687700,19.115687744140626,1.98546302318573,-8.123823165893555,-1.3459582328796387
1701893797803675100,19.132675048828126,2.9958102703094482,-6.445605754852295,-0.9336309432983398
1701893797820666400,19.149666259765624,3.14705491065979,-4.921529293060303,0.1452789306640625
1701893797837659600,19.16665966796875,2.3121209144592285,-4.114341735839844,1.2931556701660156
1701893797854645800,19.183645751953126,1.2052726745605469,-3.627462863922119,1.9106817245483398
1701893797871640300,19.200640380859376,0.36539340019226074,-3.204336643218994,1.840766429901123
1701893797888643300,19.217643310546876,-0.2514705955982208,-2.6692557334899902,1.280911922454834
1701893797905635300,19.23463525390625,-0.6445322036743164,-1.8999028205871582,0.9018311500549316
1701893797922627000,19.251626953125,-0.7297271490097046,-1.024726390838623,1.2715954780578613
1701893797939619300,19.268619384765625,-0.7089975476264954,0.04450225830078125,2.064798355102539
1701893797956609300,19.285609375,-0.6983696818351746,1.123246669769287,2.56581974029541
1701893797973606100,19.302606201171876,-0.773094654083252,2.1711978912353516,2.5170865058898926
1701893797990596400,19.319596435546874,-0.7460294961929321,3.087277889251709,2.1068902015686035
1701893798007588400,19.33658837890625,-0.6982711553573608,3.8014698028564453,1.781942367553711
1701893798024578300,19.353578369140624,-0.6931727528572083,4.30728816986084,1.9149112701416016
1701893798041572600,19.370572509765626,-0.7784678936004639,4.724730491638184,2.4972729682922363
1701893798058565000,19.387565185546876,-0.9956780672073364,5.15806770324707,3.191067695617676
1701893798075557400,19.404557373046874,-1.4970382452011108,5.4074835777282715,3.531585693359375
1701893798092548900,19.421548828125,-1.97962486743927,5.344229698181152,3.763754367828369
1701893798109542000,19.4385419921875,-1.9443918466567993,5.159865856170654,4.078682899475098
1701893798126531600,19.455531494140626,-1.7272800207138062,4.913152694702148,4.614975929260254
1701893798143529200,19.472529296875,-1.6793708801269531,4.642250061035156,5.364316463470459
1701893798160519000,19.489518798828126,-1.8386324644088745,4.384182929992676,5.882467746734619
1701893798177500400,19.50650048828125,-2.1247286796569824,3.9786510467529297,6.119640827178955
1701893798194503400,19.52350341796875,-2.3035354614257812,3.394181728363037,6.180444717407227
1701893798211492600,19.54049267578125,-2.0861058235168457,2.7984657287597656,6.3778204917907715
1701893798228488200,19.55748828125,-1.4200022220611572,1.9382753372192383,6.748472690582275
1701893798245470500,19.574470458984376,-0.4658869504928589,0.5677251815795898,7.509751319885254
1701893798262472400,19.591472412109376,0.18314555287361145,-1.4587392807006836,8.636617660522461
1701893798279464000,19.6084638671875,0.4199816882610321,-3.46376895904541,9.286373138427734
1701893798296458000,19.6254580078125,0.6747080087661743,-4.207244873046875,9.012094497680664
1701893798313449000,19.642448974609376,1.137631893157959,-3.223971366882324,8.444046020507812
1701893798330441700,19.659441650390626,1.6924304962158203,-1.5662641525268555,7.792366027832031
1701893798347433700,19.676433837890624,2.0846431255340576,-0.3019428253173828,7.089857578277588
1701893798364426200,19.69342626953125,2.268073320388794,-0.7834725379943848,6.900378704071045
1701893798381418200,19.710418212890627,2.3414039611816406,-2.517220973968506,6.273472309112549
1701893798398403600,19.727403564453127,2.4146533012390137,-4.108314514160156,4.585236072540283
1701893798415392300,19.744392333984376,2.554332971572876,-4.749232292175293,2.358140468597412
1701893798432395800,19.761395751953124,2.7152130603790283,-4.408307075500488,0.39023685455322266
1701893798449376500,19.77837646484375,2.8861231803894043,-3.751821517944336,-0.7602496147155762
1701893798466380000,19.795380126953123,2.5838940143585205,-3.3717565536499023,-1.5235061645507812
1701893798483371500,19.81237158203125,2.18915057182312,-3.0494346618652344,-2.5555896759033203
1701893798500364000,19.829364013671874,2.0706119537353516,-2.862069606781006,-3.6038999557495117
1701893798517353500,19.846353515625,2.1132137775421143,-2.654580593109131,-4.673641204833984
1701893798534348300,19.863348388671874,2.147155284881592,-2.3671157360076904,-5.536726951599121
1701893798551341000,19.880341064453123,2.1603171825408936,-2.0548362731933594,-6.075310707092285
1701893798568333600,19.89733349609375,1.9985487461090088,-1.823927640914917,-6.330588340759277
1701893798585325300,19.9143251953125,1.696657657623291,-1.6229467391967773,-6.446000099182129
1701893798602314500,19.931314453125,1.3955860137939453,-1.4433705806732178,-6.664714336395264
1701893798619310000,19.94831005859375,1.1341969966888428,-1.4298326969146729,-6.724043846130371
1701893798636296700,19.965296630859374,1.0707478523254395,-1.5398049354553223,-6.684965133666992
1701893798653294600,19.982294677734377,1.2875962257385254,-1.65311861038208,-6.642831325531006
1701893798670286800,19.999286865234374,1.6090366840362549,-1.9410464763641357,-6.414855480194092
1701893798687279000,20.016279052734376,1.849445104598999,-2.4720492362976074,-5.884161949157715
1701893798704271600,20.033271728515626,2.047910451889038,-3.1411802768707275,-5.403721332550049
1701893798721263600,20.050263671875,2.289750099182129,-3.851691484451294,-5.043553352355957
1701893798738256000,20.067255859375,2.6411685943603516,-4.503766059875488,-4.987321376800537
1701893798755244500,20.08424462890625,3.1099307537078857,-5.219475746154785,-4.673490524291992
1701893798772244200,20.101244140625,3.3773105144500732,-5.883574485778809,-4.10243034362793
1701893798789235000,20.11823486328125,3.4101386070251465,-6.480820178985596,-3.174407958984375
1701893798806225700,20.1352255859375,3.3600997924804688,-6.607582092285156,-2.4044952392578125
1701893798823214000,20.152214111328124,3.106454610824585,-6.882274150848389,-1.6343317031860352
1701893798840207000,20.16920703125,2.907858371734619,-7.634190082550049,-0.8190326690673828
1701893798857201400,20.186201416015624,3.1723926067352295,-8.860054016113281,0.11571025848388672
1701893798874194200,20.203194091796874,4.1640238761901855,-9.192218780517578,0.4886941909790039
1701893798891186400,20.2201865234375,5.229161262512207,-8.086782455444336,1.0341291427612305
1701893798908179000,20.237178955078125,4.856696128845215,-5.825119495391846,2.226999282836914
1701893798925167900,20.25416796875,2.4670116901397705,-3.976315975189209,3.1956868171691895
1701893798942163200,20.2711630859375,-0.3784240484237671,-3.0982909202575684,3.5560860633850098
1701893798959155500,20.288155517578126,-2.0850658416748047,-2.959587574005127,3.3168907165527344
1701893798976148500,20.3051484375,-2.271548271179199,-2.8720664978027344,2.3284358978271484
1701893798993139000,20.322138916015625,-1.7203863859176636,-2.522111415863037,1.4814324378967285
1701893799010132200,20.33913232421875,-1.0847455263137817,-1.8213162422180176,1.2312283515930176
1701893799027124500,20.35612451171875,-0.8564548492431641,-0.7622060775756836,1.5649452209472656
1701893799044116700,20.37311669921875,-1.2794907093048096,0.23889827728271484,2.191793441772461
1701893799061106700,20.390106689453123,-2.2223010063171387,1.4069080352783203,2.4405713081359863
1701893799078103600,20.407103515625,-2.799830675125122,2.7396240234375,2.1767616271972656
1701893799095093500,20.424093505859375,-2.7929811477661133,3.705183982849121,1.812154769897461
1701893799112083000,20.4410830078125,-2.1584413051605225,4.320291519165039,1.530324935913086
1701893799129067500,20.458067626953124,-1.1635314226150513,4.719513416290283,1.4695014953613281
1701893799146070300,20.4750703125,-0.21555066108703613,5.0721211433410645,1.7171339988708496
1701893799163062500,20.4920625,0.325923353433609,5.318900108337402,2.2002806663513184
1701893799180053000,20.509052978515626,0.39896950125694275,5.561708927154541,2.483628988265991
1701893799197035300,20.52603515625,0.2619215250015259,5.576510429382324,2.869170665740967
1701893799214038000,20.5430380859375,0.04736429452896118,5.367118835449219,3.413374423980713
1701893799231034400,20.560034423828125,-0.22946017980575562,4.796271800994873,4.1031928062438965
1701893799248024000,20.577024169921874,-0.6417173743247986,3.8749780654907227,4.638924598693848
1701893799265013200,20.59401318359375,-0.9372453689575195,3.028740882873535,4.971173286437988
1701893799282011000,20.611010986328125,-1.0101492404937744,2.2256460189819336,5.432708263397217
1701893799298999800,20.627999755859374,-1.0730259418487549,1.7546682357788086,5.755795478820801
1701893799315993900,20.644993896484376,-1.18454110622406,1.3740653991699219,5.950219631195068
1701893799332983600,20.661983642578125,-0.7118587493896484,0.9676637649536133,6.298534393310547
1701893799349981000,20.67898095703125,0.4726250171661377,0.38692569732666016,6.608447074890137
1701893799366969000,20.695968994140625,1.691139817237854,-0.9961881637573242,7.164203643798828
1701893799383963000,20.712962890625,2.346324920654297,-2.669772148132324,7.322803020477295
1701893799400951600,20.72995166015625,2.6270687580108643,-3.539031982421875,6.742158889770508
1701893799417949000,20.746948974609374,2.8918869495391846,-3.088979721069336,5.781505584716797
1701893799434939000,20.76393896484375,2.8208794593811035,-2.061349868774414,5.37132453918457
1701893799451931400,20.780931396484377,2.2193706035614014,-0.776759147644043,5.497259140014648
1701893799468923100,20.797923095703126,1.1539844274520874,-0.03702259063720703,5.905547142028809
1701893799485914600,20.81491455078125,0.20966798067092896,0.04741382598876953,6.1877617835998535
1701893799502908700,20.83190869140625,-0.17599309980869293,-0.772028923034668,6.19252347946167
1701893799519890200,20.84889013671875,0.051083698868751526,-1.8456931114196777,5.613858699798584
1701893799536892200,20.86589208984375,0.45585358142852783,-2.709771156311035,4.472420692443848
1701893799553884700,20.882884765625,0.9037536382675171,-3.168365955352783,3.1458587646484375
1701893799570866700,20.89986669921875,1.3465807437896729,-3.3882765769958496,1.8966174125671387
1701893799587869400,20.916869384765626,1.6853166818618774,-3.3485212326049805,0.7592253684997559
1701893799604858600,20.933858642578127,1.7340956926345825,-2.9608349800109863,-0.4386615753173828
1701893799621853200,20.950853271484377,1.55008065700531,-2.6010313034057617,-1.4899320602416992
1701893799638848000,20.967847900390623,1.3000482320785522,-2.235137462615967,-2.5098791122436523
1701893799655838500,20.98483837890625,1.1166770458221436,-1.9222207069396973,-3.493405342102051
1701893799672830500,21.00183056640625,0.9576413035392761,-1.7159185409545898,-4.359003067016602
1701893799689811000,21.01881103515625,0.9367601275444031,-1.5911197662353516,-5.226515769958496
1701893799706812200,21.035812255859376,1.0234911441802979,-1.5579447746276855,-5.899632453918457
1701893799723807200,21.05280712890625,1.0663678646087646,-1.6090455055236816,-6.303614616394043
1701893799740790500,21.06979052734375,0.9278653860092163,-1.738537073135376,-6.53033971786499
1701893799757786600,21.08678662109375,0.7235201597213745,-1.8944411277770996,-6.723338603973389
1701893799774782700,21.10378271484375,0.599882185459137,-2.3484714031219482,-6.738883018493652
1701893799791767000,21.12076708984375,0.6338688135147095,-3.0718584060668945,-6.762243270874023
1701893799808764700,21.1377646484375,1.0410497188568115,-4.145327091217041,-6.374551773071289
1701893799825755600,21.154755615234375,1.6727635860443115,-4.995582580566406,-5.960622787475586
1701893799842744800,21.171744873046876,2.15449857711792,-5.687239170074463,-5.270565032958984
1701893799859746300,21.188746337890624,2.2205116748809814,-6.493069648742676,-4.172582149505615
1701893799876735000,21.20573486328125,1.8280668258666992,-7.527310371398926,-2.857025623321533
1701893799893732900,21.22273291015625,1.2015851736068726,-8.396100044250488,-1.941793441772461
1701893799910735000,21.239735107421875,0.46860384941101074,-9.397160530090332,-1.1557059288024902
1701893799927714800,21.25671484375,0.3596440553665161,-10.083290100097656,-0.9875450134277344
1701893799944706600,21.27370654296875,1.5965428352355957,-9.933561325073242,-1.2791166305541992
1701893799961699000,21.290698974609374,3.5233049392700195,-8.815500259399414,-1.3995037078857422
1701893799978691300,21.30769140625,5.19621467590332,-6.702597618103027,-1.24609375
1701893799995683800,21.324683837890625,5.28353214263916,-4.662266254425049,-0.7824950218200684
1701893800012672500,21.341672607421874,3.7941558361053467,-3.220366954803467,-0.258176326751709
1701893800029668000,21.358668212890624,1.771230697631836,-2.1853809356689453,0.12196493148803711
1701893800046663400,21.375663330078126,0.16682440042495728,-1.5946941375732422,0.20471906661987305
1701893800063639600,21.3926396484375,-0.4461161494255066,-1.1463384628295898,0.021488189697265625
1701893800080644600,21.40964453125,-0.23336100578308105,-0.659602165222168,0.1278676986694336
1701893800097637000,21.42663720703125,0.18498307466506958,-0.039629459381103516,0.7922811508178711
1701893800114629600,21.443629638671876,0.25837868452072144,0.6961236000061035,1.8168220520019531
1701893800131619000,21.460619140625,-0.003952324390411377,1.7739934921264648,2.4438133239746094
1701893800148613600,21.477613525390623,-0.3935750126838684,2.8359804153442383,2.606309413909912
1701893800165606100,21.494606201171877,-0.6483012437820435,3.810338020324707,2.512995719909668
1701893800182598400,21.511598388671874,-0.7358906865119934,4.607337951660156,2.5044918060302734
1701893800199590400,21.52859033203125,-0.8416977524757385,5.232336044311523,2.6280083656311035
1701893800216583400,21.54558349609375,-0.9458485245704651,5.640803337097168,2.70969295501709
1701893800233565400,21.5625654296875,-0.9821998476982117,5.907008647918701,2.7188034057617188
1701893800250558700,21.579558837890627,-0.9118658304214478,6.032482147216797,3.0711584091186523
1701893800267560200,21.596560302734375,-1.0628737211227417,6.147233009338379,3.5454931259155273
1701893800284551700,21.6135517578125,-1.393034815788269,5.971078395843506,3.9897267818450928
1701893800301544200,21.630544189453126,-1.7280913591384888,5.433117389678955,4.303394317626953
1701893800318526500,21.6475263671875,-1.6902178525924683,4.592355728149414,4.5794219970703125
