time,seconds_elapsed,z,y,x
1701056938455211500,0.05521142578125,-0.16890424489974976,-0.13118331134319305,-0.02076941914856434
1701056938471856000,0.071856201171875,-0.058337632566690445,-0.15745051205158234,0.04306599870324135
1701056938488767700,0.088767822265625,-0.004734205547720194,-0.16340644657611847,0.060322944074869156
1701056938505748000,0.105748046875,-0.01572977937757969,-0.09758572280406952,0.04108068719506264
1701056938522745000,0.1227451171875,-0.047189339995384216,0.024892758578062057,-0.01542434748262167
1701056938539735000,0.139735107421875,-0.10842858254909515,0.1333213448524475,-0.07406741380691528
1701056938556724000,0.156723876953125,-0.15027284622192383,0.13469578325748444,-0.08811730891466141
1701056938573717000,0.173717041015625,-0.13515393435955048,-0.007788531947880983,-0.08735372871160507
1701056938590712800,0.190712890625,-0.078343465924263,-0.24404066801071167,-0.03405573591589928
1701056938607691300,0.207691162109375,-0.08445212244987488,-0.18967366218566895,0.0682641938328743
1701056938624695600,0.224695556640625,-0.020922135561704636,-0.09544769674539566,0.15943582355976105
1701056938641683500,0.241683349609375,0.08689557760953903,0.044287730008363724,0.17989981174468994
1701056938658679800,0.2586796875,0.20723603665828705,0.17012597620487213,0.12476922571659088
1701056938675667000,0.2756669921875,0.36224308609962463,0.17760907113552094,0.05345070734620094
1701056938692661000,0.292660888671875,0.5224425196647644,0.1459967941045761,0.02825251780450344
1701056938709653200,0.3096533203125,0.6508769392967224,0.08170322328805923,0.007177666760981083
1701056938726643200,0.326643310546875,0.6629415154457092,-0.014355333521962166,-0.10445795953273773
1701056938743624700,0.343624755859375,0.5775730609893799,-0.014049900695681572,-0.23747386038303375
1701056938760629500,0.36062939453125,0.5378668308258057,0.19104810059070587,-0.24388794600963593
1701056938777616600,0.37761669921875,0.6082690954208374,0.31932979822158813,-0.1849394589662552
1701056938794603300,0.394603271484375,0.7237225770950317,0.35903605818748474,-0.12553280591964722
1701056938811604000,0.41160400390625,0.8315402865409851,0.3758348524570465,-0.11743884533643723
1701056938828595700,0.428595703125,0.917061448097229,0.3423899710178375,-0.1569923609495163
1701056938845584100,0.445584228515625,0.9340129494667053,0.33597588539123535,-0.17470745742321014
1701056938862580000,0.462580078125,0.9051495790481567,0.3784310221672058,-0.10674870014190674
1701056938879569400,0.4795693359375,0.9445503950119019,0.43249258399009705,0.03084869496524334
1701056938896562400,0.4965625,1.0598511695861816,0.4709770977497101,0.2099849283695221
1701056938913552600,0.513552734375,1.1720976829528809,0.46761733293533325,0.36224308609962463
1701056938930552300,0.53055224609375,1.2359330654144287,0.422871470451355,0.403781920671463
1701056938947529500,0.547529541015625,1.214552879333496,0.289244681596756,0.2616030275821686
1701056938964532200,0.5645322265625,1.1720976829528809,0.24388794600963593,0.06123924255371094
1701056938981522400,0.5815224609375,1.246165156364441,0.4147774875164032,-0.02076941914856434
1701056938998543600,0.598543701171875,1.4537066221237183,0.6904304623603821,0.016798794269561768
1701056939015505000,0.6155048828125,1.6311628818511963,0.9117164015769958,0.076052725315094
1701056939032487200,0.632487060546875,1.739438772201538,1.0114401578903198,0.11178833991289139
1701056939049491700,0.64949169921875,1.8422168493270874,1.0314459800720215,0.14569136500358582
1701056939066481700,0.666481689453125,1.9204076528549194,0.9491318464279175,0.13988813757896423
1701056939083461600,0.683461669921875,1.9604192972183228,0.7289149761199951,0.08521570265293121
1701056939100456200,0.700456298828125,1.9630154371261597,0.531147301197052,0.03298672288656235
1701056939117455000,0.717455078125,1.9285016059875488,0.4369213581085205,-0.025961773470044136
1701056939134449400,0.734449462890625,1.8904752731323242,0.38637226819992065,-0.10018189996480942
1701056939151438000,0.75143798828125,1.8680258989334106,0.38469240069389343,-0.1869247704744339
1701056939168432400,0.768432373046875,1.7683022022247314,0.4046982228755951,-0.280539870262146
1701056939185423600,0.785423583984375,1.5490015745162964,0.44654250144958496,-0.3471241891384125
1701056939202416600,0.802416748046875,1.4479033946990967,0.43279802799224854,-0.3459024429321289
1701056939219397600,0.819397705078125,1.5398385524749756,0.3952298164367676,-0.2871066629886627
1701056939236396300,0.836396240234375,1.5958853960037231,0.35094207525253296,-0.18066339194774628
1701056939253389600,0.8533896484375,1.5360206365585327,0.3240640163421631,-0.060933809727430344
1701056939270385700,0.8703857421875,1.3962851762771606,0.3627012372016907,0.05604688450694084
1701056939287371000,0.88737109375,1.2081387042999268,0.39324450492858887,0.16325373947620392
1701056939304354300,0.904354248046875,1.077413558959961,0.43676865100860596,0.2577851414680481
1701056939321355300,0.921355224609375,1.0685560703277588,0.45921793580055237,0.35063666105270386
1701056939338351000,0.93835107421875,1.1255191564559937,0.4369213581085205,0.44837507605552673
1701056939355342600,0.955342529296875,1.1684324741363525,0.3900374472141266,0.6091853380203247
1701056939372332500,0.97233251953125,1.1116219758987427,0.45555275678634644,0.7924449443817139
1701056939389327000,0.9893271484375,0.9926560521125793,0.6290385127067566,0.8536841869354248
1701056939406319900,1.00631982421875,0.9532552361488342,0.8475755453109741,0.7912232279777527
1701056939423305700,1.0233056640625,1.0450377464294434,1.0415252447128296,0.6629415154457092
1701056939440304600,1.0403046875,1.156978726387024,1.1679743528366089,0.53328537940979
1701056939457289000,1.0572890625,1.2261592149734497,1.1847730875015259,0.47830748558044434
1701056939474287900,1.074287841796875,1.2637274265289307,1.1198687553405762,0.5291619896888733
1701056939491273500,1.0912734375,1.2657127380371094,0.988379955291748,0.6575964093208313
1701056939508263000,1.108262939453125,1.289689302444458,0.8266534209251404,0.7994698882102966
1701056939525245200,1.1252451171875,1.3408491611480713,0.6368269920349121,0.9002626538276672
1701056939542253000,1.142253173828125,1.3892602920532227,0.4242459237575531,0.9245445728302002
1701056939559244300,1.159244384765625,1.3723087310791016,0.19028452038764954,0.9152288436889648
1701056939576233000,1.17623291015625,1.315040111541748,0.04199698567390442,0.9285151958465576
1701056939593233400,1.1932333984375,1.2195924520492554,-0.03985895588994026,0.9471465349197388
1701056939610220800,1.210220703125,1.1336132287979126,-0.11041389405727386,0.9372199773788452
1701056939627207400,1.22720751953125,1.1062769889831543,-0.15714508295059204,0.8807149529457092
1701056939644203800,1.244203857421875,1.0648908615112305,-0.19593502581119537,0.7848091125488281
1701056939661192200,1.261192138671875,1.0175487995147705,-0.10170906037092209,0.7536550164222717
1701056939678187500,1.2781875,0.9651671051979065,0.09651670604944229,0.7258606553077698
1701056939695167700,1.295167724609375,0.9108000993728638,0.28008171916007996,0.5713117122650146
1701056939712169700,1.312169677734375,0.8799513578414917,0.38927388191223145,0.265573650598526
1701056939729162800,1.329162841796875,0.8943067193031311,0.44425174593925476,-0.05513058975338936
1701056939746139000,1.346138916015625,0.9308059215545654,0.6004805564880371,-0.21013765037059784
1701056939763144400,1.36314453125,0.9755517840385437,0.8032878041267395,-0.14034628868103027
1701056939780138800,1.380138671875,1.0422887802124023,0.8781188130378723,0.07147123664617538
1701056939797125400,1.39712548828125,1.1093312501907349,0.8767443299293518,0.32009339332580566
1701056939814120200,1.4141201171875,1.0980303287506104,0.8443684577941895,0.4879286289215088
1701056939831115000,1.431114990234375,1.0529789924621582,0.8136724829673767,0.5363397002220154
1701056939848102100,1.44810205078125,1.0219775438308716,0.8013024926185608,0.5001459121704102
1701056939865087700,1.465087646484375,1.0056369304656982,0.8232936263084412,0.4781547784805298
1701056939882094600,1.482094482421875,0.9769262671470642,0.7872526049613953,0.4631885588169098
1701056939899078000,1.499077880859375,0.9634872078895569,0.6821837425231934,0.4369213581085205
1701056939916072000,1.516072021484375,0.9515753388404846,0.5874996781349182,0.3433062732219696
1701056939933062400,1.5330625,0.9691377282142639,0.5537493228912354,0.14996741712093353
1701056939950058200,1.550058349609375,1.0338894128799438,0.598953366279602,-0.05421429127454758
1701056939967044000,1.567044189453125,1.109789490699768,0.6476698517799377,-0.1814269721508026
1701056939984039200,1.5840390625,1.12506103515625,0.6575964093208313,-0.18096883594989777
1701056940001028900,1.60102880859375,1.1268936395645142,0.6655376553535461,-0.07391469180583954
1701056940018023700,1.618023681640625,1.1537717580795288,0.6380487680435181,0.08277224004268646
1701056940035014100,1.63501416015625,1.1817188262939453,0.6352998614311218,0.26282477378845215
1701056940052005400,1.65200537109375,1.2024881839752197,0.6221662759780884,0.4127921760082245
1701056940068999700,1.668999755859375,1.2078332901000977,0.5833762884140015,0.5085453391075134
1701056940085988900,1.68598876953125,1.2191343307495117,0.5148066878318787,0.588263213634491
1701056940102973400,1.702973388671875,1.2150110006332397,0.41813725233078003,0.65958172082901
1701056940119975400,1.719975341796875,1.1794281005859375,0.3202461004257202,0.7096726894378662
1701056940136960800,1.736960693359375,1.179275393486023,0.25793784856796265,0.7232644557952881
1701056940153959200,1.753959228515625,1.224173903465271,0.2503020465373993,0.6843217611312866
1701056940170949600,1.77094970703125,1.2873984575271606,0.3352122902870178,0.6076582074165344
1701056940187938600,1.7879384765625,1.3483322858810425,0.46150869131088257,0.5267185568809509
1701056940204932600,1.8049326171875,1.4338533878326416,0.5655084848403931,0.45753806829452515
1701056940221925600,1.821925537109375,1.52578866481781,0.6166684627532959,0.40622538328170776
1701056940238916900,1.838916748046875,1.5989397764205933,0.6635523438453674,0.3998112976551056
1701056940255905800,1.85590576171875,1.6661349534988403,0.7163922190666199,0.44806966185569763
1701056940272899000,1.872899169921875,1.741729497909546,0.773202657699585,0.5592471361160278
1701056940289894400,1.889894287109375,1.8261816501617432,0.7785477638244629,0.6855435371398926
1701056940306880300,1.90688037109375,1.9126191139221191,0.7437284588813782,0.8144360780715942
1701056940323875600,1.92387548828125,1.9642372131347656,0.7237225770950317,0.9469938278198242
1701056940340870400,1.940870361328125,1.9759963750839233,0.7402159571647644,1.0653489828109741
1701056940357855000,1.95785498046875,1.954005241394043,0.7843509912490845,1.1537717580795288
1701056940374840600,1.974840576171875,1.91231369972229,0.8297077417373657,1.2131783962249756
1701056940391842800,1.9918427734375,1.8700112104415894,0.921795666217804,1.2657127380371094
1701056940408832800,2.008832763671875,1.8274034261703491,1.045495867729187,1.282817006111145
1701056940425827600,2.02582763671875,1.8235855102539062,1.1702650785446167,1.2554807662963867
1701056940442817000,2.042817138671875,1.8727601766586304,1.353830099105835,1.2243266105651855
1701056940459811600,2.0598115234375,1.9052886962890625,1.4543174505233765,1.1357512474060059
1701056940476791000,2.076791015625,1.9413297176361084,1.193477988243103,0.8811731338500977
1701056940493800400,2.093800537109375,2.0065395832061768,0.8672759532928467,0.6050620079040527
1701056940510776300,2.1107763671875,2.0694587230682373,0.8747590184211731,0.6009386777877808
1701056940527775000,2.12777490234375,2.132377862930298,1.180649757385254,0.8904888033866882
1701056940544770000,2.14477001953125,2.255314588546753,1.5121968984603882,1.2903001308441162
1701056940561747000,2.161746826171875,2.3825271129608154,1.5622878074645996,1.5931365489959717
1701056940578755000,2.178755126953125,2.4689645767211914,1.4088079929351807,1.8038851022720337
1701056940595742700,2.19574267578125,2.4801127910614014,1.1872166395187378,1.9558378458023071
1701056940612735200,2.2127353515625,2.4376578330993652,1.0390818119049072,2.026850938796997
1701056940629731000,2.22973095703125,2.3625214099884033,1.0404561758041382,1.9920315742492676
1701056940646716700,2.246716552734375,2.3015875816345215,1.1094839572906494,1.9007072448730469
1701056940663701500,2.263701416015625,2.2773056030273438,1.224173903465271,1.778228759765625
1701056940680704300,2.280704345703125,2.229963541030884,1.3089314699172974,1.6795740127563477
1701056940697694200,2.297694091796875,2.1675026416778564,1.3463469743728638,1.5806138515472412
1701056940714687200,2.314687255859375,2.076483726501465,1.3078625202178955,1.4286611080169678
1701056940731676000,2.331676025390625,1.9822577238082886,1.2573133707046509,1.2533427476882935
1701056940748671700,2.348671630859375,1.9213238954544067,1.2209669351577759,1.0742065906524658
1701056940765663200,2.365663330078125,1.8527542352676392,1.2064588069915771,0.9152288436889648
1701056940782653700,2.38265380859375,1.72935950756073,1.1911872625350952,0.769690215587616
1701056940799648300,2.399648193359375,1.5876387357711792,1.1714868545532227,0.603687584400177
1701056940816635000,2.416634765625,1.4460707902908325,1.133307695388794,0.36819902062416077
1701056940833633800,2.4336337890625,1.3483322858810425,1.1039862632751465,0.15302173793315887
1701056940850620000,2.450619873046875,1.3156510591506958,1.2072224617004395,0.08185594528913498
1701056940867611400,2.467611328125,1.318858027458191,1.3730723857879639,0.1644754707813263
1701056940884605700,2.484605712890625,1.3324497938156128,1.5189164876937866,0.3602577745914459
1701056940901598700,2.5015986328125,1.3297009468078613,1.463022232055664,0.5719226002693176
1701056940918590000,2.51858984375,1.3231340646743774,1.309084177017212,0.7348709106445312
1701056940935578600,2.53557861328125,1.2731958627700806,1.190729022026062,0.7785477638244629
1701056940952572000,2.552572021484375,1.1867583990097046,1.0911580324172974,0.6583600044250488
1701056940969565200,2.569565185546875,1.0908526182174683,1.1233811378479004,0.5204572081565857
1701056940986555000,2.586554931640625,1.0607675313949585,1.270447015762329,0.4605923891067505
1701056941003550000,2.603550048828125,1.0800096988677979,1.3663527965545654,0.44944411516189575
1701056941020537300,2.620537353515625,1.114981770515442,1.3703234195709229,0.41828998923301697
1701056941037532200,2.6375322265625,1.1533136367797852,1.2805262804031372,0.35964691638946533
1701056941054524400,2.6545244140625,1.178053617477417,1.144608736038208,0.29367345571517944
1701056941071516200,2.67151611328125,1.197601318359375,0.9779952764511108,0.19043724238872528
1701056941088538600,2.68853857421875,1.218676209449768,0.7547240257263184,0.06352998316287994
1701056941105506300,2.70550634765625,1.313665747642517,0.6493497490882874,0.06291911751031876
1701056941122490000,2.722489990234375,1.4335479736328125,0.6038402915000916,0.10262536257505417
1701056941139479300,2.739479248046875,1.500285029411316,0.5196936130523682,0.10354165732860565
1701056941156475000,2.756474853515625,1.5395331382751465,0.4612032473087311,0.15577064454555511
1701056941173470700,2.773470703125,1.5732834339141846,0.42042800784111023,0.26374107599258423
1701056941190456800,2.790456787109375,1.609477162361145,0.36590829491615295,0.3695734739303589
1701056941207447000,2.807447021484375,1.6102408170700073,0.2993239760398865,0.44425174593925476
1701056941224430300,2.824430419921875,1.5906931161880493,0.3016147017478943,0.5406157374382019
1701056941241440300,2.841440185546875,1.5531249046325684,0.46868637204170227,0.6490443348884583
1701056941258422500,2.858422607421875,1.4547755718231201,0.6759223937988281,0.6884451508522034
1701056941275418400,2.87541845703125,1.335809588432312,0.7861835956573486,0.5949827432632446
1701056941292408300,2.892408203125,1.2626584768295288,0.8429940342903137,0.41951170563697815
1701056941309404000,2.90940380859375,1.2131783962249756,0.9054549932479858,0.3003929853439331
1701056941326389800,2.9263896484375,1.1705704927444458,0.9767735004425049,0.28466320037841797
1701056941343382800,2.9433828125,1.1275044679641724,0.9604328870773315,0.3153591752052307
1701056941360377000,2.960377197265625,1.0867292881011963,0.8402451276779175,0.33108896017074585
1701056941377375700,2.977375732421875,1.0325149297714233,0.6221662759780884,0.251676470041275
1701056941394360300,2.9943603515625,0.9767735004425049,0.3911064863204956,0.046273041516542435
1701056941411352000,3.01135205078125,0.9459248185157776,0.22678372263908386,-0.27779096364974976
1701056941428341500,3.028341552734375,0.9263771176338196,0.11545353382825851,-0.6559165716171265
1701056941445325600,3.04532568359375,0.9014843702316284,0.19685132801532745,-0.8781188130378723
1701056941462317600,3.062317626953125,0.9250026941299438,0.5342016816139221,-0.7574729323387146
1701056941479313000,3.07931298828125,1.007622241973877,0.8895725011825562,-0.3446807265281677
1701056941496310000,3.09631005859375,1.0519099235534668,0.9515753388404846,0.16982053220272064
1701056941513304000,3.113303955078125,1.076344609260559,0.7965682744979858,0.6189591884613037
1701056941530295800,3.1302958984375,1.0803152322769165,0.5510004758834839,0.899040937423706
1701056941547287800,3.147287841796875,1.0885618925094604,0.26221391558647156,1.0238101482391357
1701056941564277500,3.164277587890625,1.1241447925567627,0.10476338863372803,1.053742527961731
1701056941581272000,3.18127197265625,1.1415544748306274,0.06811147183179855,1.0062477588653564
1701056941598262000,3.198261962890625,1.1114692687988281,0.08811730891466141,0.8880453705787659
1701056941615254500,3.215254638671875,1.0760390758514404,0.1440114825963974,0.7089090943336487
1701056941632246300,3.232246337890625,1.0671815872192383,0.18555031716823578,0.48838675022125244
1701056941649229300,3.249229248046875,1.0829113721847534,0.1739438772201538,0.2629774808883667
1701056941666216200,3.26621630859375,1.0942124128341675,0.1342376321554184,0.0884227454662323
1701056941683210200,3.283210205078125,1.0919215679168701,0.11148291081190109,0.015577063895761967
1701056941700217000,3.300217041015625,1.0997101068496704,0.1333213448524475,0.033139441162347794
1701056941717206800,3.317206787109375,1.091616153717041,0.18845193088054657,0.11652254313230515
1701056941734197000,3.334197021484375,1.0711522102355957,0.28466320037841797,0.23121249675750732
1701056941751189800,3.351189697265625,1.0793988704681396,0.34956762194633484,0.3393356502056122
1701056941768180500,3.368180419921875,1.1433870792388916,0.37400224804878235,0.4268420934677124
1701056941785162800,3.385162841796875,1.1910345554351807,0.3660610020160675,0.5088507533073425
1701056941802164000,3.4021640625,1.2066116333007812,0.3669773042201996,0.5920811295509338
1701056941819160000,3.41916015625,1.2371548414230347,0.42638394236564636,0.6757696866989136
1701056941836142800,3.436142822265625,1.2889256477355957,0.5407684445381165,0.7180721163749695
1701056941853143000,3.45314306640625,1.338711142539978,0.4980078935623169,0.6055201888084412
1701056941870131500,3.47013134765625,1.3243558406829834,0.2779437005519867,0.2733621895313263
1701056941887124200,3.487124267578125,1.2841914892196655,0.3349068760871887,0.08903361111879349
1701056941904115200,3.504115234375,1.2870930433273315,0.7854200005531311,0.29336804151535034
1701056941921108700,3.521108642578125,1.4037683010101318,1.3840678930282593,0.8970556259155273
1701056941938098400,3.538098388671875,1.5386168956756592,1.487609624862671,1.544114589691162
1701056941955091700,3.555091796875,1.6291775703430176,1.1575896739959717,1.9992092847824097
1701056941972070400,3.5720703125,1.633148193359375,0.6342308521270752,2.200183868408203
1701056941989065200,3.589065185546875,1.5726726055145264,0.2889392673969269,2.250732898712158
1701056942006057500,3.606057373046875,1.4953981637954712,0.2987131178379059,2.228131055831909
1701056942023050500,3.623050537109375,1.4546228647232056,0.44104471802711487,2.0734293460845947
1701056942040041200,3.640041259765625,1.461647868156433,0.5786421298980713,1.771356463432312
1701056942057034800,3.65703466796875,1.5123496055603027,0.6527095437049866,1.420719861984253
1701056942074015500,3.674015380859375,1.575726866722107,0.5633704662322998,1.0838276147842407
1701056942091018800,3.691018798828125,1.552361249923706,0.36713001132011414,0.8193230032920837
1701056942108006700,3.708006591796875,1.4590516090393066,0.27091872692108154,0.6684392690658569
1701056942125023200,3.725023193359375,1.3906347751617432,0.42088615894317627,0.6771441102027893
1701056942141988000,3.741988037109375,1.3935363292694092,0.7582364678382874,0.7812966704368591
1701056942158988500,3.758988525390625,1.4274393320083618,1.0128145217895508,0.8710938692092896
1701056942175974700,3.775974609375,1.4576772451400757,1.102917194366455,0.9451612234115601
1701056942192967700,3.7929677734375,1.4457653760910034,1.0641272068023682,1.0015136003494263
1701056942209962200,3.809962158203125,1.418123722076416,0.9634872078895569,1.0068585872650146
1701056942226952000,3.826951904296875,1.4135421514511108,0.894001305103302,0.9437867999076843
1701056942243940900,3.84394091796875,1.4199562072753906,0.8949176073074341,0.8174903988838196
1701056942260938000,3.86093798828125,1.444390892982483,0.8979719281196594,0.6780604124069214
1701056942277937700,3.877937744140625,1.454164743423462,0.8370380997657776,0.5713117122650146
1701056942294925600,3.894925537109375,1.4306464195251465,0.7046330571174622,0.5248859524726868
1701056942311921400,3.91192138671875,1.3744467496871948,0.5386304259300232,0.5320636034011841
1701056942328913000,3.928912841796875,1.3127493858337402,0.4389066696166992,0.5412266254425049
1701056942345898200,3.945898193359375,1.2611312866210938,0.45555275678634644,0.5328271985054016
1701056942362899700,3.962899658203125,1.2330315113067627,0.5085453391075134,0.4856378734111786
1701056942379886000,3.979885986328125,1.2111930847167969,0.5455026626586914,0.4210388660430908
1701056942396880100,3.996880126953125,1.1606439352035522,0.5561928153038025,0.3842342495918274
1701056942413870800,4.013870849609375,1.0201449394226074,0.5378668308258057,0.4069889783859253
1701056942430855400,4.03085546875,0.783892810344696,0.47907108068466187,0.37980547547340393
1701056942447853600,4.047853515625,0.5404630303382874,0.5204572081565857,0.17180584371089935
1701056942464847400,4.064847412109375,0.44364088773727417,0.8917105197906494,-0.06673702597618103
1701056942481837000,4.081837158203125,0.4917465150356293,1.5364787578582764,-0.11957687139511108
1701056942498830600,4.09883056640625,0.6003278493881226,1.9509508609771729,0.11102475970983505
1701056942515820500,4.115820556640625,0.6855435371398926,1.848325490951538,0.5256495475769043
1701056942532814600,4.132814697265625,0.7121161818504333,1.3936890363693237,0.950506329536438
1701056942549804800,4.1498046875,0.7400632500648499,0.8118399381637573,1.1809552907943726
1701056942566797600,4.166797607421875,0.799011766910553,0.4105014503002167,1.1753047704696655
1701056942583777500,4.183777587890625,0.8475755453109741,0.3836233615875244,0.9787588119506836
1701056942600782800,4.200782958984375,0.8915578126907349,0.6398813724517822,0.7388415336608887
1701056942617770800,4.217770751953125,0.9503536224365234,0.9019425511360168,0.5424483418464661
1701056942634764500,4.2347646484375,1.0195341110229492,1.0031934976577759,0.4349360466003418
1701056942651753200,4.251753173828125,1.107040524482727,0.9524916410446167,0.44394633173942566
1701056942668752000,4.268751953125,1.197906732559204,0.8294022679328918,0.546571671962738
1701056942685739000,4.285739013671875,1.2712105512619019,0.7064656615257263,0.6543893814086914
1701056942702732000,4.30273193359375,1.3495540618896484,0.645684540271759,0.7255551815032959
1701056942719722800,4.31972265625,1.432326316833496,0.6635523438453674,0.7582364678382874
1701056942736716800,4.336716796875,1.5274685621261597,0.6940956115722656,0.7467827796936035
1701056942753706200,4.353706298828125,1.6088663339614868,0.7064656615257263,0.7221954464912415
1701056942770699300,4.37069921875,1.6809484958648682,0.7064656615257263,0.7367035150527954
1701056942787690000,4.38768994140625,1.768149495124817,0.6910412907600403,0.773202657699585
1701056942804684000,4.40468408203125,1.851074457168579,0.6641632318496704,0.8080220222473145
1701056942821671200,4.421671142578125,1.891544222831726,0.6815729141235352,0.8246681094169617
1701056942838668500,4.43866845703125,1.8981109857559204,0.7728972434997559,0.7889324426651001
1701056942855657500,4.455657470703125,1.904219627380371,0.897513747215271,0.6933320760726929
1701056942872651300,4.4726513671875,1.929112434387207,1.0222829580307007,0.6160575747489929
1701056942889641000,4.489640869140625,1.9643899202346802,1.1059715747833252,0.6433938145637512
1701056942906634000,4.506634033203125,2.012342929840088,1.133307695388794,0.7721336483955383
1701056942923611000,4.52361083984375,2.0697641372680664,1.120937705039978,0.9659306406974792
1701056942940618500,4.540618408203125,2.0925188064575195,1.1091785430908203,1.171334147453308
1701056942957608400,4.5576083984375,2.0919079780578613,1.1239920854568481,1.317789077758789
1701056942974595300,4.57459521484375,2.088701009750366,1.1493430137634277,1.3865114450454712
1701056942991592000,4.591592041015625,2.0751092433929443,1.1757628917694092,1.4312572479248047
1701056943008583400,4.60858349609375,2.057088613510132,1.1620184183120728,1.4581353664398193
1701056943025578500,4.62557861328125,2.0164661407470703,1.0607675313949585,1.404073715209961
1701056943042568400,4.642568359375,1.9509508609771729,0.9240863919258118,1.242347240447998
1701056943059556600,4.659556640625,1.8596265316009521,0.8797986507415771,0.9787588119506836
1701056943076555800,4.6765556640625,1.7875443696975708,1.062294602394104,0.7113525867462158
1701056943093543000,4.69354296875,1.7944166660308838,1.3642147779464722,0.594524621963501
1701056943110549500,4.710549560546875,1.9156733751296997,1.6125315427780151,0.736245334148407
1701056943127527000,4.72752685546875,2.071749448776245,1.6684256792068481,1.0823005437850952
1701056943144520400,4.7445205078125,2.163990020751953,1.4201090335845947,1.555110216140747
1701056943161510400,4.761510498046875,2.1737639904022217,0.9349292516708374,2.0470094680786133
1701056943178503200,4.778503173828125,2.0919079780578613,0.4046982228755951,2.3435845375061035
1701056943195494000,4.795493896484375,1.9500346183776855,-0.06811147183179855,2.2736403942108154
1701056943212488200,4.81248828125,1.7521142959594727,-0.4512766897678375,1.7829629182815552
1701056943229477600,4.8294775390625,1.4028520584106445,-0.3243694305419922,1.1711814403533936
1701056943246470700,4.846470703125,1.0497719049453735,0.2993239760398865,0.7374670505523682
1701056943263451000,4.863450927734375,0.8962920308113098,1.0917688608169556,0.5557346343994141
1701056943280455200,4.880455078125,0.8448266386985779,1.5205962657928467,0.4992296099662781
1701056943297444900,4.89744482421875,0.7359399199485779,1.6055065393447876,0.5598580241203308
1701056943314438000,4.91443798828125,0.6302602291107178,1.5601497888565063,0.7206682562828064
1701056943331428600,4.9314287109375,0.5867360830307007,1.4471397399902344,0.8045095205307007
1701056943348419800,4.948419921875,0.584139883518219,1.3232868909835815,0.750142514705658
1701056943365415000,4.965414794921875,0.6126978397369385,1.2779301404953003,0.6937901973724365
1701056943382405000,4.982405029296875,0.6426302194595337,1.2492194175720215,0.6539312601089478
1701056943399398700,4.999398681640625,0.646906316280365,1.1717922687530518,0.6166684627532959
1701056943416387000,5.016386962890625,0.6635523438453674,1.1136072874069214,0.5777258276939392
1701056943433382700,5.033382568359375,0.7232644557952881,1.0855075120925903,0.5091561675071716
1701056943450369500,5.05036962890625,0.7987062931060791,1.060614824295044,0.3914119005203247
1701056943467363300,5.06736328125,0.8713992834091187,1.0580185651779175,0.22021691501140594
1701056943484357400,5.084357421875,0.9671524167060852,1.0844385623931885,0.06872233748435974
1701056943501336300,5.10133642578125,1.094059705734253,1.1450668573379517,0
1701056943518325000,5.118324951171875,1.226617455482483,1.168279767036438,0.03039054572582245
1701056943535330600,5.13533056640625,1.3014483451843262,1.0671815872192383,0.11423180252313614
1701056943552311300,5.152311279296875,1.3254249095916748,0.8498662710189819,0.17592918872833252
1701056943569297200,5.169297119140625,1.349706768989563,0.7038694620132446,0.19303341209888458
1701056943586307300,5.186307373046875,1.401172161102295,0.7974845767021179,0.23396138846874237
1701056943603297800,5.2032978515625,1.4566081762313843,1.150259256362915,0.37690386176109314
1701056943620291800,5.220291748046875,1.486693263053894,1.4717271327972412,0.6256787180900574
1701056943637281500,5.237281494140625,1.4931073188781738,1.4982997179031372,0.8985827565193176
1701056943654274600,5.254274658203125,1.505935549736023,1.3028228282928467,1.1447614431381226
1701056943671265300,5.271265380859375,1.4718798398971558,0.9648616313934326,1.3034337759017944
1701056943688259300,5.28825927734375,1.3918564319610596,0.6812674403190613,1.3852896690368652
1701056943705238500,5.305238525390625,1.2776246070861816,0.5955936312675476,1.338711142539978
1701056943722241800,5.32224169921875,1.1520918607711792,0.6663012504577637,1.1496484279632568
1701056943739231700,5.339231689453125,1.0615310668945312,0.826500654220581,0.9169087409973145
1701056943756227300,5.356227294921875,1.0088438987731934,0.8976664543151855,0.6960809230804443
1701056943773213400,5.37321337890625,0.9201157689094543,0.875064492225647,0.485027015209198
1701056943790211800,5.3902119140625,0.7889324426651001,0.8393288254737854,0.23136521875858307
1701056943807200000,5.407199951171875,0.694553792476654,0.8897252082824707,-0.06383541971445084
1701056943824195000,5.424195068359375,0.6953173875808716,1.0836749076843262,-0.30024027824401855
1701056943841182700,5.4411826171875,0.7866417169570923,1.3405437469482422,-0.33047810196876526
1701056943858176500,5.458176513671875,0.9108000993728638,1.4789047241210938,-0.16065755486488342
1701056943875167200,5.475167236328125,1.052215337753296,1.406822681427002,0.1846340149641037
1701056943892161300,5.492161376953125,1.1786644458770752,1.1409435272216797,0.5697845816612244
1701056943909151000,5.50915087890625,1.2701416015625,0.8833111524581909,0.8657487630844116
1701056943926144000,5.52614404296875,1.3413074016571045,0.7252497673034668,0.99876469373703
1701056943943134500,5.543134521484375,1.4057536125183105,0.6522513628005981,0.9926560521125793
1701056943960128500,5.56012841796875,1.4581353664398193,0.6107125282287598,0.8865181803703308
1701056943977118200,5.5771181640625,1.5079208612442017,0.5549710988998413,0.7299839854240417
1701056943994118700,5.59411865234375,1.5566374063491821,0.45814892649650574,0.5870414972305298
1701056944011102000,5.61110205078125,1.5954272747039795,0.35033121705055237,0.48288896679878235
1701056944028096000,5.628095947265625,1.5877914428710938,0.4153883755207062,0.3874412775039673
1701056944045081600,5.64508154296875,1.5688546895980835,0.6325509548187256,0.24877487123012543
1701056944062068000,5.66206787109375,1.6154330968856812,0.8649851679801941,0.15500704944133759
1701056944079069200,5.679069091796875,1.6975945234298706,0.9633345007896423,0.19043724238872528
1701056944096063200,5.696063232421875,1.761582612991333,0.9547823667526245,0.36789360642433167
1701056944113053000,5.713052978515625,1.8281669616699219,0.9040805697441101,0.6531676650047302
1701056944130046000,5.7300458984375,1.9033033847808838,0.8669704794883728,0.9598219990730286
1701056944147036400,5.747036376953125,1.922087550163269,0.7958046793937683,1.1024590730667114
1701056944164030700,5.76403076171875,1.9100228548049927,0.679129421710968,1.0512990951538086
1701056944181007000,5.781007080078125,1.8987219333648682,0.4957171380519867,0.8011497855186462
1701056944198010000,5.798010009765625,1.8238909244537354,0.4709770977497101,0.45524731278419495
1701056944215005700,5.815005615234375,1.7020232677459717,0.8135197758674622,0.2301434874534607
1701056944231998000,5.831998046875,1.6717854738235474,1.313665747642517,0.2600758671760559
1701056944248987600,5.848987548828125,1.7896825075149536,1.5497651100158691,0.5462662577629089
1701056944265980700,5.865980712890625,1.9017761945724487,1.4110987186431885,0.9547823667526245
1701056944282958000,5.8829580078125,1.9312504529953003,0.9770789742469788,1.4036155939102173
1701056944299968000,5.899968017578125,1.8993327617645264,0.5296201705932617,1.721112847328186
1701056944316955100,5.916955078125,1.8072447776794434,0.29306259751319885,1.8072447776794434
1701056944333947600,5.93394775390625,1.7009543180465698,0.2744311988353729,1.6904168128967285
1701056944350939000,5.95093896484375,1.576948642730713,0.33536502718925476,1.411251425743103
1701056944367930400,5.967930419921875,1.4107933044433594,0.4821254014968872,1.0893254280090332
1701056944384927200,5.98492724609375,1.1982121467590332,0.7278459668159485,0.8930850028991699
1701056944401912800,6.001912841796875,1.024726390838623,1.0021244287490845,0.8559749126434326
1701056944418906000,6.018906005859375,0.9573785662651062,1.214400053024292,0.9034696817398071
1701056944435900000,6.03589990234375,0.9608910083770752,1.3397802114486694,0.9494373202323914
1701056944452889600,6.0528896484375,0.9503536224365234,1.3394747972488403,0.9621127843856812
1701056944469882600,6.069882568359375,0.931569516658783,1.2789990901947021,0.9433286786079407
1701056944486878200,6.086878173828125,0.9613491892814636,1.2139419317245483,0.8662069439888
1701056944503867400,6.103867431640625,1.0204503536224365,1.1244502067565918,0.7379252314567566
1701056944520853200,6.120853271484375,1.0554224252700806,1.0561859607696533,0.6145304441452026
1701056944537845800,6.137845703125,1.0876455307006836,1.059393048286438,0.5441282391548157
1701056944554840800,6.1548408203125,1.1187996864318848,1.1279627084732056,0.5467243790626526
1701056944571834600,6.171834716796875,1.1372783184051514,1.1858421564102173,0.6319400668144226
1701056944588824600,6.188824462890625,1.117730736732483,1.229519009590149,0.7619016766548157
1701056944605817300,6.2058173828125,1.1039862632751465,1.223868489265442,0.8570439219474792
1701056944622805500,6.222805419921875,1.126282811164856,1.1943942308425903,0.8651378750801086
1701056944639804400,6.239804443359375,1.1681270599365234,1.1661417484283447,0.8170322775840759
1701056944656791800,6.256791748046875,1.2090550661087036,1.1255191564559937,0.7518224120140076
1701056944673788200,6.2737880859375,1.231046199798584,1.0920743942260742,0.712574303150177
1701056944690775600,6.290775634765625,1.2362385988235474,1.0305296182632446,0.6965391039848328
1701056944707769300,6.307769287109375,1.2374602556228638,0.973566472530365,0.6882924437522888
1701056944724759300,6.32475927734375,1.2308934926986694,0.9057604670524597,0.6592763066291809
1701056944741741800,6.341741943359375,1.2385293245315552,0.8484918475151062,0.6195700764656067
1701056944758742800,6.35874267578125,1.257924199104309,0.8272642493247986,0.6027712821960449
1701056944775736600,6.375736572265625,1.2654073238372803,0.8234463334083557,0.6285803318023682
1701056944792726500,6.3927265625,1.245248794555664,0.7973318696022034,0.6724098920822144
1701056944809719300,6.40971923828125,1.1902709007263184,0.7334964275360107,0.6627888083457947
1701056944826710000,6.4267099609375,1.125366449356079,0.6403394937515259,0.5305364727973938
1701056944843691800,6.44369189453125,1.0445796251296997,0.6394231915473938,0.3228422701358795
1701056944860692000,6.46069189453125,0.9515753388404846,0.8529205918312073,0.19456058740615845
1701056944877689000,6.477689208984375,0.9054549932479858,1.2557861804962158,0.27030786871910095
1701056944894677200,6.49467724609375,0.915534257888794,1.5502232313156128,0.5520694851875305
1701056944911671300,6.51167138671875,0.9599747061729431,1.5230398178100586,0.9246972799301147
1701056944928653800,6.52865380859375,0.9724974632263184,1.3194689750671387,1.28128981590271
1701056944945641500,6.545641357421875,0.935998260974884,1.0138835906982422,1.4674509763717651
1701056944962644500,6.56264453125,0.8765916228294373,0.716697633266449,1.4185818433761597
1701056944979630800,6.579630859375,0.8161159753799438,0.5427537560462952,1.1681270599365234
1701056944996627200,6.596627197265625,0.741895854473114,0.5561928153038025,0.7440338730812073
1701056945013623000,6.613623046875,0.6646214127540588,0.6433938145637512,0.18860463798046112
1701056945030620200,6.6306201171875,0.560468852519989,0.7374670505523682,-0.4098905920982361
1701056945047603700,6.647603759765625,0.4723515510559082,1.0080803632736206,-0.759916365146637
1701056945064598500,6.6645986328125,0.5322163701057434,1.493565559387207,-0.7480044960975647
1701056945081584600,6.681584716796875,0.7467827796936035,1.8518379926681519,-0.48288896679878235
1701056945098583300,6.698583251953125,0.9683741331100464,1.8193094730377197,-0.09636399149894714
1701056945115573500,6.715573486328125,1.1058188676834106,1.5114333629608154,0.34574973583221436
1701056945132563200,6.732563232421875,1.1804970502853394,1.153160810470581,0.7425066828727722
1701056945149555700,6.7495556640625,1.2247848510742188,0.88361656665802,0.9915869832038879
1701056945166547500,6.76654736328125,1.25761878490448,0.6998988389968872,1.0990992784500122
1701056945183530200,6.7835302734375,1.2794572114944458,0.6265950202941895,1.1065824031829834
1701056945200530700,6.80053076171875,1.256244421005249,0.5998696684837341,1.0349584817886353
1701056945217523500,6.8175234375,1.1969904899597168,0.5748242139816284,0.8949176073074341
1701056945234514200,6.83451416015625,1.1494957208633423,0.6178901791572571,0.7203628420829773
1701056945251505400,6.85150537109375,1.151481032371521,0.7055493593215942,0.5387831330299377
1701056945268500700,6.868500732421875,1.1853840351104736,0.797789990901947,0.36193767189979553
1701056945285491000,6.885490966796875,1.2250902652740479,0.799011766910553,0.2243402600288391
1701056945302481400,6.9024814453125,1.2515101432800293,0.7195992469787598,0.17730364203453064
1701056945319472000,6.91947216796875,1.2684617042541504,0.6591235995292664,0.20295998454093933
1701056945336468000,6.936468017578125,1.3051135540008545,0.6870706677436829,0.26374107599258423
1701056945353458200,6.953458251953125,1.3326025009155273,0.7276932001113892,0.3455969989299774
1701056945370449000,6.970448974609375,1.3406964540481567,0.7360926270484924,0.46670106053352356
1701056945387443000,6.98744287109375,1.3457361459732056,0.7286095023155212,0.5745187401771545
1701056945404432600,7.0044326171875,1.350012183189392,0.7241807579994202,0.6597344875335693
1701056945421425400,7.02142529296875,1.3420709371566772,0.7096726894378662,0.7098253965377808
1701056945438416100,7.038416015625,1.3329079151153564,0.7267768979072571,0.7464773058891296
1701056945455407600,7.05540771484375,1.3266465663909912,0.7648032903671265,0.7567093372344971
1701056945472393000,7.07239306640625,1.328937292098999,0.8037459254264832,0.7603744864463806
1701056945489382400,7.08938232421875,1.3405437469482422,0.8515461683273315,0.8069530129432678
1701056945506374400,7.10637451171875,1.3596333265304565,0.8698720932006836,0.9027060866355896
1701056945523367200,7.1233671875,1.383457064628601,0.8579602241516113,1.0155634880065918
1701056945540360200,7.140360107421875,1.3994922637939453,0.8174903988838196,1.0583239793777466
1701056945557352000,7.15735205078125,1.4184291362762451,0.7431175708770752,0.9462302923202515
1701056945574342400,7.17434228515625,1.433700680732727,0.6534730792045593,0.6615670323371887
1701056945591334400,7.19133447265625,1.4019356966018677,0.6902777552604675,0.3274237811565399
1701056945608326700,7.20832666015625,1.3176363706588745,0.9815077185630798,0.1843285858631134
1701056945625316600,7.225316650390625,1.3032809495925903,1.369254469871521,0.3139847218990326
1701056945642310100,7.24231005859375,1.4369077682495117,1.5334244966506958,0.6293439269065857
1701056945659307800,7.259307861328125,1.5682437419891357,1.3588697910308838,0.9897544384002686
1701056945676295000,7.276294921875,1.627650499343872,1.0351111888885498,1.2780828475952148
1701056945693286100,7.2932861328125,1.615127682685852,0.7111998796463013,1.4110987186431885
1701056945710278000,7.31027783203125,1.5477797985076904,0.5684100985527039,1.3956743478775024
1701056945727270400,7.3272705078125,1.482569932937622,0.6217080950737,1.2308934926986694
1701056945744259300,7.34425927734375,1.4647021293640137,0.8048149347305298,0.9882272481918335
1701056945761255000,7.3612548828125,1.450346827507019,1.0305296182632446,0.7692320346832275
1701056945778255600,7.378255615234375,1.4199562072753906,1.1702650785446167,0.6600399017333984
1701056945795247000,7.3952470703125,1.3713924884796143,1.1259773969650269,0.6907358765602112
1701056945812236800,7.41223681640625,1.3371840715408325,0.9260717034339905,0.7480044960975647
1701056945829229600,7.4292294921875,1.3426817655563354,0.7159340381622314,0.7299839854240417
1701056945846220500,7.446220458984375,1.3758212327957153,0.6540839672088623,0.6615670323371887
1701056945863214600,7.463214599609375,1.4098769426345825,0.636521577835083,0.5514585971832275
1701056945880203800,7.480203857421875,1.3478741645812988,0.608421802520752,0.4190535545349121
1701056945897186800,7.497186767578125,1.1853840351104736,0.6575964093208313,0.34376442432403564
1701056945914183200,7.51418310546875,1.0149526596069336,0.7733554244041443,0.33948835730552673
1701056945931181800,7.531181884765625,0.9201157689094543,0.9104946255683899,0.3501785099506378
1701056945948169700,7.548169677734375,0.8787296414375305,1.0134254693984985,0.3625485301017761
1701056945965155600,7.565155517578125,0.8417723178863525,1.0752755403518677,0.39843684434890747
1701056945982157000,7.582156982421875,0.8005388975143433,1.0728321075439453,0.4749477207660675
1701056945999144400,7.59914453125,0.7739662528038025,1.0190759897232056,0.5777258276939392
1701056946016141800,7.616141845703125,0.7641924023628235,0.9146180152893066,0.6768386960029602
1701056946033132500,7.633132568359375,0.7438811659812927,0.8165740966796875,0.7554876208305359
1701056946050121700,7.650121826171875,0.7338019013404846,0.7370089292526245,0.7900014519691467
1701056946067116500,7.667116455078125,0.7133378982543945,0.6592763066291809,0.7498371005058289
1701056946084106200,7.684106201171875,0.6782131195068359,0.6420193910598755,0.6336199641227722
1701056946101085200,7.701085205078125,0.6391177773475647,0.669966459274292,0.4576907753944397
1701056946118082300,7.718082275390625,0.6059783101081848,0.7111998796463013,0.3110831379890442
1701056946135083800,7.735083740234375,0.5923865437507629,0.7399105429649353,0.25595253705978394
1701056946152063200,7.752063232421875,0.5890268087387085,0.7481572031974792,0.2961169183254242
1701056946169066800,7.769066650390625,0.6197227835655212,0.6511823534965515,0.33948835730552673
1701056946186057500,7.786057373046875,0.6572909951210022,0.4740314185619354,0.25106561183929443
1701056946203051000,7.803051025390625,0.6534730792045593,0.36942076683044434,0.03741549700498581
1701056946220041000,7.820041015625,0.6062837839126587,0.555429220199585,-0.12217304855585098
1701056946237033700,7.83703369140625,0.535881519317627,0.9689850211143494,-0.020922135561704636
1701056946254024700,7.854024658203125,0.556345522403717,1.277471899986267,0.3341432809829712
1701056946271018800,7.871018798828125,0.640644907951355,1.1847730875015259,0.6927211880683899
1701056946288008400,7.888008544921875,0.7032586336135864,0.827111542224884,0.9398161768913269
1701056946304998100,7.904998046875,0.7153232097625732,0.47189339995384216,1.0118982791900635
1701056946321987600,7.921987548828125,0.6586654782295227,0.3260493278503418,0.915534257888794
1701056946338990300,7.938990234375,0.5508477091789246,0.4763221740722656,0.7519751191139221
1701056946355975700,7.9559755859375,0.4476115107536316,0.774118959903717,0.5693264007568359
1701056946372968400,7.972968505859375,0.3969096839427948,0.9665415287017822,0.39736783504486084
1701056946389959400,7.98995947265625,0.3975205719470978,0.9526443481445312,0.24572055041790009
1701056946406953500,8.006953369140625,0.41004329919815063,0.8336783647537231,0.11407908797264099
1701056946423941600,8.023941650390626,0.4285219609737396,0.7759515643119812,-0.012675453908741474
1701056946440934700,8.0409345703125,0.485027015209198,0.8600982427597046,-0.10491610318422318
1701056946457929500,8.057929443359376,0.6067419052124023,1.0337367057800293,-0.07941248267889023
1701056946474920700,8.074920654296875,0.7724391222000122,1.1435397863388062,0.07406741380691528
1701056946491910400,8.091910400390624,0.9240863919258118,1.0867292881011963,0.3245221674442291
1701056946508903400,8.1089033203125,1.0458012819290161,0.9182831645011902,0.580016553401947
1701056946525894100,8.12589404296875,1.1371256113052368,0.7841982841491699,0.7478517889976501
1701056946542886700,8.14288671875,1.2188289165496826,0.7234171628952026,0.8061894178390503
1701056946559879200,8.159879150390625,1.2814425230026245,0.7657195925712585,0.7874053120613098
1701056946576871000,8.176870849609376,1.3326025009155273,0.850171685218811,0.7150177955627441
1701056946593861400,8.193861328125,1.387580394744873,0.9033169746398926,0.6012440919876099
1701056946610855200,8.210855224609375,1.4440854787826538,0.8846855759620667,0.483957976102829
1701056946627846100,8.22784619140625,1.4903584718704224,0.8468119502067566,0.40744712948799133
1701056946644837400,8.24483740234375,1.5234979391098022,0.8520042896270752,0.3825543522834778
1701056946661829000,8.2618291015625,1.5868752002716064,0.9327912330627441,0.39584067463874817
1701056946678823000,8.278822998046875,1.6462818384170532,1.0500773191452026,0.4300491213798523
1701056946695812600,8.2958125,1.665218710899353,1.1728612184524536,0.48609602451324463
1701056946712805400,8.312805419921874,1.6522377729415894,1.2487612962722778,0.5583308339118958
1701056946729786400,8.329786376953125,1.6630805730819702,1.2916746139526367,0.675616979598999
1701056946746790400,8.346790283203125,1.6875152587890625,1.3041973114013672,0.8176431059837341
1701056946763770400,8.363770263671874,1.697441816329956,1.2915217876434326,0.9877691268920898
1701056946780775700,8.380775634765625,1.7162258625030518,1.3199270963668823,1.115287184715271
1701056946797760500,8.397760498046875,1.7527251243591309,1.3148874044418335,1.080467939376831
1701056946814751000,8.4147509765625,1.7805194854736328,1.2267701625823975,0.8860600590705872
1701056946831744000,8.431743896484376,1.775479793548584,1.0577131509780884,0.5629123449325562
1701056946848740600,8.44874072265625,1.709811806678772,1.0919215679168701,0.285121351480484
1701056946865731000,8.46573095703125,1.6552921533584595,1.4010194540023804,0.2405281960964203
1701056946882714400,8.48271435546875,1.709811806678772,1.8095356225967407,0.43447789549827576
1701056946899714600,8.499714599609375,1.8321375846862793,2.016160726547241,0.6818783283233643
1701056946916707600,8.51670751953125,1.9132299423217773,1.9251418113708496,0.9514226317405701
1701056946933698300,8.5336982421875,1.9579758644104004,1.627497673034668,1.207069754600525
1701056946950692400,8.5506923828125,1.9778289794921875,1.1844676733016968,1.357953429222107
1701056946967682300,8.567682373046875,1.9494236707687378,0.7701483368873596,1.3374894857406616
1701056946984675000,8.584675048828124,1.877647042274475,0.5899431109428406,1.1873693466186523
1701056947001665800,8.601665771484376,1.7493653297424316,0.5543602108955383,0.960280179977417
1701056947018659600,8.61865966796875,1.5401439666748047,0.6197227835655212,0.7350236177444458
1701056947035649500,8.6356494140625,1.3254249095916748,0.8730791807174683,0.6571382880210876
1701056947052642300,8.652642333984375,1.1956160068511963,1.2015719413757324,0.6951646208763123
1701056947069633000,8.669633056640626,1.1203268766403198,1.3521502017974854,0.7530441284179688
1701056947086616800,8.686616943359375,1.0236574411392212,1.2857186794281006,0.8319984674453735
1701056947103611100,8.703611083984375,0.9254608750343323,1.2108876705169678,0.9706648588180542
1701056947120609500,8.720609619140625,0.8414669036865234,1.1740829944610596,1.0855075120925903
1701056947137600800,8.737600830078126,0.7583891749382019,1.153160810470581,1.0651962757110596
1701056947154594600,8.754594482421876,0.6788240075111389,1.197906732559204,0.8914051055908203
1701056947171584000,8.771583984375,0.6068946123123169,1.2334896326065063,0.6212499737739563
1701056947188577300,8.788577392578125,0.5328271985054016,1.205847978591919,0.36682456731796265
1701056947205568300,8.805568359375,0.4948008358478546,1.1326968669891357,0.2255619913339615
1701056947222561500,8.8225615234375,0.5125159621238708,1.0441213846206665,0.23289237916469574
1701056947239549400,8.839549560546875,0.5592471361160278,0.9578366875648499,0.3572034537792206
1701056947256536800,8.856536865234375,0.5778785347938538,0.8906415104866028,0.47418415546417236
1701056947273526500,8.873526611328124,0.5723807215690613,0.8846855759620667,0.4746423065662384
1701056947290526700,8.890526611328125,0.5739079117774963,0.9564622640609741,0.3533855378627777
1701056947307521800,8.907521728515626,0.5907067060470581,1.0462594032287598,0.21624629199504852
1701056947324512000,8.924511962890625,0.633009135723114,1.08718740940094,0.15286903083324432
1701056947341489700,8.94148974609375,0.7038694620132446,1.078940749168396,0.20952677726745605
1701056947358499300,8.958499267578125,0.7774787545204163,1.0204503536224365,0.34116822481155396
1701056947375486500,8.975486572265625,0.8396342992782593,0.9135489463806152,0.4550946056842804
1701056947392482300,8.992482421875,0.8648324608802795,0.8084801435470581,0.46181413531303406
1701056947409467000,9.009466796875,0.8387179970741272,0.6898195743560791,0.3455969989299774
1701056947426461000,9.0264609375,0.7959573864936829,0.6394231915473938,0.16249015927314758
1701056947443446300,9.0434462890625,0.759305477142334,0.7519751191139221,0.035124752670526505
1701056947460446700,9.06044677734375,0.764345109462738,1.0033462047576904,0.059864792972803116
1701056947477437400,9.0774375,0.8035932183265686,1.1829406023025513,0.21365012228488922
1701056947494429000,9.094428955078126,0.8474228382110596,1.1158981323242188,0.3805690407752991
1701056947511423700,9.111423828125,0.8385652899742126,0.8700248003005981,0.4856378734111786
1701056947528414200,9.128414306640625,0.7944302558898926,0.6501133441925049,0.5247332453727722
1701056947545405000,9.145405029296874,0.7449501752853394,0.6116288304328918,0.5300782918930054
1701056947562399000,9.16239892578125,0.7353290319442749,0.6679811477661133,0.5102251768112183
1701056947579386400,9.179386474609375,0.7128797173500061,0.7422012686729431,0.4764748811721802
1701056947596383700,9.1963837890625,0.6644686460494995,0.7889324426651001,0.4027129113674164
1701056947613372200,9.2133720703125,0.5988006591796875,0.769079327583313,0.2866485118865967
1701056947630366200,9.2303662109375,0.5386304259300232,0.7070765495300293,0.168751522898674
1701056947647355600,9.247355712890625,0.5283984541893005,0.7053966522216797,-0.0039706239476799965
1701056947664349400,9.264349365234375,0.5340489149093628,0.8068002462387085,-0.1976149082183838
1701056947681339600,9.281339599609375,0.5861251950263977,0.9993755221366882,-0.2565633952617645
1701056947698333400,9.29833349609375,0.7159340381622314,1.1687378883361816,-0.15347988903522491
1701056947715323400,9.315323486328126,0.8874344825744629,1.15178644657135,0.027641652151942253
1701056947732316400,9.33231640625,1.0261008739471436,0.9804387092590332,0.25473082065582275
1701056947749307100,9.34930712890625,1.1308642625808716,0.817337691783905,0.4815145432949066
1701056947766301200,9.36630126953125,1.2137892246246338,0.7365507483482361,0.6435465216636658
1701056947783290600,9.38329052734375,1.285413146018982,0.7564038634300232,0.7440338730812073
1701056947800283600,9.40028369140625,1.3182471990585327,0.8292495608329773,0.7774787545204163
1701056947817274400,9.4172744140625,1.3096951246261597,0.8988882303237915,0.7307475209236145
1701056947834268400,9.434268310546875,1.3171781301498413,0.8767443299293518,0.6285803318023682
1701056947851255600,9.451255615234375,1.3318389654159546,0.7716755270957947,0.5557346343994141
1701056947868253700,9.468253662109374,1.3353514671325684,0.6356052756309509,0.5105306506156921
1701056947885231600,9.485231689453125,1.3058772087097168,0.6085745096206665,0.4758640229701996
1701056947902235600,9.502235595703125,1.278388261795044,0.7371616363525391,0.4671591818332672
1701056947919226600,9.5192265625,1.2724323272705078,0.9492846131324768,0.4648684561252594
1701056947936211500,9.53621142578125,1.3324497938156128,1.1467467546463013,0.45784351229667664
1701056947953209000,9.553208984375,1.4231632947921753,1.2221885919570923,0.44318273663520813
1701056947970203100,9.570203125,1.4902057647705078,1.2612839937210083,0.4628831446170807
1701056947987193000,9.587193115234374,1.5451836585998535,1.358258843421936,0.4996877610683441
1701056948004185900,9.604185791015626,1.5800029039382935,1.4312572479248047,0.49037206172943115
1701056948021176600,9.621176513671875,1.6365079879760742,1.380555510520935,0.39187005162239075
1701056948038159000,9.6381591796875,1.7354681491851807,1.1841622591018677,0.2025018334388733
1701056948055155000,9.655155029296875,1.856572151184082,1.088714599609375,0.041691552847623825
1701056948072153000,9.672153076171876,1.9381227493286133,1.221577763557434,0.06750060617923737
1701056948089141200,9.689141357421875,2.0303633213043213,1.4631749391555786,0.34376442432403564
1701056948106140700,9.706140625,2.166128158569336,1.577559471130371,0.6940956115722656
1701056948123125200,9.723125244140626,2.249969482421875,1.4453071355819702,0.9699012637138367
1701056948140123600,9.74012353515625,2.2675318717956543,1.163851022720337,1.153160810470581
1701056948157111600,9.757111572265625,2.193769693374634,0.8504771590232849,1.1895073652267456
1701056948174105300,9.774105224609375,2.0980167388916016,0.661719799041748,1.0986411571502686
1701056948191095000,9.791094970703124,1.991878867149353,0.633009135723114,0.9647089242935181
1701056948208088300,9.80808837890625,1.8955148458480835,0.6537785530090332,0.7915286421775818
1701056948225080600,9.82508056640625,1.7760907411575317,0.6734789609909058,0.6363688707351685
1701056948242072800,9.84207275390625,1.6368134021759033,0.7765624523162842,0.5772676467895508
1701056948259060000,9.85906005859375,1.54945969581604,0.8539896011352539,0.5546656250953674
1701056948276055600,9.8760556640625,1.50211763381958,0.8607091307640076,0.5613851547241211
1701056948293048800,9.893048828125,1.4140002727508545,0.8571966290473938,0.6278167366981506
1701056948310040300,9.910040283203125,1.2754865884780884,0.8936958312988281,0.7325801253318787
1701056948327030000,9.927030029296875,1.138958215713501,0.9830349087715149,0.7889324426651001
1701056948344022800,9.944022705078124,1.0375546216964722,1.0392345190048218,0.7414376735687256
1701056948361011000,9.961010986328125,0.9642508029937744,1.065043568611145,0.626747727394104
1701056948378010000,9.978010009765624,0.887739896774292,1.0728321075439453,0.5135849714279175
1701056948394997500,9.99499755859375,0.8109236359596252,1.0923798084259033,0.43478333950042725
1701056948411990300,10.011990234375,0.7762570381164551,1.0965031385421753,0.38988474011421204
1701056948428981000,10.02898095703125,0.7422012686729431,1.042441487312317,0.4027129113674164
1701056948445962200,10.045962158203125,0.6870706677436829,0.9885326623916626,0.45784351229667664
1701056948462954500,10.06295458984375,0.6484334468841553,1.059393048286438,0.4938845634460449
1701056948479951400,10.079951416015625,0.674089789390564,1.1855367422103882,0.43386703729629517
1701056948496942600,10.096942626953124,0.7209737300872803,1.2518155574798584,0.327729195356369
1701056948513945000,10.113945068359374,0.7348709106445312,1.2857186794281006,0.23945917189121246
1701056948530932200,10.13093212890625,0.7098253965377808,1.282817006111145,0.15683965384960175
1701056948547925000,10.147925048828125,0.7032586336135864,1.2542591094970703,0.0933096632361412
1701056948564916000,10.164916015625,0.7409795522689819,1.2304353713989258,0.11453723162412643
1701056948581899300,10.181899169921875,0.8008443117141724,1.2672399282455444,0.1966986060142517
1701056948598899500,10.1988994140625,0.9062185883522034,1.3516920804977417,0.32039880752563477
1701056948615893200,10.215893310546875,1.013272762298584,1.4330898523330688,0.3828597962856293
1701056948632881000,10.232880859375,1.0714576244354248,1.4439327716827393,0.29657506942749023
1701056948649877200,10.249877197265626,1.0823005437850952,1.3571898937225342,0.023060163483023643
1701056948666867200,10.2668671875,1.0600038766860962,1.1624765396118164,-0.3355177342891693
1701056948683860000,10.28385986328125,1.0667234659194946,1.0685560703277588,-0.6012440919876099
1701056948700845300,10.30084521484375,1.1255191564559937,1.1901181936264038,-0.6241515874862671
1701056948717846800,10.3178466796875,1.2183706760406494,1.4839444160461426,-0.44318273663520813
1701056948734834400,10.33483447265625,1.337336778640747,1.6048957109451294,-0.17256943881511688
1701056948751817000,10.35181689453125,1.4465289115905762,1.520138144493103,0.0936150997877121
1701056948768818200,10.368818115234374,1.5457944869995117,1.3613132238388062,0.3139847218990326
1701056948785812200,10.385812255859374,1.6177239418029785,1.1328495740890503,0.4369213581085205
1701056948802801700,10.4028017578125,1.6374242305755615,0.8330674767494202,0.46899178624153137
1701056948819794700,10.419794677734375,1.5526667833328247,0.6209444999694824,0.4928155243396759
1701056948836785400,10.436785400390624,1.3810136318206787,0.5308418869972229,0.49617528915405273
1701056948853779200,10.453779296875,1.2053898572921753,0.5858197808265686,0.42012256383895874
1701056948870769200,10.47076904296875,1.1032226085662842,0.7831292152404785,0.19898934662342072
1701056948887759600,10.487759521484374,1.026253581047058,1.0114401578903198,-0.14935655891895294
1701056948904753000,10.5047529296875,0.9311113357543945,1.1249083280563354,-0.48319441080093384
1701056948921748000,10.521748046875,0.935998260974884,1.0731375217437744,-0.6655376553535461
1701056948938738200,10.53873828125,1.0571023225784302,0.9454666972160339,-0.6436992287635803
1701056948955717000,10.555717041015624,1.1604912281036377,0.9195048809051514,-0.4343251883983612
1701056948972713500,10.57271337890625,1.2128729820251465,1.0338894128799438,-0.1281289905309677
1701056948989705700,10.589705810546874,1.2961033582687378,1.1424707174301147,0.1437060534954071
1701056949006698500,10.606698486328124,1.3843733072280884,1.1336132287979126,0.3358231782913208
1701056949023686100,10.62368603515625,1.4359915256500244,1.0056369304656982,0.47830748558044434
1701056949040680700,10.6406806640625,1.4726433753967285,0.7295258045196533,0.5632177591323853
1701056949057675000,10.657675048828125,1.5230398178100586,0.48059824109077454,0.6065891981124878
1701056949074663400,10.674663330078126,1.4888312816619873,0.361174076795578,0.623235285282135
1701056949091653400,10.6916533203125,1.3935363292694092,0.36590829491615295,0.5862779021263123
1701056949108646000,10.70864599609375,1.3202325105667114,0.4207334518432617,0.4437935948371887
1701056949125639200,10.72563916015625,1.3217597007751465,0.4899139404296875,0.21823160350322723
1701056949142630400,10.74263037109375,1.363909363746643,0.5413793325424194,0.014355333521962166
1701056949159624200,10.759624267578126,1.4010194540023804,0.5736024379730225,-0.0959058403968811
1701056949176614400,10.776614501953125,1.4141530990600586,0.5505422949790955,-0.078343465924263
1701056949193608700,10.793608642578125,1.4227051734924316,0.542142927646637,0.06368270516395569
1701056949210594800,10.8105947265625,1.4303410053253174,0.6004805564880371,0.2721404731273651
1701056949227592000,10.827592041015626,1.442100167274475,0.6817256212234497,0.4537201523780823
1701056949244592600,10.844592529296875,1.4685200452804565,0.7392996549606323,0.5364924073219299
1701056949261573400,10.861573486328124,1.5019649267196655,0.7577783465385437,0.523511528968811
1701056949278573600,10.878573486328126,1.5236506462097168,0.7380779385566711,0.4703662395477295
1701056949295566600,10.895566650390625,1.5691601037979126,0.7252497673034668,0.4069889783859253
1701056949312557300,10.912557373046875,1.5835154056549072,0.7556403279304504,0.3933972120285034
1701056949329551600,10.929551513671875,1.5163202285766602,0.788627028465271,0.43676865100860596
1701056949346541300,10.946541259765626,1.4219415187835693,0.7699956297874451,0.47708576917648315
1701056949363533800,10.963533935546875,1.415069341659546,0.7409795522689819,0.4541783034801483
1701056949380520200,10.980520263671876,1.4770721197128296,0.6411030888557434,0.3010038435459137
1701056949397523200,10.997523193359376,1.522887110710144,0.5135849714279175,0.04596760869026184
1701056949414504200,11.014504150390625,1.5830572843551636,0.543059229850769,-0.1059851199388504
1701056949431501600,11.03150146484375,1.6910277605056763,0.7854200005531311,-0.02626720629632473
1701056949448492300,11.0484921875,1.8635971546173096,1.136056661605835,0.2041817009449005
1701056949465486300,11.065486328125,2.052507162094116,1.334587812423706,0.4697553813457489
1701056949482465800,11.0824658203125,2.176818370819092,1.2622003555297852,0.6904304623603821
1701056949499466200,11.09946630859375,2.2232439517974854,0.9851729273796082,0.7999280095100403
1701056949516462000,11.116462158203126,2.2427916526794434,0.6973026990890503,0.8151996731758118
1701056949533456000,11.133455810546875,2.2844831943511963,0.5813909769058228,0.8069530129432678
1701056949550441200,11.150441162109376,2.326174736022949,0.6663012504577637,0.8181012868881226
1701056949567436300,11.167436279296876,2.2870795726776123,0.8193230032920837,0.8524624705314636
1701056949584416800,11.184416748046875,2.211332082748413,0.9929614663124084,0.8701775670051575
1701056949601420800,11.2014208984375,2.1766655445098877,1.0882564783096313,0.8720101118087769
1701056949618411000,11.218410888671874,2.205528974533081,1.097266674041748,0.8787296414375305
1701056949635403500,11.235403564453126,2.2174408435821533,1.0010554790496826,0.8929322957992554
1701056949652394500,11.25239453125,2.1850650310516357,0.8596401214599609,0.9173668622970581
1701056949669385700,11.2693857421875,2.11588454246521,0.7108944058418274,0.9447031021118164
1701056949686381000,11.286381103515625,2.010204792022705,0.5966626405715942,0.9566149711608887
1701056949703371000,11.30337109375,1.8625280857086182,0.5135849714279175,0.9049968719482422
1701056949720361700,11.32036181640625,1.7046194076538086,0.5326744914054871,0.7722864151000977
1701056949737355800,11.337355712890625,1.57313072681427,0.685390830039978,0.6641632318496704
1701056949754345500,11.354345458984374,1.4407256841659546,0.9051495790481567,0.6444628238677979
1701056949771338500,11.37133837890625,1.282817006111145,1.0994046926498413,0.674089789390564
1701056949788329500,11.38832958984375,1.1210904121398926,1.260367751121521,0.7057020664215088
1701056949805325000,11.405324951171876,1.004873275756836,1.344361662864685,0.7012733221054077
1701056949822313000,11.42231298828125,0.9088147878646851,1.3878858089447021,0.6772968173027039
1701056949839305700,11.4393056640625,0.8469646573066711,1.351233959197998,0.6212499737739563
1701056949856296700,11.456296630859375,0.8109236359596252,1.2609785795211792,0.5412266254425049
1701056949873297200,11.473297119140625,0.7754934430122375,1.140179991722107,0.4642575979232788
1701056949890280400,11.490280517578125,0.7304421067237854,1.0276280641555786,0.4282165467739105
1701056949907273500,11.5072734375,0.6782131195068359,0.932485818862915,0.4427245855331421
1701056949924264400,11.524264404296876,0.6511823534965515,0.8710938692092896,0.48747047781944275
1701056949941258000,11.541258056640626,0.636521577835083,0.8086328506469727,0.49235737323760986
1701056949958245600,11.55824560546875,0.6038402915000916,0.7457137703895569,0.4488332271575928
1701056949975243000,11.575242919921875,0.5711590051651001,0.7200574278831482,0.3943135142326355
1701056949992231700,11.592231689453126,0.5482515692710876,0.7035640478134155,0.3032945990562439
1701056950009225500,11.6092255859375,0.5064072608947754,0.6131559610366821,0.15225815773010254
1701056950026212400,11.62621240234375,0.42302417755126953,0.5816964507102966,0.013133603148162365
1701056950043208200,11.643208251953125,0.3804163336753845,0.7651087045669556,-0.03436116874217987
1701056950060199200,11.66019921875,0.43050727248191833,0.9847147464752197,0.01863138936460018
1701056950077193000,11.67719287109375,0.5224425196647644,1.006400465965271,0.1189660057425499
1701056950094182700,11.6941826171875,0.5549710988998413,0.8608618378639221,0.235030397772789
1701056950111175700,11.71117578125,0.5619960427284241,0.6707300543785095,0.29168814420700073
1701056950128166400,11.72816650390625,0.5923865437507629,0.6085745096206665,0.2796235680580139
1701056950145153000,11.745153076171874,0.669966459274292,0.617584764957428,0.2070833146572113
1701056950162150400,11.762150390625,0.7504479289054871,0.6272059082984924,0.12339477986097336
1701056950179148300,11.779148193359376,0.7909177541732788,0.598953366279602,0.046273041516542435
1701056950196124700,11.796124755859376,0.8011497855186462,0.5433646440505981,-0.016493361443281174
1701056950213128000,11.8131279296875,0.8347473740577698,0.5331326723098755,-0.04505131021142006
1701056950230117400,11.830117431640625,0.9040805697441101,0.6052147150039673,-0.02871066704392433
1701056950247108000,11.847108154296874,1.0041097402572632,0.6922630667686462,0.041233405470848083
1701056950264104000,11.86410400390625,1.1007791757583618,0.7354817390441895,0.18631389737129211
1701056950281095200,11.88109521484375,1.1940888166427612,0.708450973033905,0.3484986126422882
1701056950298082800,11.898082763671875,1.250899314880371,0.6207917928695679,0.4789183437824249
1701056950315080000,11.915079833984375,1.2733485698699951,0.5230533480644226,0.5612324476242065
1701056950332068600,11.932068603515624,1.275792121887207,0.47998735308647156,0.5960517525672913
1701056950349062700,11.949062744140624,1.2586878538131714,0.5120577812194824,0.5864306092262268
1701056950366052600,11.966052490234375,1.2405146360397339,0.5716171264648438,0.5380195379257202
1701056950383045400,11.98304541015625,1.2348641157150269,0.611934244632721,0.4717406928539276
1701056950400034600,12.00003466796875,1.2273809909820557,0.6035348773002625,0.4021020531654358
1701056950417031700,12.01703173828125,1.2055425643920898,0.5717698931694031,0.31383201479911804
1701056950434020000,12.03402001953125,1.1583532094955444,0.5461135506629944,0.23625212907791138
1701056950451010600,12.051010498046875,1.1452195644378662,0.5870414972305298,0.1748601794242859
1701056950468006100,12.068006103515625,1.1788171529769897,0.6614143252372742,0.09086620807647705
1701056950484987400,12.0849873046875,1.2183706760406494,0.7550294399261475,0.0682641938328743
1701056950501987300,12.1019873046875,1.2402092218399048,0.8520042896270752,0.1267545372247696
1701056950518980000,12.11897998046875,1.2768610715866089,0.8852964639663696,0.2243402600288391
1701056950535971000,12.13597119140625,1.3187053203582764,0.8626944422721863,0.31230485439300537
1701056950552965000,12.152965087890625,1.3631458282470703,0.8434522151947021,0.37659841775894165
1701056950569954800,12.169954833984375,1.423926830291748,0.8370380997657776,0.4050036668777466
1701056950586947800,12.18694775390625,1.482569932937622,0.8675813674926758,0.43829581141471863
1701056950603938600,12.2039384765625,1.5300647020339966,0.9634872078895569,0.47708576917648315
1701056950620929800,12.2209296875,1.603979468345642,1.0572550296783447,0.4990769028663635
1701056950637924900,12.2379248046875,1.672243595123291,1.0673342943191528,0.49464812874794006
1701056950654921500,12.25492138671875,1.7307339906692505,0.9682214260101318,0.44776421785354614
1701056950671906000,12.271906005859375,1.7461583614349365,0.7869471311569214,0.37751471996307373
1701056950688899800,12.28889990234375,1.7217236757278442,0.5803219676017761,0.2344195395708084
1701056950705889800,12.305889892578126,1.665065884590149,0.6246097087860107,0.08491026610136032
1701056950722875000,12.322875,1.669647455215454,0.9456194043159485,0.018020525574684143
1701056950739870700,12.33987060546875,1.7942639589309692,1.2735012769699097,0.07422012835741043
1701056950756869600,12.35686962890625,1.9550741910934448,1.3909401893615723,0.2515237629413605
1701056950773857000,12.37385693359375,2.096031427383423,1.2904528379440308,0.48319441080093384
1701056950790849800,12.390849853515626,2.219731569290161,1.1255191564559937,0.7194465398788452
1701056950807840800,12.4078408203125,2.3069326877593994,0.9671524167060852,0.8969029188156128
1701056950824834800,12.424834716796875,2.372753381729126,0.8231409192085266,0.9645562171936035
1701056950841823700,12.44182373046875,2.3996315002441406,0.6525567770004272,0.9405797719955444
1701056950858818300,12.458818359375,2.384512424468994,0.48319441080093384,0.8827002644538879
1701056950875808300,12.475808349609375,2.3134994506835938,0.17180584371089935,0.7564038634300232
1701056950892793900,12.4927939453125,2.105347156524658,-0.24144448339939117,0.5293147563934326
1701056950909792000,12.5097919921875,1.803274154663086,-0.2961169183254242,0.35124751925468445
1701056950926785000,12.526784912109376,1.584431767463684,0.09208793938159943,0.3006984293460846
1701056950943762700,12.5437626953125,1.5734361410140991,0.735634446144104,0.3689626157283783
1701056950960768000,12.56076806640625,1.598328948020935,1.1287262439727783,0.46853363513946533
1701056950977763600,12.577763671875,1.5210545063018799,1.1432342529296875,0.5962044596672058
1701056950994752300,12.594752197265626,1.39017653465271,1.0445796251296997,0.707534670829773
1701056951011734800,12.61173486328125,1.256244421005249,0.9708175659179688,0.7035640478134155
1701056951028736500,12.628736572265625,1.140179991722107,0.9601274728775024,0.5470298528671265
1701056951045726200,12.645726318359374,1.045495867729187,0.9720393419265747,0.3822489380836487
1701056951062720500,12.662720458984374,0.9352346658706665,0.941343367099762,0.3196352422237396
1701056951079710500,12.67971044921875,0.8283332586288452,0.8903360962867737,0.32039880752563477
1701056951096705000,12.696705078125,0.7849618196487427,0.8917105197906494,0.3439171314239502
1701056951113694200,12.713694091796874,0.8121453523635864,0.9167560338973999,0.3920227587223053
1701056951130687200,12.730687255859374,0.8628471493721008,0.9341656565666199,0.470671683549881
1701056951147678200,12.74767822265625,0.8865181803703308,0.8949176073074341,0.5386304259300232
1701056951164672300,12.76467236328125,0.8541423082351685,0.8390234112739563,0.5575672388076782
1701056951181661700,12.78166162109375,0.7852672934532166,0.8495608568191528,0.5357288122177124
1701056951198654500,12.798654541015624,0.735634446144104,0.9140071272850037,0.4697553813457489
1701056951215643000,12.815642822265625,0.70692378282547,0.9228646755218506,0.3649919927120209
1701056951232634400,12.83263427734375,0.6695083379745483,0.8429940342903137,0.2226603776216507
1701056951249621500,12.84962158203125,0.608727216720581,0.8184067010879517,0.0907134860754013
1701056951266622000,12.8666220703125,0.5893322229385376,0.9460775256156921,0.031154127791523933
1701056951283610400,12.8836103515625,0.6414085030555725,1.154382586479187,0.07910704612731934
1701056951300596700,12.9005966796875,0.7440338730812073,1.2302825450897217,0.21502456068992615
1701056951317586200,12.917586181640624,0.8352054953575134,1.0899362564086914,0.3591887652873993
1701056951334589700,12.934589599609374,0.9094256162643433,0.8310821652412415,0.4694499373435974
1701056951351580400,12.951580322265626,0.9589056968688965,0.599564254283905,0.542142927646637
1701056951368574500,12.968574462890626,0.9757044911384583,0.5236642360687256,0.5763513445854187
1701056951385564400,12.985564453125,0.9437867999076843,0.5769622325897217,0.59803706407547
1701056951402557000,13.002556884765625,0.8881980776786804,0.6478226184844971,0.630871057510376
1701056951419545000,13.019545166015625,0.812298059463501,0.6177374720573425,0.6215553879737854
1701056951436544500,13.03654443359375,0.7269296646118164,0.5207626223564148,0.540921151638031
1701056951453531400,13.053531494140625,0.6411030888557434,0.4199698567390442,0.39706242084503174
1701056951470524400,13.0705244140625,0.5723807215690613,0.3926336467266083,0.23273965716362
1701056951487514000,13.08751416015625,0.5201517343521118,0.4378376603126526,0.08216137439012527
1701056951504508400,13.10450830078125,0.48685958981513977,0.5132794976234436,-0.04398229718208313
1701056951521501200,13.121501220703125,0.4905247986316681,0.5813909769058228,-0.16310101747512817
1701056951538482000,13.13848193359375,0.5196936130523682,0.7086036801338196,-0.21838432550430298
1701056951555482600,13.155482666015626,0.6004805564880371,0.8515461683273315,-0.17776179313659668
1701056951572472600,13.17247265625,0.7394523620605469,0.850782573223114,-0.09254608303308487
1701056951589470700,13.189470703125,0.8707883954048157,0.7247915863990784,0.01771509274840355
1701056951606459400,13.20645947265625,0.9599747061729431,0.5852088928222656,0.0981965884566307
1701056951623437000,13.22343701171875,1.0291552543640137,0.5600107312202454,0.12049316614866257
1701056951640447000,13.240447021484375,1.129184365272522,0.6272059082984924,0.11209376901388168
1701056951657433900,13.257433837890625,1.2344059944152832,0.7130324840545654,0.12018773704767227
1701056951674426600,13.274426513671875,1.342529058456421,0.7348709106445312,0.1771509200334549
1701056951691414300,13.291414306640625,1.4280502796173096,0.6661485433578491,0.27458393573760986
1701056951708415000,13.3084150390625,1.4697418212890625,0.5309945940971375,0.3744603991508484
1701056951725401300,13.3254013671875,1.4743232727050781,0.47342056035995483,0.4489859640598297
1701056951742394400,13.342394287109375,1.5138767957687378,0.5998696684837341,0.4502076804637909
1701056951759384000,13.359384033203124,1.5880969762802124,0.8300131559371948,0.38606682419776917
1701056951776380200,13.376380126953125,1.6687310934066772,0.9960157871246338,0.30772337317466736
1701056951793368800,13.393368896484375,1.768454909324646,0.9760099649429321,0.25824329257011414
1701056951810361900,13.41036181640625,1.8400788307189941,0.7267768979072571,0.21838432550430298
1701056951827352600,13.4273525390625,1.8264870643615723,0.427452951669693,0.11804971098899841
1701056951844346600,13.4443466796875,1.761277198791504,0.4586070775985718,0.056352317333221436
1701056951861336300,13.46133642578125,1.7458528280258179,0.816726803779602,0.13866640627384186
1701056951878329000,13.4783291015625,1.8503108024597168,1.1643091440200806,0.3442225754261017
1701056951895320000,13.495320068359375,1.9611828327178955,1.13758385181427,0.5549710988998413
1701056951912313900,13.51231396484375,1.9866864681243896,0.9300423264503479,0.7680103182792664
1701056951929304000,13.529303955078126,1.957212209701538,0.6994407176971436,0.9187413454055786
1701056951946283800,13.54628369140625,1.9343048334121704,0.5992587804794312,0.9213374853134155
1701056951963277000,13.563277099609374,1.9034560918807983,0.5676465034484863,0.7852672934532166
1701056951980269300,13.580269287109376,1.843591332435608,0.44745880365371704,0.5830708742141724
1701056951997266700,13.5972666015625,1.747685432434082,0.3182607889175415,0.4282165467739105
1701056952014266400,13.614266357421876,1.6145168542861938,0.22449298202991486,0.34834590554237366
1701056952031255000,13.631255126953125,1.4433218240737915,0.22586742043495178,0.32498031854629517
1701056952048248800,13.648248779296875,1.3087787628173828,0.39354994893074036,0.3675881624221802
1701056952065228300,13.665228271484375,1.2365440130233765,0.6621779203414917,0.45875978469848633
1701056952082235400,13.6822353515625,1.2024881839752197,0.8394815921783447,0.5638286471366882
1701056952099224300,13.699224365234375,1.1612548828125,0.8767443299293518,0.6484334468841553
1701056952116214500,13.716214599609375,1.0911580324172974,0.8576548099517822,0.7040221691131592
1701056952133206300,13.733206298828126,0.9915869832038879,0.8151996731758118,0.6841690540313721
1701056952150199000,13.750198974609376,0.8477282524108887,0.7785477638244629,0.6238461136817932
1701056952167179300,13.76717919921875,0.7299839854240417,0.8283332586288452,0.5633704662322998
1701056952184183800,13.784183837890625,0.6924157738685608,0.8959866166114807,0.5048801302909851
1701056952201173500,13.801173583984376,0.6823364496231079,0.901637077331543,0.46334129571914673
1701056952218164000,13.8181640625,0.6737843751907349,0.8268061280250549,0.43478333950042725
1701056952235160000,13.83516015625,0.6478226184844971,0.716697633266449,0.3998112976551056
1701056952252151300,13.8521513671875,0.6180428862571716,0.6745479702949524,0.35842517018318176
1701056952269141200,13.869141357421874,0.6244570016860962,0.726471483707428,0.30802878737449646
1701056952286134000,13.886134033203126,0.6647741198539734,0.8283332586288452,0.29367345571517944
1701056952303125000,13.903125,0.7310529947280884,0.8370380997657776,0.31749722361564636
1701056952320118800,13.920118896484375,0.7725918292999268,0.7396050691604614,0.3539963960647583
1701056952337108500,13.9371083984375,0.7744244337081909,0.5641340613365173,0.3228422701358795
1701056952354101500,13.9541015625,0.7560984492301941,0.45524731278419495,0.1791362315416336
1701056952371092200,13.97109228515625,0.7400632500648499,0.5057964324951172,-0.010537425056099892
1701056952388086500,13.98808642578125,0.7470881938934326,0.7338019013404846,-0.09544769674539566
1701056952405080800,14.005080810546875,0.7857254147529602,0.9976956844329834,0.01191187184303999
1701056952422069000,14.022069091796874,0.8840747475624084,1.0633636713027954,0.21288654208183289
1701056952439057200,14.03905712890625,0.9966266751289368,0.9138544201850891,0.4024074673652649
1701056952456044300,14.056044189453125,1.0899362564086914,0.7141014933586121,0.6171266436576843
1701056952473033700,14.07303369140625,1.1575896739959717,0.6104071140289307,0.7997753024101257
1701056952490025700,14.090025634765626,1.1696542501449585,0.6820310354232788,0.926835298538208
1701056952507019800,14.107019775390626,1.1362093687057495,0.7472409009933472,0.9755517840385437
1701056952524010800,14.1240107421875,1.080162525177002,0.6818783283233643,0.9108000993728638
1701056952541003800,14.141003662109375,0.9906707406044006,0.48258355259895325,0.7391469478607178
1701056952557996300,14.157996337890625,0.8460483551025391,0.3182607889175415,0.5496259927749634
1701056952574987000,14.174987060546876,0.7060074806213379,0.3549126982688904,0.32268956303596497
1701056952591979500,14.1919794921875,0.603076696395874,0.55695641040802,0.05711590126156807
1701056952608976100,14.20897607421875,0.5516113042831421,0.8130616545677185,-0.18768835067749023
1701056952625961000,14.2259609375,0.5832235813140869,0.9970847964286804,-0.30604347586631775
1701056952642957300,14.242957275390625,0.671493649482727,1.0502300262451172,-0.285121351480484
1701056952659947000,14.259947021484376,0.7586946487426758,0.9789115786552429,-0.1592831164598465
1701056952676940500,14.2769404296875,0.8631525635719299,0.8425359129905701,0.02733621932566166
1701056952693932000,14.29393212890625,0.9822713136672974,0.7738135457038879,0.18829920887947083
1701056952710922000,14.310921875,1.08718740940094,0.7425066828727722,0.29626965522766113
1701056952727913700,14.327913818359375,1.163851022720337,0.7105889916419983,0.3582724630832672
1701056952744904200,14.344904296875,1.221272349357605,0.6637051105499268,0.3831652104854584
1701056952761906000,14.361906005859375,1.2495248317718506,0.6446155309677124,0.4056145250797272
1701056952778899500,14.3788994140625,1.2582297325134277,0.584139883518219,0.41004329919815063
1701056952795891200,14.39589111328125,1.2341004610061646,0.5435173511505127,0.3888157308101654
1701056952812870400,14.412870361328125,1.1989758014678955,0.5268712639808655,0.347276896238327
1701056952829873700,14.429873779296875,1.1601858139038086,0.5581781268119812,0.304210901260376
1701056952846865000,14.446864990234374,1.1142182350158691,0.598953366279602,0.2791654169559479
1701056952863858700,14.463858642578124,1.0557278394699097,0.646295428276062,0.2594650089740753
1701056952880846600,14.4808466796875,1.0302242040634155,0.6863071322441101,0.23609942197799683
1701056952897843000,14.497843017578125,1.0462594032287598,0.7055493593215942,0.22571471333503723
1701056952914832100,14.51483203125,1.0790934562683105,0.7082982659339905,0.27488934993743896
1701056952931826200,14.531826171875,1.1030699014663696,0.7110471725463867,0.375071257352829
1701056952948816000,14.54881591796875,1.1105530261993408,0.7290676832199097,0.4590652287006378
1701056952965809000,14.565808837890625,1.116508960723877,0.7742717266082764,0.49877145886421204
1701056952982799400,14.58279931640625,1.1195632219314575,0.827111542224884,0.5074763298034668
1701056952999783000,14.599782958984376,1.1076513528823853,0.8402451276779175,0.5227479338645935
1701056953016783000,14.616783203125,1.079246163368225,0.8481863737106323,0.5705481171607971
1701056953033776400,14.6337763671875,1.0645854473114014,0.8553640842437744,0.607810914516449
1701056953050768000,14.650767822265625,1.0523680448532104,0.7718282341957092,0.5206099152565002
1701056953067760000,14.667760009765624,1.0057896375656128,0.6217080950737,0.31062498688697815
1701056953084748800,14.684748779296875,0.9222537875175476,0.5335907936096191,0.09224065393209457
1701056953101743600,14.70174365234375,0.8546004891395569,0.6244570016860962,-0.03451388701796532
1701056953118734600,14.718734619140625,0.8723155856132507,0.907898485660553,0.04001167416572571
1701056953135728600,14.735728759765625,0.9764680862426758,1.18660569190979,0.27061331272125244
1701056953152718300,14.75271826171875,1.0838276147842407,1.214552879333496,0.5111414790153503
1701056953169711000,14.769711181640625,1.1371256113052368,0.9721920490264893,0.6385068893432617
1701056953186702000,14.7867021484375,1.1359039545059204,0.6604980230331421,0.6542366743087769
1701056953203685600,14.803685546875,1.1062769889831543,0.5395467281341553,0.5965099334716797
1701056953220685800,14.820685791015626,1.084591269493103,0.5988006591796875,0.5091561675071716
1701056953237661000,14.837660888671875,1.0742065906524658,0.726471483707428,0.4873177409172058
1701056953254669600,14.854669677734375,1.0708467960357666,0.8284859657287598,0.556345522403717
1701056953271663400,14.871663330078125,1.0505355596542358,0.8294022679328918,0.661719799041748
1701056953288650800,14.888650634765625,1.0169379711151123,0.7331910133361816,0.684779942035675
1701056953305649000,14.90564892578125,0.954018771648407,0.6018549799919128,0.5787948369979858
1701056953322637000,14.922636962890625,0.8872817754745483,0.5199990272521973,0.4173736870288849
1701056953339630800,14.939630859375,0.8529205918312073,0.5245805382728577,0.28680121898651123
1701056953356620800,14.956620849609376,0.8417723178863525,0.5873469114303589,0.21013765037059784
1701056953373613800,14.97361376953125,0.8225300312042236,0.6342308521270752,0.17440202832221985
1701056953390602000,14.99060205078125,0.7791585922241211,0.6540839672088623,0.16065755486488342
1701056953407600600,15.0076005859375,0.736245334148407,0.6829473376274109,0.17287486791610718
1701056953424588800,15.0245888671875,0.7105889916419983,0.7489207983016968,0.1872301995754242
1701056953441581000,15.0415810546875,0.6950119137763977,0.8045095205307007,0.19776763021945953
1701056953458572000,15.058572021484375,0.6879869699478149,0.8181012868881226,0.2125810980796814
1701056953475566000,15.075566162109375,0.6615670323371887,0.8008443117141724,0.26862800121307373
1701056953492555800,15.0925556640625,0.5920811295509338,0.7564038634300232,0.35659259557724
1701056953509548500,15.109548583984376,0.5073235630989075,0.7116580009460449,0.40393465757369995
1701056953526537500,15.126537353515625,0.46364670991897583,0.6679811477661133,0.32849279046058655
1701056953543535600,15.14353564453125,0.4329507350921631,0.655458390712738,0.14874568581581116
1701056953560523800,15.160523681640624,0.3620903789997101,0.6690501570701599,-0.029016099870204926
1701056953577516300,15.177516357421876,0.3019201457500458,0.6815729141235352,-0.11026117950677872
1701056953594507000,15.194507080078125,0.290313720703125,0.6960809230804443,-0.11957687139511108
1701056953611500800,15.211500732421875,0.3084869384765625,0.7186829447746277,-0.10965031385421753
1701056953628490800,15.22849072265625,0.33948835730552673,0.6745479702949524,-0.09178250283002853
1701056953645483800,15.24548388671875,0.38438695669174194,0.5612324476242065,-0.07192938029766083
1701056953662474500,15.262474609375,0.4219551682472229,0.4813618063926697,-0.0685696229338646
1701056953679465700,15.2794658203125,0.4642575979232788,0.49098294973373413,-0.12461651116609573
1701056953696461000,15.2964609375,0.5096143484115601,0.5355761051177979,-0.3095559775829315
1701056953713451300,15.313451171875,0.5377141237258911,0.5539020895957947,-0.5849034786224365
1701056953730442000,15.33044189453125,0.5774203538894653,0.565203070640564,-0.780380368232727
1701056953747436000,15.34743603515625,0.6572909951210022,0.6247624158859253,-0.7238753437995911
1701056953764425700,15.36442578125,0.8101600408554077,0.7478517889976501,-0.36331209540367126
1701056953781418500,15.38141845703125,0.9932668805122375,0.8709411025047302,0.10170906037092209
1701056953798409500,15.398409423828125,1.1557570695877075,0.8584184050559998,0.4024074673652649
1701056953815403500,15.415403564453126,1.2904528379440308,0.7867944240570068,0.49785518646240234
1701056953832393200,15.432393310546875,1.3930782079696655,0.7180721163749695,0.4596760869026184
1701056953849386200,15.44938623046875,1.4584407806396484,0.68951416015625,0.3727805018424988
1701056953866377200,15.466377197265626,1.488220453262329,0.6834055185317993,0.27488934993743896
1701056953883371000,15.48337109375,1.485166072845459,0.7029531598091125,0.17638733983039856
1701056953900350200,15.50035009765625,1.469589114189148,0.7287622094154358,0.08139779418706894
1701056953917354000,15.51735400390625,1.431868076324463,0.7478517889976501,-0.016798794269561768
1701056953934344000,15.534343994140626,1.394452691078186,0.821461021900177,-0.1310305893421173
1701056953951338500,15.55133837890625,1.394452691078186,1.000749945640564,-0.1895209401845932
1701056953968328400,15.568328369140625,1.472796082496643,1.1762210130691528,-0.1498146951198578
1701056953985318700,15.585318603515624,1.6108516454696655,1.2362385988235474,-0.05390885844826698
1701056954002312000,15.60231201171875,1.721112847328186,1.188132882118225,0.10247264802455902
1701056954019306000,15.619305908203126,1.7737998962402344,1.1598803997039795,0.31383201479911804
1701056954036296000,15.6362958984375,1.8164077997207642,1.2260065078735352,0.47678032517433167
1701056954053289000,15.6532890625,1.8712329864501953,1.29549241065979,0.522595226764679
1701056954070279400,15.670279541015624,1.8930714130401611,1.3019065856933594,0.4642575979232788
1701056954087273500,15.6872734375,1.8842138051986694,1.272737741470337,0.379652738571167
1701056954104263400,15.704263427734375,1.880243182182312,1.2794572114944458,0.3352122902870178
1701056954121240300,15.721240234375,1.915215253829956,1.3205379247665405,0.3119994103908539
1701056954138247200,15.7382470703125,1.9671387672424316,1.313360333442688,0.2695443034172058
1701056954155238100,15.755238037109375,2.0167715549468994,1.1977540254592896,0.21319197118282318
1701056954172233500,15.7722333984375,2.0500638484954834,1.0607675313949585,0.1592831164598465
1701056954189224000,15.789223876953125,2.0833559036254883,1.034500241279602,0.09804387390613556
1701056954206214700,15.806214599609374,2.1229095458984375,1.1160508394241333,0.076052725315094
1701056954223206000,15.823205810546876,2.1817052364349365,1.2260065078735352,0.16462817788124084
1701056954240201000,15.840200927734376,2.2591323852539062,1.2409727573394775,0.399200439453125
1701056954257191200,15.857191162109375,2.2820398807525635,1.0795515775680542,0.6860016584396362
1701056954274182100,15.87418212890625,2.2437081336975098,0.9066767692565918,0.8921687006950378
1701056954291176000,15.891176025390624,2.1713204383850098,0.8546004891395569,0.9669997096061707
1701056954308153000,15.908153076171875,2.0789270401000977,0.8681922554969788,0.9080511927604675
1701056954325153300,15.9251533203125,1.9478965997695923,0.9057604670524597,0.6872233748435974
1701056954342149600,15.942149658203125,1.8203784227371216,0.9418014883995056,0.3396410644054413
1701056954359142100,15.95914208984375,1.7266106605529785,0.9440922141075134,-0.022143865004181862
1701056954376134700,15.976134765625,1.662469744682312,1.0873401165008545,-0.15393804013729095
1701056954393126100,15.993126220703125,1.7200437784194946,1.3070988655090332,-0.008399397134780884
1701056954410106400,16.0101064453125,1.8777997493743896,1.3578007221221924,0.2649627923965454
1701056954427101000,16.027100830078126,2.0144808292388916,1.1155925989151,0.5609270334243774
1701056954444100900,16.044100830078126,2.0621283054351807,0.7266241908073425,0.7889324426651001
1701056954461093600,16.06109375,2.0248656272888184,0.4712825417518616,0.841008722782135
1701056954478084600,16.078084716796877,1.9367482662200928,0.494189977645874,0.7539604306221008
1701056954495076000,16.095076171875,1.80037260055542,0.7000515460968018,0.6307183504104614
1701056954512073200,16.1120732421875,1.6960673332214355,0.8620835542678833,0.5204572081565857
1701056954529059000,16.12905908203125,1.6369661092758179,0.8281805515289307,0.4922046661376953
1701056954546041600,16.14604150390625,1.5427402257919312,0.6959282159805298,0.5537493228912354
1701056954563046000,16.1630458984375,1.3845261335372925,0.613461434841156,0.5923865437507629
1701056954580035800,16.180035888671874,1.2373075485229492,0.6704245805740356,0.5061018466949463
1701056954597028900,16.19702880859375,1.1493430137634277,0.827722430229187,0.35063666105270386
1701056954614016000,16.21401611328125,1.107040524482727,0.9795224070549011,0.25366178154945374
1701056954631006700,16.2310068359375,1.1056660413742065,1.0520626306533813,0.2713768780231476
1701056954648003300,16.24800341796875,1.1032226085662842,1.066265344619751,0.36529740691185
1701056954664996400,16.264996337890626,1.088409185409546,1.024726390838623,0.4271475374698639
1701056954681987000,16.281987060546875,1.0633636713027954,1.0002918243408203,0.38957929611206055
1701056954698981000,16.298981201171873,1.0444267988204956,1.0254900455474854,0.26969701051712036
1701056954715967000,16.315967041015625,1.0374019145965576,1.0653489828109741,0.1647808998823166
1701056954732967700,16.3329677734375,1.053742527961731,1.0986411571502686,0.13454307615756989
1701056954749954800,16.349954833984373,1.0934487581253052,1.1104003190994263,0.15195272862911224
1701056954766948600,16.366948486328123,1.1308642625808716,1.0725266933441162,0.1950187236070633
1701056954783938600,16.3839384765625,1.1447614431381226,1.007622241973877,0.2217440903186798
1701056954800928800,16.4009287109375,1.1438452005386353,0.9810495972633362,0.21334469318389893
1701056954817924600,16.417924560546876,1.1624765396118164,0.9990701079368591,0.17806722223758698
1701056954834906000,16.434906005859375,1.2044734954833984,1.0340421199798584,0.18936823308467865
1701056954851905800,16.45190576171875,1.2554807662963867,1.0290025472640991,0.2831360399723053
1701056954868898800,16.46889892578125,1.279915452003479,0.9572258591651917,0.40454551577568054
1701056954885889800,16.485889892578125,1.2722796201705933,0.8657487630844116,0.47998735308647156
1701056954902883600,16.502883544921875,1.198823094367981,0.7985535860061646,0.45295658707618713
1701056954919873300,16.519873291015625,1.0719157457351685,0.73685622215271,0.27809640765190125
1701056954936866300,16.5368662109375,0.9538660645484924,0.6846272349357605,0.009162978269159794
1701056954953857000,16.55385693359375,0.8712465763092041,0.7457137703895569,-0.20723603665828705
1701056954970851000,16.57085107421875,0.859029233455658,0.9592111706733704,-0.24892759323120117
1701056954987841000,16.587841064453126,0.901637077331543,1.1884382963180542,-0.0913243517279625
1701056955004831500,16.60483154296875,0.9676105380058289,1.1690434217453003,0.18096883594989777
1701056955021827000,16.6218271484375,1.0280861854553223,0.9204211831092834,0.4386012554168701
1701056955038818800,16.63881884765625,1.040150761604309,0.6669121384620667,0.5751296281814575
1701056955055808500,16.65580859375,1.0059423446655273,0.6033821702003479,0.5787948369979858
1701056955072790800,16.672790771484376,0.955545961856842,0.6507241725921631,0.48915034532546997
1701056955089792300,16.689792236328124,0.8950703144073486,0.6760751008987427,0.3692680299282074
1701056955106786300,16.706786376953126,0.8425359129905701,0.5532912015914917,0.242513507604599
1701056955123765500,16.723765625,0.793666660785675,0.3727805018424988,0.11530081182718277
1701056955140764700,16.7407646484375,0.7727445363998413,0.3764457106590271,0.006108652334660292
1701056955157764000,16.75776416015625,0.7855727076530457,0.5461135506629944,-0.04948008432984352
1701056955174753500,16.77475341796875,0.8541423082351685,0.7402159571647644,-0.04535674303770065
1701056955191741000,16.791740966796876,0.9703594446182251,0.7922922372817993,0.017409659922122955
1701056955208721200,16.80872119140625,1.0739010572433472,0.6487388610839844,0.12431107461452484
1701056955225716700,16.825716796875,1.1612548828125,0.5041165351867676,0.2768746614456177
1701056955242718700,16.84271875,1.2220358848571777,0.49464812874794006,0.3911064863204956
1701056955259700700,16.85970068359375,1.2638801336288452,0.584139883518219,0.43768495321273804
1701056955276706600,16.87670654296875,1.2916746139526367,0.6823364496231079,0.4308127164840698
1701056955293695000,16.893695068359374,1.316567301750183,0.7234171628952026,0.41859540343284607
1701056955310688800,16.910688720703124,1.3535246849060059,0.7032586336135864,0.4219551682472229
1701056955327678700,16.9276787109375,1.3881912231445312,0.6313292384147644,0.42180246114730835
1701056955344661000,16.944660888671876,1.3791810274124146,0.5357288122177124,0.41202861070632935
1701056955361662200,16.961662109375,1.3506230115890503,0.45982882380485535,0.38408151268959045
1701056955378656500,16.978656494140626,1.3771957159042358,0.49205195903778076,0.31413745880126953
1701056955395635500,16.995635498046877,1.4613423347473145,0.5943718552589417,0.25534167885780334
1701056955412636700,17.01263671875,1.5424346923828125,0.6817256212234497,0.25473082065582275
1701056955429632300,17.02963232421875,1.6044375896453857,0.731511116027832,0.2840523421764374
1701056955446611500,17.046611572265626,1.6278032064437866,0.7231117486953735,0.3116939961910248
1701056955463606500,17.0636064453125,1.6259706020355225,0.7061602473258972,0.32391130924224854
1701056955480609000,17.080609130859376,1.6293302774429321,0.7536550164222717,0.31810808181762695
1701056955497588700,17.097588623046875,1.6699528694152832,0.8668177723884583,0.3318525552749634
1701056955514582300,17.114582275390624,1.7565430402755737,0.9801332950592041,0.4115704596042633
1701056955531583700,17.131583740234376,1.8573358058929443,1.036943793296814,0.5761986374855042
1701056955548574200,17.14857421875,1.942704200744629,1.0227410793304443,0.7434229850769043
1701056955565550800,17.16555078125,1.987450122833252,0.9863946437835693,0.827722430229187
1701056955582558700,17.182558837890625,1.977676272392273,0.9007207751274109,0.8002334833145142
1701056955599546000,17.199546142578125,1.959502935409546,0.7823656797409058,0.6487388610839844
1701056955616544300,17.216544189453124,1.9520199298858643,0.7186829447746277,0.4407392740249634
1701056955633532700,17.23353271484375,1.9196439981460571,0.7980954647064209,0.289702832698822
1701056955650526500,17.2505263671875,1.8628336191177368,1.0592403411865234,0.29184088110923767
1701056955667516400,17.267516357421876,1.848020076751709,1.2353222370147705,0.44623705744743347
1701056955684498400,17.28449853515625,1.8445075750350952,1.0894781351089478,0.6206390857696533
1701056955701500000,17.3015,1.798081874847412,0.7386888265609741,0.7046330571174622
1701056955718494000,17.318493896484377,1.6821701526641846,0.48227810859680176,0.6696610450744629
1701056955735483600,17.335483642578126,1.5112806558609009,0.503963828086853,0.542142927646637
1701056955752476700,17.3524765625,1.3435981273651123,0.7518224120140076,0.3744603991508484
1701056955769467400,17.36946728515625,1.2260065078735352,1.03984534740448,0.24556782841682434
1701056955786461700,17.386461669921875,1.1898127794265747,1.1181888580322266,0.2298380434513092
1701056955803439000,17.403439208984373,1.1830933094024658,1.0057896375656128,0.2971859276294708
1701056955820446000,17.420446044921874,1.154382586479187,0.8491026759147644,0.4259257912635803
1701056955837435100,17.43743505859375,1.1371256113052368,0.788627028465271,0.5577199459075928
1701056955854429200,17.45442919921875,1.1232284307479858,0.8246681094169617,0.6203336715698242
1701056955871419000,17.4714189453125,1.1114692687988281,0.8691084980964661,0.6183483600616455
1701056955888411600,17.48841162109375,1.085965633392334,0.8275696635246277,0.5679519772529602
1701056955905402600,17.505402587890625,1.045190453529358,0.751669704914093,0.5212207436561584
1701056955922396400,17.522396484375,0.9761626720428467,0.6982190012931824,0.5002986192703247
1701056955939377000,17.539376953125,0.9039278626441956,0.7018841505050659,0.48166725039482117
1701056955956370200,17.5563701171875,0.8486445546150208,0.7666358947753906,0.43050727248191833
1701056955973360600,17.573360595703125,0.8121453523635864,0.8732318878173828,0.3727805018424988
1701056955990356500,17.5903564453125,0.793666660785675,0.9790642857551575,0.33689218759536743
1701056956007345200,17.60734521484375,0.7768678665161133,1.0180069208145142,0.32788193225860596
1701056956024338000,17.624337890625,0.7707592248916626,0.9822713136672974,0.3546072840690613
1701056956041328400,17.641328369140624,0.773202657699585,0.9346238374710083,0.413097620010376
1701056956058325800,17.65832568359375,0.7939720749855042,0.9092729091644287,0.4612032473087311
1701056956075313700,17.675313720703127,0.8281805515289307,0.9375254511833191,0.47280970215797424
1701056956092306200,17.69230615234375,0.8541423082351685,0.9673051238059998,0.4714352488517761
1701056956109294300,17.70929443359375,0.875064492225647,0.9201157689094543,0.451582133769989
1701056956126290000,17.7262900390625,0.8721628785133362,0.7791585922241211,0.375529408454895
1701056956143283200,17.743283203125,0.8432994484901428,0.5597052574157715,0.2321287989616394
1701056956160275700,17.760275634765627,0.8037459254264832,0.4248567819595337,0.04199698567390442
1701056956177262000,17.777261962890623,0.7875580191612244,0.5363397002220154,-0.0887281745672226
1701056956194260200,17.79426025390625,0.8251262307167053,0.8306240439414978,-0.04749477282166481
1701056956211248400,17.811248291015627,0.9135489463806152,1.1117748022079468,0.1612684279680252
1701056956228236800,17.82823681640625,0.9917397499084473,1.116508960723877,0.41370847821235657
1701056956245234000,17.84523388671875,1.0370965003967285,0.9364564418792725,0.6433938145637512
1701056956262230500,17.86223046875,1.0419833660125732,0.7869471311569214,0.7553348541259766
1701056956279225600,17.8792255859375,1.0054842233657837,0.6995934247970581,0.7122688889503479
1701056956296215600,17.896215576171876,0.9266825914382935,0.5890268087387085,0.5549710988998413
1701056956313206000,17.9132060546875,0.8206974864006042,0.5106833577156067,0.3553708493709564
1701056956330204000,17.930203857421876,0.7163922190666199,0.5083925724029541,0.08506298810243607
1701056956347191600,17.947191650390625,0.6278167366981506,0.5974262356758118,-0.24755313992500305
1701056956364174000,17.964174072265624,0.5917757153511047,0.8365799784660339,-0.4662429094314575
1701056956381170200,17.981170166015627,0.650418758392334,1.1498011350631714,-0.46899178624153137
1701056956398169300,17.99816943359375,0.7924449443817139,1.2912163734436035,-0.32589662075042725
1701056956415159300,18.0151591796875,0.9549350738525391,1.13926362991333,-0.15057829022407532
1701056956432152300,18.03215234375,1.0778716802597046,0.8753699064254761,0.047189339995384216
1701056956449143000,18.04914306640625,1.1691961288452148,0.7559457421302795,0.20036379992961884
1701056956466137000,18.06613720703125,1.2432634830474854,0.799011766910553,0.2620611786842346
1701056956483126800,18.083126708984373,1.2962560653686523,0.8533787727355957,0.2741257846355438
1701056956500111000,18.100111083984373,1.31916344165802,0.821461021900177,0.26343563199043274
1701056956517111000,18.117111083984376,1.313665747642517,0.7408268451690674,0.26740625500679016
1701056956534104300,18.134104248046874,1.2945761680603027,0.6664539575576782,0.26679539680480957
1701056956551094300,18.15109423828125,1.2820534706115723,0.6843217611312866,0.22067506611347198
1701056956568087300,18.16808740234375,1.2754865884780884,0.7667886018753052,0.1514945775270462
1701056956585081000,18.1850810546875,1.291369080543518,0.8206974864006042,0.11026117950677872
1701056956602072000,18.202072021484376,1.320690631866455,0.7906123399734497,0.12171489745378494
1701056956619061800,18.219061767578125,1.3280210494995117,0.7334964275360107,0.16019940376281738
1701056956636054800,18.2360546875,1.3319916725158691,0.7241807579994202,0.18585574626922607
1701056956653045800,18.253045654296876,1.349706768989563,0.7744244337081909,0.1889100819826126
1701056956670039600,18.27003955078125,1.3761266469955444,0.8252789378166199,0.192422553896904
1701056956687029800,18.28702978515625,1.4335479736328125,0.8694139719009399,0.23182335495948792
1701056956704022500,18.3040224609375,1.5192219018936157,0.8871290683746338,0.30741792917251587
1701056956721010400,18.321010498046874,1.602146863937378,0.8633053302764893,0.3761402666568756
1701056956738007000,18.338007080078125,1.6694947481155396,0.8463537693023682,0.39187005162239075
1701056956754999600,18.35499951171875,1.6916385889053345,0.8536841869354248,0.3332269787788391
1701056956771990000,18.371989990234376,1.693013072013855,0.8529205918312073,0.2002110779285431
1701056956788980700,18.388980712890625,1.7058411836624146,0.831234872341156,0.051770828664302826
1701056956805974800,18.405974853515627,1.7620408535003662,0.8816312551498413,0.007635815534740686
1701056956822966300,18.42296630859375,1.8625280857086182,1.0294606685638428,0.15393804013729095
1701056956839955700,18.439955810546873,1.9643899202346802,1.155604362487793,0.45036038756370544
1701056956856950000,18.456949951171875,1.996307611465454,1.094059705734253,0.7328855991363525
1701056956873940700,18.473940673828125,1.947438359260559,0.9182831645011902,0.8845328688621521
1701056956890922800,18.4909228515625,1.860848307609558,0.7715228199958801,0.8910996913909912
1701056956907921000,18.5079208984375,1.768454909324646,0.7286095023155212,0.7800748944282532
1701056956924920000,18.524920166015626,1.681712031364441,0.7768678665161133,0.6058256030082703
1701056956941909800,18.54190966796875,1.598328948020935,0.7567093372344971,0.4508185386657715
1701056956958889200,18.55888916015625,1.490816593170166,0.6629415154457092,0.4427245855331421
1701056956975892500,18.575892578125,1.373683214187622,0.5526803135871887,0.5041165351867676
1701056956992883500,18.592883544921875,1.2779301404953003,0.5207626223564148,0.5629123449325562
1701056957009877500,18.60987744140625,1.207680583000183,0.626747727394104,0.6009386777877808
1701056957026867200,18.6268671875,1.144914150238037,0.7765624523162842,0.6064364910125732
1701056957043860200,18.643860107421876,1.0997101068496704,0.8633053302764893,0.6221662759780884
1701056957060848600,18.6608486328125,1.0453431606292725,0.8336783647537231,0.6568328738212585
1701056957077847300,18.677847412109376,1.0031934976577759,0.7748825550079346,0.688903272151947
1701056957094834700,18.694834716796876,0.95462965965271,0.726471483707428,0.6603453159332275
1701056957111832300,18.711832275390623,0.8749117255210876,0.7305948138237,0.5719226002693176
1701056957128819500,18.7288193359375,0.7834346890449524,0.7237225770950317,0.41004329919815063
1701056957145811700,18.745811767578125,0.7064656615257263,0.684779942035675,0.22846360504627228
1701056957162791700,18.762791748046876,0.6620252132415771,0.6592763066291809,0.12079860270023346
1701056957179795200,18.779795166015624,0.6685920357704163,0.6905831694602966,0.12186761945486069
1701056957196786200,18.7967861328125,0.7299839854240417,0.7409795522689819,0.20983220636844635
1701056957213779500,18.813779541015624,0.7875580191612244,0.7050912380218506,0.29107728600502014
1701056957230770400,18.8307705078125,0.8005388975143433,0.6024658679962158,0.3124575614929199
1701056957247763000,18.847762939453126,0.7964155673980713,0.5850561857223511,0.32421672344207764
1701056957264753700,18.864753662109376,0.8193230032920837,0.6737843751907349,0.3474296033382416
1701056957281748200,18.881748291015626,0.8546004891395569,0.7878634333610535,0.39645153284072876
1701056957298737700,18.898737548828127,0.8689557909965515,0.8043568134307861,0.3871358633041382
1701056957315730400,18.91573046875,0.8361217975616455,0.7014260292053223,0.24388794600963593
1701056957332721200,18.93272119140625,0.774118959903717,0.5690209865570068,-0.019394971430301666
1701056957349715200,18.949715087890624,0.7261660695075989,0.6058256030082703,-0.2638937830924988
1701056957366705200,18.966705078125,0.7385360598564148,0.8568912148475647,-0.39736783504486084
1701056957383684900,18.983684814453124,0.8310821652412415,1.170875906944275,-0.3407101035118103
1701056957400691500,19.00069140625,0.9724974632263184,1.3616186380386353,-0.09560041129589081
1701056957417683000,19.017682861328126,1.083369493484497,1.2544118165969849,0.244804248213768
1701056957434672600,19.034672607421875,1.168585181236267,0.9775370955467224,0.5215262174606323
1701056957451665400,19.05166552734375,1.2125675678253174,0.8190175890922546,0.633009135723114
1701056957468656400,19.068656494140626,1.2516628503799438,0.8326093554496765,0.6015495657920837
1701056957485646800,19.085646728515623,1.3029755353927612,0.9419541954994202,0.5334380865097046
1701056957502640400,19.102640380859373,1.3266465663909912,1.0147998332977295,0.5112941861152649
1701056957519633000,19.1196328125,1.2832751274108887,0.9656252264976501,0.5595525503158569
1701056957536623900,19.136623779296876,1.2205088138580322,0.8361217975616455,0.5885686874389648
1701056957553618000,19.153617919921874,1.204779028892517,0.7009678483009338,0.5120577812194824
1701056957570607600,19.170607666015623,1.2133311033248901,0.7177666425704956,0.32971450686454773
1701056957587598300,19.187598388671876,1.2040153741836548,0.8692612648010254,0.06658431142568588
1701056957604583200,19.204583251953125,1.2105822563171387,0.9938777685165405,-0.14416420459747314
1701056957621587700,19.221587646484377,1.2235630750656128,1.0196868181228638,-0.2018909603357315
1701056957638575400,19.238575439453125,1.262963891029358,0.9428704977035522,-0.15913039445877075
1701056957655568400,19.255568359375,1.3461942672729492,0.8604037165641785,-0.027183502912521362
1701056957672548600,19.272548583984374,1.4442381858825684,0.8956811428070068,0.17150041460990906
1701056957689553200,19.28955322265625,1.5309810638427734,1.0138835906982422,0.35903605818748474
1701056957706543000,19.306543212890624,1.5891659259796143,1.1264355182647705,0.5093088746070862
1701056957723536000,19.323535888671874,1.623374342918396,1.1591167449951172,0.5787948369979858
1701056957740526600,19.340526611328126,1.6410894393920898,1.101084589958191,0.5687155723571777
1701056957757520600,19.357520751953125,1.6450600624084473,1.0137308835983276,0.5238169431686401
1701056957774510300,19.37451025390625,1.6294829845428467,0.9440922141075134,0.4564690589904785
1701056957791493000,19.3914931640625,1.6052011251449585,0.9468411207199097,0.3793473243713379
1701056957808496400,19.408496337890625,1.5800029039382935,1.0016663074493408,0.2848159074783325
1701056957825486300,19.425486328125,1.5745052099227905,1.0103710889816284,0.19776763021945953
1701056957842478000,19.44247802734375,1.5766432285308838,0.9584475755691528,0.15515977144241333
1701056957859468300,19.45946826171875,1.5783231258392334,0.9091202020645142,0.1609629988670349
1701056957876464600,19.476464599609375,1.577559471130371,0.8796459436416626,0.18875735998153687
1701056957893455600,19.49345556640625,1.592678427696228,0.8863654732704163,0.22876903414726257
1701056957910445600,19.510445556640626,1.609171748161316,0.9335548281669617,0.2926044464111328
1701056957927438600,19.5274384765625,1.6319265365600586,1.0207557678222656,0.3784310221672058
1701056957944429600,19.5444296875,1.6499470472335815,1.0542006492614746,0.4586070775985718
1701056957961421000,19.561421142578126,1.6342172622680664,1.0082330703735352,0.5073235630989075
1701056957978414600,19.57841455078125,1.6030631065368652,0.9949467778205872,0.5253441333770752
1701056957995407400,19.595407470703126,1.5780175924301147,1.0027352571487427,0.5010622143745422
1701056958012396500,19.612396484375,1.5493069887161255,1.0268645286560059,0.4882340431213379
1701056958029391000,19.62939111328125,1.5456417798995972,1.0474811792373657,0.5096143484115601
1701056958046380800,19.646380859375,1.584431767463684,1.0520626306533813,0.5629123449325562
1701056958063364600,19.663364501953126,1.6316211223602295,1.0088438987731934,0.5965099334716797
1701056958080364000,19.680364013671873,1.6479617357254028,0.9159924387931824,0.5302310585975647
1701056958097359400,19.697359375,1.617876648902893,0.7874053120613098,0.37201693654060364
1701056958114348300,19.714348388671876,1.5745052099227905,0.7273877859115601,0.1849394589662552
1701056958131341300,19.73134130859375,1.5613715648651123,0.8814785480499268,0.09865473955869675
1701056958148330500,19.74833056640625,1.6131423711776733,1.1462886333465576,0.2356412708759308
1701056958165328100,19.765328125,1.7310394048690796,1.221272349357605,0.5349652171134949
1701056958182316000,19.78231591796875,1.809230089187622,1.0487029552459717,0.8407033085823059
1701056958199308000,19.79930810546875,1.8249598741531372,0.8235990405082703,1.052673578262329
1701056958216300300,19.81630029296875,1.7996090650558472,0.7012733221054077,1.1065824031829834
1701056958233291500,19.83329150390625,1.7547104358673096,0.6647741198539734,0.9871582388877869
1701056958250286000,19.8502861328125,1.6856826543807983,0.6328563690185547,0.7805330753326416
1701056958267276800,19.86727685546875,1.609171748161316,0.5557346343994141,0.5850561857223511
1701056958284267300,19.884267333984376,1.5054774284362793,0.456163614988327,0.4375322461128235
1701056958301261300,19.90126123046875,1.3742940425872803,0.43050727248191833,0.33536502718925476
1701056958318251300,19.918251220703127,1.2472341060638428,0.526107668876648,0.29046642780303955
1701056958335244000,19.935244140625,1.176831841468811,0.7250970602035522,0.2814561724662781
1701056958352235000,19.952235107421874,1.1462886333465576,0.9117164015769958,0.3066543638706207
1701056958369229000,19.96922900390625,1.1163562536239624,0.9860892295837402,0.3686571717262268
1701056958386219000,19.986218994140625,1.0914634466171265,0.9847147464752197,0.4662429094314575
1701056958403211500,20.00321142578125,1.083064079284668,0.9702067375183105,0.5396994352340698
1701056958420202500,20.020202392578124,1.064738154411316,0.9659306406974792,0.5516113042831421
1701056958437196300,20.0371962890625,1.0129673480987549,0.9514226317405701,0.5135849714279175
1701056958454185700,20.054185791015627,0.9486737251281738,0.9094256162643433,0.447000652551651
1701056958471179800,20.0711796875,0.9185886383056641,0.8542950749397278,0.3631593883037567
1701056958488163800,20.088163818359376,0.9181304574012756,0.789237916469574,0.2782491147518158
1701056958505153500,20.105153564453126,0.9071348905563354,0.7380779385566711,0.23151792585849762
1701056958522154000,20.122154052734373,0.8701775670051575,0.6762278079986572,0.21609358489513397
1701056958539144400,20.13914453125,0.8232936263084412,0.637132465839386,0.21303924918174744
1701056958556140000,20.15614013671875,0.7767151594161987,0.718224823474884,0.22342395782470703
1701056958573131800,20.1731318359375,0.7571674585342407,0.8906415104866028,0.22189679741859436
1701056958590121500,20.19012158203125,0.7861835956573486,1.0636690855026245,0.21930062770843506
1701056958607114500,20.207114501953125,0.8326093554496765,1.109636664390564,0.2246456891298294
1701056958624105200,20.224105224609374,0.8575021028518677,1.045190453529358,0.2402227520942688
1701056958641099300,20.241099365234376,0.870330274105072,0.9515753388404846,0.23396138846874237
1701056958658086400,20.25808642578125,0.8941540122032166,0.888350784778595,0.2028072625398636
1701056958675084500,20.27508447265625,0.9491318464279175,0.8805622458457947,0.17638733983039856
1701056958692062700,20.292062744140626,1.0283915996551514,0.8894197940826416,0.16844609379768372
1701056958709067000,20.30906689453125,1.0700831413269043,0.7979426980018616,0.1823432743549347
1701056958726054000,20.326053955078127,1.077413558959961,0.6375905871391296,0.23777928948402405
1701056958743052500,20.343052490234374,1.0855075120925903,0.5199990272521973,0.29993483424186707
1701056958760040400,20.36004052734375,1.0873401165008545,0.4607451260089874,0.26969701051712036
1701056958777034500,20.377034423828125,1.0395399332046509,0.4352414906024933,0.14034628868103027
1701056958794024200,20.394024169921874,0.9624181985855103,0.49586987495422363,-0.043676864355802536
1701056958811017200,20.411017333984375,0.9011789560317993,0.6676757335662842,-0.17898350954055786
1701056958828008000,20.428008056640625,0.8938485980033875,0.9286679029464722,-0.1511891484260559
1701056958844998100,20.444998046875,0.9332493543624878,1.0998629331588745,0.048258353024721146
1701056958861991700,20.46199169921875,0.9712757468223572,1.0143417119979858,0.30222558975219727
1701056958878984700,20.478984619140626,0.9828822016716003,0.8148942589759827,0.5248859524726868
1701056958895976000,20.495975830078127,0.9453139901161194,0.7399105429649353,0.6395758986473083
1701056958912969500,20.512969482421877,0.8767443299293518,0.8472700715065002,0.6110179424285889
1701056958929959400,20.52995947265625,0.8257371187210083,0.9482156038284302,0.48319441080093384
1701056958946950100,20.5469501953125,0.7861835956573486,0.9207266569137573,0.3527746796607971
1701056958963933000,20.563932861328126,0.7405213713645935,0.8437576293945312,0.30283644795417786
1701056958980937500,20.5809375,0.6565274000167847,0.7817547917366028,0.3449861407279968
1701056958997920000,20.597919921875,0.5038111209869385,0.7518224120140076,0.37888917326927185
1701056959014912000,20.614912109375,0.3677408695220947,0.7687739133834839,0.28909197449684143
1701056959031913200,20.631913330078124,0.29367345571517944,0.803440511226654,0.07880161702632904
1701056959048905000,20.648905029296873,0.28237244486808777,0.8681922554969788,-0.11148291081190109
1701056959065877500,20.66587744140625,0.36392298340797424,0.984867513179779,-0.1365283876657486
1701056959082884900,20.682884765625,0.5015203952789307,1.1105530261993408,0.052381694316864014
1701056959099881200,20.699881103515626,0.6039929986000061,1.1847730875015259,0.35063666105270386
1701056959116872400,20.71687255859375,0.6236934065818787,1.1357512474060059,0.655458390712738
1701056959133862100,20.733862060546876,0.6224716901779175,1.0282388925552368,0.9108000993728638
1701056959150855200,20.750855224609374,0.622013509273529,0.9683741331100464,1.0879509449005127
1701056959167846100,20.76784619140625,0.6214026808738708,0.9388998746871948,1.1065824031829834
1701056959184840200,20.784840087890625,0.6203336715698242,0.8994990587234497,0.9960157871246338
1701056959201830000,20.801829833984375,0.6041457056999207,0.8423831462860107,0.8200865983963013
1701056959218822700,20.81882275390625,0.5949827432632446,0.799011766910553,0.6655376553535461
1701056959235813600,20.835813720703126,0.6056728959083557,0.7855727076530457,0.5459607839584351
1701056959252806700,20.852806640625,0.6499606370925903,0.7970264554023743,0.43249258399009705
1701056959269798400,20.86979833984375,0.7101308703422546,0.7900014519691467,0.32421672344207764
1701056959286791000,20.886791015625,0.7896960377693176,0.7470881938934326,0.2168571650981903
1701056959303770400,20.903770263671873,0.8532260060310364,0.6855435371398926,0.12339477986097336
1701056959320778000,20.920778076171874,0.8886561989784241,0.6339253783226013,0.10430523753166199
1701056959337762300,20.93776220703125,0.9537133574485779,0.6352998614311218,0.1508837193250656
1701056959354758000,20.9547578125,1.007622241973877,0.6829473376274109,0.20662516355514526
1701056959371748900,20.971748779296874,1.0337367057800293,0.7438811659812927,0.2070833146572113
1701056959388743000,20.988742919921876,1.0545061826705933,0.775340735912323,0.15531249344348907
1701056959405732900,21.00573291015625,1.0729848146438599,0.7738135457038879,0.10231992602348328
1701056959422723000,21.02272314453125,1.1035280227661133,0.7910705208778381,0.08078692853450775
1701056959439710000,21.0397099609375,1.140179991722107,0.8216137290000916,0.07666359096765518
1701056959456704000,21.0567041015625,1.1659890413284302,0.8284859657287598,0.055894169956445694
1701056959473693000,21.07369287109375,1.1775954961776733,0.7991644740104675,-0.0006108652451075613
1701056959490682400,21.090682373046874,1.1859948635101318,0.8026769161224365,-0.05910121276974678
1701056959507677400,21.107677490234376,1.1818715333938599,0.8897252082824707,-0.06414084881544113
1701056959524670000,21.124669921875,1.1942415237426758,1.0103710889816284,-0.023365596309304237
1701056959541657900,21.141657958984375,1.2305880784988403,1.0758863687515259,0.05192354694008827
1701056959558655000,21.158655029296874,1.2718214988708496,1.0198395252227783,0.14233160018920898
1701056959575641900,21.175641845703126,1.2919800281524658,0.9320276379585266,0.2295326143503189
1701056959592637700,21.1926376953125,1.2725850343704224,0.8619308471679688,0.2744311988353729
1701056959609626400,21.20962646484375,1.2479976415634155,0.8315402865409851,0.2591595947742462
1701056959626621700,21.22662158203125,1.2341004610061646,0.8642216324806213,0.18845193088054657
1701056959643604200,21.243604248046875,1.228297233581543,0.8778133392333984,0.08735372871160507
1701056959660605200,21.260605224609375,1.2176071405410767,0.8124507665634155,-0.012828170321881771
1701056959677596200,21.27759619140625,1.1884382963180542,0.7296785116195679,-0.07391469180583954
1701056959694588700,21.294588623046874,1.158505916595459,0.7020368576049805,-0.08231408894062042
1701056959711581200,21.311581298828123,1.1675162315368652,0.7228062748908997,-0.06673702597618103
1701056959728573400,21.328573486328125,1.2147055864334106,0.764345109462738,-0.03344487398862839
1701056959745562400,21.345562255859374,1.2811371088027954,0.7954992651939392,0.00931569468230009
1701056959762563600,21.3625634765625,1.3151928186416626,0.803440511226654,0.034666601568460464
1701056959779551700,21.3795517578125,1.3000739812850952,0.7912232279777527,0.04764748737215996
1701056959796551200,21.39655126953125,1.2918273210525513,0.7924449443817139,0.05543602257966995
1701056959813535700,21.41353564453125,1.2980886697769165,0.8162686824798584,0.058184914290905
1701056959830534000,21.430533935546876,1.3190107345581055,0.8767443299293518,0.06398813426494598
1701056959847522300,21.447522216796877,1.335809588432312,0.921795666217804,0.0780380368232727
1701056959864516000,21.46451611328125,1.3472633361816406,0.8880453705787659,0.0884227454662323
1701056959881507600,21.481507568359376,1.3464996814727783,0.8358163833618164,0.09315694868564606
1701056959898503400,21.49850341796875,1.2939653396606445,0.8119926452636719,0.07681630551815033
1701056959915489800,21.51548974609375,1.2124147415161133,0.8148942589759827,0.02428189292550087
1701056959932483800,21.53248388671875,1.1595749855041504,0.8345946669578552,-0.04489859566092491
1701056959949473500,21.5494736328125,1.1270463466644287,0.8373435139656067,-0.10552696883678436
1701056959966466600,21.566466552734376,1.0995573997497559,0.7835873961448669,-0.1342376321554184
