time,seconds_elapsed,z,y,x
1702055172098862000,0.055862060546875,-0.19165897369384766,0.12171489745378494,0.19288070499897003
1702055172115834600,0.072834716796875,-0.18784105777740479,0.24129177629947662,0.2577851414680481
1702055172132836600,0.089836669921875,-0.10506882518529892,0.28557950258255005,0.19853121042251587
1702055172149840100,0.106840087890625,-0.028405234217643738,0.3494149148464203,0.055894169956445694
1702055172166827300,0.1238271484375,0.05207626149058342,0.4573853611946106,-0.04734205827116966
1702055172183827000,0.140826904296875,0.09269879758358002,0.5241223573684692,-0.10094548016786575
1702055172200823800,0.15782373046875,0.09254608303308487,0.37568211555480957,-0.11804971098899841
1702055172217810200,0.17481005859375,-0.005650503560900688,0.16569720208644867,-0.12492194026708603
1702055172234811100,0.19181103515625,-0.05115996301174164,0.2171625941991806,-0.06475171446800232
1702055172251808000,0.20880810546875,0.009162978269159794,0.33857205510139465,-0.07238753139972687
1702055172268803000,0.225802978515625,0.09804387390613556,0.3827070891857147,-0.1310305893421173
1702055172285797400,0.24279736328125,0.21105393767356873,0.3243694305419922,-0.2148718535900116
1702055172302786600,0.25978662109375,0.3084869384765625,0.21410827338695526,-0.26022860407829285
1702055172319785500,0.276785400390625,0.3029891550540924,0.15363261103630066,-0.1846340149641037
1702055172336785700,0.29378564453125,0.25076019763946533,0.0705549344420433,-0.08933904021978378
1702055172353774800,0.31077490234375,0.27458393573760986,0.036041051149368286,-0.11682797968387604
1702055172370771700,0.327771728515625,0.38148534297943115,0.0659734457731247,-0.2483167201280594
1702055172387768300,0.344768310546875,0.41630467772483826,0.008246680721640587,-0.3550654351711273
1702055172404766500,0.361766357421875,0.36361753940582275,-0.02535090781748295,-0.32498031854629517
1702055172421752600,0.378752685546875,0.3393356502056122,-0.03894266113638878,-0.1976149082183838
1702055172438753000,0.3957529296875,0.3546072840690613,-0.09773843735456467,-0.09010262042284012
1702055172455746800,0.412746826171875,0.4207334518432617,-0.11545353382825851,-0.05849034711718559
1702055172472708000,0.4297080078125,0.4642575979232788,-0.09086620807647705,-0.08475755155086517
1702055172489736000,0.44673583984375,0.4337143301963806,-0.12767083942890167,-0.12538009881973267
1702055172506732300,0.463732177734375,0.44196099042892456,-0.1966986060142517,-0.1368338167667389
1702055172523723000,0.480722900390625,0.5355761051177979,-0.19196440279483795,-0.06918048858642578
1702055172540719900,0.497719970703125,0.5876523852348328,-0.11499538272619247,-0.0064140851609408855
1702055172557724000,0.514723876953125,0.13500121235847473,0.08124507963657379,0.027488935738801956
1702055172574704400,0.531704345703125,-0.18341228365898132,0.10644327104091644,0.18280142545700073
1702055172591705600,0.54870556640625,-0.19288070499897003,0.14813482761383057,0.44104471802711487
1702055172608701000,0.565700927734375,-0.059864792972803116,0.21410827338695526,0.6362161636352539
1702055172625692000,0.58269189453125,0.15851953625679016,0.2629774808883667,0.6737843751907349
1702055172642679300,0.59967919921875,0.33276882767677307,0.29077184200286865,0.5963571667671204
1702055172659682300,0.616682373046875,0.4398229718208313,0.29474249482154846,0.5056437253952026
1702055172676682200,0.63368212890625,0.4841107130050659,0.22388210892677307,0.44547349214553833
1702055172693662700,0.650662841796875,0.4999932050704956,0.22449298202991486,0.4873177409172058
1702055172710669300,0.66766943359375,0.4867068827152252,0.32910364866256714,0.6075055003166199
1702055172727665000,0.684664794921875,0.4847215712070465,0.48915034532546997,0.7232644557952881
1702055172744655600,0.701655517578125,0.5016731023788452,0.6214026808738708,0.7012733221054077
1702055172761652500,0.718652587890625,0.5053382515907288,0.7122688889503479,0.5783366560935974
1702055172778646800,0.735646728515625,0.5125159621238708,0.8411614298820496,0.45326200127601624
1702055172795642600,0.752642578125,0.5564982295036316,0.9998337030410767,0.3433062732219696
1702055172812638000,0.769637939453125,0.6478226184844971,1.0651962757110596,0.26603180170059204
1702055172829615400,0.786615478515625,0.7026477456092834,1.0561859607696533,0.2811507284641266
1702055172846626300,0.803626220703125,0.675616979598999,1.0520626306533813,0.38606682419776917
1702055172863621600,0.82062158203125,0.6644686460494995,1.098793864250183,0.46273043751716614
1702055172880616400,0.837616455078125,0.7110471725463867,1.1946996450424194,0.4127921760082245
1702055172897613000,0.854613037109375,0.7757988572120667,1.2501357793807983,0.270766019821167
1702055172914596000,0.87159619140625,0.8161159753799438,1.2208142280578613,0.12431107461452484
1702055172931601000,0.888600830078125,0.8086328506469727,1.1493430137634277,0.1365283876657486
1702055172948599000,0.90559912109375,0.7562511563301086,1.1331549882888794,0.34162637591362
1702055172965586400,0.92258642578125,0.7237225770950317,1.201724648475647,0.5795583724975586
1702055172982583600,0.93958349609375,0.7652614116668701,1.3205379247665405,0.6743952035903931
1702055172999582700,0.956582763671875,0.8074111342430115,1.447597861289978,0.6284276247024536
1702055173016578300,0.973578369140625,0.7576256394386292,1.4228578805923462,0.49693888425827026
1702055173033565000,0.99056494140625,0.6313292384147644,1.3461942672729492,0.32971450686454773
1702055173050567200,1.007567138671875,0.47907108068466187,1.3031282424926758,0.16432274878025055
1702055173067561000,1.02456103515625,0.42562034726142883,1.3151928186416626,0.025503624230623245
1702055173084544800,1.041544677734375,0.49586987495422363,1.4280502796173096,-0.016951510682702065
1702055173101549300,1.05854931640625,0.631481945514679,1.5876387357711792,0.04398229718208313
1702055173118545700,1.075545654296875,0.7205155491828918,1.7316502332687378,0.15943582355976105
1702055173135536400,1.092536376953125,0.7275404930114746,1.829999566078186,0.2535090744495392
1702055173152534300,1.1095341796875,0.7487680912017822,1.8437440395355225,0.1941024363040924
1702055173169528300,1.1265283203125,0.827111542224884,1.6172657012939453,0.06902777403593063
1702055173186514400,1.143514404296875,0.9349292516708374,1.2041680812835693,0.01191187184303999
1702055173203515600,1.160515625,1.059393048286438,0.8058840036392212,0.023365596309304237
1702055173220513000,1.177512939453125,1.1734721660614014,0.5342016816139221,0.02076941914856434
1702055173237509000,1.194509033203125,1.2770137786865234,0.42928555607795715,-0.015882495790719986
1702055173254500400,1.211500244140625,1.3246612548828125,0.4005748927593231,-0.11194105446338654
1702055173271497200,1.228497314453125,1.1717922687530518,0.24068090319633484,-0.24129177629947662
1702055173288493600,1.24549365234375,0.9283624291419983,-0.017409659922122955,-0.44196099042892456
1702055173305484500,1.262484619140625,0.8235990405082703,-0.19394971430301666,-0.7470881938934326
1702055173322482700,1.279482666015625,0.8578075170516968,-0.24984388053417206,-1.0351111888885498
1702055173339467300,1.29646728515625,0.9605855941772461,-0.1846340149641037,-1.1195632219314575
1702055173356479200,1.313479248046875,1.116508960723877,-0.15286903083324432,-0.945772111415863
1702055173373465000,1.330465087890625,1.2286027669906616,-0.3058907687664032,-0.7733554244041443
1702055173390476300,1.347476318359375,1.2258538007736206,-0.47571131587028503,-0.7907650470733643
1702055173407448300,1.3644482421875,1.165683627128601,-0.5858197808265686,-0.940121591091156
1702055173424447000,1.381447021484375,1.1323914527893066,-0.5280929803848267,-1.0621418952941895
1702055173441446400,1.3984462890625,1.1491901874542236,-0.2203696370124817,-1.0235047340393066
1702055173458445800,1.41544580078125,1.1746938228607178,0.1235474944114685,-0.877966046333313
1702055173475426300,1.43242626953125,1.1084150075912476,0.2750420868396759,-0.6837109327316284
1702055173492433200,1.44943310546875,1.0427470207214355,0.31780263781547546,-0.5013676285743713
1702055173509425400,1.46642529296875,0.9980010986328125,0.26481008529663086,-0.34315356612205505
1702055173526421500,1.48342138671875,0.9625709056854248,0.18585574626922607,-0.20601430535316467
1702055173543410700,1.50041064453125,0.9439395070075989,0.15851953625679016,-0.11392636597156525
1702055173560411000,1.517410888671875,0.9529497623443604,0.17211128771305084,-0.07925976812839508
1702055173577406000,1.534406005859375,0.998153805732727,0.18784105777740479,-0.00045814894838258624
1702055173594397000,1.55139697265625,1.0797042846679688,0.15225815773010254,0.23151792585849762
1702055173611393800,1.568393798828125,1.185231328010559,0.012980886735022068,0.5607742667198181
1702055173628390100,1.58539013671875,1.2744176387786865,-0.08903361111879349,0.660803496837616
1702055173645380900,1.602380859375,1.2185235023498535,-0.012980886735022068,0.4512766897678375
1702055173662379000,1.61937890625,1.1284208297729492,0.2298380434513092,0.24495697021484375
1702055173679371000,1.63637109375,1.1233811378479004,0.6003278493881226,0.22296582162380219
1702055173696371200,1.65337109375,1.2206615209579468,0.811687171459198,0.3208569586277008
1702055173713351000,1.670350830078125,1.2641856670379639,0.8600982427597046,0.49877145886421204
1702055173730360600,1.687360595703125,1.2399036884307861,0.8533787727355957,0.6415612101554871
1702055173747353300,1.704353271484375,1.187522053718567,0.8620835542678833,0.6771441102027893
1702055173764344800,1.7213447265625,1.1271990537643433,0.9130908250808716,0.6206390857696533
1702055173781342000,1.738342041015625,1.116508960723877,1.0351111888885498,0.5432119369506836
1702055173798338300,1.75533837890625,1.1630873680114746,1.2580770254135132,0.5334380865097046
1702055173815329300,1.772329345703125,1.215621829032898,1.5424346923828125,0.6482807397842407
1702055173832327200,1.7893271484375,1.2684617042541504,1.7478381395339966,0.8782715201377869
1702055173849321200,1.8063212890625,1.3115277290344238,1.7133243083953857,1.1276572942733765
1702055173866307800,1.823307861328125,1.3519974946975708,1.4756977558135986,1.289994716644287
1702055173883309300,1.840309326171875,1.361007809638977,1.203251838684082,1.3290899991989136
1702055173900293400,1.85729345703125,1.3548991680145264,1.1191051006317139,1.2831224203109741
1702055173917303800,1.8743037109375,1.3527610301971436,1.200197458267212,1.171334147453308
1702055173934304300,1.89130419921875,1.3300063610076904,1.361007809638977,1.0256427526474
1702055173951289900,1.908289794921875,1.2861768007278442,1.478141188621521,0.9075930118560791
1702055173968286700,1.92528662109375,1.207069754600525,1.5386168956756592,0.8622363209724426
1702055173985271300,1.942271240234375,1.1342240571975708,1.5764905214309692,0.8619308471679688
1702055174002275800,1.95927587890625,1.0906999111175537,1.632842779159546,0.860556423664093
1702055174019268600,1.9762685546875,1.0829113721847534,1.669342041015625,0.8399397134780884
1702055174036266000,1.993265869140625,1.074512004852295,1.6584991216659546,0.8063421249389648
1702055174053250600,2.01025048828125,1.0502300262451172,1.6319265365600586,0.740368664264679
1702055174070253800,2.02725390625,1.0083857774734497,1.5593862533569336,0.6348416805267334
1702055174087250200,2.044250244140625,0.9830349087715149,1.5096007585525513,0.5322163701057434
1702055174104231400,2.0612314453125,0.9943358898162842,1.536784291267395,0.46639561653137207
1702055174121240800,2.07824072265625,1.046717643737793,1.5835154056549072,0.4605923891067505
1702055174138235000,2.09523486328125,1.0809260606765747,1.5544993877410889,0.5036584138870239
1702055174155220000,2.112219970703125,1.0462594032287598,1.4479033946990967,0.5494732856750488
1702055174172221000,2.129220947265625,0.9699012637138367,1.3605495691299438,0.5360342264175415
1702055174189220400,2.146220458984375,0.9405797719955444,1.3657419681549072,0.43478333950042725
1702055174206227200,2.163227294921875,0.9369145631790161,1.4129313230514526,0.33597588539123535
1702055174223191800,2.18019189453125,0.9161451458930969,1.4387403726577759,0.29794952273368835
1702055174240203800,2.197203857421875,0.9224064946174622,1.387580394744873,0.3029891550540924
1702055174257206800,2.214206787109375,0.9627236127853394,1.3116804361343384,0.32650747895240784
1702055174274190300,2.2311904296875,0.9943358898162842,1.2573133707046509,0.36590829491615295
1702055174291186000,2.24818603515625,1.0009026527404785,1.2330315113067627,0.39904773235321045
1702055174308183000,2.26518310546875,0.997848391532898,1.2043207883834839,0.38667771220207214
1702055174325176800,2.2821767578125,0.9963212013244629,1.1728612184524536,0.3614795207977295
1702055174342150700,2.299150634765625,1.0085384845733643,1.1362093687057495,0.36789360642433167
1702055174359166200,2.316166259765625,1.0396926403045654,1.0877982378005981,0.41401392221450806
1702055174376160800,2.333160888671875,1.0881037712097168,1.0349584817886353,0.483957976102829
1702055174393146400,2.350146484375,1.08718740940094,0.9954048991203308,0.5673410892486572
1702055174410145300,2.367145263671875,1.049924612045288,1.006095051765442,0.6210972666740417
1702055174427146000,2.38414599609375,0.9999864101409912,1.0378600358963013,0.6185010671615601
1702055174444128500,2.40112841796875,0.9514226317405701,1.0680978298187256,0.5551238059997559
1702055174461136100,2.41813623046875,0.887739896774292,1.0870347023010254,0.4677700698375702
1702055174478134000,2.435134033203125,0.8326093554496765,1.0821478366851807,0.3706424832344055
1702055174495123000,2.452123046875,0.7896960377693176,1.069166898727417,0.2831360399723053
1702055174512120600,2.46912060546875,0.7373143434524536,1.056796908378601,0.22128593921661377
1702055174529114600,2.486114501953125,0.6772968173027039,1.0835222005844116,0.1719585657119751
1702055174546106600,2.503106689453125,0.6386595964431763,1.1143709421157837,0.12690725922584534
1702055174563089000,2.5200888671875,0.6195700764656067,1.197295904159546,0.10201449692249298
1702055174580098300,2.537098388671875,0.6342308521270752,1.2855658531188965,0.11820242553949356
1702055174597094700,2.5540947265625,0.6869179606437683,1.311833143234253,0.15195272862911224
1702055174614074400,2.571074462890625,0.7623597979545593,1.2841914892196655,0.2422080636024475
1702055174631082800,2.588082763671875,0.8578075170516968,1.2337950468063354,0.3721696436405182
1702055174648075300,2.6050751953125,0.9529497623443604,1.183704137802124,0.49205195903778076
1702055174665069800,2.62206982421875,0.9940304756164551,1.1679743528366089,0.5757405161857605
1702055174682068000,2.63906787109375,0.9712757468223572,1.1917980909347534,0.6113234162330627
1702055174699062000,2.65606201171875,0.9535606503486633,1.1985175609588623,0.6096435189247131
1702055174716055300,2.67305517578125,0.9482156038284302,1.1827877759933472,0.5815436840057373
1702055174733045000,2.690044921875,0.9198103547096252,1.1388055086135864,0.4986187517642975
1702055174750044700,2.707044677734375,0.8581129312515259,1.0945178270339966,0.3900374472141266
1702055174767044900,2.724044921875,0.8272642493247986,1.072068452835083,0.2561052441596985
1702055174784026600,2.741026611328125,0.8400924205780029,1.1071932315826416,0.1319468915462494
1702055174801021400,2.758021484375,0.8713992834091187,1.1847730875015259,0.05513058975338936
1702055174818027500,2.775027587890625,0.8996517658233643,1.2518155574798584,0.02977968007326126
1702055174835018200,2.792018310546875,0.9308059215545654,1.2759448289871216,0.048716504126787186
1702055174852016000,2.80901611328125,0.977689802646637,1.2583824396133423,0.10048733651638031
1702055174869008600,2.826008544921875,1.0044151544570923,1.2345587015151978,0.16539175808429718
1702055174886005000,2.8430048828125,1.0367910861968994,1.236696720123291,0.21181751787662506
1702055174902986500,2.859986572265625,1.0926852226257324,1.2837333679199219,0.22999076545238495
1702055174919992800,2.876992919921875,1.1423180103302002,1.2991576194763184,0.24877487123012543
1702055174936991500,2.893991455078125,1.1623238325119019,1.2738068103790283,0.275958389043808
1702055174953974800,2.910974853515625,1.179580807685852,1.2240211963653564,0.29168814420700073
1702055174970976800,2.927976806640625,1.1980594396591187,1.178053617477417,0.27351492643356323
1702055174987977500,2.9449775390625,1.202946424484253,1.2008084058761597,0.2509129047393799
1702055175004966700,2.961966552734375,1.21027672290802,1.279915452003479,0.2716823220252991
1702055175021964000,2.978964111328125,1.2412781715393066,1.3671164512634277,0.3243694305419922
1702055175038953700,2.99595361328125,1.2719742059707642,1.3738359212875366,0.3723223805427551
1702055175055953400,3.012953369140625,1.3014483451843262,1.3519974946975708,0.42149701714515686
1702055175072948700,3.02994873046875,1.3264938592910767,1.3341296911239624,0.4634940028190613
1702055175089941000,3.04694091796875,1.333213448524475,1.337336778640747,0.5174028873443604
1702055175106940400,3.0639404296875,1.3469579219818115,1.3843733072280884,0.5820018649101257
1702055175123930600,3.0809306640625,1.3573426008224487,1.4492777585983276,0.6021603941917419
1702055175140927200,3.09792724609375,1.3371840715408325,1.5236506462097168,0.531147301197052
1702055175157923300,3.11492333984375,1.3208433389663696,1.591456651687622,0.38957929611206055
1702055175174915300,3.131915283203125,1.330159068107605,1.5928311347961426,0.26419922709465027
1702055175191909400,3.148909423828125,1.3487904071807861,1.5112806558609009,0.21762074530124664
1702055175208908000,3.165907958984375,1.3501648902893066,1.409724235534668,0.2635883390903473
1702055175225905000,3.18290478515625,1.3406964540481567,1.4205671548843384,0.36911532282829285
1702055175242910700,3.19991064453125,1.3368785381317139,1.5192219018936157,0.475253164768219
1702055175259888400,3.216888427734375,1.3338242769241333,1.5676329135894775,0.5722280144691467
1702055175276890000,3.23389013671875,1.316261887550354,1.4691308736801147,0.6206390857696533
1702055175293881900,3.2508818359375,1.275792121887207,1.3533719778060913,0.6056728959083557
1702055175310867200,3.2678671875,1.2202032804489136,1.3087787628173828,0.5363397002220154
1702055175327865600,3.284865478515625,1.1782063245773315,1.3292428255081177,0.471129834651947
1702055175344866000,3.301865966796875,1.176831841468811,1.3900238275527954,0.451582133769989
1702055175361856300,3.318856201171875,1.187522053718567,1.3605495691299438,0.44852781295776367
1702055175378856700,3.335856689453125,1.1676689386367798,1.2518155574798584,0.4625777006149292
1702055175395843600,3.352843505859375,1.1024590730667114,1.1174252033233643,0.4482223689556122
1702055175412849700,3.369849609375,0.9943358898162842,0.9857838153839111,0.3504839241504669
1702055175429837300,3.38683740234375,0.907898485660553,0.8961393237113953,0.22617286443710327
1702055175446826800,3.40382666015625,0.8604037165641785,0.8874344825744629,0.10186178237199783
1702055175463829800,3.420829833984375,0.8323038816452026,0.9306532144546509,-0.03741549700498581
1702055175480824300,3.43782421875,0.7956519722938538,0.970054030418396,-0.16035212576389313
1702055175497819600,3.454819580078125,0.7473936080932617,1.0216721296310425,-0.20983220636844635
1702055175514814200,3.471814208984375,0.7212791442871094,1.0948232412338257,-0.1411098688840866
1702055175531807700,3.488807861328125,0.7232644557952881,1.1519391536712646,-0.01466076634824276
1702055175548803600,3.505803466796875,0.7535023093223572,1.1876747608184814,0.11591167747974396
1702055175565800200,3.52280029296875,0.7761042714118958,1.182482361793518,0.21090123057365417
1702055175582793500,3.53979345703125,0.7370089292526245,1.1268936395645142,0.25076019763946533
1702055175599785500,3.556785400390625,0.6721044778823853,1.0864238739013672,0.23182335495948792
1702055175616785700,3.57378564453125,0.6327036619186401,1.0936014652252197,0.12690725922584534
1702055175633778000,3.59077783203125,0.6073527932167053,1.1342240571975708,-0.02321287989616394
1702055175650772500,3.6077724609375,0.5878050923347473,1.1275044679641724,-0.18325957655906677
1702055175667766300,3.624766357421875,0.5871942043304443,1.087492823600769,-0.3121521472930908
1702055175684763600,3.641763671875,0.6120869517326355,1.0604621171951294,-0.34987306594848633
1702055175701754000,3.658754150390625,0.6395758986473083,1.1217013597488403,-0.26145032048225403
1702055175718748200,3.675748046875,0.6762278079986572,1.2522737979888916,-0.04108068719506264
1702055175735750400,3.69275048828125,0.7441865801811218,1.3547463417053223,0.21899518370628357
1702055175752741400,3.709741455078125,0.8275696635246277,1.333213448524475,0.4248567819595337
1702055175769726700,3.726726806640625,0.8820894360542297,1.2365440130233765,0.5455026626586914
1702055175786731300,3.743731201171875,0.8929322957992554,1.1415544748306274,0.5952881574630737
1702055175803726000,3.76072607421875,0.8768970370292664,1.0906999111175537,0.5867360830307007
1702055175820721000,3.777720947265625,0.8341364860534668,1.0494664907455444,0.5378668308258057
1702055175837715700,3.7947158203125,0.7666358947753906,1.0160216093063354,0.470060795545578
1702055175854699800,3.81169970703125,0.7061602473258972,1.0071641206741333,0.34636059403419495
1702055175871705300,3.828705322265625,0.654542088508606,1.0033462047576904,0.1586722433567047
1702055175888695600,3.845695556640625,0.5954409241676331,1.0520626306533813,-0.04688390716910362
1702055175905699000,3.862698974609375,0.5540547966957092,1.2139419317245483,-0.1722639948129654
1702055175922687200,3.879687255859375,0.5792529582977295,1.4081971645355225,-0.16554448008537292
1702055175939684400,3.896684326171875,0.6878342628479004,1.4879150390625,-0.05268712714314461
1702055175956679400,3.913679443359375,0.817337691783905,1.39017653465271,0.10461067408323288
1702055175973674200,3.93067431640625,0.9182831645011902,1.2160799503326416,0.26862800121307373
1702055175990668800,3.947668701171875,0.9856310486793518,1.0714576244354248,0.3491095006465912
1702055176007660000,3.964659912109375,1.018770456314087,1.0172433853149414,0.3387247920036316
1702055176024658700,3.98165869140625,1.0209085941314697,1.04289972782135,0.28359419107437134
1702055176041653200,3.9986533203125,1.01617431640625,1.0702359676361084,0.23457226157188416
1702055176058645500,4.0156455078125,1.0112874507904053,1.0674870014190674,0.1950187236070633
1702055176075646000,4.03264599609375,1.0122036933898926,1.048092007637024,0.19257527589797974
1702055176092637700,4.0496376953125,1.0125091075897217,1.0279334783554077,0.20845776796340942
1702055176109632500,4.066632568359375,1.0016663074493408,1.069472312927246,0.1921171247959137
1702055176126627600,4.083627685546875,0.9834930300712585,1.1719449758529663,0.12950342893600464
1702055176143624400,4.10062451171875,0.9773843884468079,1.2855658531188965,0.05375614017248154
1702055176160619500,4.11761962890625,1.0070114135742188,1.3527610301971436,0.03649919852614403
1702055176177612300,4.1346123046875,1.0580185651779175,1.3532192707061768,0.12278391420841217
1702055176194606600,4.151606689453125,1.100015640258789,1.3475687503814697,0.3066543638706207
1702055176211601700,4.1686015625,1.1233811378479004,1.3506230115890503,0.49037206172943115
1702055176228597800,4.18559765625,1.1090258359909058,1.3646728992462158,0.5963571667671204
1702055176245589800,4.20258984375,1.0680978298187256,1.4033101797103882,0.6010913848876953
1702055176262575400,4.219575439453125,1.045190453529358,1.4592043161392212,0.5112941861152649
1702055176279580700,4.23658056640625,1.0396926403045654,1.5085316896438599,0.37491855025291443
1702055176296575700,4.25357568359375,1.0894781351089478,1.5231925249099731,0.25961771607398987
1702055176313568000,4.270568115234375,1.1594222784042358,1.453248381614685,0.20128010213375092
1702055176330568000,4.28756787109375,1.168279767036438,1.284038782119751,0.2093740701675415
1702055176347560200,4.304560302734375,1.1061242818832397,1.1676689386367798,0.29794952273368835
1702055176364555000,4.321554931640625,1.0381654500961304,1.2341004610061646,0.34666603803634644
1702055176381549600,4.338549560546875,0.9995282292366028,1.4587461948394775,0.2796235680580139
1702055176398544400,4.35554443359375,0.9941831827163696,1.6998852491378784,0.14935655891895294
1702055176415539500,4.37253955078125,1.0381654500961304,1.7844901084899902,0.08750644326210022
1702055176432534000,4.389533935546875,1.0899362564086914,1.757459282875061,0.16890424489974976
1702055176449528800,4.40652880859375,1.1160508394241333,1.6557502746582031,0.34987306594848633
1702055176466524000,4.42352392578125,1.1230757236480713,1.5244141817092896,0.5149593949317932
1702055176483518500,4.4405185546875,1.1438452005386353,1.409724235534668,0.5619960427284241
1702055176500513300,4.45751318359375,1.1362093687057495,1.3243558406829834,0.4928155243396759
1702055176517513700,4.474513671875,1.0911580324172974,1.288467526435852,0.38240164518356323
1702055176534503200,4.491503173828125,1.0392345190048218,1.333213448524475,0.2793181240558624
1702055176551500500,4.50850048828125,0.9970847964286804,1.47844660282135,0.19043724238872528
1702055176568492500,4.525492431640625,0.9773843884468079,1.5819882154464722,0.09300423413515091
1702055176585487400,4.5424873046875,0.9674578309059143,1.5431983470916748,0.04581489413976669
1702055176602482200,4.559482177734375,0.9560040831565857,1.406822681427002,0.07437284290790558
1702055176619477000,4.57647705078125,0.9416487812995911,1.2510520219802856,0.12049316614866257
1702055176636472000,4.59347216796875,0.9036223888397217,1.127810001373291,0.12293662875890732
1702055176653466600,4.610466552734375,0.8281805515289307,1.047023057937622,0.09498954564332962
1702055176670461400,4.62746142578125,0.7712173461914062,1.0633636713027954,0.08659014850854874
1702055176687450400,4.644450439453125,0.7473936080932617,1.1175779104232788,0.0933096632361412
1702055176704451000,4.661451171875,0.7472409009933472,1.126282811164856,0.0754418596625328
1702055176721446000,4.67844580078125,0.7215845584869385,1.0926852226257324,0.06322455406188965
1702055176738440700,4.695440673828125,0.6719517707824707,1.041372537612915,0.09193521738052368
1702055176755435500,4.712435546875,0.6382014751434326,1.0085384845733643,0.13637566566467285
1702055176772430300,4.729430419921875,0.6363688707351685,1.025948166847229,0.13377949595451355
1702055176789425200,4.746425048828125,0.6363688707351685,1.058171272277832,0.1160643994808197
1702055176806420200,4.763420166015625,0.640644907951355,1.0939068794250488,0.11071932315826416
1702055176823404300,4.780404296875,0.6305656433105469,1.0754282474517822,0.11835514008998871
1702055176840409600,4.79740966796875,0.6067419052124023,1.0251846313476562,0.15424346923828125
1702055176857404700,4.81440478515625,0.5742133259773254,0.9830349087715149,0.17592918872833252
1702055176874399200,4.831399169921875,0.5606215596199036,0.9763153791427612,0.15653422474861145
1702055176891394000,4.84839404296875,0.5477933883666992,0.9818131923675537,0.08750644326210022
1702055176908388900,4.865388916015625,0.5245805382728577,0.9668469429016113,0.024892758578062057
1702055176925356300,4.882356201171875,0.5111414790153503,0.9063712954521179,0.012828170321881771
1702055176942381000,4.899381103515625,0.48976120352745056,0.8275696635246277,-0.017867809161543846
1702055176959373300,4.916373291015625,0.45952337980270386,0.8084801435470581,-0.09957103431224823
1702055176976368400,4.933368408203125,0.4625777006149292,0.9146180152893066,-0.18448130786418915
1702055176993363000,4.950363037109375,0.5093088746070862,1.098183035850525,-0.21059578657150269
1702055177010357800,4.967357666015625,0.5902485251426697,1.1662944555282593,-0.13179416954517365
1702055177027352600,4.9843525390625,0.6670648455619812,1.0395399332046509,0.03985895588994026
1702055177044347400,5.001347412109375,0.6882924437522888,0.8266534209251404,0.22540926933288574
1702055177061342200,5.01834228515625,0.6754642724990845,0.7237225770950317,0.3029891550540924
1702055177078337000,5.0353369140625,0.6588181853294373,0.7513642311096191,0.22357667982578278
1702055177095332000,5.05233203125,0.6418666839599609,0.8613200187683105,0.08307767659425735
1702055177112326700,5.06932666015625,0.6081163287162781,0.9610437750816345,-0.014966198243200779
1702055177129319000,5.08631884765625,0.542142927646637,1.0219775438308716,-0.01970040425658226
1702055177146318800,5.10331884765625,0.4980078935623169,1.0494664907455444,0.02580905705690384
1702055177163311000,5.12031103515625,0.504574716091156,1.037249207496643,0.036651913076639175
1702055177180305700,5.1373056640625,0.5377141237258911,0.9769262671470642,0.003054326167330146
1702055177197300700,5.15430078125,0.5568036437034607,0.9373727440834045,-0.03375030308961868
1702055177214305000,5.171304931640625,0.5734497308731079,1.0190759897232056,-0.06643159687519073
1702055177231290400,5.188290283203125,0.6001750826835632,1.2334896326065063,-0.09300423413515091
1702055177248285000,5.205284912109375,0.6589708924293518,1.407128095626831,-0.09376781433820724
1702055177265280000,5.222280029296875,0.7334964275360107,1.4326317310333252,-0.03130684420466423
1702055177282274800,5.23927490234375,0.8115344643592834,1.3524556159973145,0.09040805697441101
1702055177299269400,5.256269287109375,0.8906415104866028,1.2724323272705078,0.22739458084106445
1702055177316262100,5.27326220703125,0.9567676782608032,1.2362385988235474,0.31810808181762695
1702055177333274400,5.2902744140625,0.9891435503959656,1.223868489265442,0.3127630054950714
1702055177350254000,5.307254150390625,0.9992228150367737,1.2348641157150269,0.24129177629947662
1702055177367245600,5.32424560546875,1.0065531730651855,1.232573390007019,0.15531249344348907
1702055177384233200,5.341233154296875,1.0097602605819702,1.189354658126831,0.07941248267889023
1702055177401238500,5.358238525390625,1.0036516189575195,1.1548407077789307,0.01817324012517929
1702055177418233000,5.375233154296875,0.9960157871246338,1.1847730875015259,-0.03130684420466423
1702055177435228000,5.392227783203125,0.9877691268920898,1.2796099185943604,-0.04749477282166481
1702055177452222700,5.40922265625,0.9940304756164551,1.3590224981307983,-0.036041051149368286
1702055177469217800,5.4262177734375,1.0250319242477417,1.387274980545044,-0.012522737495601177
1702055177486212400,5.44321240234375,1.0630582571029663,1.4184291362762451,0.055894169956445694
1702055177503207400,5.46020751953125,1.096961259841919,1.4419474601745605,0.19028452038764954
1702055177520202000,5.477201904296875,1.1275044679641724,1.4427109956741333,0.35735616087913513
1702055177537197000,5.494197021484375,1.133460521697998,1.4479033946990967,0.45326200127601624
1702055177554191600,5.511191650390625,1.1281154155731201,1.4952454566955566,0.45036038756370544
1702055177571186400,5.5281865234375,1.1337659358978271,1.514487624168396,0.4150829315185547
1702055177588181200,5.54518115234375,1.158811330795288,1.4718798398971558,0.4031710624694824
1702055177605176000,5.562176025390625,1.182176947593689,1.3547463417053223,0.4245513379573822
1702055177622171000,5.5791708984375,1.169806957244873,1.1989758014678955,0.3969096839427948
1702055177639165700,5.596165771484375,1.1087204217910767,1.1478158235549927,0.27641651034355164
1702055177656160800,5.613160888671875,1.0085384845733643,1.2880094051361084,0.058184914290905
1702055177673155300,5.6301552734375,0.899040937423706,1.539685845375061,-0.21853704750537872
1702055177690150100,5.647150146484375,0.9185886383056641,1.7861700057983398,-0.40164390206336975
1702055177707148300,5.664148193359375,1.0810787677764893,1.871996521949768,-0.33169981837272644
1702055177724136400,5.681136474609375,1.1953105926513672,1.6757560968399048,-0.05345070734620094
1702055177741132000,5.698132080078125,1.2424999475479126,1.3461942672729492,0.27320948243141174
1702055177758131700,5.715131591796875,1.250593900680542,1.0584768056869507,0.5186246037483215
1702055177775110700,5.732110595703125,1.2414308786392212,0.90728759765625,0.6261368989944458
1702055177792119000,5.749119140625,1.2030991315841675,0.926835298538208,0.5531384944915771
1702055177809114000,5.766114013671875,1.15178644657135,1.053742527961731,0.35124751925468445
1702055177826108700,5.783108642578125,1.1284208297729492,1.2278391122817993,0.14492778480052948
1702055177843103500,5.800103515625,1.1192578077316284,1.3964380025863647,0.014202617108821869
1702055177860083500,5.81708349609375,1.0862711668014526,1.4048373699188232,0.023518312722444534
1702055177877093000,5.834093017578125,1.059698462486267,1.2834278345108032,0.12400564551353455
1702055177894087700,5.851087646484375,1.0482447147369385,1.1270463466644287,0.20082195103168488
1702055177911083500,5.86808349609375,1.0251846313476562,1.05404794216156,0.19654589891433716
1702055177928077300,5.885077392578125,0.9915869832038879,1.0955867767333984,0.1342376321554184
1702055177945072400,5.902072265625,0.9611964821815491,1.1830933094024658,0.08720101416110992
1702055177962067000,5.91906689453125,0.9182831645011902,1.2246321439743042,0.10751228034496307
1702055177979072300,5.936072265625,0.8558222055435181,1.1895073652267456,0.18127426505088806
1702055177996056600,5.953056640625,0.7922922372817993,1.1342240571975708,0.2571742534637451
1702055178013050400,5.97005029296875,0.7350236177444458,1.1285735368728638,0.2886338233947754
1702055178030047700,5.9870478515625,0.6867652535438538,1.1326968669891357,0.24892759323120117
1702055178047041300,6.004041259765625,0.6388123035430908,1.1537717580795288,0.17180584371089935
1702055178064036000,6.0210361328125,0.5713117122650146,1.2090550661087036,0.11026117950677872
1702055178081031000,6.038031005859375,0.5297728776931763,1.270447015762329,0.06673702597618103
1702055178098026500,6.055026611328125,0.5510004758834839,1.3458888530731201,0.07299839705228806
1702055178115019800,6.072019775390625,0.6068946123123169,1.3953689336776733,0.12232576310634613
1702055178132015000,6.08901513671875,0.6615670323371887,1.3837624788284302,0.1739438772201538
1702055178149007400,6.10600732421875,0.6783658266067505,1.286634922027588,0.20723603665828705
1702055178166004500,6.12300439453125,0.669355571269989,1.1945469379425049,0.1950187236070633
1702055178182999800,6.139999755859375,0.6780604124069214,1.1444560289382935,0.15745051205158234
1702055178199984000,6.156984130859375,0.7098253965377808,1.1134545803070068,0.08659014850854874
1702055178216970500,6.173970458984375,0.7296785116195679,1.083064079284668,-0.02275473065674305
1702055178233984000,6.19098388671875,0.6910412907600403,1.0700831413269043,-0.11560624837875366
1702055178250978800,6.207978759765625,0.6429356932640076,1.1508700847625732,-0.15103642642498016
1702055178267973600,6.2249736328125,0.6461427211761475,1.3139711618423462,-0.10903944820165634
1702055178284968400,6.241968505859375,0.6826419234275818,1.4692835807800293,-0.00809396430850029
1702055178301963300,6.25896337890625,0.740368664264679,1.480737328529358,0.08048149943351746
1702055178318958000,6.2759580078125,0.7958046793937683,1.3629931211471558,0.14324790239334106
1702055178335953000,6.292952880859375,0.8381071090698242,1.2214250564575195,0.24327708780765533
1702055178352947700,6.30994775390625,0.8193230032920837,1.104138970375061,0.3828597962856293
1702055178369942500,6.326942626953125,0.7638869881629944,1.069472312927246,0.484416127204895
1702055178386937300,6.343937255859375,0.7214318513870239,1.0713049173355103,0.44776421785354614
1702055178403932000,6.360931884765625,0.7134906053543091,1.096961259841919,0.3640756905078888
1702055178420927200,6.37792724609375,0.7049384713172913,1.1658363342285156,0.3220787048339844
1702055178437914400,6.394914306640625,0.6829473376274109,1.2101240158081055,0.30604347586631775
1702055178454916600,6.41191650390625,0.6727153658866882,1.246165156364441,0.2822197377681732
1702055178471911400,6.428911376953125,0.6623306274414062,1.244943380355835,0.2382374405860901
1702055178488903700,6.445903564453125,0.6359107494354248,1.214400053024292,0.17058411240577698
1702055178505903400,6.4629033203125,0.6007859706878662,1.1737775802612305,0.08720101416110992
1702055178522888400,6.479888427734375,0.575893223285675,1.2397509813308716,0.014355333521962166
1702055178539890400,6.496890380859375,0.593913733959198,1.3529138565063477,-0.005955935921519995
1702055178556875000,6.513875,0.6375905871391296,1.3941471576690674,0.058948494493961334
1702055178573879300,6.53087939453125,0.6826419234275818,1.3254249095916748,0.1788308024406433
1702055178590876000,6.5478759765625,0.7212791442871094,1.2360857725143433,0.26771169900894165
1702055178607870000,6.564869873046875,0.7376197576522827,1.1937834024429321,0.28328874707221985
1702055178624864800,6.58186474609375,0.7394523620605469,1.198823094367981,0.24113905429840088
1702055178641857300,6.598857177734375,0.7481572031974792,1.2541064023971558,0.17928895354270935
1702055178658856700,6.615856689453125,0.7718282341957092,1.3104586601257324,0.12278391420841217
1702055178675849200,6.63284912109375,0.7896960377693176,1.3300063610076904,0.07360926270484924
1702055178692843800,6.64984375,0.7929030656814575,1.320385217666626,0.04703662544488907
1702055178709836300,6.666836181640625,0.8069530129432678,1.3045027256011963,0.030085112899541855
1702055178726836200,6.683836181640625,0.8297077417373657,1.2965614795684814,0.017562376335263252
1702055178743828500,6.700828369140625,0.8321511745452881,1.3014483451843262,0.00855211354792118
1702055178760823300,6.7178232421875,0.8231409192085266,1.3442089557647705,-0.006872233934700489
1702055178777817900,6.73481787109375,0.8289441466331482,1.401477575302124,-0.020922135561704636
1702055178794812700,6.751812744140625,0.8399397134780884,1.4504995346069336,-0.009162978269159794
1702055178811807700,6.768807861328125,0.8510879874229431,1.4701999425888062,0.05009094998240471
1702055178828802300,6.78580224609375,0.879493236541748,1.4592043161392212,0.1411098688840866
1702055178845797400,6.80279736328125,0.9294314980506897,1.4269812107086182,0.22327125072479248
1702055178862792000,6.8197919921875,0.9747881889343262,1.4387403726577759,0.2837468981742859
1702055178879785200,6.83678515625,0.9935722947120667,1.4726433753967285,0.31093040108680725
1702055178896783400,6.853783447265625,1.024420976638794,1.479362964630127,0.294437050819397
1702055178913776400,6.8707763671875,1.0534371137619019,1.4726433753967285,0.2716823220252991
1702055178930771200,6.887771240234375,1.0618364810943604,1.4599679708480835,0.26404649019241333
1702055178947755500,6.904755615234375,1.0615310668945312,1.4424055814743042,0.24816401302814484
1702055178964760800,6.9217607421875,1.083369493484497,1.4466816186904907,0.23060162365436554
1702055178981755600,6.938755615234375,1.1213958263397217,1.4902057647705078,0.2102903574705124
1702055178998737000,6.95573681640625,1.1522445678710938,1.5354098081588745,0.20143280923366547
1702055179015744000,6.972743896484375,1.1603385210037231,1.521665334701538,0.22418753802776337
1702055179032741600,6.98974169921875,1.149953842163086,1.4663820266723633,0.27519479393959045
1702055179049735000,7.00673486328125,1.149953842163086,1.425454020500183,0.32818734645843506
1702055179066729700,7.023729736328125,1.1403326988220215,1.3622294664382935,0.3465133011341095
1702055179083727400,7.040727294921875,1.1192578077316284,1.288467526435852,0.304210901260376
1702055179100716800,7.057716796875,1.1009318828582764,1.226617455482483,0.19517144560813904
1702055179117716700,7.074716796875,1.0780243873596191,1.1971431970596313,0.09636399149894714
1702055179134698200,7.0916982421875,1.0325149297714233,1.173624873161316,0.05772676691412926
1702055179151703800,7.108703857421875,0.9772316813468933,1.1435397863388062,0.07849618047475815
1702055179168698400,7.125698486328125,0.9459248185157776,1.11085844039917,0.12232576310634613
1702055179185693400,7.142693359375,0.9156870245933533,1.0488556623458862,0.1540907621383667
1702055179202688000,7.15968798828125,0.8439103364944458,0.9834930300712585,0.14156801998615265
1702055179219683000,7.17668310546875,0.7295258045196533,1.0102183818817139,0.07177666574716568
1702055179236677600,7.193677734375,0.6107125282287598,1.149953842163086,-0.014049900695681572
1702055179253662500,7.210662353515625,0.5204572081565857,1.282511591911316,-0.05360342562198639
1702055179270667500,7.22766748046875,0.4766276180744171,1.3251193761825562,-0.02519819140434265
1702055179287662000,7.244662109375,0.4434881806373596,1.2510520219802856,0.0377209298312664
1702055179304654300,7.261654296875,0.403781920671463,1.1311696767807007,0.07009678333997726
1702055179321644800,7.278644775390625,0.375071257352829,1.0914634466171265,0.07696902006864548
1702055179338636000,7.295635986328125,0.38667771220207214,1.1394164562225342,0.06673702597618103
1702055179355641300,7.312641357421875,0.403323769569397,1.1933252811431885,0.05146539583802223
1702055179372636200,7.32963623046875,0.4057672321796417,1.207680583000183,0.04734205827116966
1702055179389631000,7.346630859375,0.41981714963912964,1.1954632997512817,0.05100724846124649
1702055179406626000,7.3636259765625,0.4309654235839844,1.1901181936264038,0.03741549700498581
1702055179423620600,7.38062060546875,0.41813725233078003,1.1946996450424194,-0.02015855349600315
1702055179440615400,7.397615478515625,0.3917173445224762,1.2246321439743042,-0.12507465481758118
1702055179457610200,7.4146103515625,0.3634648323059082,1.3006848096847534,-0.22739458084106445
1702055179474594800,7.4315947265625,0.36529740691185,1.4378241300582886,-0.23747386038303375
1702055179491600000,7.448599853515625,0.43478333950042725,1.5586227178573608,-0.14492778480052948
1702055179508610600,7.465610595703125,0.5372560024261475,1.571908950805664,-0.012064588256180286
1702055179525587700,7.482587646484375,0.6198754906654358,1.4685200452804565,0.11468994617462158
1702055179542584300,7.499584228515625,0.6635523438453674,1.3057245016098022,0.18600846827030182
1702055179559579100,7.5165791015625,0.6754642724990845,1.23394775390625,0.18967366218566895
1702055179576574000,7.533573974609375,0.6777549982070923,1.2889256477355957,0.14004085958003998
1702055179593568800,7.55056884765625,0.6748533844947815,1.3770430088043213,0.08674286305904388
1702055179610563600,7.5675634765625,0.6829473376274109,1.4335479736328125,0.01817324012517929
1702055179627558400,7.584558349609375,0.7012733221054077,1.3976596593856812,-0.08949175477027893
1702055179644553200,7.60155322265625,0.7261660695075989,1.3242031335830688,-0.21303924918174744
1702055179661548000,7.618548095703125,0.7441865801811218,1.3344351053237915,-0.2984076738357544
1702055179678542800,7.63554296875,0.7632761001586914,1.4369077682495117,-0.3439171314239502
1702055179695537400,7.652537353515625,0.8086328506469727,1.5761851072311401,-0.3448334336280823
1702055179712532200,7.6695322265625,0.916450560092926,1.7232508659362793,-0.25213462114334106
1702055179729536000,7.686535888671875,1.0416779518127441,1.7750216722488403,-0.09193521738052368
1702055179746525000,7.70352490234375,1.140179991722107,1.705993890762329,0.09529497474431992
1702055179763506200,7.720506103515625,1.1855367422103882,1.601230502128601,0.26221391558647156
1702055179780511500,7.737511474609375,1.2015719413757324,1.5105170011520386,0.342237263917923
1702055179797506600,7.754506591796875,1.208902359008789,1.4468343257904053,0.3568980097770691
1702055179814501000,7.771501220703125,1.1814134120941162,1.4033101797103882,0.34865134954452515
1702055179831496000,7.788495849609375,1.1169670820236206,1.3845261335372925,0.3168863356113434
1702055179848490800,7.80549072265625,1.0422887802124023,1.3947581052780151,0.23655757308006287
1702055179865486000,7.822486083984375,0.9818131923675537,1.425454020500183,0.11682797968387604
1702055179882480400,7.83948046875,0.93095862865448,1.4805846214294434,0.01466076634824276
1702055179899475200,7.85647509765625,0.9126327037811279,1.588249683380127,-0.026572637259960175
1702055179916470000,7.873469970703125,0.9288206100463867,1.6574301719665527,-0.0064140851609408855
1702055179933464800,7.89046484375,0.9572258591651917,1.6392568349838257,0.07254024595022202
1702055179950458600,7.907458740234375,0.9831876158714294,1.5890132188796997,0.17730364203453064
1702055179967455200,7.924455322265625,1.0028879642486572,1.5519031286239624,0.24862214922904968
1702055179984449300,7.94144921875,1.0128145217895508,1.5534303188323975,0.2509129047393799
1702055180001443800,7.95844384765625,1.0089967250823975,1.5940529108047485,0.19547687470912933
1702055180018439000,7.97543896484375,1.018923282623291,1.595274567604065,0.11530081182718277
1702055180035433700,7.992433837890625,1.043968677520752,1.4440854787826538,0.11255192011594772
1702055180052428300,8.00942822265625,1.064738154411316,1.3032809495925903,0.2532036304473877
1702055180069423000,8.026423095703125,1.0839803218841553,1.3277156352996826,0.4271475374698639
1702055180086418200,8.043418212890625,1.1203268766403198,1.5060882568359375,0.5151121020317078
1702055180103412700,8.060412841796875,1.1444560289382935,1.6919440031051636,0.49205195903778076
1702055180120409300,8.077409423828126,1.154382586479187,1.7522670030593872,0.447000652551651
1702055180137402400,8.09440234375,1.1719449758529663,1.617876648902893,0.44257187843322754
1702055180154387000,8.111386962890625,1.1804970502853394,1.334587812423706,0.4466952085494995
1702055180171392000,8.12839208984375,1.1268936395645142,1.0658071041107178,0.42439863085746765
1702055180188386600,8.145386474609374,1.0438159704208374,0.9949467778205872,0.3260493278503418
1702055180205382100,8.162382080078125,0.9815077185630798,1.1003210544586182,0.15042556822299957
1702055180222376200,8.179376220703125,0.9222537875175476,1.2476922273635864,-0.02535090781748295
1702055180239371300,8.196371337890625,0.8536841869354248,1.3437508344650269,-0.14905111491680145
1702055180256366000,8.213365966796875,0.7823656797409058,1.3581061363220215,-0.21090123057365417
1702055180273361000,8.23036083984375,0.7250970602035522,1.3321443796157837,-0.1621847152709961
1702055180290355700,8.247355712890625,0.6948592066764832,1.3100005388259888,-0.007941247895359993
1702055180307350500,8.2643505859375,0.6869179606437683,1.2855658531188965,0.17302757501602173
1702055180324345300,8.281345458984376,0.6641632318496704,1.2360857725143433,0.3061962127685547
1702055180341340200,8.298340087890624,0.6294966340065002,1.1959214210510254,0.3197879493236542
1702055180358339000,8.315339111328125,0.5887213945388794,1.1910345554351807,0.2525927722454071
1702055180375329800,8.332329833984375,0.5584835410118103,1.1867583990097046,0.18829920887947083
1702055180392324600,8.34932470703125,0.5285511612892151,1.17545747756958,0.13545936346054077
1702055180409319400,8.3663193359375,0.4928155243396759,1.1624765396118164,0.09025534242391586
1702055180426314000,8.38331396484375,0.4488332271575928,1.1467467546463013,0.03344487398862839
1702055180443309800,8.400309814453125,0.4335615932941437,1.1508700847625732,-0.005955935921519995
1702055180460302800,8.417302734375,0.4550946056842804,1.155909776687622,-0.01572977937757969
1702055180477286700,8.43428662109375,0.4960225820541382,1.1943942308425903,0.005803219974040985
1702055180494293200,8.451293212890626,0.5241223573684692,1.252121090888977,0.03695734590291977
1702055180511288000,8.4682880859375,0.5238169431686401,1.3093897104263306,0.06475171446800232
1702055180528280300,8.4852802734375,0.5251913666725159,1.3144292831420898,0.0832303911447525
1702055180545280300,8.5022802734375,0.5203045010566711,1.2705997228622437,0.11835514008998871
1702055180562272500,8.5192724609375,0.5259549617767334,1.2063060998916626,0.168751522898674
1702055180579267300,8.536267333984375,0.5502368807792664,1.1545352935791016,0.1690569519996643
1702055180596262400,8.553262451171875,0.5593998432159424,1.1537717580795288,0.09468411654233932
1702055180613257000,8.570257080078125,0.5306891798973083,1.1901181936264038,-0.02825251780450344
1702055180630251800,8.587251708984375,0.4986187517642975,1.2718214988708496,-0.1212567538022995
1702055180647246300,8.604246337890626,0.4963280260562897,1.3776538372039795,-0.11514809727668762
1702055180664241400,8.621241455078126,0.5236642360687256,1.4662293195724487,-0.03298672288656235
1702055180681236200,8.638236328125,0.5627595782279968,1.4963144063949585,0.03481931984424591
1702055180698230800,8.655230712890624,0.5923865437507629,1.446223497390747,0.03985895588994026
1702055180715225600,8.6722255859375,0.5723807215690613,1.4033101797103882,-0.020311269909143448
1702055180732220400,8.689220458984375,0.5345070958137512,1.3950635194778442,-0.14126259088516235
1702055180749214200,8.706214111328125,0.5067127346992493,1.342529058456421,-0.20311269164085388
1702055180766211000,8.723211181640625,0.5248859524726868,1.2470813989639282,-0.13439035415649414
1702055180783204900,8.740204833984375,0.5638286471366882,1.125366449356079,0.016798794269561768
1702055180800199700,8.75719970703125,0.5928447246551514,1.0700831413269043,0.1598939746618271
1702055180817194500,8.774194580078126,0.5972734689712524,1.0616837739944458,0.18539759516716003
1702055180834189300,8.791189208984376,0.5942191481590271,1.1053606271743774,0.11255192011594772
1702055180851184000,8.80818408203125,0.5781839489936829,1.2560917139053345,0.021838432177901268
1702055180868179000,8.825178955078124,0.5742133259773254,1.4504995346069336,-0.019547687843441963
1702055180885174000,8.842174072265625,0.6065891981124878,1.5766432285308838,-0.007635815534740686
1702055180902168600,8.85916845703125,0.664315938949585,1.492038369178772,0.04993823543190956
1702055180919163400,8.876163330078125,0.7153232097625732,1.2568552494049072,0.16019940376281738
1702055180936158200,8.893158203125,0.7602217793464661,1.0073168277740479,0.31444287300109863
1702055180953153000,8.910153076171875,0.7779368758201599,0.9373727440834045,0.4908302128314972
1702055180970147800,8.92714794921875,0.7761042714118958,1.0882564783096313,0.5302310585975647
1702055180987142400,8.944142333984376,0.7872526049613953,1.3164145946502686,0.3836233615875244
1702055181004137200,8.96113720703125,0.8051204085350037,1.4854716062545776,0.17058411240577698
1702055181021130800,8.978130859375,0.8150469660758972,1.531439185142517,-0.003512475173920393
1702055181038128600,8.995128662109375,0.8309294581413269,1.47371244430542,-0.10797043144702911
1702055181055121700,9.01212158203125,0.8704829812049866,1.4107933044433594,-0.14737124741077423
1702055181072116500,9.029116455078125,0.9132435321807861,1.4086552858352661,-0.152105450630188
1702055181089111300,9.046111328125,0.9586002826690674,1.4682146310806274,-0.13668109476566315
1702055181106106000,9.063106201171875,1.00502610206604,1.548237919807434,-0.09346238523721695
1702055181123101000,9.080100830078125,1.0551170110702515,1.5888605117797852,0.0024434609804302454
1702055181140085200,9.097085205078125,1.125366449356079,1.5824464559555054,0.10567969083786011
1702055181157090600,9.114090576171876,1.1759155988693237,1.5273158550262451,0.19883663952350616
1702055181174085400,9.13108544921875,1.1817188262939453,1.4865405559539795,0.24617868661880493
1702055181191080200,9.148080078125,1.1476631164550781,1.4970779418945312,0.22281309962272644
1702055181208072200,9.165072265625,1.0974193811416626,1.5192219018936157,0.1472185254096985
1702055181225060400,9.182060302734374,1.0497719049453735,1.5703818798065186,0.10384709388017654
1702055181242065700,9.199065673828125,1.0183123350143433,1.6531540155410767,0.16523905098438263
1702055181259057000,9.216056884765624,1.0207557678222656,1.6661349534988403,0.2906191349029541
1702055181276056600,9.233056640625,1.052215337753296,1.5445728302001953,0.4306600093841553
1702055181293048800,9.250048828125,1.0607675313949585,1.334587812423706,0.5436700582504272
1702055181310044000,9.2670439453125,1.0254900455474854,1.1242974996566772,0.5371032953262329
1702055181327038500,9.28403857421875,0.9581421613693237,1.0267117023468018,0.3744603991508484
1702055181344033300,9.301033203125,0.8643743395805359,1.0873401165008545,0.13607023656368256
1702055181361028000,9.318028076171874,0.7848091125488281,1.2365440130233765,-0.04352414980530739
1702055181378023000,9.33502294921875,0.7444919943809509,1.3194689750671387,-0.08185594528913498
1702055181395017700,9.352017822265625,0.7142542004585266,1.296408772468567,-0.005650503560900688
1702055181412012500,9.369012451171875,0.6592763066291809,1.2153164148330688,0.0981965884566307
1702055181429007400,9.38600732421875,0.5955936312675476,1.1328495740890503,0.16004669666290283
1702055181446002200,9.403002197265625,0.5283984541893005,1.1485793590545654,0.17256943881511688
1702055181462996700,9.419996826171875,0.46471574902534485,1.2626584768295288,0.15271630883216858
1702055181479987700,9.43698779296875,0.42088615894317627,1.3475687503814697,0.14126259088516235
1702055181496990500,9.453990478515625,0.4103487432003021,1.3283264636993408,0.1693623960018158
1702055181513975600,9.4709755859375,0.4124867618083954,1.1957687139511108,0.22632557153701782
1702055181530976000,9.48797607421875,0.40973785519599915,1.0122036933898926,0.2831360399723053
1702055181547970800,9.504970703125,0.3764457106590271,0.965319812297821,0.29138273000717163
1702055181564966000,9.5219658203125,0.3488040566444397,1.0183123350143433,0.22311852872371674
1702055181581960400,9.53896044921875,0.33628132939338684,1.0503827333450317,0.11728613078594208
1702055181598955300,9.555955322265625,0.33429601788520813,1.0421360731124878,0.04260785132646561
1702055181615936000,9.57293603515625,0.3171917796134949,0.9851729273796082,0.008857546374201775
1702055181632946000,9.58994580078125,0.3016147017478943,0.9465357065200806,0.0065668015740811825
1702055181649942300,9.6069423828125,0.28909197449684143,0.9815077185630798,0.003817907767370343
1702055181666934500,9.6239345703125,0.2515237629413605,1.0604621171951294,-0.078343465924263
1702055181683916300,9.640916259765625,0.21090123057365417,1.081536889076233,-0.24037547409534454
1702055181700928000,9.657927978515625,0.19486601650714874,1.0325149297714233,-0.4031710624694824
1702055181717917700,9.674917724609376,0.2054034322500229,0.993725061416626,-0.4619668424129486
1702055181734913500,9.69191357421875,0.23487769067287445,1.0201449394226074,-0.38011088967323303
1702055181751908400,9.708908447265625,0.2854267954826355,1.1195632219314575,-0.16203200817108154
1702055181768903400,9.7259033203125,0.3397938013076782,1.2379183769226074,0.1342376321554184
1702055181785900000,9.742900146484375,0.39614611864089966,1.3135130405426025,0.36850446462631226
1702055181802891300,9.759891357421875,0.44852781295776367,1.3145819902420044,0.4300491213798523
1702055181819887900,9.776887939453125,0.5076290369033813,1.1609493494033813,0.3171917796134949
1702055181836882400,9.79388232421875,0.528245747089386,0.9208793640136719,0.08200865983963013
1702055181853877200,9.810877197265626,0.5079344511032104,0.837496280670166,-0.1716531366109848
1702055181870871600,9.82787158203125,0.4992296099662781,1.0118982791900635,-0.35903605818748474
1702055181887866600,9.84486669921875,0.5477933883666992,1.2063060998916626,-0.4908302128314972
1702055181904862500,9.861862548828125,0.5991060733795166,1.1872166395187378,-0.5390886068344116
1702055181921856500,9.8788564453125,0.6340781450271606,1.0877982378005981,-0.4737260043621063
1702055181938851300,9.895851318359375,0.6973026990890503,1.0751228332519531,-0.30115658044815063
1702055181955846100,9.91284619140625,0.7883216142654419,1.183398723602295,-0.10751228034496307
1702055181972841000,9.929841064453125,0.8724682927131653,1.3321443796157837,0.07009678333997726
1702055181989835500,9.94683544921875,0.9216429591178894,1.4162911176681519,0.18219055235385895
1702055182006830600,9.96383056640625,0.9204211831092834,1.4492777585983276,0.2047925740480423
1702055182023825200,9.9808251953125,0.8807149529457092,1.4633276462554932,0.1137736514210701
1702055182040820000,9.997820068359376,0.878576934337616,1.4265230894088745,-0.041691552847623825
1702055182057814800,10.014814697265624,0.9059131741523743,1.3116804361343384,-0.12980885803699493
1702055182074809600,10.0318095703125,0.9292787313461304,1.2008084058761597,-0.0861319974064827
1702055182091804400,10.048804443359375,0.930347740650177,1.1435397863388062,-0.001679879380390048
1702055182108788700,10.065788818359374,0.907898485660553,1.1908818483352661,-0.010995574295520782
1702055182125791200,10.082791259765624,0.892779529094696,1.30801522731781,-0.13057245314121246
1702055182142791400,10.09979150390625,0.8859072923660278,1.4330898523330688,-0.22372940182685852
1702055182159783700,10.11678369140625,0.8881980776786804,1.5163202285766602,-0.21090123057365417
1702055182176780800,10.13378076171875,0.9068294763565063,1.5442672967910767,-0.10033461451530457
1702055182193773300,10.150773193359376,0.9514226317405701,1.5480852127075195,0.04596760869026184
1702055182210768100,10.16776806640625,0.9900598526000977,1.5315918922424316,0.1768454909324646
1702055182227762700,10.1847626953125,1.0068585872650146,1.5154039859771729,0.2790127098560333
1702055182244757500,10.201757568359374,1.0186177492141724,1.5170838832855225,0.3338378667831421
1702055182261741800,10.218741943359374,1.0096075534820557,1.5108224153518677,0.31352660059928894
1702055182278747100,10.2357470703125,1.00197172164917,1.5170838832855225,0.25014930963516235
1702055182295742000,10.252741943359375,1.0201449394226074,1.5328136682510376,0.18127426505088806
1702055182312736800,10.26973681640625,1.0348057746887207,1.4879150390625,0.10965031385421753
1702055182329729000,10.28672900390625,1.0367910861968994,1.4159855842590332,0.060475658625364304
1702055182346729000,10.30372900390625,1.0349584817886353,1.3820825815200806,0.09117163717746735
1702055182363710700,10.320710693359375,1.0462594032287598,1.4378241300582886,0.18646661937236786
1702055182380716000,10.337716064453126,1.0589349269866943,1.5493069887161255,0.3196352422237396
1702055182397708000,10.3547080078125,1.0888673067092896,1.6281086206436157,0.4628831446170807
1702055182414708200,10.371708251953125,1.1197160482406616,1.5732834339141846,0.5867360830307007
1702055182431700500,10.388700439453125,1.122464895248413,1.4271339178085327,0.6475171446800232
1702055182448695000,10.405695068359375,1.0868819952011108,1.2809844017028809,0.6244570016860962
1702055182465689900,10.42268994140625,1.0392345190048218,1.1946996450424194,0.48258355259895325
1702055182482683000,10.439682861328125,0.9757044911384583,1.1982121467590332,0.2719877362251282
1702055182499681500,10.456681640625,0.9098837971687317,1.2415835857391357,0.11530081182718277
1702055182516674300,10.47367431640625,0.8480336666107178,1.2458596229553223,0.060475658625364304
1702055182533669000,10.490669189453126,0.7834346890449524,1.182176947593689,0.08933904021978378
1702055182550664000,10.507663818359376,0.7218900322914124,1.1349875926971436,0.1235474944114685
1702055182567658800,10.52465869140625,0.6627888083457947,1.176526427268982,0.11178833991289139
1702055182584643000,10.54164306640625,0.5977316498756409,1.3009902238845825,0.09147707372903824
1702055182601648400,10.5586484375,0.5656611919403076,1.447597861289978,0.13484850525856018
1702055182618643200,10.575643310546875,0.5354233980178833,1.4602733850479126,0.21884247660636902
1702055182635638000,10.592637939453125,0.5212207436561584,1.3356568813323975,0.2635883390903473
1702055182652632600,10.609632568359375,0.5210680365562439,1.2008084058761597,0.2535090744495392
1702055182669627400,10.62662744140625,0.5151121020317078,1.125366449356079,0.21578814089298248
1702055182686622200,10.643622314453125,0.5062545537948608,1.1398745775222778,0.17592918872833252
1702055182703617000,10.660616943359376,0.4703662395477295,1.2231049537658691,0.15302173793315887
1702055182720611800,10.67761181640625,0.4430300295352936,1.291063666343689,0.15790866315364838
1702055182737606700,10.694606689453124,0.4358523488044739,1.3226759433746338,0.18509216606616974
1702055182754601500,10.7116015625,0.43478333950042725,1.2643383741378784,0.17623461782932281
1702055182771596300,10.72859619140625,0.4285219609737396,1.1986702680587769,0.11178833991289139
1702055182788588300,10.74558837890625,0.4184426963329315,1.16293466091156,-0.017409659922122955
1702055182805588500,10.76258837890625,0.3885102868080139,1.1438452005386353,-0.2041817009449005
1702055182822580500,10.77958056640625,0.38347065448760986,1.1279627084732056,-0.3640756905078888
1702055182839575300,10.7965751953125,0.4043927788734436,1.153160810470581,-0.3878994286060333
1702055182856559600,10.8135595703125,0.42562034726142883,1.214400053024292,-0.22770002484321594
1702055182873565000,10.83056494140625,0.45494189858436584,1.2947288751602173,0.0809396430850029
1702055182890559700,10.847559814453126,0.4691445231437683,1.3907874822616577,0.42760565876960754
1702055182907554600,10.864554443359374,0.4876231849193573,1.3935363292694092,0.608727216720581
1702055182924549400,10.88154931640625,0.5091561675071716,1.3074043989181519,0.5755877494812012
1702055182941544200,10.898544189453125,0.5230533480644226,1.1983648538589478,0.39996400475502014
1702055182958539000,10.9155390625,0.517250120639801,1.1594222784042358,0.18677204847335815
1702055182975533600,10.932533447265625,0.49098294973373413,1.2574660778045654,-0.00931569468230009
1702055182992519200,10.949519287109375,0.4715879559516907,1.3950635194778442,-0.1843285858631134
1702055183009528000,10.966528076171874,0.49128836393356323,1.3802499771118164,-0.32330042123794556
1702055183026518300,10.983518310546875,0.5120577812194824,1.3019065856933594,-0.3588833212852478
1702055183043513000,11.00051318359375,0.5407684445381165,1.3472633361816406,-0.3058907687664032
1702055183060507600,11.017507568359376,0.6021603941917419,1.4643967151641846,-0.18814650177955627
1702055183077500000,11.0345,0.7192938327789307,1.5583171844482422,-0.016035212203860283
1702055183094499800,11.051499755859375,0.8497135639190674,1.545336365699768,0.18005253374576569
1702055183111492000,11.0684921875,0.9254608750343323,1.4017829895019531,0.3553708493709564
1702055183128487000,11.08548681640625,0.9511171579360962,1.2567025423049927,0.4738787114620209
1702055183145481700,11.102481689453125,0.9373727440834045,1.1661417484283447,0.485027015209198
1702055183162476500,11.1194765625,0.8805622458457947,1.102611780166626,0.4479169547557831
1702055183179468800,11.13646875,0.8225300312042236,1.1476631164550781,0.36911532282829285
1702055183196468700,11.15346875,0.7889324426651001,1.299310326576233,0.2590068578720093
1702055183213460700,11.170460693359376,0.7425066828727722,1.425454020500183,0.11942415684461594
1702055183230455600,11.18745556640625,0.6875288486480713,1.4746286869049072,0.001527163083665073
1702055183247451000,11.204450927734374,0.6818783283233643,1.4811954498291016,-0.05100724846124649
1702055183264435000,11.22143505859375,0.7276932001113892,1.454164743423462,-0.036041051149368286
1702055183281440000,11.23843994140625,0.7854200005531311,1.405295491218567,0.05971207842230797
1702055183298434800,11.255434814453125,0.8355109095573425,1.362076759338379,0.2050980031490326
1702055183315429600,11.2724296875,0.8914051055908203,1.3532192707061768,0.27580565214157104
1702055183332414000,11.2894140625,0.9222537875175476,1.374904990196228,0.1748601794242859
1702055183349416400,11.30641650390625,0.9349292516708374,1.3486377000808716,-0.07040221989154816
1702055183366416600,11.323416748046874,0.9245445728302002,1.229519009590149,-0.24633140861988068
1702055183383408600,11.34040869140625,0.899040937423706,1.0826059579849243,-0.18051068484783173
1702055183400399400,11.3573994140625,0.8694139719009399,0.9885326623916626,0.06536258012056351
1702055183417402600,11.374402587890625,0.8535314798355103,1.0929906368255615,0.35185837745666504
1702055183434393000,11.39139306640625,0.856433093547821,1.2870930433273315,0.43539419770240784
1702055183451388000,11.408387939453124,0.8336783647537231,1.3990341424942017,0.34804046154022217
1702055183468382700,11.4253828125,0.8133670687675476,1.4240796566009521,0.23518311977386475
1702055183485377500,11.44237744140625,0.8093964457511902,1.339932918548584,0.1472185254096985
1702055183502372400,11.459372314453125,0.8141306638717651,1.1956160068511963,0.1336267739534378
1702055183519367200,11.4763671875,0.8046622276306152,1.0615310668945312,0.182648703455925
1702055183536362000,11.493362060546875,0.7872526049613953,0.9804387092590332,0.22999076545238495
1702055183553356800,11.510356689453126,0.7664831876754761,0.9761626720428467,0.19226983189582825
1702055183570355000,11.52735498046875,0.7165449261665344,1.0056369304656982,0.09560041129589081
1702055183587334100,11.544334228515625,0.6327036619186401,1.044274091720581,0.029626963660120964
1702055183604338400,11.56133837890625,0.5427537560462952,1.0775662660598755,0.027183502912521362
1702055183621338400,11.57833837890625,0.48456886410713196,1.106735110282898,0.05360342562198639
1702055183638331100,11.5953310546875,0.47189339995384216,1.1507173776626587,0.08139779418706894
1702055183655325200,11.6123251953125,0.4778493344783783,1.1565206050872803,0.10231992602348328
1702055183672320300,11.6293203125,0.4893030524253845,1.1554516553878784,0.126143679022789
1702055183689315000,11.646315185546875,0.4885394871234894,1.1301007270812988,0.1638645976781845
1702055183706310000,11.663309814453125,0.4729624092578888,1.0823005437850952,0.20601430535316467
1702055183723304700,11.6803046875,0.44165557622909546,1.0671815872192383,0.19792033731937408
1702055183740299300,11.69729931640625,0.4219551682472229,1.1336132287979126,0.11071932315826416
1702055183757291500,11.71429150390625,0.40882155299186707,1.2377656698226929,0.0403171069920063
1702055183774291200,11.731291259765625,0.39813143014907837,1.3009902238845825,0.05925392732024193
1702055183791281700,11.74828173828125,0.38835757970809937,1.2837333679199219,0.1667662113904953
1702055183808281000,11.765281005859375,0.3706424832344055,1.2043207883834839,0.26313021779060364
1702055183825273300,11.7822734375,0.3715587854385376,1.1635456085205078,0.2652682363986969
1702055183842268200,11.79926806640625,0.38988474011421204,1.2003501653671265,0.11041389405727386
1702055183859262500,11.816262451171875,0.3830125033855438,1.2424999475479126,-0.12018773704767227
1702055183876258000,11.833258056640625,0.3364340364933014,1.3003793954849243,-0.2863430976867676
1702055183893252600,11.850252685546875,0.2955060601234436,1.4161384105682373,-0.3136793076992035
1702055183910247700,11.86724755859375,0.31291571259498596,1.5166256427764893,-0.22143864631652832
1702055183927240400,11.884240478515625,0.4060726761817932,1.5121968984603882,-0.06536258012056351
1702055183944238600,11.901238525390625,0.5123631954193115,1.4176654815673828,0.11056660860776901
1702055183961222000,11.918221923828124,0.575893223285675,1.289536476135254,0.23105977475643158
1702055183978226000,11.935225830078124,0.594524621963501,1.2180652618408203,0.24495697021484375
1702055183995221200,11.95222119140625,0.5777258276939392,1.2205088138580322,0.1569923609495163
1702055184012213200,11.969213134765624,0.541532039642334,1.2377656698226929,0.058337632566690445
1702055184029213700,11.986213623046876,0.5111414790153503,1.1725558042526245,0.0006108652451075613
1702055184046205700,12.003205810546875,0.4966334402561188,1.0607675313949585,0.020463986322283745
1702055184063200500,12.020200439453125,0.5085453391075134,0.9769262671470642,0.10735956579446793
1702055184080195000,12.037195068359376,0.5383250117301941,0.9424123764038086,0.21609358489513397
1702055184097190100,12.054190185546876,0.551916778087616,0.9327912330627441,0.23487769067287445
1702055184114184700,12.071184814453124,0.4983133375644684,1.042594313621521,0.08567385375499725
1702055184131179500,12.088179443359374,0.4308127164840698,1.233642339706421,-0.15531249344348907
1702055184148174600,12.105174560546875,0.4132503271102905,1.3631458282470703,-0.3396410644054413
1702055184165169200,12.122169189453125,0.4476115107536316,1.3662000894546509,-0.327729195356369
1702055184182164000,12.1391640625,0.5158756971359253,1.2739595174789429,-0.156686931848526
1702055184199158800,12.15615869140625,0.5962044596672058,1.1467467546463013,0.06108652427792549
1702055184216153600,12.173153564453125,0.6502660512924194,1.040150761604309,0.20433442294597626
1702055184233143800,12.190143798828124,0.6580545902252197,1.0392345190048218,0.230448916554451
1702055184250143200,12.207143310546876,0.6436992287635803,1.1074986457824707,0.16294831037521362
1702055184267138000,12.224137939453126,0.6630942225456238,1.1320860385894775,0.08216137439012527
1702055184284132600,12.241132568359374,0.7009678483009338,1.1116219758987427,0.0656680166721344
1702055184301117200,12.2581171875,0.7316638231277466,1.0557278394699097,0.10293079167604446
1702055184318122200,12.275122314453125,0.7535023093223572,0.9946413636207581,0.15577064454555511
1702055184335117000,12.292116943359375,0.7438811659812927,0.9891435503959656,0.1918116807937622
1702055184352111900,12.30911181640625,0.7127270102500916,1.0734429359436035,0.18539759516716003
1702055184369114600,12.326114501953125,0.7121161818504333,1.151481032371521,0.1511891484260559
1702055184386091000,12.343091064453125,0.7535023093223572,1.1614075899124146,0.14798210561275482
1702055184403096300,12.360096435546875,0.8109236359596252,1.1001683473587036,0.21059578657150269
1702055184420091100,12.377091064453126,0.878576934337616,0.9923505783081055,0.32589662075042725
1702055184437085700,12.394085693359376,0.8964447379112244,0.9245445728302002,0.44745880365371704
1702055184454088000,12.411087890625,0.8655960559844971,0.9306532144546509,0.48945578932762146
1702055184471075300,12.428075439453124,0.8790351152420044,0.9876163601875305,0.39996400475502014
1702055184488070100,12.445070068359374,0.9083566069602966,1.0543533563613892,0.2597704529762268
1702055184505065000,12.46206494140625,0.888350784778595,1.0739010572433472,0.17440202832221985
1702055184522059800,12.479059814453125,0.8304712772369385,1.0749701261520386,0.17058411240577698
1702055184539054600,12.4960546875,0.7922922372817993,1.1362093687057495,0.2119702398777008
1702055184556049400,12.51304931640625,0.7811439037322998,1.2286027669906616,0.26572638750076294
1702055184573044000,12.5300439453125,0.7913759350776672,1.3028228282928467,0.3520110845565796
1702055184590038800,12.547038818359376,0.8112290501594543,1.3190107345581055,0.4300491213798523
1702055184607033600,12.56403369140625,0.8107708692550659,1.296714186668396,0.4801400899887085
1702055184624028400,12.5810283203125,0.7906123399734497,1.282511591911316,0.47830748558044434
1702055184641020700,12.598020751953126,0.7571674585342407,1.2770137786865234,0.423329621553421
1702055184658020600,12.6150205078125,0.7386888265609741,1.2893837690353394,0.3675881624221802
1702055184675012900,12.632012939453125,0.7455610036849976,1.2819007635116577,0.3266601860523224
1702055184692007700,12.649007568359375,0.7496843934059143,1.256244421005249,0.3016147017478943
1702055184709002500,12.66600244140625,0.7342600226402283,1.2206615209579468,0.28267788887023926
1702055184725996300,12.682996337890625,0.7003570199012756,1.1704177856445312,0.24694228172302246
1702055184742993200,12.6999931640625,0.6496551632881165,1.1467467546463013,0.18677204847335815
1702055184759987200,12.7169873046875,0.6010913848876953,1.1566733121871948,0.11010845750570297
1702055184776981500,12.7339814453125,0.5685628056526184,1.1867583990097046,0.08139779418706894
1702055184793976300,12.750976318359376,0.5455026626586914,1.228450059890747,0.11698069423437119
1702055184810971100,12.76797119140625,0.526107668876648,1.2637274265289307,0.1944078654050827
1702055184827966000,12.784966064453124,0.5138903856277466,1.2767083644866943,0.2515237629413605
1702055184844960800,12.801960693359375,0.5111414790153503,1.246165156364441,0.24465152621269226
1702055184861953000,12.818953125,0.4902193546295166,1.1705704927444458,0.19394971430301666
1702055184878942000,12.83594189453125,0.45784351229667664,1.101084589958191,0.13545936346054077
1702055184895947800,12.85294775390625,0.46242499351501465,1.0910053253173828,0.08643743395805359
1702055184912939800,12.869939697265625,0.4827362596988678,1.1093312501907349,0.07666359096765518
1702055184929934600,12.8869345703125,0.49037206172943115,1.1015427112579346,0.10781771689653397
1702055184946929400,12.903929443359376,0.4743368625640869,1.1024590730667114,0.14034628868103027
1702055184963924200,12.92092431640625,0.4616613984107971,1.1368201971054077,0.1215621829032898
1702055184980919000,12.9379189453125,0.4538728892803192,1.1885910034179688,0.06414084881544113
1702055184997913900,12.954913818359374,0.45204028487205505,1.218676209449768,0.012828170321881771
1702055185014908700,12.97190869140625,0.44287729263305664,1.2258538007736206,0.016340645030140877
1702055185031903200,12.9889033203125,0.4593706727027893,1.214552879333496,0.05742133408784866
1702055185048898300,13.005898193359375,0.508698046207428,1.2009611129760742,0.10399980843067169
1702055185065892900,13.022892822265625,0.5514585971832275,1.1867583990097046,0.18524488806724548
1702055185082887700,13.0398876953125,0.5461135506629944,1.1623238325119019,0.280539870262146
1702055185099886800,13.056886962890625,0.5216789245605469,1.1586586236953735,0.3176499307155609
1702055185116877300,13.073877197265626,0.5013676285743713,1.1659890413284302,0.25564709305763245
1702055185133872400,13.090872314453126,0.4801400899887085,1.178359031677246,0.1290452778339386
1702055185150866700,13.10786669921875,0.4586070775985718,1.1468994617462158,0.003512475173920393
1702055185167861800,13.12486181640625,0.4337143301963806,1.1107057332992554,-0.07254024595022202
1702055185184856600,13.141856689453125,0.3937026560306549,1.1172724962234497,-0.09926560521125793
1702055185201851100,13.15885107421875,0.3462078869342804,1.1945469379425049,-0.07162395119667053
1702055185218846000,13.175845947265625,0.3295617997646332,1.3086260557174683,0.005803219974040985
1702055185235840800,13.1928408203125,0.3494149148464203,1.3706289529800415,0.10781771689653397
1702055185252833000,13.2098330078125,0.36224308609962463,1.326341152191162,0.1722639948129654
1702055185269833000,13.2268330078125,0.3576616048812866,1.2472341060638428,0.18387043476104736
1702055185286825200,13.2438251953125,0.37491855025291443,1.19607412815094,0.16279558837413788
1702055185303819800,13.26081982421875,0.3998112976551056,1.1788171529769897,0.15653422474861145
1702055185320814800,13.27781494140625,0.37720927596092224,1.1870639324188232,0.1768454909324646
1702055185337809700,13.2948095703125,0.34177911281585693,1.2012665271759033,0.18906278908252716
1702055185354804200,13.31180419921875,0.3364340364933014,1.201724648475647,0.1414152979850769
1702055185371799000,13.328799072265625,0.37048977613449097,1.1899654865264893,0.05604688450694084
1702055185388793900,13.3457939453125,0.40424007177352905,1.182482361793518,0.012064588256180286
1702055185405788700,13.36278857421875,0.42378777265548706,1.1678216457366943,0.01114829070866108
1702055185422783500,13.379783447265625,0.4492913782596588,1.1901181936264038,0.013286318629980087
1702055185439778300,13.3967783203125,0.4766276180744171,1.2316570281982422,-0.020922135561704636
1702055185456773400,13.4137734375,0.5015203952789307,1.2718214988708496,-0.07284568250179291
1702055185473767700,13.430767578125,0.5314527750015259,1.305266261100769,-0.09773843735456467
1702055185490762500,13.447762451171876,0.5804746747016907,1.3138184547424316,-0.07696902006864548
1702055185507757600,13.464757568359374,0.6360634565353394,1.2907582521438599,-0.024892758578062057
1702055185524752100,13.481752197265624,0.6685920357704163,1.2634220123291016,0.029932396486401558
1702055185541747000,13.498746826171875,0.669355571269989,1.2953397035598755,0.08567385375499725
1702055185558741800,13.51574169921875,0.6487388610839844,1.3518447875976562,0.12232576310634613
1702055185575734000,13.532734130859374,0.6401867866516113,1.3703234195709229,0.1160643994808197
1702055185592733700,13.549733642578126,0.650418758392334,1.3663527965545654,0.08460483700037003
1702055185609714700,13.566714599609375,0.6563746929168701,1.3469579219818115,0.0630718395113945
1702055185626722000,13.58372216796875,0.6575964093208313,1.3338242769241333,0.06750060617923737
1702055185643715600,13.600715576171876,0.6562219858169556,1.3252722024917603,0.07162395119667053
1702055185660710400,13.61771044921875,0.6478226184844971,1.3187053203582764,0.06627888232469559
1702055185677705200,13.634705322265624,0.6427829265594482,1.3365731239318848,0.05665775015950203
1702055185694700000,13.651699951171874,0.6531676650047302,1.3625348806381226,0.0429132841527462
1702055185711695600,13.668695556640625,0.6681338548660278,1.3565789461135864,0.049785517156124115
1702055185728689700,13.685689697265625,0.6708827614784241,1.3472633361816406,0.10430523753166199
1702055185745684500,13.7026845703125,0.6959282159805298,1.3344351053237915,0.16859880089759827
1702055185762679000,13.719678955078125,0.745408296585083,1.315040111541748,0.2028072625398636
1702055185779663400,13.736663330078125,0.7780895829200745,1.3070988655090332,0.22617286443710327
1702055185796668700,13.753668701171875,0.7866417169570923,1.3087787628173828,0.2612976133823395
1702055185813663500,13.77066357421875,0.783892810344696,1.2892310619354248,0.3019201457500458
1702055185830658300,13.787658203125,0.7858781218528748,1.2996158599853516,0.3095559775829315
1702055185847653000,13.804653076171874,0.7910705208778381,1.3464996814727783,0.2646573781967163
1702055185864637400,13.821637451171876,0.8095491528511047,1.3920091390609741,0.1820378452539444
1702055185881642800,13.838642822265625,0.8408560156822205,1.359480619430542,0.09086620807647705
1702055185898637600,13.855637451171875,0.8631525635719299,1.2849550247192383,0.018020525574684143
1702055185915632000,13.872632080078125,0.8901833891868591,1.2252429723739624,-0.012980886735022068
1702055185932627000,13.889626953125,0.901637077331543,1.2796099185943604,0.06429356336593628
1702055185949621800,13.906621826171875,0.9216429591178894,1.362687587738037,0.2396118938922882
1702055185966616600,13.923616455078125,0.9611964821815491,1.355051875114441,0.41951170563697815
1702055185983611400,13.940611328125,0.9920451641082764,1.2725850343704224,0.5313000679016113
1702055186000603600,13.957603759765625,0.9899071455001831,1.1864529848098755,0.5636758804321289
1702055186017604900,13.97460498046875,0.9384417533874512,1.1647672653198242,0.5464189648628235
1702055186034594300,13.99159423828125,0.8739954233169556,1.1815661191940308,0.49525898694992065
1702055186051590400,14.00859033203125,0.827722430229187,1.2139419317245483,0.4456261992454529
1702055186068585500,14.02558544921875,0.7994698882102966,1.2079859972000122,0.4105014503002167
1702055186085580000,14.042580078125,0.7765624523162842,1.1256719827651978,0.3868304193019867
1702055186102574800,14.059574951171875,0.7544185519218445,1.0308351516723633,0.34406983852386475
1702055186119566600,14.076566650390625,0.7021896243095398,0.988379955291748,0.27809640765190125
1702055186136564500,14.093564453125,0.608421802520752,1.017701506614685,0.19822576642036438
1702055186153559000,14.11055908203125,0.5247332453727722,1.1091785430908203,0.13377949595451355
1702055186170553900,14.127553955078126,0.48227810859680176,1.1838568449020386,0.12492194026708603
1702055186187549000,14.144548828125,0.4619668424129486,1.178359031677246,0.17440202832221985
1702055186204540400,14.16154052734375,0.43508878350257874,1.093143343925476,0.21212296187877655
1702055186221541400,14.178541259765625,0.3880521357059479,1.0103710889816284,0.18066339194774628
1702055186238532900,14.195532958984375,0.31383201479911804,1.0044151544570923,0.08032877743244171
1702055186255528000,14.21252783203125,0.23396138846874237,1.1105530261993408,-0.06520986557006836
1702055186272522500,14.2295224609375,0.20173825323581696,1.2513574361801147,-0.1333213448524475
1702055186289517300,14.246517333984375,0.24938572943210602,1.3225232362747192,-0.031612277030944824
1702055186306512100,14.26351220703125,0.3378084897994995,1.2736539840698242,0.1817324161529541
1702055186323507000,14.2805068359375,0.4141666293144226,1.1520918607711792,0.38011088967323303
1702055186340501800,14.297501708984376,0.446389764547348,1.1136072874069214,0.47479501366615295
1702055186357496600,14.31449658203125,0.4787656366825104,1.1850786209106445,0.4512766897678375
1702055186374491400,14.331491455078124,0.5335907936096191,1.2870930433273315,0.3553708493709564
1702055186391486200,14.348486328125,0.5688682794570923,1.3382530212402344,0.29336804151535034
1702055186408480800,14.365480712890625,0.5719226002693176,1.3092368841171265,0.3234531581401825
1702055186425465300,14.38246533203125,0.5839871764183044,1.2654073238372803,0.38438695669174194
1702055186442467800,14.3994677734375,0.584750771522522,1.1966849565505981,0.38896843791007996
1702055186459467800,14.4164677734375,0.540921151638031,1.1241447925567627,0.3246748745441437
1702055186476460300,14.433460205078125,0.47479501366615295,1.0936014652252197,0.18768835067749023
1702055186493454800,14.450454833984375,0.4158465266227722,1.1148290634155273,-0.013439035043120384
1702055186510437000,14.46743701171875,0.3926336467266083,1.1731667518615723,-0.20066922903060913
1702055186527444500,14.484444580078126,0.3929390609264374,1.2570079565048218,-0.2528982162475586
1702055186544439000,14.50143896484375,0.39614611864089966,1.3193162679672241,-0.11713340878486633
1702055186561434000,14.51843408203125,0.40744712948799133,1.3347405195236206,0.12828169763088226
1702055186578428700,14.5354287109375,0.43707409501075745,1.2903001308441162,0.3332269787788391
1702055186595423500,14.552423583984375,0.43707409501075745,1.3125966787338257,0.39706242084503174
1702055186612416300,14.569416259765624,0.44684791564941406,1.3698652982711792,0.38469240069389343
1702055186629415200,14.586415283203126,0.5051855444908142,1.3518447875976562,0.34804046154022217
1702055186646408000,14.603407958984375,0.584750771522522,1.2426526546478271,0.3211624026298523
1702055186663402800,14.62040283203125,0.6485861539840698,1.0911580324172974,0.2866485118865967
1702055186680397600,14.6373974609375,0.6531676650047302,1.040150761604309,0.2635883390903473
1702055186697392000,14.65439208984375,0.6053674817085266,1.062294602394104,0.20631973445415497
1702055186714387000,14.671386962890624,0.5616905689239502,1.1339186429977417,0.08506298810243607
1702055186731381800,14.6883818359375,0.5404630303382874,1.254717230796814,-0.04948008432984352
1702055186748376300,14.705376220703124,0.4986187517642975,1.3625348806381226,-0.11468994617462158
1702055186765371600,14.72237158203125,0.4645630121231079,1.4294246435165405,-0.08536841720342636
1702055186782366000,14.739365966796875,0.4683809280395508,1.4564554691314697,0.006719517521560192
1702055186799360800,14.75636083984375,0.4715879559516907,1.447292447090149,0.12034045159816742
1702055186816363000,14.773363037109375,0.44547349214553833,1.4359915256500244,0.17562375962734222
1702055186833350400,14.790350341796875,0.39965859055519104,1.4373658895492554,0.12919799983501434
1702055186850345200,14.80734521484375,0.35842517018318176,1.4947872161865234,0.010842857882380486
1702055186867340000,14.824340087890626,0.3501785099506378,1.5392277240753174,-0.08399397134780884
1702055186884333300,14.841333251953126,0.3651446998119354,1.538464069366455,-0.09743300825357437
1702055186901336000,14.858336181640626,0.3914119005203247,1.4567608833312988,-0.017867809161543846
1702055186918324200,14.87532421875,0.42989641427993774,1.339932918548584,0.08979719132184982
1702055186935319300,14.8923193359375,0.47540587186813354,1.2750284671783447,0.14737124741077423
1702055186952313900,14.90931396484375,0.5132794976234436,1.2988522052764893,0.11804971098899841
1702055186969308700,14.92630859375,0.55695641040802,1.333213448524475,0.03695734590291977
1702055186986310000,14.943309814453125,0.603076696395874,1.3518447875976562,-0.028405234217643738
1702055187003298300,14.96029833984375,0.6281222105026245,1.3353514671325684,0.005345070734620094
1702055187020292900,14.97729296875,0.6435465216636658,1.317789077758789,0.09834930300712585
1702055187037287000,14.994286865234375,0.6649268269538879,1.3486377000808716,0.18936823308467865
1702055187054283300,15.011283203125,0.6939429044723511,1.3997976779937744,0.24037547409534454
1702055187071266800,15.028266845703126,0.7295258045196533,1.4483615159988403,0.2509129047393799
1702055187088272100,15.045272216796874,0.7588473558425903,1.4656184911727905,0.24373523890972137
1702055187105270300,15.062270263671875,0.7710646390914917,1.442100167274475,0.235030397772789
1702055187122260700,15.0792607421875,0.803135097026825,1.3773484230041504,0.19517144560813904
1702055187139254300,15.096254150390624,0.8373435139656067,1.289689302444458,0.11835514008998871
1702055187156251100,15.113251220703125,0.8626944422721863,1.2638801336288452,0.038637228310108185
1702055187173246000,15.130245849609375,0.8578075170516968,1.310916781425476,-0.015271631069481373
1702055187190240800,15.14724072265625,0.8585711121559143,1.4057536125183105,-0.009468411095440388
1702055187207235600,15.164235595703126,0.887739896774292,1.4517213106155396,0.09147707372903824
1702055187224230700,15.181230712890626,0.9306532144546509,1.3535246849060059,0.26419922709465027
1702055187241222700,15.19822265625,0.9393580555915833,1.1945469379425049,0.44593164324760437
1702055187258222000,15.21522216796875,0.9014843702316284,1.1027644872665405,0.5467243790626526
1702055187275214600,15.232214599609375,0.8200865983963013,1.1301007270812988,0.5091561675071716
1702055187292206000,15.2492060546875,0.746019184589386,1.2157745361328125,0.3675881624221802
1702055187309204000,15.266203857421875,0.6989825367927551,1.2973250150680542,0.23136521875858307
1702055187326199600,15.283199462890625,0.6667594313621521,1.320385217666626,0.1472185254096985
1702055187343193900,15.30019384765625,0.6418666839599609,1.1867583990097046,0.12202033400535583
1702055187360188700,15.317188720703125,0.6007859706878662,0.9808968901634216,0.14248432219028473
1702055187377183500,15.33418359375,0.5459607839584351,0.8840747475624084,0.14049901068210602
1702055187394178000,15.351177978515626,0.483957976102829,0.9828822016716003,0.10720685124397278
1702055187411162600,15.36816259765625,0.4356996417045593,1.1510227918624878,0.06551529467105865
1702055187428167700,15.385167724609374,0.4103487432003021,1.2780828475952148,0.04963280260562897
1702055187445162500,15.40216259765625,0.38866302371025085,1.2861768007278442,0.06169738993048668
1702055187462157300,15.4191572265625,0.34605515003204346,1.1872166395187378,0.11835514008998871
1702055187479152000,15.436152099609375,0.3116939961910248,1.0648908615112305,0.19486601650714874
1702055187496144100,15.45314404296875,0.28008171916007996,1.020603060722351,0.2538145184516907
1702055187513144800,15.470144775390626,0.2483167201280594,1.059698462486267,0.2356412708759308
1702055187530136300,15.48713623046875,0.22831088304519653,1.1136072874069214,0.15103642642498016
1702055187547131100,15.504131103515626,0.22296582162380219,1.1357512474060059,0.07864890247583389
1702055187564126000,15.5211259765625,0.24388794600963593,1.1186469793319702,0.06963863968849182
1702055187581120800,15.538120849609374,0.2724458873271942,1.067639708518982,0.10277807712554932
1702055187598115600,15.555115478515624,0.3039054572582245,0.998153805732727,0.1459967941045761
1702055187615110100,15.572110107421874,0.323147714138031,0.9538660645484924,0.18219055235385895
1702055187632105200,15.589105224609375,0.35292738676071167,0.970054030418396,0.19394971430301666
1702055187649099800,15.606099853515625,0.3727805018424988,0.9863946437835693,0.18631389737129211
1702055187666094600,15.623094482421875,0.36819902062416077,0.9573785662651062,0.19562959671020508
1702055187683080000,15.640079833984375,0.35674530267715454,0.9202684760093689,0.22708915174007416
1702055187700081700,15.65708154296875,0.3523165285587311,0.9027060866355896,0.23640485107898712
1702055187717081300,15.674081298828124,0.3396410644054413,0.8958339095115662,0.18784105777740479
1702055187734065000,15.69106494140625,0.31459560990333557,0.9065240025520325,0.08078692853450775
1702055187751068400,15.708068359375,0.2741257846355438,0.9135489463806152,-0.06108652427792549
1702055187768063200,15.725063232421874,0.22113321721553802,0.9465357065200806,-0.21991148591041565
1702055187785058000,15.74205810546875,0.18219055235385895,1.0334312915802002,-0.337503045797348
1702055187802052900,15.759052978515625,0.18555031716823578,1.136362075805664,-0.3430008292198181
1702055187819047700,15.776047607421875,0.22342395782470703,1.161560297012329,-0.22220222651958466
1702055187836042500,15.79304248046875,0.2664899528026581,1.0939068794250488,-0.06414084881544113
1702055187853037300,15.810037353515625,0.28756481409072876,1.0323622226715088,0.056810468435287476
1702055187870029300,15.827029296875,0.31291571259498596,1.036943793296814,0.0933096632361412
1702055187887029200,15.844029296875,0.34544429183006287,1.0288498401641846,0.07024950534105301
1702055187904021500,15.861021484375,0.38179078698158264,0.9871582388877869,0.045204028487205505
1702055187921016300,15.878016357421876,0.4098905920982361,0.9566149711608887,0.0354301854968071
1702055187938011100,15.89501123046875,0.4236350357532501,0.9393580555915833,0.01710422709584236
1702055187955005700,15.912005615234374,0.41141775250434875,0.9757044911384583,-0.014202617108821869
1702055187972000500,15.92900048828125,0.432645320892334,1.0416779518127441,-0.07284568250179291
1702055187988995300,15.945995361328125,0.4824308156967163,1.0612256526947021,-0.13973543047904968
1702055188005986800,15.96298681640625,0.5132794976234436,1.0488556623458862,-0.16661348938941956
1702055188022988300,15.97998828125,0.5135849714279175,1.0664180517196655,-0.1511891484260559
1702055188039979800,15.996979736328125,0.528245747089386,1.1264355182647705,-0.11636982858181
1702055188056967000,16.013966796875,0.566730260848999,1.1902709007263184,-0.05268712714314461
1702055188073956000,16.0309560546875,0.6276640295982361,1.2214250564575195,0.05100724846124649
1702055188090964000,16.0479638671875,0.7099781036376953,1.2179125547409058,0.16691893339157104
1702055188107958800,16.064958740234374,0.7822129726409912,1.2014192342758179,0.2750420868396759
1702055188124953600,16.08195361328125,0.8426886200904846,1.1488847732543945,0.32986724376678467
1702055188141948400,16.098948486328126,0.889267086982727,1.0810787677764893,0.3199406862258911
1702055188158944800,16.11594482421875,0.9060658812522888,1.0589349269866943,0.26251932978630066
1702055188175937800,16.132937744140627,0.9010262489318848,1.109789490699768,0.19456058740615845
1702055188192932600,16.1499326171875,0.8772025108337402,1.2232576608657837,0.14446963369846344
1702055188209927700,16.166927734375,0.8637634515762329,1.3368785381317139,0.16111570596694946
1702055188226922200,16.183922119140625,0.8480336666107178,1.3829989433288574,0.2168571650981903
1702055188243919400,16.20091943359375,0.8489499688148499,1.3423763513565063,0.2591595947742462
1702055188260914000,16.217913818359374,0.8356636762619019,1.2889256477355957,0.24587325751781464
1702055188277903000,16.234903076171875,0.8155050873756409,1.2878566980361938,0.18814650177955627
1702055188294904600,16.251904541015627,0.8057312369346619,1.359480619430542,0.09422596544027328
1702055188311896000,16.26889599609375,0.8257371187210083,1.419498085975647,0.007024950347840786
1702055188328891000,16.285890869140626,0.8434522151947021,1.409724235534668,-0.009621127508580685
1702055188345883100,16.302883056640624,0.8431467413902283,1.3584115505218506,0.06154467165470123
1702055188362883000,16.319883056640624,0.8367326855659485,1.334282398223877,0.18325957655906677
1702055188379875300,16.336875244140625,0.8432994484901428,1.3910928964614868,0.2921462953090668
1702055188396870000,16.353869873046875,0.8674286603927612,1.474017858505249,0.3605632185935974
1702055188413865000,16.370864990234374,0.8796459436416626,1.4654656648635864,0.39584067463874817
1702055188430859500,16.387859619140624,0.8611672520637512,1.3413074016571045,0.4031710624694824
1702055188447854300,16.404854248046874,0.8257371187210083,1.19912850856781,0.3582724630832672
1702055188464838700,16.421838623046874,0.7594582438468933,1.1562151908874512,0.26221391558647156
1702055188481845500,16.438845458984375,0.6860016584396362,1.215927243232727,0.16050484776496887
1702055188498832400,16.455832275390627,0.6394231915473938,1.2683089971542358,0.07712173461914062
1702055188515838000,16.472837890625,0.6075055003166199,1.2754865884780884,0.041691552847623825
1702055188532828200,16.489828125,0.5963571667671204,1.2702943086624146,0.05009094998240471
1702055188549823000,16.506822998046875,0.5922338366508484,1.2683089971542358,0.0835358202457428
1702055188566815500,16.5238154296875,0.589179515838623,1.2504411935806274,0.13179416954517365
1702055188583815000,16.54081494140625,0.5827654600143433,1.2119566202163696,0.19425514340400696
1702055188600807200,16.55780712890625,0.5586362481117249,1.1797335147857666,0.25641068816185
1702055188617802200,16.57480224609375,0.5326744914054871,1.189354658126831,0.28099802136421204
1702055188634796800,16.591796875,0.5216789245605469,1.2412781715393066,0.24037547409534454
1702055188651791600,16.60879150390625,0.5218316316604614,1.2759448289871216,0.1797471046447754
1702055188668786400,16.625786376953126,0.4983133375644684,1.2356276512145996,0.13897185027599335
1702055188685781200,16.64278125,0.4619668424129486,1.136056661605835,0.12996158003807068
1702055188702776000,16.659776123046875,0.43539419770240784,1.055269718170166,0.14233160018920898
1702055188719770600,16.6767705078125,0.4314235746860504,1.0584768056869507,0.1472185254096985
1702055188736765400,16.693765380859375,0.41691553592681885,1.1120802164077759,0.13607023656368256
1702055188753760300,16.71076025390625,0.3995058834552765,1.15178644657135,0.12400564551353455
1702055188770744600,16.72774462890625,0.3816380500793457,1.1239920854568481,0.12064588814973831
1702055188787750000,16.74475,0.38728857040405273,1.0853548049926758,0.1270599663257599
1702055188804744700,16.76174462890625,0.41630467772483826,1.0558805465698242,0.1466076523065567
1702055188821739300,16.7787392578125,0.46379944682121277,1.0684033632278442,0.20830504596233368
1702055188838730200,16.795730224609375,0.5303837656974792,1.0755809545516968,0.2921462953090668
1702055188855719700,16.8127197265625,0.5803219676017761,1.0138835906982422,0.3491095006465912
1702055188872723700,16.8297236328125,0.5723807215690613,0.9146180152893066,0.34177911281585693
1702055188889718300,16.84671826171875,0.5093088746070862,0.8833111524581909,0.2730567753314972
1702055188906713300,16.86371337890625,0.45814892649650574,0.9133962392807007,0.14553864300251007
1702055188923708000,16.8807080078125,0.44486260414123535,0.9566149711608887,0.003054326167330146
1702055188940701700,16.89770166015625,0.4411974251270294,1.0077749490737915,-0.09728029370307922
1702055188957696500,16.914696533203124,0.42989641427993774,1.050840973854065,-0.11438451707363129
1702055188974693400,16.931693359375,0.4356996417045593,1.068861484527588,-0.07437284290790558
1702055188991684600,16.9486845703125,0.4508185386657715,1.0335839986801147,0.013133603148162365
1702055189008676400,16.96567626953125,0.46105054020881653,1.0290025472640991,0.16340644657611847
1702055189025676500,16.982676513671876,0.47998735308647156,1.0639744997024536,0.32421672344207764
1702055189042671400,16.99967138671875,0.5099197626113892,1.1074986457824707,0.4193589985370636
1702055189059666200,17.016666259765625,0.522595226764679,1.1058188676834106,0.4118759036064148
1702055189076660700,17.03366064453125,0.5007568001747131,1.0528262853622437,0.3251330256462097
1702055189093654500,17.050654541015625,0.4599815309047699,0.9918924570083618,0.2177734673023224
1702055189110652000,17.06765185546875,0.38759398460388184,0.9862419366836548,0.1189660057425499
1702055189127645200,17.084645263671874,0.3488040566444397,1.0910053253173828,0.05314527451992035
1702055189144640000,17.101639892578124,0.36392298340797424,1.2113457918167114,0.03176499158143997
1702055189161634800,17.118634765625,0.42470407485961914,1.2345587015151978,0.07177666574716568
1702055189178619000,17.135618896484374,0.484416127204895,1.1301007270812988,0.14844025671482086
1702055189195624400,17.15262451171875,0.527634859085083,1.0025825500488281,0.2177734673023224
1702055189212619300,17.169619384765625,0.5707008838653564,0.9902125597000122,0.24144448339939117
1702055189229613800,17.18661376953125,0.5890268087387085,1.0942124128341675,0.23228150606155396
1702055189246598700,17.2035986328125,0.5818491578102112,1.2930489778518677,0.21090123057365417
1702055189263603500,17.220603515625,0.5983424782752991,1.3837624788284302,0.16004669666290283
1702055189280598300,17.237598388671874,0.6207917928695679,1.30496084690094,0.11957687139511108
1702055189297593000,17.254593017578124,0.6264423131942749,1.2064588069915771,0.13561208546161652
1702055189314588000,17.271587890625,0.6664539575576782,1.1658363342285156,0.18219055235385895
1702055189331582500,17.28858251953125,0.7318165898323059,1.207680583000183,0.230448916554451
1702055189348577300,17.305577392578126,0.7858781218528748,1.2134838104248047,0.24648413062095642
1702055189365571800,17.32257177734375,0.7939720749855042,1.1901181936264038,0.21960605680942535
1702055189382567200,17.339567138671875,0.784503698348999,1.201724648475647,0.1592831164598465
1702055189399561700,17.356561767578125,0.7527387142181396,1.2418889999389648,0.06673702597618103
1702055189416546000,17.373546142578125,0.7293730974197388,1.2794572114944458,-0.033597588539123535
1702055189433551000,17.390551025390625,0.7420485615730286,1.3154983520507812,-0.07590000331401825
1702055189450546000,17.4075458984375,0.7675521969795227,1.3669637441635132,-0.01191187184303999
1702055189467540700,17.424540771484374,0.7712173461914062,1.420719861984253,0.12568552792072296
1702055189484535600,17.44153564453125,0.7684684991836548,1.4746286869049072,0.23579397797584534
1702055189501530000,17.458530029296874,0.7596109509468079,1.4889839887619019,0.27320948243141174
1702055189518525200,17.475525146484376,0.7704538106918335,1.480737328529358,0.2687807083129883
1702055189535519700,17.492519775390626,0.8008443117141724,1.4427109956741333,0.28909197449684143
1702055189552514600,17.5095146484375,0.8494081497192383,1.420719861984253,0.3969096839427948
1702055189569509400,17.52650927734375,0.8805622458457947,1.411251425743103,0.5719226002693176
1702055189586504200,17.543504150390625,0.8840747475624084,1.4031574726104736,0.7024950385093689
1702055189603498800,17.560498779296875,0.8965974450111389,1.3503175973892212,0.7228062748908997
1702055189620493800,17.577493896484373,0.9074403047561646,1.291063666343689,0.6711881756782532
1702055189637493500,17.594493408203125,0.8820894360542297,1.3101532459259033,0.6163630485534668
1702055189654483500,17.6114833984375,0.8268061280250549,1.4039210081100464,0.5516113042831421
1702055189671471900,17.628471923828126,0.750142514705658,1.4818063974380493,0.502436637878418
1702055189688472800,17.645472900390626,0.7023423314094543,1.4929546117782593,0.4970915913581848
1702055189705464800,17.66246484375,0.7049384713172913,1.4230105876922607,0.5474879741668701
1702055189722465000,17.679465087890627,0.684779942035675,1.287245750427246,0.6192646622657776
1702055189739457000,17.69645703125,0.6088799238204956,1.2107349634170532,0.660192608833313
1702055189756452000,17.7134521484375,0.5308418869972229,1.2994630336761475,0.6180428862571716
1702055189773447000,17.730447021484373,0.4873177409172058,1.5036448240280151,0.518471896648407
1702055189790441200,17.747441162109375,0.499382346868515,1.63467538356781,0.3927863538265228
1702055189807424000,17.764424072265626,0.5380195379257202,1.5612188577651978,0.32360586524009705
1702055189824425700,17.78142578125,0.5838344693183899,1.3385584354400635,0.3306308090686798
1702055189841423000,17.798423095703125,0.5876523852348328,1.12506103515625,0.37827831506729126
1702055189858423000,17.815423095703125,0.5485569834709167,1.105513334274292,0.36972618103027344
1702055189875415300,17.832415283203126,0.49754974246025085,1.2455542087554932,0.2710714638233185
1702055189892409900,17.849409912109376,0.46792277693748474,1.3906347751617432,0.12522737681865692
1702055189909405000,17.866405029296875,0.44196099042892456,1.4479033946990967,0.011453723534941673
1702055189926399500,17.8833994140625,0.413555771112442,1.3927727937698364,-0.030543262138962746
1702055189943394300,17.900394287109375,0.41370847821235657,1.3048081398010254,0.008246680721640587
1702055189960389000,17.91738916015625,0.41401392221450806,1.2554807662963867,0.096211276948452
1702055189977384000,17.934384033203123,0.42470407485961914,1.2035572528839111,0.14233160018920898
1702055189994374400,17.95137451171875,0.4366159439086914,1.1664471626281738,0.11667526513338089
1702055190011380700,17.968380615234373,0.42562034726142883,1.1542298793792725,0.06383541971445084
1702055190028361200,17.985361328125,0.3937026560306549,1.1594222784042358,0.01878410577774048
1702055190045363000,18.002363037109376,0.3604104816913605,1.1797335147857666,0.005955935921519995
1702055190062357800,18.019357666015626,0.3335324227809906,1.196379542350769,0.012064588256180286
1702055190079352600,18.0363525390625,0.3214678466320038,1.2275336980819702,0.028405234217643738
1702055190096347400,18.053347412109375,0.304669052362442,1.225701093673706,0.034666601568460464
1702055190113342500,18.070342529296877,0.28848111629486084,1.211498498916626,0.05253441259264946
1702055190130336800,18.087336669921875,0.2669481039047241,1.2307407855987549,0.11010845750570297
1702055190147331600,18.10433154296875,0.23915374279022217,1.2641856670379639,0.17333301901817322
1702055190164326400,18.121326416015624,0.19898934662342072,1.272737741470337,0.19547687470912933
1702055190181321200,18.1383212890625,0.1840231567621231,1.245248794555664,0.1362229436635971
1702055190198315800,18.155315673828124,0.2096794992685318,1.1624765396118164,0.01924225501716137
1702055190215310600,18.172310546875,0.24236078560352325,1.0487029552459717,-0.09697485715150833
1702055190232305400,18.189305419921876,0.24587325751781464,0.9393580555915833,-0.18585574626922607
1702055190249300200,18.20630029296875,0.22815817594528198,0.9133962392807007,-0.24617868661880493
1702055190266295000,18.223294921875,0.19837848842144012,1.0056369304656982,-0.22892175614833832
1702055190283285500,18.240285400390626,0.19547687470912933,1.1658363342285156,-0.11514809727668762
1702055190300284400,18.257284423828125,0.24007004499435425,1.3029755353927612,0.051312681287527084
1702055190317279200,18.274279296875,0.32009339332580566,1.3715451955795288,0.1843285858631134
1702055190334274000,18.291274169921873,0.42210787534713745,1.345583438873291,0.23228150606155396
1702055190351267000,18.30826708984375,0.513737678527832,1.2064588069915771,0.24388794600963593
1702055190368265200,18.32526513671875,0.5786421298980713,1.0265589952468872,0.21502456068992615
1702055190385258500,18.342258544921876,0.6065891981124878,0.9773843884468079,0.15164729952812195
1702055190402256400,18.35925634765625,0.6003278493881226,1.0856602191925049,0.06902777403593063
1702055190419254300,18.376254150390626,0.5818491578102112,1.2391401529312134,-0.023976460099220276
1702055190436243200,18.3932431640625,0.5836817622184753,1.313360333442688,-0.11041389405727386
1702055190453237500,18.410237548828125,0.6123924255371094,1.3086260557174683,-0.1508837193250656
1702055190470230000,18.42722998046875,0.6594290137290955,1.2997685670852661,-0.10002918541431427
1702055190487226600,18.4442265625,0.7160868048667908,1.2932016849517822,0.020311269909143448
1702055190504224800,18.461224853515624,0.7922922372817993,1.2447906732559204,0.1488984078168869
1702055190521216300,18.47821630859375,0.8373435139656067,1.18492591381073,0.28069257736206055
1702055190538211300,18.49521142578125,0.8413141369819641,1.1566733121871948,0.3897320330142975
1702055190555206100,18.5122060546875,0.8048149347305298,1.1681270599365234,0.40943244099617004
1702055190572200700,18.52920068359375,0.7486153841018677,1.2446379661560059,0.342237263917923
1702055190589195500,18.546195556640626,0.7070765495300293,1.3385584354400635,0.23121249675750732
1702055190606190300,18.5631904296875,0.6860016584396362,1.392925500869751,0.1414152979850769
1702055190623185200,18.58018505859375,0.6921103000640869,1.3729196786880493,0.12324206531047821
1702055190640169500,18.59716943359375,0.7139487266540527,1.325730323791504,0.17119498550891876
1702055190657164000,18.6141640625,0.71318519115448,1.2948815822601318,0.2532036304473877
1702055190674169300,18.63116943359375,0.6688974499702454,1.3374894857406616,0.3150537610054016
1702055190691164200,18.6481640625,0.6516404747962952,1.4437800645828247,0.3400992155075073
1702055190708159000,18.665158935546874,0.6727153658866882,1.570534586906433,0.34865134954452515
1702055190725153800,18.68215380859375,0.7067710757255554,1.623374342918396,0.38728857040405273
1702055190742155300,18.6991552734375,0.7363980412483215,1.574657917022705,0.4830417037010193
1702055190759147300,18.716147216796877,0.7484626173973083,1.493260145187378,0.5681046843528748
1702055190776138200,18.73313818359375,0.7113525867462158,1.4353805780410767,0.607810914516449
1702055190793132800,18.7501328125,0.6763805150985718,1.4312572479248047,0.6059783101081848
1702055190810127600,18.767127685546875,0.675616979598999,1.4401148557662964,0.5690209865570068
1702055190827122400,18.784122314453125,0.6411030888557434,1.4535537958145142,0.4934264123439789
1702055190844117000,18.801116943359375,0.6044511795043945,1.4338533878326416,0.3927863538265228
1702055190861109200,18.818109130859376,0.5997169613838196,1.3600914478302002,0.26572638750076294
1702055190878109200,18.835109130859376,0.6012440919876099,1.3277156352996826,0.12140946835279465
1702055190895111700,18.852111572265624,0.6088799238204956,1.4045319557189941,-0.02672535367310047
1702055190912096300,18.86909619140625,0.5839871764183044,1.5737415552139282,-0.08216137439012527
1702055190929090800,18.8860908203125,0.5751296281814575,1.7058411836624146,0.03985895588994026
1702055190946085600,18.903085693359376,0.6099489331245422,1.7121025323867798,0.280539870262146
1702055190963083800,18.920083740234375,0.68325275182724,1.5977180004119873,0.5308418869972229
1702055190980072000,18.937072021484376,0.7333437204360962,1.4523321390151978,0.6924157738685608
1702055190997070000,18.954070068359375,0.7214318513870239,1.348484992980957,0.7168503403663635
1702055191014064600,18.971064697265625,0.6666067242622375,1.3209960460662842,0.6148358583450317
1702055191031059500,18.9880595703125,0.6217080950737,1.355051875114441,0.44547349214553833
1702055191048054500,19.005054443359374,0.6018549799919128,1.4095715284347534,0.28008171916007996
1702055191065049000,19.022049072265624,0.5942191481590271,1.4376713037490845,0.1788308024406433
1702055191082044000,19.0390439453125,0.6053674817085266,1.397354245185852,0.15806138515472412
1702055191099038500,19.05603857421875,0.640644907951355,1.3205379247665405,0.18906278908252716
1702055191116023000,19.07302294921875,0.6534730792045593,1.2489140033721924,0.24144448339939117
1702055191133028900,19.09002880859375,0.618195652961731,1.2406673431396484,0.28008171916007996
1702055191150022400,19.1070224609375,0.5499314665794373,1.3183999061584473,0.2742784917354584
1702055191167014000,19.124013916015624,0.49877145886421204,1.4230105876922607,0.24007004499435425
1702055191184016400,19.141016357421876,0.4917465150356293,1.5102115869522095,0.23625212907791138
1702055191201007400,19.15800732421875,0.5129740834236145,1.4892895221710205,0.2684752643108368
1702055191218002000,19.175001953125,0.5346598029136658,1.3460415601730347,0.2834414839744568
1702055191234993000,19.191992919921876,0.5426010489463806,1.2087496519088745,0.2643519341945648
1702055191251994400,19.208994384765624,0.5094616413116455,1.1380419731140137,0.22876903414726257
1702055191268989000,19.225989013671875,0.4473060667514801,1.1716395616531372,0.16814066469669342
1702055191285981000,19.24298095703125,0.4156937897205353,1.2634220123291016,0.09514226019382477
1702055191302975700,19.259975830078126,0.41828998923301697,1.3292428255081177,0.04734205827116966
1702055191319970600,19.276970458984376,0.4421137273311615,1.324813961982727,0.05711590126156807
1702055191336965400,19.29396533203125,0.4512766897678375,1.2794572114944458,0.13057245314121246
1702055191353960000,19.3109599609375,0.45066583156585693,1.2347114086151123,0.2122756689786911
1702055191370955000,19.327955078125,0.4444044530391693,1.2035572528839111,0.247094988822937
1702055191387949600,19.344949462890625,0.4311181604862213,1.1901181936264038,0.20326541364192963
1702055191404944400,19.3619443359375,0.38728857040405273,1.171334147453308,0.10537425428628922
1702055191421939500,19.378939453125,0.31810808181762695,1.1789699792861938,-0.017562376335263252
1702055191438934000,19.39593408203125,0.24495697021484375,1.1494957208633423,-0.14309518039226532
1702055191455925200,19.41292529296875,0.1840231567621231,1.1018482446670532,-0.26282477378845215
1702055191472923400,19.42992333984375,0.14935655891895294,1.1114692687988281,-0.3162754774093628
1702055191489918200,19.446918212890626,0.18387043476104736,1.1948524713516235,-0.2513710558414459
1702055191506913000,19.4639130859375,0.26603180170059204,1.3028228282928467,-0.07956519722938538
1702055191523906300,19.48090625,0.34315356612205505,1.3223705291748047,0.1644754707813263
1702055191540904200,19.497904296875,0.389426589012146,1.235169529914856,0.4066835343837738
1702055191557897200,19.514897216796875,0.4014911949634552,1.1640037298202515,0.5349652171134949
1702055191574892000,19.53189208984375,0.4210388660430908,1.1155925989151,0.48655417561531067
1702055191591886800,19.548886962890624,0.4239404797554016,1.0684033632278442,0.3243694305419922
1702055191608862500,19.565862548828125,0.3978259861469269,1.0658071041107178,0.13561208546161652
1702055191625876700,19.582876708984376,0.35659259557724,1.1508700847625732,-0.055741455405950546
1702055191642871000,19.59987109375,0.3165809214115143,1.2551753520965576,-0.24007004499435425
1702055191659865900,19.616865966796876,0.3081815242767334,1.3092368841171265,-0.34697145223617554
1702055191676860700,19.633860595703126,0.3520110845565796,1.3107640743255615,-0.3497203588485718
1702055191693855500,19.65085546875,0.4466952085494995,1.3200798034667969,-0.2571742534637451
1702055191710850300,19.667850341796875,0.5543602108955383,1.3179417848587036,-0.12263119965791702
1702055191727843800,19.68484375,0.6508769392967224,1.286634922027588,0.007177666760981083
1702055191744838100,19.701838134765627,0.7183775305747986,1.2205088138580322,0.11026117950677872
1702055191761820200,19.718820068359374,0.7590000629425049,1.1534663438796997,0.20143280923366547
1702055191778829300,19.735829345703124,0.7628179788589478,1.1395691633224487,0.28130343556404114
1702055191795823900,19.752823974609374,0.7525860071182251,1.156978726387024,0.308792382478714
1702055191812816400,19.76981640625,0.7493789196014404,1.1994339227676392,0.28069257736206055
1702055191829816000,19.786816162109375,0.7284567952156067,1.2386820316314697,0.23915374279022217
1702055191846808300,19.803808349609376,0.7060074806213379,1.2460123300552368,0.20372356474399567
1702055191863803100,19.82080322265625,0.6919575929641724,1.2084441184997559,0.17638733983039856
1702055191880797700,19.837797607421876,0.6837109327316284,1.155604362487793,0.14355333149433136
1702055191897792800,19.854792724609375,0.6820310354232788,1.1910345554351807,0.12507465481758118
1702055191914784800,19.87178466796875,0.6786713004112244,1.2695306539535522,0.11759155988693237
1702055191931784700,19.88878466796875,0.6717990636825562,1.3321443796157837,0.1359175145626068
1702055191948777000,19.90577685546875,0.6901249885559082,1.3642147779464722,0.20326541364192963
1702055191965771500,19.922771484375,0.7211264371871948,1.3435981273651123,0.2971859276294708
1702055191982763800,19.939763671875,0.7444919943809509,1.3003793954849243,0.39965859055519104
1702055191999763700,19.956763671875,0.7347181439399719,1.2759448289871216,0.4882340431213379
1702055192016756000,19.973755859375,0.7234171628952026,1.3026701211929321,0.5314527750015259
1702055192033750800,19.990750732421876,0.6956228017807007,1.3802499771118164,0.4812090992927551
1702055192050745600,20.00774560546875,0.6178901791572571,1.4909693002700806,0.3341432809829712
1702055192067740400,20.024740478515625,0.5148066878318787,1.560455322265625,0.13790282607078552
1702055192084735000,20.04173486328125,0.5404630303382874,1.6227635145187378,-0.044745877385139465
1702055192101729800,20.058729736328125,0.6863071322441101,1.680795669555664,-0.06658431142568588
1702055192118724600,20.075724609375,0.7846564054489136,1.6812539100646973,0.13515393435955048
1702055192135719400,20.092719482421874,0.7941248416900635,1.6174184083938599,0.4482223689556122
1702055192152714000,20.1097138671875,0.8057312369346619,1.5395331382751465,0.6869179606437683
1702055192169708800,20.126708740234374,0.8382598161697388,1.4996742010116577,0.7900014519691467
1702055192186703600,20.14370361328125,0.8510879874229431,1.4309518337249756,0.7948883771896362
1702055192203695900,20.16069580078125,0.82207190990448,1.3379476070404053,0.7663304209709167
1702055192220695800,20.17769580078125,0.765566885471344,1.2447906732559204,0.6837109327316284
1702055192237687800,20.194687744140627,0.6841690540313721,1.146135926246643,0.5267185568809509
1702055192254682600,20.2116826171875,0.6026185750961304,1.102611780166626,0.31322115659713745
1702055192271677400,20.228677490234375,0.5511531829833984,1.1607966423034668,0.09315694868564606
1702055192288672300,20.24567236328125,0.5242751240730286,1.284038782119751,-0.055741455405950546
1702055192305664500,20.26266455078125,0.5132794976234436,1.365131139755249,-0.08414668589830399
1702055192322664200,20.279664306640626,0.5250386595726013,1.3435981273651123,-0.002138028386980295
1702055192339656400,20.296656494140624,0.5603161454200745,1.2296717166900635,0.13469578325748444
1702055192356648700,20.313648681640625,0.574976921081543,1.0783299207687378,0.2768746614456177
1702055192373648600,20.330648681640625,0.5285511612892151,0.9772316813468933,0.399200439453125
1702055192390640600,20.347640625,0.47280970215797424,0.9993755221366882,0.4027129113674164
1702055192407635500,20.364635498046876,0.45433104038238525,1.1268936395645142,0.31261029839515686
1702055192424630300,20.38163037109375,0.4245513379573822,1.1491901874542236,0.19120082259178162
1702055192441614800,20.39861474609375,0.37827831506729126,1.0870347023010254,0.14049901068210602
1702055192458617000,20.4156171875,0.3507893681526184,1.021824836730957,0.14278975129127502
1702055192475617300,20.4326171875,0.3413209617137909,1.0169379711151123,0.1667662113904953
1702055192492598800,20.449598876953125,0.3222314119338989,1.0671815872192383,0.17608191072940826
1702055192509601000,20.46660107421875,0.29993483424186707,1.1093312501907349,0.14676037430763245
1702055192526599000,20.483598876953124,0.2871066629886627,1.11391282081604,0.08857546001672745
1702055192543593500,20.500593505859374,0.289244681596756,1.0758863687515259,0.04505131021142006
1702055192560588300,20.51758837890625,0.28909197449684143,1.0361801385879517,0.055741455405950546
1702055192577597000,20.534596923828126,0.2968805134296417,1.043968677520752,0.1088867336511612
1702055192594578000,20.551577880859377,0.30512720346450806,1.0636690855026245,0.1518000066280365
1702055192611574800,20.56857470703125,0.3010038435459137,1.0632109642028809,0.164170041680336
1702055192628565500,20.5855654296875,0.2658790946006775,1.0102183818817139,0.12461651116609573
1702055192645564000,20.60256396484375,0.22846360504627228,0.9915869832038879,0.04184427112340927
1702055192662557000,20.619556884765625,0.2076941877603531,1.0409144163131714,-0.04092797264456749
1702055192679550700,20.63655078125,0.2073887437582016,1.1267409324645996,-0.051312681287527084
1702055192696544800,20.653544677734374,0.2220495194196701,1.1462886333465576,0.03084869496524334
1702055192713544000,20.6705439453125,0.24113905429840088,1.0687087774276733,0.17531833052635193
1702055192730536000,20.687535888671874,0.2562579810619354,0.9764680862426758,0.2977968156337738
1702055192747530800,20.70453076171875,0.27351492643356323,0.9728028774261475,0.35781431198120117
1702055192764524300,20.721524169921874,0.290313720703125,1.0144944190979004,0.3017674386501312
1702055192781521700,20.738521728515625,0.2958115041255951,1.0100656747817993,0.166460782289505
1702055192798515000,20.755514892578127,0.2756529450416565,1.0036516189575195,0.03222314268350601
1702055192815509800,20.772509765625,0.251676470041275,1.0590876340866089,-0.018478672951459885
1702055192832504600,20.789504638671875,0.2590068578720093,1.1527026891708374,-0.012217304669320583
1702055192849499400,20.80649951171875,0.3095559775829315,1.1901181936264038,-0.008246680721640587
1702055192866494200,20.823494140625,0.34834590554237366,1.1562151908874512,-0.03344487398862839
1702055192883489000,20.840489013671874,0.34636059403419495,1.1271990537643433,-0.10644327104091644
1702055192900483600,20.857483642578124,0.35705074667930603,1.1928671598434448,-0.18280142545700073
1702055192917478400,20.874478515625,0.4066835343837738,1.3335188627243042,-0.197004035115242
1702055192934473200,20.89147314453125,0.47907108068466187,1.4219415187835693,-0.11484266817569733
1702055192951467800,20.9084677734375,0.5528330206871033,1.3622294664382935,0.0074830991216003895
1702055192968462600,20.925462646484377,0.633009135723114,1.274264931678772,0.11927144229412079
1702055192985457700,20.942457763671875,0.70692378282547,1.2220358848571777,0.18478673696517944
1702055193002452200,20.9594521484375,0.7582364678382874,1.197906732559204,0.20525072515010834
1702055193019447000,20.976447021484375,0.8020660877227783,1.2287554740905762,0.24144448339939117
1702055193036439000,20.99343896484375,0.8193230032920837,1.2901474237442017,0.29657506942749023
1702055193053436400,21.0104365234375,0.7967209815979004,1.274570345878601,0.3182607889175415
1702055193070416100,21.027416015625,0.7582364678382874,1.2128729820251465,0.31184670329093933
1702055193087423500,21.044423583984376,0.7179193496704102,1.2463178634643555,0.27000242471694946
1702055193104422700,21.061422607421875,0.6959282159805298,1.3672691583633423,0.20143280923366547
1702055193121416200,21.078416259765625,0.646295428276062,1.5265522003173828,0.1371392458677292
1702055193138410200,21.09541015625,0.6243042945861816,1.6409367322921753,0.12064588814973831
1702055193155400400,21.112400390625,0.6397286057472229,1.6004669666290283,0.16844609379768372
1702055193172399900,21.12939990234375,0.6598871946334839,1.482569932937622,0.2664899528026581
1702055193189394400,21.14639453125,0.6559165716171265,1.3892602920532227,0.36361753940582275
1702055193206389500,21.163389404296876,0.6495024561882019,1.3649784326553345,0.4236350357532501
1702055193223384000,21.180384033203126,0.6623306274414062,1.443169116973877,0.4082106947898865
1702055193240375800,21.197375732421875,0.6913467645645142,1.5771013498306274,0.327729195356369
1702055193257377000,21.214376953125,0.7115052938461304,1.5236506462097168,0.18631389737129211
1702055193274365700,21.23136572265625,0.7067710757255554,1.1953105926513672,-0.002138028386980295
1702055193291365600,21.24836572265625,0.6937901973724365,1.0903944969177246,-0.020005837082862854
1702055193308358000,21.26535791015625,0.7079927921295166,1.2780828475952148,0.15225815773010254
1702055193325352400,21.2823525390625,0.7861835956573486,1.4647021293640137,0.3833179473876953
1702055193342347500,21.299347412109373,0.8739954233169556,1.4857770204544067,0.5546656250953674
1702055193359342000,21.316342041015623,0.9175195693969727,1.3093897104263306,0.609338104724884
1702055193376337000,21.3333369140625,0.9289733171463013,1.0265589952468872,0.5676465034484863
1702055193393331700,21.350331787109376,0.8753699064254761,0.7761042714118958,0.475253164768219
1702055193410326800,21.367326904296874,0.7944302558898926,0.7261660695075989,0.38377609848976135
1702055193427310800,21.384310791015626,0.7267768979072571,0.8358163833618164,0.299018532037735
1702055193444313300,21.401313232421874,0.66584312915802,0.9995282292366028,0.24404066801071167
1702055193461313300,21.418313232421873,0.6091853380203247,1.1114692687988281,0.21762074530124664
