time,seconds_elapsed,z,y,x
1702057118881217800,0.0512177734375,0.1895209401845932,0.2252565622329712,0.08765916526317596
1702057118898240800,0.06824072265625,0.21105393767356873,0.20295998454093933,0.1316414624452591
1702057118915242500,0.085242431640625,0.22052235901355743,0.17867808043956757,0.15363261103630066
1702057118932237800,0.10223779296875,0.23686300218105316,0.19593502581119537,0.11453723162412643
1702057118949221000,0.11922119140625,0.27259862422943115,0.2768746614456177,0.05696318298578262
1702057118966223000,0.13622314453125,0.3061962127685547,0.2886338233947754,0.03573561832308769
1702057118983220200,0.15322021484375,0.3150537610054016,0.21609358489513397,0.07376197725534439
1702057119000212000,0.1702119140625,0.3263547718524933,0.1615738570690155,0.16920967400074005
1702057119017211100,0.187211181640625,0.36972618103027344,0.12171489745378494,0.24495697021484375
1702057119034197000,0.204197021484375,0.38606682419776917,0.164170041680336,0.31642818450927734
1702057119051198500,0.221198486328125,0.3842342495918274,0.25641068816185,0.37201693654060364
1702057119068181500,0.238181396484375,0.37400224804878235,0.3637702465057373,0.3949243724346161
1702057119085182000,0.255181884765625,0.4239404797554016,0.5908594131469727,0.3914119005203247
1702057119102179300,0.272179443359375,0.5445863604545593,0.7531968355178833,0.42439863085746765
1702057119119172900,0.2891728515625,0.5911648273468018,0.5871942043304443,0.5128213763237
1702057119136165400,0.306165283203125,0.5061018466949463,0.4108068645000458,0.6904304623603821
1702057119153162000,0.323161865234375,0.3628539443016052,0.40454551577568054,0.9027060866355896
1702057119170155300,0.3401552734375,0.3153591752052307,0.5447390675544739,1.0086911916732788
1702057119187151000,0.357151123046875,0.40744712948799133,0.7496843934059143,0.9320276379585266
1702057119204134000,0.3741337890625,0.5508477091789246,0.9083566069602966,0.7240280508995056
1702057119221149200,0.391149169921875,0.6488916277885437,0.9419541954994202,0.5329799056053162
1702057119238133500,0.408133544921875,0.6878342628479004,0.7260133624076843,0.4384485185146332
1702057119255123700,0.425123779296875,0.6404922008514404,0.5598580241203308,0.4427245855331421
1702057119272122400,0.442122314453125,0.5499314665794373,0.6172793507575989,0.5106833577156067
1702057119289116400,0.459116455078125,0.5792529582977295,0.9059131741523743,0.6046038866043091
1702057119306105300,0.476105224609375,0.6927211880683899,1.2999212741851807,0.6255260109901428
1702057119323103200,0.493103271484375,0.7437284588813782,1.4813482761383057,0.5125159621238708
1702057119340096800,0.5100966796875,0.708450973033905,1.3074043989181519,0.3222314119338989
1702057119357092600,0.527092529296875,0.6253733038902283,0.96883225440979,0.2122756689786911
1702057119374080500,0.54408056640625,0.6023131608963013,0.8242099285125732,0.2376265823841095
1702057119391081700,0.561081787109375,0.6771441102027893,0.873842716217041,0.3205515444278717
1702057119408075000,0.578074951171875,0.7434229850769043,1.1061242818832397,0.3827070891857147
1702057119425069600,0.595069580078125,0.7197519540786743,1.2467759847640991,0.3393356502056122
1702057119442062300,0.612062255859375,0.6659958362579346,1.170875906944275,0.19807305932044983
1702057119459056400,0.629056396484375,0.6470590233802795,1.027475357055664,0.07376197725534439
1702057119476047600,0.646047607421875,0.6630942225456238,0.8174903988838196,0.02886338345706463
1702057119493044700,0.663044677734375,0.6817256212234497,0.6919575929641724,0.011453723534941673
1702057119510039600,0.68003955078125,0.6966918110847473,0.8294022679328918,-0.005803219974040985
1702057119527033300,0.697033447265625,0.6766859889030457,1.1023063659667969,0.010995574295520782
1702057119544026400,0.7140263671875,0.6041457056999207,1.2331842184066772,0.022449297830462456
1702057119561021200,0.731021240234375,0.5477933883666992,1.3151928186416626,0.022907447069883347
1702057119578016500,0.7480166015625,0.5343543887138367,1.2924381494522095,0.00733038317412138
1702057119595006700,0.7650068359375,0.5496259927749634,1.1244502067565918,-0.021838432177901268
1702057119612003600,0.782003662109375,0.5674937963485718,0.9210320711135864,-0.05390885844826698
1702057119628998700,0.79899853515625,0.5361869931221008,0.801913321018219,-0.059406645596027374
1702057119645989400,0.8159892578125,0.4720461070537567,0.8301658630371094,-0.022143865004181862
1702057119662984000,0.83298388671875,0.4508185386657715,0.9929614663124084,0.039706241339445114
1702057119679982600,0.849982666015625,0.48380526900291443,1.1171197891235352,0.09911288321018219
1702057119696976000,0.866975830078125,0.5412266254425049,1.1612548828125,0.1293507218360901
1702057119713965800,0.8839658203125,0.5890268087387085,1.071763038635254,0.11468994617462158
1702057119730962400,0.90096240234375,0.5754350423812866,0.940121591091156,0.10583240538835526
1702057119747948000,0.917947998046875,0.5296201705932617,0.8126034736633301,0.058337632566690445
1702057119764948500,0.934948486328125,0.47769662737846375,0.7050912380218506,-0.032528575509786606
1702057119781945000,0.951945068359375,0.461355984210968,0.8014551997184753,-0.08399397134780884
1702057119798935300,0.968935302734375,0.47540587186813354,0.9963212013244629,-0.03039054572582245
1702057119815931000,0.985930908203125,0.5338962078094482,1.2128729820251465,0.10002918541431427
1702057119832926000,1.002926025390625,0.589179515838623,1.2374602556228638,0.18799377977848053
1702057119849923800,1.019923828125,0.6281222105026245,1.028544306755066,0.21365012228488922
1702057119866917600,1.036917724609375,0.623235285282135,0.8165740966796875,0.25931230187416077
1702057119883910000,1.053909912109375,0.5913175344467163,0.8153523802757263,0.28267788887023926
1702057119900901600,1.070901611328125,0.5884159207344055,0.9702067375183105,0.19135354459285736
1702057119917882000,1.087882080078125,0.6122397184371948,1.104138970375061,0.019547687843441963
1702057119934890000,1.104889892578125,0.631481945514679,1.062294602394104,-0.12553280591964722
1702057119951884800,1.121884765625,0.6349944472312927,0.893390417098999,-0.14706580340862274
1702057119968884200,1.13888427734375,0.6229298114776611,0.7877107262611389,-0.05451972410082817
1702057119985872400,1.155872314453125,0.6162103414535522,0.8651378750801086,0.05757404863834381
1702057120002869800,1.172869873046875,0.6388123035430908,1.0071641206741333,0.12950342893600464
1702057120019863300,1.18986328125,0.6933320760726929,1.0775662660598755,0.17669276893138885
1702057120036871200,1.20687109375,0.7341073155403137,1.0853548049926758,0.23182335495948792
1702057120053849000,1.22384912109375,0.7631233930587769,1.0661125183105469,0.29657506942749023
1702057120070845700,1.240845703125,0.8057312369346619,1.00197172164917,0.34987306594848633
1702057120087841500,1.257841552734375,0.8289441466331482,0.9279043078422546,0.3878994286060333
1702057120104818200,1.274818115234375,0.8257371187210083,0.9001099467277527,0.3689626157283783
1702057120121826300,1.291826416015625,0.7733554244041443,0.9098837971687317,0.31322115659713745
1702057120138825700,1.30882568359375,0.7099781036376953,0.9654725193977356,0.24862214922904968
1702057120155814000,1.32581396484375,0.6801984310150146,1.055269718170166,0.1869247704744339
1702057120172811300,1.342811279296875,0.6707300543785095,1.1522445678710938,0.14676037430763245
1702057120189804800,1.3598046875,0.6698137521743774,1.1798862218856812,0.13118331134319305
1702057120206801000,1.37680078125,0.6979135274887085,1.1523972749710083,0.13377949595451355
1702057120223790600,1.39379052734375,0.7698429226875305,1.1354458332061768,0.1612684279680252
1702057120240787200,1.410787109375,0.8338310718536377,1.2008084058761597,0.22540926933288574
1702057120257784600,1.42778466796875,0.8565858006477356,1.2371548414230347,0.32788193225860596
1702057120274771700,1.444771728515625,0.8998045325279236,1.2337950468063354,0.4331034719944
1702057120291769900,1.461769775390625,0.9489791393280029,1.2539535760879517,0.5114469528198242
1702057120308755200,1.478755126953125,0.9468411207199097,1.2796099185943604,0.5181664228439331
1702057120325751600,1.49575146484375,0.8952230215072632,1.268614411354065,0.4479169547557831
1702057120342757000,1.512757080078125,0.841619610786438,1.2202032804489136,0.2877175211906433
1702057120359752000,1.529751953125,0.7922922372817993,1.160033106803894,0.10155634582042694
1702057120376745200,1.5467451171875,0.7444919943809509,1.1546880006790161,0.004581489134579897
1702057120393731600,1.563731689453125,0.7249443531036377,1.2487612962722778,0.05207626149058342
1702057120410729000,1.58072900390625,0.7560984492301941,1.4401148557662964,0.17287486791610718
1702057120427715000,1.597715087890625,0.8061894178390503,1.520138144493103,0.23625212907791138
1702057120444714800,1.61471484375,0.8445212244987488,1.4489723443984985,0.24938572943210602
1702057120461711400,1.63171142578125,0.88361656665802,1.3144292831420898,0.294437050819397
1702057120478709000,1.648708984375,0.9335548281669617,1.1794281005859375,0.4069889783859253
1702057120495695600,1.665695556640625,0.9668469429016113,1.0787880420684814,0.5775730609893799
1702057120512694800,1.68269482421875,0.9886853694915771,1.0708467960357666,0.6754642724990845
1702057120529687800,1.699687744140625,0.9892962574958801,1.07771897315979,0.6154467463493347
1702057120546681300,1.716681396484375,0.9327912330627441,1.0277807712554932,0.44806966185569763
1702057120563676400,1.733676513671875,0.7971791625022888,0.9384417533874512,0.2672535479068756
1702057120580670500,1.75067041015625,0.6633996367454529,0.8713992834091187,0.12400564551353455
1702057120597666300,1.767666259765625,0.5641340613365173,0.8839219808578491,0.021991148591041565
1702057120614656500,1.784656494140625,0.4786129295825958,0.993725061416626,-0.041233405470848083
1702057120631652900,1.80165283203125,0.40973785519599915,1.1804970502853394,-0.019089538604021072
1702057120648649000,1.81864892578125,0.37751471996307373,1.265865445137024,0.04046982154250145
1702057120665639000,1.835638916015625,0.40103304386138916,1.28128981590271,0.08200865983963013
1702057120682636300,1.85263623046875,0.4628831446170807,1.229824423789978,0.09728029370307922
1702057120699627800,1.869627685546875,0.5062545537948608,1.1421653032302856,0.13744467496871948
1702057120716627200,1.886627197265625,0.5161811113357544,1.0690141916275024,0.19379699230194092
1702057120733615600,1.90361572265625,0.4836525619029999,1.0693196058273315,0.23655757308006287
1702057120750621200,1.92062109375,0.44089198112487793,1.1154398918151855,0.24663683772087097
1702057120767620000,1.9376201171875,0.42500948905944824,1.1927143335342407,0.24556782841682434
1702057120784594200,1.95459423828125,0.43386703729629517,1.2498302459716797,0.24755313992500305
1702057120801591300,1.97159130859375,0.408974289894104,1.243721604347229,0.25534167885780334
1702057120818584000,1.988583984375,0.3449861407279968,1.2220358848571777,0.23273965716362
1702057120835583700,2.005583740234375,0.2877175211906433,1.1670581102371216,0.12965615093708038
1702057120852581400,2.022581298828125,0.2370157092809677,1.1088731288909912,-0.005345070734620094
1702057120869574100,2.03957421875,0.2021963894367218,1.149037480354309,-0.06933320313692093
1702057120886567700,2.056567626953125,0.2451096773147583,1.2599095106124878,-0.04138612002134323
1702057120903557000,2.07355712890625,0.34773504734039307,1.2780828475952148,0.03649919852614403
1702057120920553700,2.0905537109375,0.45173484086990356,1.2098186016082764,0.14828753471374512
1702057120937549600,2.107549560546875,0.5079344511032104,1.135140299797058,0.2154827117919922
1702057120954537000,2.124536865234375,0.5308418869972229,1.1684324741363525,0.17730364203453064
1702057120971524400,2.1415244140625,0.5580254197120667,1.2385293245315552,0.04596760869026184
1702057120988530000,2.158530029296875,0.6146831512451172,1.2400563955307007,-0.09224065393209457
1702057121005517300,2.175517333984375,0.6829473376274109,1.1997393369674683,-0.156686931848526
1702057121022519300,2.192519287109375,0.7350236177444458,1.2078332901000977,-0.09636399149894714
1702057121039512800,2.209512939453125,0.783892810344696,1.2831224203109741,0.035124752670526505
1702057121056500500,2.22650048828125,0.8295549750328064,1.3907874822616577,0.14126259088516235
1702057121073499600,2.243499755859375,0.8712465763092041,1.38849675655365,0.1765400618314743
1702057121090495200,2.2604951171875,0.921795666217804,1.3055717945098877,0.1915062516927719
1702057121107491300,2.2774912109375,0.9702067375183105,1.2489140033721924,0.2557998299598694
1702057121124481300,2.294481201171875,0.993114173412323,1.2563971281051636,0.3562871515750885
1702057121141477600,2.3114775390625,0.9842566251754761,1.306488037109375,0.4303545653820038
1702057121158473500,2.328473388671875,0.9787588119506836,1.3603968620300293,0.4492913782596588
1702057121175461000,2.345461181640625,0.9821186065673828,1.3941471576690674,0.4046982228755951
1702057121192463600,2.362463623046875,0.9645562171936035,1.405295491218567,0.30054569244384766
1702057121209444000,2.379444091796875,0.9010262489318848,1.3906347751617432,0.1592831164598465
1702057121226450200,2.3964501953125,0.851393461227417,1.4285084009170532,0.04001167416572571
1702057121243440400,2.4134404296875,0.8298604488372803,1.5448782444000244,-0.008704829961061478
1702057121260436700,2.430436767578125,0.8643743395805359,1.694692850112915,-0.010842857882380486
1702057121277432800,2.447432861328125,0.9396634697914124,1.7434093952178955,0.03695734590291977
1702057121294422800,2.4644228515625,1.0163270235061646,1.6754506826400757,0.15057829022407532
1702057121311419400,2.48141943359375,1.0737483501434326,1.6058119535446167,0.26679539680480957
1702057121328415500,2.49841552734375,1.1045970916748047,1.6064229011535645,0.33017265796661377
1702057121345405200,2.5154052734375,1.1134545803070068,1.6910277605056763,0.3124575614929199
1702057121362402800,2.53240283203125,1.125366449356079,1.7145460844039917,0.1918116807937622
1702057121379396000,2.54939599609375,1.1273517608642578,1.624901533126831,0.024434609338641167
1702057121396391700,2.5663916015625,1.1158981323242188,1.4921910762786865,-0.09941831976175308
1702057121413382000,2.5833818359375,1.1239920854568481,1.461495041847229,-0.058795779943466187
1702057121430378800,2.600378662109375,1.146135926246643,1.5357152223587036,0.15592335164546967
1702057121447360500,2.617360595703125,1.1924089193344116,1.6090190410614014,0.41431936621665955
1702057121464366000,2.634365966796875,1.2221885919570923,1.5598443746566772,0.5804746747016907
1702057121481361000,2.65136083984375,1.2072224617004395,1.4065172672271729,0.5864306092262268
1702057121498357500,2.668357421875,1.147357702255249,1.2592986822128296,0.4625777006149292
1702057121515342800,2.6853427734375,1.0563386678695679,1.1921035051345825,0.29138273000717163
1702057121532345600,2.702345703125,0.987463653087616,1.2260065078735352,0.16035212576389313
1702057121549338400,2.71933837890625,0.9341656565666199,1.2539535760879517,0.11835514008998871
1702057121566363100,2.736363037109375,0.8668177723884583,1.182482361793518,0.14019356667995453
1702057121583332000,2.75333203125,0.7652614116668701,1.0656543970108032,0.1472185254096985
1702057121600309200,2.770309326171875,0.6418666839599609,1.0231993198394775,0.10644327104091644
1702057121617313300,2.787313232421875,0.5455026626586914,1.1453723907470703,0.06887505948543549
1702057121634307300,2.804307373046875,0.49128836393356323,1.3669637441635132,0.07819075137376785
1702057121651300400,2.82130029296875,0.49205195903778076,1.5036448240280151,0.16951510310173035
1702057121668296400,2.83829638671875,0.5183191895484924,1.4298827648162842,0.29077184200286865
1702057121685281800,2.85528173828125,0.5233588218688965,1.2539535760879517,0.44058656692504883
1702057121702283500,2.872283447265625,0.5222898125648499,1.0700831413269043,0.5589417219161987
1702057121719277000,2.889277099609375,0.49128836393356323,1.036943793296814,0.5874996781349182
1702057121736273700,2.906273681640625,0.46547931432724,1.1582005023956299,0.5392413139343262
1702057121753271000,2.92327099609375,0.4683809280395508,1.3045027256011963,0.46731191873550415
1702057121770262500,2.940262451171875,0.4944954216480255,1.3238977193832397,0.403323769569397
1702057121787258400,2.95725830078125,0.4957171380519867,1.2110403776168823,0.3433062732219696
1702057121804247800,2.974247802734375,0.41401392221450806,1.0879509449005127,0.2880229651927948
1702057121821244000,2.991243896484375,0.32100969552993774,1.0488556623458862,0.1537853181362152
1702057121838240000,3.008239990234375,0.29306259751319885,1.1238393783569336,-0.03298672288656235
1702057121855230200,3.025230224609375,0.3315471112728119,1.250288486480713,-0.11041389405727386
1702057121872227300,3.042227294921875,0.3975205719470978,1.3100005388259888,-0.013897184282541275
1702057121889221000,3.05922119140625,0.4492913782596588,1.2460123300552368,0.15042556822299957
1702057121906213400,3.07621337890625,0.46593746542930603,1.1090258359909058,0.2070833146572113
1702057121923207400,3.09320751953125,0.4619668424129486,1.0952813625335693,0.12171489745378494
1702057121940205800,3.110205810546875,0.4424191415309906,1.2035572528839111,-0.01572977937757969
1702057121957199000,3.12719921875,0.46639561653137207,1.3310753107070923,-0.11194105446338654
1702057121974192600,3.144192626953125,0.5480988621711731,1.3344351053237915,-0.13209961354732513
1702057121991176200,3.16117626953125,0.6288857460021973,1.1873693466186523,-0.07101308554410934
1702057122008181000,3.178180908203125,0.6710354685783386,1.0528262853622437,0.051312681287527084
1702057122025175000,3.195175048828125,0.6598871946334839,1.1004737615585327,0.14355333149433136
1702057122042169300,3.21216943359375,0.6507241725921631,1.325730323791504,0.18509216606616974
1702057122059156500,3.229156494140625,0.669966459274292,1.5096007585525513,0.21502456068992615
1702057122076149000,3.24614892578125,0.7235698699951172,1.500590443611145,0.2715296149253845
1702057122093143800,3.263143798828125,0.793361246585846,1.3454307317733765,0.3423899710178375
1702057122110145800,3.280145751953125,0.8506298661231995,1.1827877759933472,0.40393465757369995
1702057122127140000,3.29714013671875,0.8833111524581909,1.108262300491333,0.43967026472091675
1702057122144134100,3.314134033203125,0.8520042896270752,1.1145236492156982,0.43799036741256714
1702057122161128200,3.331128173828125,0.8147414922714233,1.198823094367981,0.3741549551486969
1702057122178122500,3.34812255859375,0.792750358581543,1.3297009468078613,0.2742784917354584
1702057122195116500,3.365116455078125,0.7826710939407349,1.3964380025863647,0.1892155110836029
1702057122212110800,3.38211083984375,0.7831292152404785,1.3382530212402344,0.1598939746618271
1702057122229105000,3.39910498046875,0.7883216142654419,1.289536476135254,0.17867808043956757
1702057122246099200,3.41609912109375,0.7906123399734497,1.3797918558120728,0.22327125072479248
1702057122263093200,3.43309326171875,0.8109236359596252,1.522887110710144,0.29138273000717163
1702057122280087600,3.450087646484375,0.8723155856132507,1.6449073553085327,0.3442225754261017
1702057122297074400,3.467074462890625,0.9447031021118164,1.6326900720596313,0.3530801236629486
1702057122314071000,3.484071044921875,0.9891435503959656,1.4666874408721924,0.3321579694747925
1702057122331072500,3.501072509765625,0.9654725193977356,1.3141238689422607,0.3000875413417816
1702057122348064300,3.518064208984375,0.8958339095115662,1.3104586601257324,0.23640485107898712
1702057122365058000,3.53505810546875,0.8199338912963867,1.4509576559066772,0.14767667651176453
1702057122382041900,3.552041748046875,0.7698429226875305,1.6099354028701782,0.08475755155086517
1702057122399046700,3.569046630859375,0.7590000629425049,1.7353154420852661,0.1598939746618271
1702057122416040700,3.586040771484375,0.7896960377693176,1.7715091705322266,0.3153591752052307
1702057122433034800,3.60303466796875,0.8423831462860107,1.6939293146133423,0.44165557622909546
1702057122450029000,3.620029052734375,0.8584184050559998,1.5752687454223633,0.5019785165786743
1702057122467023000,3.637023193359375,0.8434522151947021,1.483791708946228,0.5057964324951172
1702057122484008400,3.654008544921875,0.8174903988838196,1.4694362878799438,0.4282165467739105
1702057122501011500,3.671011474609375,0.8023715019226074,1.4734070301055908,0.3127630054950714
1702057122518005500,3.688005615234375,0.8052731156349182,1.4989105463027954,0.22815817594528198
1702057122535000000,3.705,0.8045095205307007,1.4372131824493408,0.19379699230194092
1702057122551994000,3.721994140625,0.7707592248916626,1.231351613998413,0.19043724238872528
1702057122568988200,3.73898828125,0.6873761415481567,1.0468703508377075,0.21273382008075714
1702057122585982500,3.755982421875,0.6020076870918274,1.085965633392334,0.25992316007614136
1702057122602976300,3.772976318359375,0.5462662577629089,1.2930489778518677,0.26603180170059204
1702057122619970600,3.789970458984375,0.531758189201355,1.5175420045852661,0.19547687470912933
1702057122636942800,3.80694287109375,0.5392413139343262,1.5415184497833252,0.08429940044879913
1702057122653961200,3.823961181640625,0.5135849714279175,1.3946053981781006,0.1007927656173706
1702057122670953000,3.840952880859375,0.4369213581085205,1.1977540254592896,0.29306259751319885
1702057122687954400,3.857954345703125,0.4011857509613037,1.1441506147384644,0.5138903856277466
1702057122704941600,3.874941650390625,0.399200439453125,1.220050573348999,0.6157521605491638
1702057122721935600,3.891935546875,0.3773620128631592,1.3022119998931885,0.5549710988998413
1702057122738929700,3.9089296875,0.3130684494972229,1.3293955326080322,0.38988474011421204
1702057122755924000,3.925924072265625,0.24862214922904968,1.3058772087097168,0.20616702735424042
1702057122772907800,3.94290771484375,0.20891591906547546,1.2446379661560059,0.10125091671943665
1702057122789909800,3.95990966796875,0.21013765037059784,1.2388347387313843,0.0835358202457428
1702057122806909200,3.9769091796875,0.2503020465373993,1.3009902238845825,0.12446379661560059
1702057122823900700,3.993900634765625,0.285121351480484,1.3098478317260742,0.19532416760921478
1702057122840894700,4.010894775390625,0.30085113644599915,1.2105822563171387,0.21303924918174744
1702057122857889000,4.027888916015625,0.3130684494972229,1.0952813625335693,0.13225232064723969
1702057122874882800,4.0448828125,0.32070425152778625,1.0780243873596191,-0.013591751456260681
1702057122891874600,4.06187451171875,0.3199406862258911,1.155909776687622,-0.11530081182718277
1702057122908874200,4.078874267578125,0.3248275816440582,1.2986994981765747,-0.10064005106687546
1702057122925865700,4.09586572265625,0.36102136969566345,1.4123204946517944,0.012828170321881771
1702057122942859500,4.112859619140625,0.4156937897205353,1.3041973114013672,0.1342376321554184
1702057122959853800,4.129853759765625,0.44394633173942566,1.1035280227661133,0.21533000469207764
1702057122976848000,4.146847900390625,0.44425174593925476,1.0464121103286743,0.1963931769132614
1702057122993839400,4.16383935546875,0.413555771112442,1.2014192342758179,0.0936150997877121
1702057123010839000,4.180839111328125,0.36132678389549255,1.3904820680618286,-0.07483099400997162
1702057123027830500,4.19783056640625,0.34666603803634644,1.4257594347000122,-0.2652682363986969
1702057123044824600,4.214824462890625,0.3649919927120209,1.2646437883377075,-0.39813143014907837
1702057123061819000,4.23181884765625,0.43417248129844666,1.1757628917694092,-0.40912699699401855
1702057123078813000,4.24881298828125,0.5453499555587769,1.243721604347229,-0.2788599729537964
1702057123095806200,4.26580615234375,0.6482807397842407,1.397354245185852,-0.029626963660120964
1702057123112802300,4.28280224609375,0.7020368576049805,1.4756977558135986,0.18799377977848053
1702057123129795600,4.299795654296875,0.7394523620605469,1.4495831727981567,0.2739730477333069
1702057123146789600,4.31678955078125,0.790154218673706,1.3811663389205933,0.2545780837535858
1702057123163773700,4.333773681640625,0.8358163833618164,1.3494013547897339,0.2483167201280594
1702057123180778000,4.350778076171875,0.8608618378639221,1.4430164098739624,0.31031954288482666
1702057123197769500,4.36776953125,0.8576548099517822,1.5541938543319702,0.35353827476501465
1702057123214769000,4.384768798828125,0.8674286603927612,1.5722143650054932,0.33047810196876526
1702057123231750000,4.40175,0.9286679029464722,1.589929461479187,0.29077184200286865
1702057123248754700,4.418754638671875,1.0067058801651,1.6097826957702637,0.2952006161212921
1702057123265748700,4.435748779296875,1.0525208711624146,1.5945110321044922,0.342695415019989
1702057123282742800,4.45274267578125,1.0797042846679688,1.5777121782302856,0.3404046595096588
1702057123299737000,4.469737060546875,1.0852020978927612,1.507768154144287,0.25442537665367126
1702057123316722700,4.48672265625,1.0900890827178955,1.3967434167861938,0.1258382350206375
1702057123333725200,4.50372509765625,1.068861484527588,1.3190107345581055,0.041691552847623825
1702057123350719500,4.520719482421875,1.0199922323226929,1.3545936346054077,0.07330382615327835
1702057123367713800,4.5377138671875,0.987463653087616,1.4592043161392212,0.19364428520202637
1702057123384707800,4.554707763671875,1.0283915996551514,1.6061174869537354,0.37491855025291443
1702057123401702000,4.571701904296875,1.0867292881011963,1.6380351781845093,0.5418374538421631
1702057123418693600,4.588693603515625,1.0749701261520386,1.4504995346069336,0.65958172082901
1702057123435693000,4.605693115234375,0.993114173412323,1.1679743528366089,0.6670648455619812
1702057123452684500,4.6226845703125,0.8772025108337402,1.0212140083312988,0.5288565754890442
1702057123469678600,4.6396787109375,0.7742717266082764,1.0520626306533813,0.3367394804954529
1702057123486673000,4.6566728515625,0.6681338548660278,1.1498011350631714,0.19349156320095062
1702057123503667000,4.6736669921875,0.5503895878791809,1.204779028892517,0.13469578325748444
1702057123520661000,4.690660888671875,0.4079052805900574,1.1582005023956299,0.15760323405265808
1702057123537655300,4.7076552734375,0.30283644795417786,1.1255191564559937,0.18784105777740479
1702057123554645800,4.724645751953125,0.23976461589336395,1.1895073652267456,0.15363261103630066
1702057123571643600,4.7416435546875,0.19914206862449646,1.3284791707992554,0.10506882518529892
1702057123588638000,4.758637939453125,0.20326541364192963,1.4388930797576904,0.09789115190505981
1702057123605621200,4.775621337890625,0.24526239931583405,1.4414892196655273,0.14233160018920898
1702057123622626300,4.792626220703125,0.29245173931121826,1.35535728931427,0.2096794992685318
1702057123639620400,4.809620361328125,0.3312416672706604,1.2264647483825684,0.24098633229732513
1702057123656614400,4.826614501953125,0.33796119689941406,1.1418598890304565,0.21365012228488922
1702057123673608700,4.843608642578125,0.32788193225860596,1.1658363342285156,0.13439035415649414
1702057123690602800,4.860602783203125,0.31932979822158813,1.1794281005859375,0.041233405470848083
1702057123707597000,4.87759716796875,0.3058907687664032,1.1856894493103027,-0.01114829070866108
1702057123724591000,4.894591064453125,0.3130684494972229,1.2522737979888916,-0.00015271631127689034
1702057123741585200,4.911585205078125,0.3170390725135803,1.273043155670166,-0.008857546374201775
1702057123758579500,4.928579345703125,0.32391130924224854,1.1782063245773315,-0.10125091671943665
1702057123775573800,4.94557373046875,0.32650747895240784,1.0566442012786865,-0.23900102078914642
1702057123792567800,4.96256787109375,0.3162754774093628,1.0286970138549805,-0.26313021779060364
1702057123809561900,4.979561767578125,0.3381139039993286,1.207680583000183,-0.07559457421302795
1702057123826556200,4.99655615234375,0.3764457106590271,1.4567608833312988,0.28206703066825867
1702057123843548000,5.0135478515625,0.4570799171924591,1.6223053932189941,0.6623306274414062
1702057123860546800,5.030546875,0.526107668876648,1.536631464958191,0.8064948320388794
1702057123877539800,5.047539794921875,0.5401576161384583,1.2785409688949585,0.6721044778823853
1702057123894531600,5.064531494140625,0.49525898694992065,1.0998629331588745,0.37568211555480957
1702057123911527000,5.08152685546875,0.461355984210968,1.1189523935317993,0.07513642311096191
1702057123928521000,5.09852099609375,0.4619668424129486,1.2637274265289307,-0.11224649101495743
1702057123945504800,5.1155048828125,0.4804455041885376,1.3290899991989136,-0.2096794992685318
1702057123962509300,5.13250927734375,0.4821254014968872,1.220050573348999,-0.26221391558647156
1702057123979503600,5.149503662109375,0.45631635189056396,1.1924089193344116,-0.25182920694351196
1702057123996497700,5.16649755859375,0.4766276180744171,1.3487904071807861,-0.19379699230194092
1702057124013492000,5.183491943359375,0.5766568183898926,1.5068517923355103,-0.08216137439012527
1702057124030483700,5.200483642578125,0.6806566119194031,1.5293011665344238,0.05604688450694084
1702057124047483000,5.21748291015625,0.7370089292526245,1.4219415187835693,0.20295998454093933
1702057124064474400,5.234474365234375,0.759916365146637,1.2846496105194092,0.3101668357849121
1702057124081468400,5.251468505859375,0.7504479289054871,1.2198978662490845,0.3292563557624817
1702057124098462700,5.268462646484375,0.6907358765602112,1.1939361095428467,0.25442537665367126
1702057124115456800,5.285456787109375,0.6163630485534668,1.277471899986267,0.14828753471374512
1702057124132451000,5.302451171875,0.5641340613365173,1.3710870742797852,0.0679587572813034
1702057124149445000,5.319445068359375,0.5535966157913208,1.3990341424942017,0.029474247246980667
1702057124166442800,5.33644287109375,0.5624541640281677,1.3900238275527954,0.015882495790719986
1702057124183430100,5.35343017578125,0.5574145317077637,1.3515393733978271,0.018936822190880775
1702057124200427500,5.370427490234375,0.5603161454200745,1.3213015794754028,0.03588833287358284
1702057124217421800,5.387421875,0.6140722632408142,1.4167492389678955,0.08048149943351746
1702057124234415900,5.404415771484375,0.7000515460968018,1.4989105463027954,0.1771509200334549
1702057124251410200,5.42141015625,0.7635815739631653,1.5557210445404053,0.33475416898727417
1702057124268406800,5.43840673828125,0.7825183868408203,1.5531249046325684,0.4340197443962097
1702057124285396200,5.455396240234375,0.7767151594161987,1.4874569177627563,0.395077109336853
1702057124302391000,5.47239111328125,0.7707592248916626,1.406822681427002,0.22067506611347198
1702057124319388700,5.489388671875,0.7336491346359253,1.309084177017212,-0.010537425056099892
1702057124336366000,5.506365966796875,0.6725626587867737,1.277166485786438,-0.1088867336511612
1702057124353375200,5.523375244140625,0.6322455406188965,1.4327844381332397,-0.05161811411380768
1702057124370369300,5.540369384765625,0.6487388610839844,1.6563611030578613,0.1362229436635971
1702057124387363600,5.557363525390625,0.7292203903198242,1.733482837677002,0.37430769205093384
1702057124404359000,5.57435888671875,0.8098546266555786,1.6184874773025513,0.5612324476242065
1702057124421342000,5.591342041015625,0.8425359129905701,1.4008667469024658,0.6659958362579346
1702057124438329000,5.6083291015625,0.8219192028045654,1.1910345554351807,0.6583600044250488
1702057124455340000,5.625340087890625,0.8174903988838196,1.074512004852295,0.5218316316604614
1702057124472334000,5.642333984375,0.7825183868408203,1.123533844947815,0.347276896238327
1702057124489328400,5.659328369140625,0.716697633266449,1.1491901874542236,0.1921171247959137
1702057124506322700,5.67632275390625,0.6467535495758057,1.1276572942733765,0.076052725315094
1702057124523314200,5.693314208984375,0.5694791078567505,1.021519422531128,0.0377209298312664
1702057124540312600,5.7103125,0.5210680365562439,0.9243918061256409,0.09728029370307922
1702057124557295900,5.7272958984375,0.47311514616012573,0.8295549750328064,0.14752395451068878
1702057124574299100,5.744299072265625,0.4236350357532501,0.8678867816925049,0.13866640627384186
1702057124591284500,5.761284423828125,0.3982841372489929,1.0057896375656128,0.08628471940755844
1702057124608287700,5.778287841796875,0.39706242084503174,1.1226176023483276,0.07742717117071152
1702057124625286000,5.795285888671875,0.36621370911598206,1.1808024644851685,0.13118331134319305
1702057124642273300,5.812273193359375,0.3309362530708313,1.1815661191940308,0.152105450630188
1702057124659272700,5.829272705078125,0.3110831379890442,1.1259773969650269,0.0884227454662323
1702057124676264200,5.84626416015625,0.29336804151535034,1.049924612045288,0.02275473065674305
1702057124693258200,5.86325830078125,0.2692388594150543,0.9527970552444458,0.020463986322283745
1702057124710252500,5.88025244140625,0.22159136831760406,0.946382999420166,0.12293662875890732
1702057124727236400,5.897236328125,0.164170041680336,1.038318157196045,0.17440202832221985
1702057124744241000,5.914240966796875,0.1316414624452591,1.1285735368728638,0.06719517707824707
1702057124761235000,5.93123486328125,0.12919799983501434,1.1081095933914185,-0.14676037430763245
1702057124778229200,5.948229248046875,0.15775595605373383,1.0195341110229492,-0.24556782841682434
1702057124795223300,5.965223388671875,0.21578814089298248,0.9970847964286804,-0.06750060617923737
1702057124812217600,5.982217529296875,0.25213462114334106,1.116508960723877,0.3065016269683838
1702057124829211600,5.999211669921875,0.24648413062095642,1.2293663024902344,0.654542088508606
1702057124846205700,6.016205810546875,0.24694228172302246,1.205847978591919,0.7052439451217651
1702057124863200000,6.033199951171875,0.2606867551803589,1.122464895248413,0.5102251768112183
1702057124880194000,6.050194091796875,0.20204368233680725,0.9737191796302795,0.20066922903060913
1702057124897188400,6.067188232421875,0.14019356667995453,0.8669704794883728,-0.04932736977934837
1702057124914179800,6.084179931640625,0.10735956579446793,0.8440630435943604,-0.21288654208183289
1702057124931179300,6.10117919921875,0.08903361111879349,0.82207190990448,-0.365755558013916
1702057124948170800,6.118170654296875,0.08399397134780884,0.7895433306694031,-0.47937649488449097
1702057124965164800,6.135164794921875,0.13545936346054077,0.8746063113212585,-0.4424191415309906
1702057124982159000,6.1521591796875,0.2574796974658966,1.0832167863845825,-0.22999076545238495
1702057124999153400,6.1691533203125,0.4291328489780426,1.2278391122817993,0.06017022579908371
1702057125016147200,6.186147216796875,0.5769622325897217,1.1467467546463013,0.2922990322113037
1702057125033141500,6.2031416015625,0.6682865619659424,0.9642508029937744,0.39874228835105896
1702057125050133800,6.2201337890625,0.7073819637298584,0.8399397134780884,0.3985895812511444
1702057125067121400,6.237121337890625,0.7057020664215088,0.8216137290000916,0.35811975598335266
1702057125084124200,6.254124267578125,0.6618725061416626,0.8956811428070068,0.31520646810531616
1702057125101116400,6.271116455078125,0.5818491578102112,1.0322095155715942,0.2551889419555664
1702057125118108400,6.2881083984375,0.5183191895484924,1.1136072874069214,0.1569923609495163
1702057125135105800,6.305105712890625,0.4876231849193573,1.1226176023483276,0.06704246252775192
1702057125152100900,6.322100830078125,0.46211954951286316,1.0798569917678833,0.04612032696604729
1702057125169095000,6.339094970703125,0.4502076804637909,1.0653489828109741,0.07910704612731934
1702057125186089000,6.3560888671875,0.46593746542930603,1.1030699014663696,0.11224649101495743
1702057125203083300,6.373083251953125,0.47830748558044434,1.191950798034668,0.144622340798378
1702057125220077300,6.390077392578125,0.5209153294563293,1.2667818069458008,0.16401731967926025
1702057125237071600,6.407071533203125,0.5952881574630737,1.2571606636047363,0.16951510310173035
1702057125254063000,6.42406298828125,0.646295428276062,1.2402092218399048,0.18249599635601044
1702057125271056000,6.441055908203125,0.6597344875335693,1.182176947593689,0.12889257073402405
1702057125288056300,6.458056396484375,0.6470590233802795,1.1145236492156982,0.016798794269561768
1702057125305045800,6.475045654296875,0.641255795955658,1.0958921909332275,-0.098502017557621
1702057125322045000,6.492044921875,0.6724098920822144,1.150259256362915,-0.1644754707813263
1702057125339036400,6.509036376953125,0.7455610036849976,1.1916453838348389,-0.06979135423898697
1702057125356030700,6.52603076171875,0.8439103364944458,1.1669052839279175,0.1820378452539444
1702057125373023500,6.5430234375,0.9231700897216797,1.1044443845748901,0.45692721009254456
1702057125390020400,6.560020263671875,0.8976664543151855,0.9640980958938599,0.5650503635406494
1702057125407002600,6.577002685546875,0.8206974864006042,0.8487972617149353,0.44165557622909546
1702057125424007400,6.59400732421875,0.7525860071182251,0.7988590002059937,0.1736384481191635
1702057125440999000,6.6109990234375,0.7026477456092834,0.8093964457511902,-0.029626963660120964
1702057125457998300,6.627998291015625,0.6623306274414062,0.8494081497192383,-0.04153883829712868
1702057125474989800,6.64498974609375,0.5997169613838196,0.8093964457511902,0.07971791177988052
1702057125491984100,6.661984130859375,0.4867068827152252,0.6957755088806152,0.2047925740480423
1702057125508976600,6.6789765625,0.3631593883037567,0.6615670323371887,0.24388794600963593
1702057125525972200,6.69597216796875,0.28206703066825867,0.7603744864463806,0.20830504596233368
1702057125542964700,6.71296484375,0.22907446324825287,0.9014843702316284,0.16081027686595917
1702057125559947800,6.72994775390625,0.19394971430301666,0.9844093322753906,0.12965615093708038
1702057125576957400,6.74695751953125,0.17547103762626648,0.940121591091156,0.1212567538022995
1702057125593944800,6.76394482421875,0.14416420459747314,0.7922922372817993,0.17287486791610718
1702057125610943200,6.780943115234375,0.14217889308929443,0.6757696866989136,0.18646661937236786
1702057125627937300,6.797937255859375,0.16523905098438263,0.7246388792991638,0.17470745742321014
1702057125644931600,6.814931640625,0.1889100819826126,0.8240572214126587,0.14187344908714294
1702057125661925600,6.831925537109375,0.21441370248794556,0.880104124546051,0.1007927656173706
1702057125678909200,6.8489091796875,0.23976461589336395,0.8659014701843262,0.09575312584638596
1702057125695914000,6.8659140625,0.26053401827812195,0.7632761001586914,0.11071932315826416
1702057125712908300,6.882908203125,0.2623666226863861,0.6684392690658569,0.12324206531047821
1702057125729902600,6.899902587890625,0.2503020465373993,0.7206682562828064,0.11530081182718277
1702057125746896400,6.916896484375,0.22663100063800812,0.8119926452636719,0.0455094613134861
1702057125763890700,6.933890625,0.204487144947052,0.8420777320861816,-0.05497787147760391
1702057125780884700,6.950884765625,0.2028072625398636,0.8541423082351685,-0.06963863968849182
1702057125797879000,6.967879150390625,0.192422553896904,0.9732610583305359,0.07498370856046677
1702057125814873000,6.984873046875,0.1618792861700058,1.1175779104232788,0.2945897579193115
1702057125831864800,7.00186474609375,0.19196440279483795,1.1227703094482422,0.4404338300228119
1702057125848853500,7.018853515625,0.22342395782470703,1.0096075534820557,0.4311181604862213
1702057125865855500,7.03585546875,0.19853121042251587,0.9932668805122375,0.3075706362724304
1702057125882849800,7.052849853515625,0.14752395451068878,1.1255191564559937,0.15302173793315887
1702057125899842800,7.0698427734375,0.1365283876657486,1.3101532459259033,0.012064588256180286
1702057125916839200,7.086839111328125,0.182648703455925,1.3854423761367798,-0.07696902006864548
1702057125933832200,7.103832275390625,0.21670444309711456,1.287245750427246,-0.11636982858181
1702057125950826500,7.120826416015625,0.22067506611347198,1.212720274925232,-0.1371392458677292
1702057125967820500,7.137820556640625,0.2664899528026581,1.36955988407135,-0.17623461782932281
1702057125984814800,7.15481494140625,0.35521814227104187,1.5806138515472412,-0.18799377977848053
1702057126001809000,7.171808837890625,0.4505131244659424,1.637271523475647,-0.06933320313692093
1702057126018803000,7.188802978515625,0.5259549617767334,1.545336365699768,0.1598939746618271
1702057126035797200,7.20579736328125,0.570853590965271,1.434617042541504,0.3952298164367676
1702057126052791300,7.222791259765625,0.5922338366508484,1.3903292417526245,0.5488623976707458
1702057126069785600,7.23978564453125,0.5763513445854187,1.446223497390747,0.5126686692237854
1702057126086779600,7.256779541015625,0.5442809462547302,1.578781247138977,0.3660610020160675
1702057126103774000,7.27377392578125,0.543059229850769,1.6762142181396484,0.23579397797584534
1702057126120768000,7.29076806640625,0.5531384944915771,1.6699528694152832,0.18448130786418915
1702057126137762300,7.30776220703125,0.5700899958610535,1.5905404090881348,0.1748601794242859
1702057126154747000,7.324746826171875,0.5392413139343262,1.4708107709884644,0.19822576642036438
1702057126171751000,7.3417509765625,0.5181664228439331,1.3950635194778442,0.2554943859577179
1702057126188744700,7.35874462890625,0.5484042763710022,1.4897476434707642,0.3225368559360504
1702057126205728500,7.375728515625,0.5936083197593689,1.6723963022232056,0.32757648825645447
1702057126222730500,7.39273046875,0.656680166721344,1.7944166660308838,0.2541199326515198
1702057126239730000,7.40972998046875,0.7168503403663635,1.7597500085830688,0.2054034322500229
1702057126256721400,7.426721435546875,0.7577783465385437,1.641547679901123,0.2226603776216507
1702057126273715500,7.443715576171875,0.8009970784187317,1.4798210859298706,0.2532036304473877
1702057126290709800,7.460709716796875,0.8440630435943604,1.365131139755249,0.2496911734342575
1702057126307704000,7.4777041015625,0.8442157506942749,1.395521640777588,0.1598939746618271
1702057126324698000,7.494697998046875,0.8078693151473999,1.5691601037979126,0.06154467165470123
1702057126341692200,7.511692138671875,0.7722864151000977,1.6788103580474854,0.051312681287527084
1702057126358686500,7.5286865234375,0.7893906235694885,1.6510159969329834,0.182648703455925
1702057126375680800,7.5456806640625,0.8367326855659485,1.536631464958191,0.39797869324684143
1702057126392674600,7.562674560546875,0.8193230032920837,1.3700180053710938,0.588263213634491
1702057126409669000,7.579669189453125,0.7202101349830627,1.24647057056427,0.5829181671142578
1702057126426663200,7.5966630859375,0.6140722632408142,1.205847978591919,0.37568211555480957
1702057126443657200,7.6136572265625,0.5361869931221008,1.2250902652740479,0.10033461451530457
1702057126460651300,7.6306513671875,0.475253164768219,1.1771373748779297,-0.12751811742782593
1702057126477645600,7.6476455078125,0.43905940651893616,1.0945178270339966,-0.23808473348617554
1702057126494639600,7.6646396484375,0.40133845806121826,1.006095051765442,-0.16722436249256134
1702057126511633700,7.681633544921875,0.3617849349975586,0.9266825914382935,0.01878410577774048
1702057126528628000,7.6986279296875,0.3257438838481903,0.9810495972633362,0.16630806028842926
1702057126545622000,7.7156220703125,0.289702832698822,1.1433870792388916,0.17287486791610718
1702057126562617900,7.732617919921875,0.26343563199043274,1.3368785381317139,0.10155634582042694
1702057126579608800,7.74960888671875,0.24587325751781464,1.4081971645355225,0.027030786499381065
1702057126596604700,7.766604736328125,0.23655757308006287,1.3183999061584473,-0.025503624230623245
1702057126613596200,7.78359619140625,0.23396138846874237,1.1775954961776733,-0.06612616032361984
1702057126630595600,7.800595703125,0.2278527319431305,1.0742065906524658,-0.056810468435287476
1702057126647587000,7.817587158203125,0.25213462114334106,1.0853548049926758,-0.013897184282541275
1702057126664581400,7.834581298828125,0.2942843437194824,1.1650726795196533,0.001679879380390048
1702057126681575400,7.851575439453125,0.294437050819397,1.193172574043274,-0.029932396486401558
1702057126698569500,7.868569580078125,0.2744311988353729,1.1583532094955444,-0.05772676691412926
1702057126715563800,7.885563720703125,0.29046642780303955,1.1766791343688965,-0.0507018156349659
1702057126732558000,7.90255810546875,0.35750889778137207,1.192256212234497,-0.021380282938480377
1702057126749552000,7.91955224609375,0.4118759036064148,1.140179991722107,0.010995574295520782
1702057126766546200,7.936546142578125,0.40775254368782043,1.0661125183105469,0.022602014243602753
1702057126783540500,7.95354052734375,0.3804163336753845,1.071763038635254,0.041691552847623825
1702057126800534500,7.970534423828125,0.37659841775894165,1.1737775802612305,0.12828169763088226
1702057126817528800,7.98752880859375,0.4086688458919525,1.3153456449508667,0.2860376536846161
1702057126834512000,8.004511962890625,0.4694499373435974,1.3585642576217651,0.44058656692504883
1702057126851517200,8.02151708984375,0.5128213763237,1.2654073238372803,0.5342016816139221
1702057126868507100,8.038507080078125,0.49525898694992065,1.09024178981781,0.5183191895484924
1702057126885505500,8.055505615234376,0.4360050559043884,0.9828822016716003,0.384845107793808
1702057126902499600,8.07249951171875,0.3741549551486969,1.0618364810943604,0.16783522069454193
1702057126919484400,8.089484375,0.3494149148464203,1.268614411354065,-0.04856378585100174
1702057126936488000,8.106488037109376,0.34636059403419495,1.3817771673202515,-0.204487144947052
1702057126953482000,8.12348193359375,0.3430008292198181,1.3871222734451294,-0.2741257846355438
1702057126970476300,8.140476318359376,0.3494149148464203,1.4039210081100464,-0.27641651034355164
1702057126987470300,8.15747021484375,0.41722095012664795,1.5007431507110596,-0.20845776796340942
1702057127004451600,8.17445166015625,0.5299255847930908,1.5835154056549072,-0.07712173461914062
1702057127021461500,8.19146142578125,0.6501133441925049,1.5824464559555054,0.08689557760953903
1702057127038453000,8.208452880859374,0.7577783465385437,1.5569428205490112,0.24678955972194672
1702057127055449900,8.225449951171875,0.831845760345459,1.501812219619751,0.35674530267715454
1702057127072441300,8.24244140625,0.8162686824798584,1.4804319143295288,0.4225660264492035
1702057127089435400,8.259435302734374,0.7422012686729431,1.536631464958191,0.3937026560306549
1702057127106429700,8.2764296875,0.7057020664215088,1.618945598602295,0.29046642780303955
1702057127123423700,8.293423828125,0.7127270102500916,1.6618589162826538,0.21303924918174744
1702057127140418000,8.31041796875,0.7261660695075989,1.6618589162826538,0.2496911734342575
1702057127157412000,8.327412109375,0.7330383062362671,1.6617062091827393,0.3488040566444397
1702057127174406100,8.34440625,0.6934847831726074,1.6504051685333252,0.37629300355911255
1702057127191400400,8.361400390625,0.6275113224983215,1.6699528694152832,0.27000242471694946
1702057127208394800,8.378394775390625,0.5905539989471436,1.7188221216201782,0.06291911751031876
1702057127225388500,8.395388427734375,0.5881105065345764,1.7192802429199219,-0.1621847152709961
1702057127242382800,8.4123828125,0.5951354503631592,1.6615535020828247,-0.2765692472457886
1702057127259377000,8.429376953125,0.6239988207817078,1.6218472719192505,-0.18066339194774628
1702057127276371200,8.44637109375,0.6757696866989136,1.6682729721069336,0.053297992795705795
1702057127293365500,8.463365478515625,0.6951646208763123,1.7029396295547485,0.3010038435459137
1702057127310359600,8.480359619140625,0.6965391039848328,1.7289013862609863,0.4456261992454529
1702057127327353600,8.497353515625,0.6875288486480713,1.6714800596237183,0.46364670991897583
1702057127344348000,8.514347900390625,0.6641632318496704,1.5360206365585327,0.3985895812511444
1702057127361342000,8.531342041015625,0.6160575747489929,1.3761266469955444,0.3222314119338989
1702057127378336300,8.548336181640625,0.5580254197120667,1.2849550247192383,0.2428189367055893
1702057127395327700,8.56532763671875,0.4841107130050659,1.2487612962722778,0.1365283876657486
1702057127412324600,8.58232470703125,0.39736783504486084,1.221577763557434,0.04138612002134323
1702057127429321200,8.5993212890625,0.3292563557624817,1.1423180103302002,-0.06505715101957321
1702057127446312700,8.616312744140625,0.290313720703125,1.0974193811416626,-0.1511891484260559
1702057127463308500,8.63330859375,0.25106561183929443,1.1488847732543945,-0.19517144560813904
1702057127480299800,8.6502998046875,0.2713768780231476,1.2915217876434326,-0.1950187236070633
1702057127497295400,8.66729541015625,0.36422839760780334,1.4152220487594604,-0.1108720451593399
1702057127514289700,8.68428955078125,0.4538728892803192,1.3972015380859375,0.040164388716220856
1702057127531283700,8.70128369140625,0.49754974246025085,1.2736539840698242,0.1973094791173935
1702057127548278000,8.718278076171876,0.5233588218688965,1.126588225364685,0.2583959996700287
1702057127565264600,8.7352646484375,0.5238169431686401,1.102917194366455,0.23625212907791138
1702057127582266000,8.75226611328125,0.5093088746070862,1.2198978662490845,0.20555615425109863
1702057127599262000,8.769261962890624,0.4853324294090271,1.296714186668396,0.18845193088054657
1702057127616252700,8.786252685546875,0.47311514616012573,1.2479976415634155,0.1814269721508026
1702057127633248500,8.80324853515625,0.47800204157829285,1.1582005023956299,0.16111570596694946
1702057127650242800,8.820242919921874,0.47311514616012573,1.059698462486267,0.126143679022789
1702057127667226400,8.837226318359376,0.41722095012664795,1.0395399332046509,0.07910704612731934
1702057127684231200,8.854231201171874,0.3625485301017761,1.1143709421157837,0.0455094613134861
1702057127701222700,8.87122265625,0.3517056703567505,1.2615894079208374,0.06368270516395569
1702057127718222000,8.88822216796875,0.3842342495918274,1.3607022762298584,0.13225232064723969
1702057127735211000,8.9052109375,0.4280638098716736,1.3093897104263306,0.21533000469207764
1702057127752210400,8.92221044921875,0.43020185828208923,1.1427761316299438,0.2272418737411499
1702057127769202000,8.939201904296874,0.399200439453125,1.0613783597946167,0.1996002197265625
1702057127786193400,8.956193359375,0.34147366881370544,1.168279767036438,0.11927144229412079
1702057127803192800,8.97319287109375,0.3090978264808655,1.3605495691299438,-0.03130684420466423
1702057127820184300,8.990184326171875,0.3243694305419922,1.5010485649108887,-0.1892155110836029
1702057127837178600,9.0071787109375,0.37140607833862305,1.4721852540969849,-0.247094988822937
1702057127854173000,9.0241728515625,0.40424007177352905,1.3367258310317993,-0.18768835067749023
1702057127871167000,9.0411669921875,0.45066583156585693,1.2574660778045654,-0.098502017557621
1702057127888161000,9.0581611328125,0.5192354321479797,1.362687587738037,-0.0025961773935705423
1702057127905155600,9.075155517578125,0.5852088928222656,1.5383113622665405,0.10873401165008545
1702057127922149400,9.0921494140625,0.6383541822433472,1.610698938369751,0.20891591906547546
1702057127939143700,9.109143798828125,0.6794348955154419,1.5473216772079468,0.2554943859577179
1702057127956137700,9.1261376953125,0.7159340381622314,1.4433218240737915,0.2719877362251282
1702057127973131800,9.1431318359375,0.7379252314567566,1.359786033630371,0.28298333287239075
1702057127990126000,9.1601259765625,0.7174612283706665,1.3590224981307983,0.33658674359321594
1702057128007120400,9.177120361328125,0.6695083379745483,1.4731014966964722,0.3597996234893799
1702057128024114400,9.194114501953125,0.6452264189720154,1.5790866613388062,0.28756481409072876
1702057128041108500,9.2111083984375,0.6305656433105469,1.577254056930542,0.1621847152709961
1702057128058102800,9.228102783203125,0.6198754906654358,1.4999796152114868,0.06200282275676727
1702057128075096800,9.245096923828125,0.6385068893432617,1.4479033946990967,0.050243668258190155
1702057128092091100,9.262091064453125,0.6840163469314575,1.4966198205947876,0.13775011897087097
1702057128109085200,9.279085205078125,0.7344127297401428,1.6146695613861084,0.28435778617858887
1702057128126079500,9.29607958984375,0.7663304209709167,1.6467399597167969,0.3854559659957886
1702057128143073500,9.313073486328125,0.7754934430122375,1.5241087675094604,0.34055736660957336
1702057128160067600,9.330067626953126,0.7750352621078491,1.3507757186889648,0.1837177276611328
1702057128177059300,9.347059326171875,0.7761042714118958,1.2733485698699951,0.005497787147760391
1702057128194058800,9.364058837890624,0.7632761001586914,1.3810136318206787,-0.1111774742603302
1702057128211050200,9.38105029296875,0.7278459668159485,1.5862643718719482,-0.13072516024112701
1702057128228044300,9.398044189453126,0.7567093372344971,1.77975594997406,-0.048716504126787186
1702057128245038600,9.41503857421875,0.916450560092926,1.8700112104415894,0.1258382350206375
1702057128262032600,9.43203271484375,1.0677924156188965,1.724014401435852,0.4080579876899719
1702057128279027000,9.44902685546875,1.1397218704223633,1.4214833974838257,0.7139487266540527
1702057128296021000,9.46602099609375,1.115287184715271,1.1850786209106445,0.8720101118087769
1702057128313015300,9.483015380859374,1.0361801385879517,1.080467939376831,0.7973318696022034
1702057128330009300,9.50000927734375,0.9243918061256409,1.0983357429504395,0.5160284042358398
1702057128347003600,9.517003662109374,0.8000807762145996,1.1847730875015259,0.17012597620487213
1702057128363997700,9.533997802734374,0.6621779203414917,1.1869112253189087,-0.044135015457868576
1702057128380991700,9.55099169921875,0.5213735103607178,1.0590876340866089,-0.0835358202457428
1702057128397986000,9.567986083984374,0.42760565876960754,0.9288206100463867,-0.04734205827116966
1702057128414980400,9.58498046875,0.36300668120384216,0.9231700897216797,-0.0025961773935705423
1702057128431974400,9.601974365234375,0.26221391558647156,0.9899071455001831,0.012217304669320583
1702057128448960500,9.61896044921875,0.16630806028842926,1.1311696767807007,0.0065668015740811825
1702057128465964300,9.63596435546875,0.12721268832683563,1.286940336227417,0.01878410577774048
1702057128482946600,9.652946533203124,0.15851953625679016,1.3350459337234497,0.06108652427792549
1702057128499948300,9.6699482421875,0.2174680233001709,1.2223412990570068,0.14049901068210602
1702057128516948200,9.6869482421875,0.2402227520942688,1.0374019145965576,0.21059578657150269
1702057128533939000,9.70393896484375,0.22663100063800812,0.9639453291893005,0.21349740028381348
1702057128550928000,9.720927978515626,0.2344195395708084,1.0538952350616455,0.12919799983501434
1702057128567926000,9.737926025390625,0.25106561183929443,1.1511754989624023,0.05757404863834381
1702057128584923600,9.754923583984375,0.26282477378845215,1.1549934148788452,0.09147707372903824
1702057128601916000,9.771916015625,0.25931230187416077,1.0824532508850098,0.17409659922122955
1702057128618910000,9.788909912109375,0.26251932978630066,0.9902125597000122,0.18616119027137756
1702057128635904300,9.805904296875,0.26251932978630066,0.982729434967041,0.13866640627384186
1702057128652898600,9.822898681640625,0.2571742534637451,1.0682506561279297,0.0734565481543541
1702057128669882000,9.839882080078125,0.24678955972194672,1.1184942722320557,-0.014202617108821869
1702057128686886700,9.85688671875,0.23808473348617554,1.072068452835083,-0.10094548016786575
1702057128703881000,9.873880859375,0.22159136831760406,0.9863946437835693,-0.09957103431224823
1702057128720875300,9.890875244140625,0.22082778811454773,1.041372537612915,0.08643743395805359
1702057128737866500,9.907866455078125,0.21670444309711456,1.1386528015136719,0.3900374472141266
1702057128754863600,9.924863525390625,0.22342395782470703,1.2208142280578613,0.6574437022209167
1702057128771860200,9.941860107421874,0.25244006514549255,1.1946996450424194,0.6837109327316284
1702057128788851700,9.958851806640626,0.26053401827812195,1.0677924156188965,0.5009095072746277
1702057128805846000,9.975845947265626,0.21700987219810486,0.941343367099762,0.24495697021484375
1702057128822840000,9.992840087890626,0.17073683440685272,0.9511171579360962,0.02275473065674305
1702057128839834400,10.00983447265625,0.1973094791173935,1.1601858139038086,-0.13500121235847473
1702057128856828400,10.026828369140626,0.24572055041790009,1.2565498352050781,-0.251676470041275
1702057128873822700,10.04382275390625,0.247094988822937,1.1078041791915894,-0.3520110845565796
1702057128890816800,10.060816650390626,0.22632557153701782,1.0147998332977295,-0.43799036741256714
1702057128907811000,10.07781103515625,0.242513507604599,1.1606439352035522,-0.4567744731903076
1702057128924805000,10.09480517578125,0.3280346393585205,1.4355332851409912,-0.3680463135242462
1702057128941799200,10.111799072265624,0.4893030524253845,1.5427402257919312,-0.19746218621730804
1702057128958793000,10.12879296875,0.6207917928695679,1.4034628868103027,0.018020525574684143
1702057128975788300,10.145788330078124,0.6918048858642578,1.2279918193817139,0.24938572943210602
1702057128992781800,10.16278173828125,0.7266241908073425,1.1548407077789307,0.4291328489780426
1702057129009775900,10.17977587890625,0.7380779385566711,1.1867583990097046,0.485027015209198
1702057129026770200,10.196770263671874,0.694553792476654,1.2834278345108032,0.43539419770240784
1702057129043753700,10.213753662109376,0.6388123035430908,1.3464996814727783,0.3222314119338989
1702057129060758500,10.230758544921875,0.6117815375328064,1.3614659309387207,0.21563543379306793
1702057129077750000,10.24775,0.5911648273468018,1.3278683423995972,0.17150041460990906
1702057129094749400,10.26474951171875,0.5432119369506836,1.271515965461731,0.20463985204696655
1702057129111743000,10.281742919921875,0.5253441333770752,1.2994630336761475,0.23747386038303375
1702057129128733200,10.298733154296874,0.5442809462547302,1.3559681177139282,0.17104226350784302
1702057129145724700,10.315724609375,0.5488623976707458,1.3228286504745483,-0.005345070734620094
1702057129162728000,10.33272802734375,0.5597052574157715,1.2826642990112305,-0.1547016203403473
1702057129179717600,10.349717529296875,0.5878050923347473,1.351233959197998,-0.12400564551353455
1702057129196709600,10.366709716796874,0.6294966340065002,1.4782938957214355,0.054825156927108765
1702057129213708000,10.3837080078125,0.6734789609909058,1.5619823932647705,0.26633724570274353
1702057129230700000,10.400699951171875,0.7180721163749695,1.5091426372528076,0.39645153284072876
1702057129247694000,10.417694091796875,0.7461718916893005,1.3823879957199097,0.45555275678634644
1702057129264684800,10.434684814453124,0.7411322593688965,1.2892310619354248,0.4450153410434723
1702057129281689000,10.451689208984375,0.6908885836601257,1.253495454788208,0.375529408454895
1702057129298674000,10.468673828125,0.6485861539840698,1.236391305923462,0.23915374279022217
1702057129315671000,10.485671142578125,0.6284276247024536,1.132238745689392,0.0933096632361412
1702057129332664800,10.502664794921875,0.5873469114303589,0.9813550114631653,0.013897184282541275
1702057129349659000,10.519658935546875,0.526107668876648,0.8358163833618164,-0.040622539818286896
1702057129366654000,10.536654052734375,0.44318273663520813,0.826500654220581,-0.06475171446800232
1702057129383647500,10.5536474609375,0.35353827476501465,0.940732479095459,-0.05497787147760391
1702057129400641800,10.570641845703125,0.2883284091949463,1.0406090021133423,-0.04657847434282303
1702057129417646600,10.587646484375,0.24816401302814484,1.1044443845748901,-0.023518312722444534
1702057129434630100,10.604630126953126,0.23548854887485504,1.1325441598892212,0.0032070425804704428
1702057129451619800,10.621619873046875,0.2321287989616394,1.1302534341812134,0.0354301854968071
1702057129468622800,10.638622802734375,0.23915374279022217,1.1273517608642578,0.09300423413515091
1702057129485612500,10.655612548828126,0.29917123913764954,1.2177598476409912,0.17852537333965302
1702057129502606800,10.67260693359375,0.3689626157283783,1.2760975360870361,0.26771169900894165
1702057129519601000,10.689600830078126,0.39797869324684143,1.2203559875488281,0.31230485439300537
1702057129536604400,10.7066044921875,0.39446622133255005,1.1386528015136719,0.29168814420700073
1702057129553589200,10.72358935546875,0.39736783504486084,1.0798569917678833,0.23289237916469574
1702057129570583300,10.740583251953124,0.39736783504486084,1.067639708518982,0.20662516355514526
1702057129587577600,10.75757763671875,0.38240164518356323,1.094365119934082,0.24113905429840088
1702057129604569000,10.774569091796875,0.37400224804878235,1.1407908201217651,0.27382034063339233
1702057129621571300,10.7915712890625,0.3735440969467163,1.1552989482879639,0.2562579810619354
1702057129638557200,10.80855712890625,0.36942076683044434,1.122159481048584,0.1563815027475357
1702057129655543800,10.825543701171876,0.3594942092895508,1.0557278394699097,0.0032070425804704428
1702057129672548400,10.84254833984375,0.3208569586277008,0.9686795473098755,-0.12858712673187256
1702057129689542400,10.85954248046875,0.2716823220252991,0.9677632451057434,-0.1388191282749176
1702057129706537000,10.876536865234375,0.24266621470451355,1.1136072874069214,-0.0006108652451075613
1702057129723531000,10.893531005859375,0.28008171916007996,1.2953397035598755,0.20402899384498596
1702057129740526600,10.910526611328125,0.328340083360672,1.3026701211929321,0.36224308609962463
1702057129757517600,10.927517578125,0.3199406862258911,1.1441506147384644,0.4196644127368927
1702057129774513200,10.94451318359375,0.24908030033111572,1.0118982791900635,0.32620203495025635
1702057129791507500,10.961507568359375,0.20311269164085388,1.0299187898635864,0.11591167747974396
1702057129808492300,10.9784921875,0.1898263692855835,1.1452195644378662,-0.0705549344420433
1702057129825495800,10.995495849609375,0.20631973445415497,1.2066116333007812,-0.10919216275215149
1702057129842493000,11.012492919921876,0.2405281960964203,1.1410962343215942,-0.041691552847623825
1702057129859481300,11.0294814453125,0.24113905429840088,1.071763038635254,0.01878410577774048
1702057129876478500,11.046478515625,0.21212296187877655,1.1818715333938599,0.013133603148162365
1702057129893470000,11.063469970703125,0.23319780826568604,1.426675796508789,-0.0064140851609408855
1702057129910469000,11.08046923828125,0.3303253948688507,1.6047430038452148,0.04932736977934837
1702057129927460900,11.0974609375,0.4560109078884125,1.5712981224060059,0.1667662113904953
1702057129944455000,11.114454833984375,0.5769622325897217,1.334282398223877,0.26572638750076294
1702057129961449200,11.13144921875,0.646295428276062,1.0821478366851807,0.3724750876426697
1702057129978443300,11.148443359375,0.6407976150512695,0.9789115786552429,0.40714168548583984
1702057129995435000,11.16543505859375,0.6269004344940186,1.062447428703308,0.32589662075042725
1702057130012434400,11.182434326171874,0.6007859706878662,1.1916453838348389,0.19608774781227112
1702057130029425700,11.19942578125,0.5775730609893799,1.233642339706421,0.11224649101495743
1702057130046420000,11.216419921875,0.5441282391548157,1.1565206050872803,0.11301007121801376
1702057130063414000,11.2334140625,0.5309945940971375,1.1061242818832397,0.14278975129127502
1702057130080405800,11.25040576171875,0.5514585971832275,1.1873693466186523,0.16371189057826996
1702057130097405000,11.267405029296874,0.5760459303855896,1.2965614795684814,0.1722639948129654
1702057130114396700,11.284396728515626,0.5845980644226074,1.34115469455719,0.1872301995754242
1702057130131386400,11.301386474609375,0.5729916095733643,1.306488037109375,0.2252565622329712
1702057130148389400,11.318389404296875,0.5366451144218445,1.2516628503799438,0.25961771607398987
1702057130165379000,11.335379150390626,0.502436637878418,1.2111930847167969,0.2382374405860901
1702057130182373400,11.352373291015626,0.4813618063926697,1.202946424484253,0.16371189057826996
1702057130199367400,11.369367431640624,0.46303585171699524,1.2211196422576904,0.0659734457731247
1702057130216361700,11.38636181640625,0.43478333950042725,1.2811371088027954,-0.0024434609804302454
1702057130233355800,11.403355712890624,0.41401392221450806,1.337031364440918,-0.03481931984424591
1702057130250350000,11.42035009765625,0.4190535545349121,1.3744467496871948,-0.011453723534941673
1702057130267344100,11.43734423828125,0.4697553813457489,1.3904820680618286,0.06108652427792549
1702057130284333800,11.454333740234375,0.5542075037956238,1.3472633361816406,0.15729780495166779
1702057130301330000,11.471329833984376,0.5968153476715088,1.2718214988708496,0.24144448339939117
1702057130318329000,11.4883291015625,0.5920811295509338,1.2548699378967285,0.27030786871910095
1702057130335320800,11.50532080078125,0.5899431109428406,1.3271046876907349,0.2548835277557373
1702057130352315000,11.52231494140625,0.5969680547714233,1.3727669715881348,0.2535090744495392
1702057130369309000,11.539308837890625,0.6136141419410706,1.324508547782898,0.2977968156337738
1702057130386303200,11.55630322265625,0.6185010671615601,1.2252429723739624,0.37858372926712036
1702057130403297500,11.573297607421875,0.6075055003166199,1.1210904121398926,0.43157628178596497
1702057130420291600,11.59029150390625,0.594524621963501,1.054964303970337,0.39736783504486084
1702057130437286000,11.607285888671875,0.5659666657447815,1.038318157196045,0.2756529450416565
1702057130454280000,11.624280029296875,0.5129740834236145,1.0149526596069336,0.1560760736465454
1702057130471274000,11.64127392578125,0.4584543704986572,0.969443142414093,0.10277807712554932
1702057130488268300,11.658268310546875,0.4158465266227722,0.9398161768913269,0.1062905490398407
1702057130505262600,11.6752626953125,0.3597996234893799,0.9512699246406555,0.12339477986097336
1702057130522253300,11.69225341796875,0.2825251817703247,0.949895441532135,0.10002918541431427
1702057130539254000,11.70925390625,0.19394971430301666,0.9582948684692383,0.033597588539123535
1702057130556245000,11.726244873046875,0.1313360333442688,0.9952521920204163,-0.07116580009460449
1702057130573239000,11.743239013671875,0.11178833991289139,1.0169379711151123,-0.17302757501602173
1702057130590216200,11.76021630859375,0.13408492505550385,1.0201449394226074,-0.18707747757434845
1702057130607227600,11.7772275390625,0.18280142545700073,0.9836457371711731,-0.10995574295520782
1702057130624221400,11.794221435546875,0.22021691501140594,0.8848382830619812,0.008704829961061478
1702057130641215700,11.8112158203125,0.23151792585849762,0.8349000811576843,0.1059851199388504
1702057130658199600,11.828199462890625,0.23609942197799683,0.8874344825744629,0.1408044397830963
1702057130675203800,11.845203857421875,0.2580905556678772,1.0134254693984985,0.15836681425571442
1702057130692198400,11.862198486328126,0.3013092875480652,1.068861484527588,0.19898934662342072
1702057130709192700,11.879192626953126,0.3246748745441437,1.0047205686569214,0.2788599729537964
1702057130726186500,11.8961865234375,0.30925053358078003,0.8671231865882874,0.3341432809829712
1702057130743180800,11.913180908203126,0.2506074607372284,0.7909177541732788,0.28496864438056946
1702057130760174800,11.9301748046875,0.18600846827030182,0.831845760345459,0.09666942805051804
1702057130777169200,11.947169189453126,0.14126259088516235,0.9011789560317993,-0.18631389737129211
1702057130794163200,11.9641630859375,0.10323622822761536,0.9323330521583557,-0.3888157308101654
1702057130811157500,11.981157470703126,0.10033461451530457,0.9865473508834839,-0.3449861407279968
1702057130828151600,11.998151611328124,0.18035796284675598,1.036943793296814,-0.09315694868564606
1702057130845145600,12.0151455078125,0.21700987219810486,1.0077749490737915,0.28955012559890747
1702057130862140000,12.032139892578124,0.22449298202991486,1.0409144163131714,0.6528622508049011
1702057130879134000,12.049134033203124,0.25045475363731384,1.070694088935852,0.7809911966323853
1702057130896117800,12.06611767578125,0.2684752643108368,1.0505355596542358,0.6420193910598755
1702057130913108000,12.08310791015625,0.27779096364974976,0.9986119866371155,0.3378084897994995
1702057130930116600,12.10011669921875,0.25335636734962463,0.8907942175865173,0.02886338345706463
1702057130947113500,12.117113525390625,0.2142609804868698,0.8486445546150208,-0.14492778480052948
1702057130964094500,12.134094482421874,0.1898263692855835,0.8445212244987488,-0.2220495194196701
1702057130981099000,12.15109912109375,0.18280142545700073,0.8223773241043091,-0.2750420868396759
1702057130998093300,12.16809326171875,0.1589776873588562,0.8336783647537231,-0.3504839241504669
1702057131015087400,12.18508740234375,0.16920967400074005,1.0009026527404785,-0.3904955983161926
1702057131032081700,12.20208154296875,0.2687807083129883,1.1665998697280884,-0.3430008292198181
1702057131049075700,12.21907568359375,0.41920626163482666,1.1832460165023804,-0.1846340149641037
1702057131066063400,12.2360634765625,0.5357288122177124,1.0627528429031372,0.04535674303770065
1702057131083064300,12.253064208984375,0.5893322229385376,0.8906415104866028,0.19028452038764954
1702057131100054500,12.270054443359374,0.584750771522522,0.8741481900215149,0.19349156320095062
1702057131117055700,12.2870556640625,0.5572618246078491,0.9656252264976501,0.10415252298116684
1702057131134036000,12.304035888671875,0.5377141237258911,1.049619197845459,0.023976460099220276
1702057131151040800,12.321040771484375,0.5354233980178833,1.0636690855026245,0.03405573591589928
1702057131168032300,12.3380322265625,0.5361869931221008,1.0317513942718506,0.11575896292924881
1702057131185031700,12.35503173828125,0.5091561675071716,0.9682214260101318,0.18616119027137756
1702057131202023200,12.372023193359375,0.44974952936172485,0.9589056968688965,0.16554448008537292
1702057131219017500,12.389017578125,0.36651915311813354,1.0346530675888062,0.06444628536701202
1702057131236011500,12.406011474609375,0.34345898032188416,1.1899654865264893,-0.02382374368607998
1702057131253007400,12.42300732421875,0.41813725233078003,1.2961033582687378,-0.01878410577774048
1702057131269998000,12.439998046875,0.49556443095207214,1.2892310619354248,0.13225232064723969
1702057131286994200,12.456994140625,0.5467243790626526,1.2003501653671265,0.3240640163421631
1702057131303987500,12.473987548828125,0.5845980644226074,1.0528262853622437,0.40256020426750183
1702057131320980700,12.490980712890625,0.6120869517326355,0.9387471675872803,0.294895201921463
1702057131337979100,12.507979248046874,0.5621487498283386,1.0138835906982422,0.0780380368232727
1702057131354970600,12.524970703125,0.4717406928539276,1.2470813989639282,-0.1267545372247696
1702057131371965000,12.54196484375,0.483957976102829,1.4494304656982422,-0.17867808043956757
1702057131388959000,12.558958984375,0.5955936312675476,1.4550809860229492,-0.011759156361222267
1702057131405950000,12.575949951171875,0.6951646208763123,1.2528846263885498,0.2474004179239273
1702057131422951000,12.592950927734375,0.716697633266449,1.0167851448059082,0.4714352488517761
1702057131439941600,12.609941650390626,0.669355571269989,0.9744827747344971,0.5797111392021179
1702057131456935700,12.626935791015624,0.5943718552589417,1.0653489828109741,0.5494732856750488
1702057131473929700,12.6439296875,0.5196936130523682,1.1134545803070068,0.417679101228714
1702057131490924000,12.660924072265624,0.475253164768219,1.0587822198867798,0.25992316007614136
1702057131507912200,12.677912109375,0.44058656692504883,0.9106473922729492,0.13041973114013672
1702057131524912400,12.694912353515624,0.3831652104854584,0.7605272531509399,0.062460970133543015
1702057131541906700,12.71190673828125,0.2935207486152649,0.7165449261665344,0.0656680166721344
1702057131558900700,12.728900634765624,0.20082195103168488,0.7509061098098755,0.10461067408323288
1702057131575894800,12.745894775390624,0.13805554807186127,0.8205447196960449,0.10781771689653397
1702057131592888800,12.762888916015624,0.08185594528913498,0.827722430229187,0.024587325751781464
1702057131609883100,12.779883056640625,0.012064588256180286,0.7796167731285095,-0.12293662875890732
1702057131626875000,12.796875,-0.047189339995384216,0.7669413089752197,-0.2942843437194824
1702057131643867400,12.813867431640626,-0.06994406878948212,0.8200865983963013,-0.41370847821235657
1702057131660878600,12.830878662109376,-0.0679587572813034,0.8909469842910767,-0.42180246114730835
1702057131677859800,12.84785986328125,-0.03084869496524334,0.9254608750343323,-0.29886582493782043
1702057131694854000,12.86485400390625,0.03298672288656235,0.8080220222473145,-0.15775595605373383
1702057131711847000,12.881846923828125,0.08949175477027893,0.7174612283706665,-0.0403171069920063
1702057131728843500,12.898843505859375,0.15347988903522491,0.7985535860061646,0.05161811411380768
1702057131745836300,12.915836181640625,0.21013765037059784,0.8729264140129089,0.11789698898792267
1702057131762827000,12.932826904296874,0.25274550914764404,0.8713992834091187,0.1768454909324646
1702057131779827700,12.94982763671875,0.29565876722335815,0.8249735236167908,0.19837848842144012
1702057131796816000,12.96681591796875,0.3124575614929199,0.7215845584869385,0.1488984078168869
1702057131813813200,12.983813232421875,0.26679539680480957,0.6357579827308655,0.05054909735918045
1702057131830807300,13.000807373046875,0.1869247704744339,0.6664539575576782,-0.07452555745840073
1702057131847799000,13.017799072265625,0.12782354652881622,0.7600690722465515,-0.17470745742321014
1702057131864798200,13.034798095703126,0.12828169763088226,0.8254316449165344,-0.14584407210350037
1702057131881790000,13.0517900390625,0.16203200817108154,0.8535314798355103,0.04902193695306778
1702057131898784000,13.068783935546875,0.20082195103168488,0.8127561807632446,0.28359419107437134
1702057131915778000,13.085778076171875,0.2099849283695221,0.7559457421302795,0.4057672321796417
1702057131932772400,13.1027724609375,0.17776179313659668,0.7221954464912415,0.3723223805427551
1702057131949766400,13.119766357421875,0.1414152979850769,0.6918048858642578,0.24923302233219147
1702057131966760400,13.136760498046876,0.09865473955869675,0.6856962442398071,0.1085812970995903
1702057131983754800,13.153754638671876,0.0705549344420433,0.6849326491355896,-0.011759156361222267
1702057132000749000,13.1707490234375,0.10797043144702911,0.6998988389968872,-0.08536841720342636
1702057132017743000,13.1877431640625,0.18707747757434845,0.7431175708770752,-0.07849618047475815
1702057132034737400,13.2047373046875,0.20723603665828705,0.7447974681854248,-0.014355333521962166
1702057132051731500,13.2217314453125,0.1840231567621231,0.8376489877700806,0.06688974797725677
1702057132068725500,13.2387255859375,0.23640485107898712,0.9610437750816345,0.030085112899541855
1702057132085720000,13.255719970703124,0.3501785099506378,0.965319812297821,-0.078343465924263
1702057132102713900,13.2727138671875,0.4544837474822998,0.8772025108337402,-0.10583240538835526
1702057132119708000,13.2897080078125,0.5160284042358398,0.8382598161697388,-0.008704829961061478
1702057132136702500,13.306702392578124,0.5542075037956238,0.9162978529930115,0.14324790239334106
1702057132153694500,13.323694580078126,0.5693264007568359,1.0293079614639282,0.2574796974658966
1702057132170693400,13.340693359375,0.5648976564407349,1.0897835493087769,0.29245173931121826
1702057132187674600,13.357674560546876,0.5679519772529602,1.1397218704223633,0.24602597951889038
1702057132204679200,13.37467919921875,0.5839871764183044,1.1910345554351807,0.19608774781227112
1702057132221670700,13.391670654296876,0.6180428862571716,1.2015719413757324,0.1973094791173935
1702057132238669600,13.408669677734375,0.656069278717041,1.231351613998413,0.29535335302352905
1702057132255661600,13.42566162109375,0.6630942225456238,1.3148874044418335,0.40683624148368835
1702057132272655600,13.442655517578125,0.6517932415008545,1.3865114450454712,0.4625777006149292
1702057132289650000,13.45964990234375,0.6459900140762329,1.4530956745147705,0.4407392740249634
1702057132306644000,13.47664404296875,0.6053674817085266,1.5085316896438599,0.3497203588485718
1702057132323638300,13.49363818359375,0.5203045010566711,1.499216079711914,0.1696678251028061
1702057132340632300,13.51063232421875,0.5019785165786743,1.4844025373458862,-0.05497787147760391
1702057132357626400,13.52762646484375,0.6388123035430908,1.471421718597412,-0.13790282607078552
1702057132374620700,13.54462060546875,0.7367035150527954,1.469894528388977,0.04886921867728233
1702057132391614700,13.56161474609375,0.726471483707428,1.4787520170211792,0.380721777677536
1702057132408601000,13.57860107421875,0.6834055185317993,1.4859297275543213,0.5728389024734497
1702057132425603000,13.59560302734375,0.6481280326843262,1.5279266834259033,0.47907108068466187
1702057132442587000,13.6125869140625,0.6026185750961304,1.5827518701553345,0.2848159074783325
1702057132459588900,13.6295888671875,0.5484042763710022,1.597107172012329,0.20097467303276062
1702057132476585000,13.6465849609375,0.5064072608947754,1.5558737516403198,0.25305092334747314
1702057132493583000,13.6635830078125,0.4940372705459595,1.482569932937622,0.32131510972976685
1702057132510565000,13.680565185546875,0.4940372705459595,1.3643674850463867,0.3006984293460846
1702057132527568100,13.697568115234375,0.46105054020881653,1.2405146360397339,0.1840231567621231
1702057132544567600,13.714567626953125,0.3998112976551056,1.1409435272216797,-0.003359758760780096
1702057132561556200,13.73155615234375,0.3410155177116394,1.1065824031829834,-0.15271630883216858
1702057132578550500,13.748550537109375,0.3246748745441437,1.1594222784042358,-0.17348572611808777
1702057132595544800,13.765544921875,0.3223841190338135,1.2131783962249756,-0.09193521738052368
1702057132612541400,13.78254150390625,0.32070425152778625,1.2565498352050781,0.04092797264456749
1702057132629526800,13.79952685546875,0.31551191210746765,1.2457069158554077,0.15103642642498016
1702057132646531300,13.81653125,0.31581732630729675,1.1794281005859375,0.21868975460529327
1702057132663521300,13.833521240234376,0.30833423137664795,1.1226176023483276,0.23258693516254425
1702057132680515600,13.850515625,0.3223841190338135,1.0819950103759766,0.18539759516716003
1702057132697508400,13.86750830078125,0.3527746796607971,1.0436632633209229,0.11407908797264099
1702057132714505500,13.88450537109375,0.36850446462631226,0.9492846131324768,0.04245513305068016
1702057132731498000,13.901498046875,0.35094207525253296,0.8370380997657776,-0.014355333521962166
1702057132748492300,13.9184921875,0.2938261926174164,0.7919867634773254,-0.06643159687519073
1702057132765486300,13.935486328125,0.2444988191127777,0.8332201838493347,-0.13561208546161652
1702057132782481000,13.95248095703125,0.23136521875858307,0.9343183636665344,-0.15622878074645996
1702057132799474700,13.969474609375,0.24205535650253296,1.0193814039230347,-0.10735956579446793
1702057132816458200,13.986458251953126,0.2838996350765228,0.998153805732727,0.0074830991216003895
1702057132833463000,14.003463134765624,0.28206703066825867,0.864679753780365,0.13057245314121246
1702057132850457300,14.020457275390624,0.23777928948402405,0.7121161818504333,0.20525072515010834
1702057132867451600,14.03745166015625,0.17501288652420044,0.6858489513397217,0.15622878074645996
1702057132884445700,14.05444580078125,0.10201449692249298,0.7415903806686401,0.012980886735022068
1702057132901437200,14.071437255859376,0.03298672288656235,0.8084801435470581,-0.11621711403131485
1702057132918440400,14.0884404296875,-0.0029016099870204926,0.8344419002532959,-0.166460782289505
1702057132935437800,14.105437744140625,-0.014202617108821869,0.8145887851715088,-0.1235474944114685
1702057132952422400,14.12242236328125,0.003817907767370343,0.821461021900177,-0.005803219974040985
1702057132969416200,14.139416259765625,0.029626963660120964,0.850171685218811,0.13759739696979523
1702057132986409000,14.156408935546875,0.0659734457731247,0.8645270466804504,0.2223549485206604
1702057133003404800,14.17340478515625,0.13286319375038147,0.8016079068183899,0.2174680233001709
1702057133020404500,14.190404541015624,0.19257527589797974,0.7463245987892151,0.1992947906255722
1702057133037393200,14.20739306640625,0.23716843128204346,0.7388415336608887,0.20815233886241913
1702057133054387200,14.22438720703125,0.25213462114334106,0.697760820388794,0.20555615425109863
1702057133071381200,14.24138134765625,0.242513507604599,0.6577491760253906,0.16264286637306213
1702057133088365300,14.258365234375,0.21639901399612427,0.6701191663742065,0.06169738993048668
1702057133105357600,14.275357666015625,0.20265454053878784,0.7331910133361816,-0.0913243517279625
1702057133122366500,14.292366455078126,0.1667662113904953,0.8480336666107178,-0.22708915174007416
1702057133139358000,14.30935791015625,0.14706580340862274,0.9966266751289368,-0.3090978264808655
1702057133156347600,14.32634765625,0.21105393767356873,1.091616153717041,-0.3156646192073822
1702057133173346300,14.34334619140625,0.3413209617137909,1.0795515775680542,-0.2249511331319809
1702057133190340600,14.360340576171875,0.4586070775985718,1.0502300262451172,-0.05268712714314461
1702057133207335000,14.3773349609375,0.5267185568809509,1.048397421836853,0.12278391420841217
1702057133224328700,14.39432861328125,0.5510004758834839,1.0389291048049927,0.20799961686134338
1702057133241323000,14.411322998046876,0.5589417219161987,1.0377073287963867,0.21303924918174744
1702057133258306800,14.428306884765625,0.5768095254898071,1.0920743942260742,0.16829337179660797
1702057133275311600,14.4453115234375,0.5873469114303589,1.1259773969650269,0.11820242553949356
1702057133292305700,14.4623056640625,0.5887213945388794,1.1484266519546509,0.1111774742603302
1702057133309300000,14.479300048828126,0.5797111392021179,1.2075278759002686,0.12476922571659088
1702057133326283500,14.496283447265625,0.5316054821014404,1.260062336921692,0.13607023656368256
1702057133343288000,14.5132880859375,0.5028948187828064,1.306182622909546,0.11041389405727386
1702057133360282000,14.5302822265625,0.5109887719154358,1.3535246849060059,0.06536258012056351
1702057133377276400,14.5472763671875,0.5429064631462097,1.3784173727035522,0.05253441259264946
1702057133394270700,14.564270751953124,0.565203070640564,1.355051875114441,0.08674286305904388
1702057133411264800,14.5812646484375,0.5731443166732788,1.3225232362747192,0.13026700913906097
1702057133428258800,14.5982587890625,0.6026185750961304,1.2707524299621582,0.16462817788124084
1702057133445252900,14.6152529296875,0.6163630485534668,1.291369080543518,0.1771509200334549
1702057133462247700,14.63224755859375,0.5925393104553223,1.4081971645355225,0.1339322030544281
1702057133479241500,14.649241455078124,0.5642867684364319,1.5143349170684814,0.06108652427792549
1702057133496235500,14.666235595703125,0.5914703011512756,1.5318973064422607,0.07681630551815033
1702057133513229800,14.683229736328125,0.6511823534965515,1.5398385524749756,0.2649627923965454
1702057133530224000,14.70022412109375,0.7066183686256409,1.5108224153518677,0.5238169431686401
1702057133547207700,14.717207763671874,0.7560984492301941,1.4289665222167969,0.7008151412010193
1702057133564212200,14.734212158203125,0.7284567952156067,1.3129020929336548,0.6966918110847473
1702057133581206300,14.751206298828125,0.6441574096679688,1.2467759847640991,0.5342016816139221
1702057133598200800,14.768200927734375,0.6041457056999207,1.190423607826233,0.2545780837535858
1702057133615194600,14.785194580078125,0.6001750826835632,1.0877982378005981,-0.005192354787141085
1702057133632189000,14.80218896484375,0.57436603307724,0.9621127843856812,-0.10995574295520782
1702057133649183000,14.819182861328125,0.504574716091156,0.8219192028045654,-0.06994406878948212
1702057133666177300,14.83617724609375,0.3868304193019867,0.8052731156349182,-0.02779436856508255
1702057133683171300,14.85317138671875,0.28496864438056946,0.9363036751747131,-0.06963863968849182
1702057133700172000,14.870172119140625,0.22113321721553802,1.083369493484497,-0.15302173793315887
1702057133717154300,14.887154296875,0.21884247660636902,1.2402092218399048,-0.13545936346054077
1702057133734149600,14.904149658203124,0.25824329257011414,1.3480268716812134,0.012980886735022068
1702057133751152400,14.92115234375,0.2767219543457031,1.2699888944625854,0.21151208877563477
1702057133768138200,14.93813818359375,0.3003929853439331,1.1074986457824707,0.37171149253845215
1702057133785136400,14.955136474609375,0.31413745880126953,0.9781479835510254,0.4531092941761017
1702057133802128100,14.972128173828125,0.3045163154602051,0.9856310486793518,0.4311181604862213
1702057133819127300,14.989127197265624,0.2681698501110077,1.0392345190048218,0.3355177342891693
1702057133836118800,15.006118896484375,0.19975294172763824,1.0338894128799438,0.20662516355514526
1702057133853113000,15.023113037109376,0.17256943881511688,0.9744827747344971,0.060933809727430344
1702057133870107100,15.040107177734376,0.21044307947158813,0.8822421431541443,-0.06643159687519073
1702057133887101700,15.057101806640626,0.2561052441596985,0.7547240257263184,-0.1459967941045761
1702057133904080100,15.074080078125,0.26419922709465027,0.6443101167678833,-0.2002110779285431
1702057133921089800,15.09108984375,0.2583959996700287,0.6944010853767395,-0.1742493063211441
1702057133938078200,15.108078125,0.24816401302814484,0.9020952582359314,-0.013744467869400978
1702057133955078000,15.125077880859376,0.25671613216400146,1.1395691633224487,0.22632557153701782
1702057133972069600,15.142069580078125,0.29046642780303955,1.160033106803894,0.3698789179325104
1702057133989069000,15.159069091796875,0.36193767189979553,1.0580185651779175,0.38011088967323303
1702057134006060800,15.176060791015624,0.41202861070632935,0.9454666972160339,0.35613444447517395
1702057134023054600,15.1930546875,0.39843684434890747,0.8489499688148499,0.31444287300109863
1702057134040049000,15.210048828125,0.3900374472141266,0.8037459254264832,0.23671028017997742
1702057134057043200,15.227043212890624,0.39706242084503174,0.8219192028045654,0.11804971098899841
1702057134074037200,15.244037353515624,0.38499781489372253,0.8165740966796875,-0.044135015457868576
1702057134091031300,15.26103125,0.33536502718925476,0.8035932183265686,-0.22311852872371674
1702057134108015000,15.27801513671875,0.24327708780765533,0.879493236541748,-0.39538252353668213
1702057134125020000,15.29502001953125,0.19364428520202637,1.0725266933441162,-0.5149593949317932
1702057134142013700,15.312013671875,0.27977627515792847,1.2344059944152832,-0.48166725039482117
1702057134159008000,15.329008056640625,0.42180246114730835,1.2050844430923462,-0.2675589919090271
1702057134176002300,15.346002197265625,0.4996877610683441,1.0509936809539795,0.012980886735022068
1702057134192996600,15.36299658203125,0.4841107130050659,0.997237503528595,0.21319197118282318
1702057134209990400,15.379990478515625,0.48380526900291443,1.1050552129745483,0.24159720540046692
1702057134226984700,15.396984619140625,0.5595525503158569,1.3043500185012817,0.18936823308467865
1702057134243978800,15.413978759765625,0.6831000447273254,1.3886494636535645,0.23335053026676178
1702057134260973000,15.43097314453125,0.7583891749382019,1.277166485786438,0.3677408695220947
1702057134277970200,15.44797021484375,0.7684684991836548,1.1186469793319702,0.4789183437824249
1702057134294958600,15.46495849609375,0.7391469478607178,1.10139000415802,0.45952337980270386
1702057134311955700,15.481955810546875,0.6772968173027039,1.2342532873153687,0.3335324227809906
1702057134328949800,15.49894970703125,0.6160575747489929,1.4231632947921753,0.15836681425571442
1702057134345943800,15.51594384765625,0.5878050923347473,1.4732542037963867,-0.006108652334660292
1702057134362938000,15.532938232421875,0.5916230082511902,1.3768903017044067,-0.09682214260101318
1702057134379932400,15.549932373046875,0.6183483600616455,1.2614367008209229,-0.0907134860754013
1702057134396919800,15.566919921875,0.6478226184844971,1.2577714920043945,0.005345070734620094
1702057134413920500,15.58392041015625,0.6583600044250488,1.3494013547897339,0.1319468915462494
1702057134430914800,15.600914794921875,0.6487388610839844,1.4854716062545776,0.20616702735424042
1702057134447908900,15.617908935546875,0.6327036619186401,1.5377005338668823,0.20952677726745605
1702057134464903000,15.63490283203125,0.6278167366981506,1.5271631479263306,0.2269364446401596
1702057134481897200,15.651897216796876,0.6765332818031311,1.4782938957214355,0.30695977807044983
1702057134498880800,15.668880859375,0.7199047207832336,1.4045319557189941,0.44135013222694397
1702057134515885600,15.685885498046876,0.7272350788116455,1.3758212327957153,0.5375614166259766
1702057134532879600,15.702879638671876,0.6834055185317993,1.363909363746643,0.5198463201522827
1702057134549874000,15.7198740234375,0.6058256030082703,1.354135513305664,0.3767511546611786
1702057134566868000,15.736867919921876,0.5419901609420776,1.3138184547424316,0.18310685455799103
1702057134583862500,15.753862548828126,0.4983133375644684,1.2609785795211792,0.07131851464509964
1702057134600856300,15.770856201171876,0.47311514616012573,1.2472341060638428,0.08811730891466141
1702057134617850600,15.7878505859375,0.45326200127601624,1.2654073238372803,0.18860463798046112
1702057134634844700,15.8048447265625,0.42088615894317627,1.2906055450439453,0.2909245789051056
1702057134651839000,15.8218388671875,0.34086281061172485,1.2930489778518677,0.3332269787788391
1702057134668833000,15.8388330078125,0.25366178154945374,1.3107640743255615,0.28848111629486084
1702057134685827300,15.855827392578124,0.2226603776216507,1.3413074016571045,0.1589776873588562
1702057134702821400,15.8728212890625,0.21838432550430298,1.3542882204055786,0.03527746722102165
1702057134719815400,15.8898154296875,0.21899518370628357,1.31748366355896,-0.02321287989616394
1702057134736810000,15.90681005859375,0.1996002197265625,1.2701416015625,-0.023518312722444534
1702057134753804000,15.923803955078125,0.22128593921661377,1.2602150440216064,0.012217304669320583
1702057134770795500,15.94079541015625,0.2611449062824249,1.262963891029358,0.08307767659425735
1702057134787795000,15.957794921875,0.29107728600502014,1.2767083644866943,0.14019356667995453
1702057134804786700,15.97478662109375,0.30146199464797974,1.2962560653686523,0.15027284622192383
1702057134821777700,15.991777587890626,0.30802878737449646,1.333213448524475,0.1508837193250656
1702057134838765000,16.00876513671875,0.32039880752563477,1.3720033168792725,0.17287486791610718
1702057134855768800,16.025768798828125,0.3536909818649292,1.4092661142349243,0.22846360504627228
1702057134872763100,16.04276318359375,0.4178318381309509,1.3978123664855957,0.2687807083129883
1702057134889746700,16.05974658203125,0.4607451260089874,1.3006848096847534,0.2402227520942688
1702057134906751500,16.07675146484375,0.44364088773727417,1.250593900680542,0.1414152979850769
1702057134923745500,16.09374560546875,0.3969096839427948,1.265865445137024,-0.025045474991202354
1702057134940739600,16.110739501953127,0.337503045797348,1.3454307317733765,-0.11942415684461594
1702057134957731600,16.127731689453125,0.3039054572582245,1.455691933631897,-0.0003054326225537807
1702057134974718700,16.14471875,0.34116822481155396,1.5529721975326538,0.289702832698822
1702057134991722200,16.16172216796875,0.4306600093841553,1.5868752002716064,0.5778785347938538
1702057135008716300,16.17871630859375,0.485027015209198,1.503339409828186,0.6809620261192322
1702057135025710600,16.195710693359374,0.45204028487205505,1.387274980545044,0.6015495657920837
1702057135042702000,16.2127021484375,0.4056145250797272,1.3225232362747192,0.384845107793808
1702057135059701500,16.229701416015626,0.38759398460388184,1.3523029088974,0.10033461451530457
1702057135076693000,16.24669287109375,0.3929390609264374,1.3910928964614868,-0.13301590085029602
1702057135093689000,16.263689208984374,0.39385536313056946,1.3406964540481567,-0.22372940182685852
1702057135110679600,16.280679443359375,0.36972618103027344,1.2121093273162842,-0.2399173229932785
1702057135127675600,16.297675537109374,0.32940909266471863,1.301142930984497,-0.2370157092809677
1702057135144669400,16.31466943359375,0.33292156457901,1.623374342918396,-0.19593502581119537
1702057135161664300,16.331664306640626,0.42531493306159973,1.964084506034851,-0.0806342139840126
1702057135178658000,16.348657958984376,0.5470298528671265,2.0926716327667236,0.06322455406188965
1702057135195652000,16.365652099609374,0.6892086863517761,1.9784398078918457,0.23548854887485504
1702057135212646700,16.382646728515624,0.8243626356124878,1.7609717845916748,0.41599923372268677
1702057135229640700,16.399640625,0.9158397316932678,1.5884023904800415,0.5199990272521973
1702057135246634800,16.416634765625,0.9630290865898132,1.5383113622665405,0.5090034604072571
1702057135263616000,16.433615966796875,0.936609148979187,1.5693128108978271,0.44028112292289734
1702057135280615200,16.450615234375,0.8675813674926758,1.6362025737762451,0.35873061418533325
1702057135297617400,16.467617431640626,0.8037459254264832,1.6920967102050781,0.2664899528026581
1702057135314611500,16.484611572265624,0.7451028823852539,1.6899586915969849,0.17272214591503143
1702057135331605500,16.50160546875,0.6753115057945251,1.6812539100646973,0.10186178237199783
1702057135348599800,16.518599853515624,0.6091853380203247,1.6893478631973267,0.06948592513799667
1702057135365594000,16.535593994140626,0.588874101638794,1.7095063924789429,0.06383541971445084
1702057135382588200,16.552588134765625,0.5940664410591125,1.6811012029647827,0.10430523753166199
1702057135399582500,16.56958251953125,0.5795583724975586,1.6708691120147705,0.20204368233680725
1702057135416576500,16.586576416015625,0.5488623976707458,1.6795740127563477,0.27550023794174194
1702057135433570600,16.603570556640626,0.5100724697113037,1.6812539100646973,0.2525927722454071
1702057135450564900,16.62056494140625,0.49586987495422363,1.7085901498794556,0.17287486791610718
1702057135467559000,16.637558837890627,0.531758189201355,1.7362316846847534,0.11911872029304504
1702057135484553200,16.65455322265625,0.5725334286689758,1.7131716012954712,0.14676037430763245
1702057135501547300,16.67154736328125,0.5792529582977295,1.6601790189743042,0.2177734673023224
1702057135518541300,16.688541259765625,0.5774203538894653,1.6510159969329834,0.23182335495948792
1702057135535535600,16.70553564453125,0.5710062980651855,1.703092336654663,0.17699819803237915
1702057135552529700,16.72252978515625,0.5737552046775818,1.7837265729904175,0.1293507218360901
1702057135569524000,16.73952392578125,0.6085745096206665,1.8211419582366943,0.11667526513338089
1702057135586515500,16.756515380859376,0.6919575929641724,1.793500304222107,0.14065171778202057
1702057135603513600,16.773513671875,0.7724391222000122,1.7253888845443726,0.2076941877603531
1702057135620513300,16.79051318359375,0.8080220222473145,1.663691520690918,0.2600758671760559
1702057135637500700,16.807500732421875,0.8032878041267395,1.599703311920166,0.2611449062824249
1702057135654494700,16.82449462890625,0.7797694802284241,1.585806131362915,0.2165517359972
1702057135671478500,16.841478515625,0.7373143434524536,1.6320792436599731,0.1411098688840866
1702057135688475000,16.858474853515624,0.71318519115448,1.733788251876831,0.10552696883678436
1702057135705466600,16.875466552734373,0.7203628420829773,1.7763961553573608,0.1342376321554184
1702057135722471400,16.892471435546874,0.7541131377220154,1.7708983421325684,0.21853704750537872
1702057135739465500,16.909465576171876,0.8014551997184753,1.722640037536621,0.3010038435459137
1702057135756459800,16.926459716796874,0.8071057200431824,1.6890424489974976,0.3269656300544739
1702057135773454000,16.9434541015625,0.7812966704368591,1.7148514986038208,0.27091872692108154
1702057135790448000,16.9604482421875,0.7502952218055725,1.79090416431427,0.20112738013267517
1702057135807449000,16.977448974609374,0.7446447610855103,1.845423936843872,0.17592918872833252
1702057135824436500,16.9944365234375,0.7840455174446106,1.852143406867981,0.2243402600288391
1702057135841428200,17.01142822265625,0.788627028465271,1.797776460647583,0.32391130924224854
1702057135858427100,17.02842724609375,0.779464066028595,1.7554739713668823,0.38576140999794006
1702057135875419000,17.0454189453125,0.7728972434997559,1.7644842863082886,0.36819902062416077
1702057135892413200,17.0624130859375,0.7470881938934326,1.7982345819473267,0.3075706362724304
1702057135909407500,17.079407470703124,0.7150177955627441,1.8359555006027222,0.2557998299598694
1702057135926401300,17.0964013671875,0.7014260292053223,1.8235855102539062,0.2347249686717987
1702057135943395600,17.1133955078125,0.693026602268219,1.737606167793274,0.24236078560352325
1702057135960390000,17.130389892578126,0.6556110978126526,1.656819224357605,0.28359419107437134
1702057135977384000,17.147384033203124,0.5952881574630737,1.6145168542861938,0.266184538602829
1702057135994375400,17.16437548828125,0.5422956347465515,1.6000088453292847,0.13209961354732513
1702057136011374800,17.181374755859373,0.483957976102829,1.606575608253479,-0.044287730008363724
1702057136028366300,17.198366455078126,0.42409318685531616,1.5821410417556763,-0.14828753471374512
1702057136045360600,17.215360595703125,0.3839288055896759,1.5332717895507812,-0.13377949595451355
1702057136062344200,17.23234423828125,0.36193767189979553,1.5192219018936157,-0.0507018156349659
1702057136079349000,17.249348876953125,0.36361753940582275,1.5720616579055786,0.03649919852614403
1702057136096343000,17.266343017578127,0.3854559659957886,1.5975652933120728,0.07223481684923172
1702057136113337300,17.28333740234375,0.39904773235321045,1.6395623683929443,0.10048733651638031
1702057136130331400,17.300331298828127,0.4147774875164032,1.6730071306228638,0.15485434234142303
1702057136147335700,17.317335693359375,0.4544837474822998,1.6644550561904907,0.21533000469207764
1702057136164319700,17.33431982421875,0.5316054821014404,1.5917620658874512,0.24388794600963593
1702057136181314000,17.35131396484375,0.5850561857223511,1.4787520170211792,0.2542726695537567
1702057136198308000,17.36830810546875,0.5458080768585205,1.4130840301513672,0.2796235680580139
1702057136215302400,17.385302490234373,0.48869219422340393,1.4016302824020386,0.24694228172302246
1702057136232296400,17.40229638671875,0.4743368625640869,1.4278974533081055,0.13072516024112701
1702057136249290800,17.419290771484373,0.4801400899887085,1.444696307182312,0.03420845419168472
1702057136266284800,17.436284912109375,0.49357911944389343,1.4129313230514526,0.021532999351620674
1702057136283278800,17.45327880859375,0.512210488319397,1.3300063610076904,0.0708603709936142
1702057136300270600,17.4702705078125,0.4873177409172058,1.3055717945098877,0.14019356667995453
1702057136317259500,17.487259521484376,0.4356996417045593,1.3784173727035522,0.12980885803699493
1702057136334261500,17.504261474609375,0.41599923372268677,1.457066297531128,-0.00809396430850029
1702057136351255800,17.521255859375,0.41691553592681885,1.4428637027740479,-0.16859880089759827
1702057136368249900,17.538249755859376,0.41370847821235657,1.4066699743270874,-0.23335053026676178
1702057136385244000,17.555243896484374,0.41691553592681885,1.4245377779006958,-0.20906862616539001
1702057136402227700,17.572227783203125,0.41859540343284607,1.5070046186447144,-0.13469578325748444
1702057136419232300,17.589232177734374,0.41951170563697815,1.6581937074661255,-0.04138612002134323
1702057136436226600,17.6062265625,0.417679101228714,1.7857118844985962,0.036041051149368286
1702057136453210400,17.62321044921875,0.4378376603126526,1.7576119899749756,0.09239336848258972
1702057136470214700,17.640214599609376,0.4763221740722656,1.6067283153533936,0.15424346923828125
1702057136487209000,17.657208984375,0.5186246037483215,1.4492777585983276,0.2594650089740753
1702057136504203300,17.674203369140624,0.5071708559989929,1.446223497390747,0.3553708493709564
1702057136521194800,17.69119482421875,0.47219884395599365,1.55892813205719,0.33658674359321594
1702057136538192400,17.7081923828125,0.4242459237575531,1.6574301719665527,0.23319780826568604
1702057136555187200,17.725187255859375,0.3880521357059479,1.677894115447998,0.13775011897087097
1702057136572180000,17.742179931640624,0.36453384160995483,1.633148193359375,0.09407325088977814
1702057136589174000,17.759174072265626,0.3478877544403076,1.6126842498779297,0.08185594528913498
1702057136606168300,17.776168212890624,0.3761402666568756,1.640325903892517,0.029932396486401558
1702057136623162400,17.793162353515626,0.43447789549827576,1.7165313959121704,-0.05192354694008827
1702057136640156400,17.810156494140625,0.504574716091156,1.7922786474227905,-0.11972958594560623
1702057136657150700,17.827150634765626,0.5887213945388794,1.8219056129455566,-0.14217889308929443
1702057136674144800,17.844144775390625,0.6976081132888794,1.764331579208374,-0.09758572280406952
1702057136691138800,17.861138916015626,0.8045095205307007,1.6742289066314697,0.013744467869400978
1702057136708133400,17.87813330078125,0.8709411025047302,1.634369969367981,0.13515393435955048
1702057136725127400,17.89512744140625,0.9195048809051514,1.6647604703903198,0.20204368233680725
1702057136742121500,17.91212158203125,0.9636399149894714,1.7217236757278442,0.21410827338695526
1702057136759115800,17.92911572265625,0.9950994849205017,1.736537218093872,0.192422553896904
1702057136776107300,17.946107177734376,0.9952521920204163,1.6826282739639282,0.19394971430301666
1702057136793106700,17.963106689453124,0.9903652667999268,1.6316211223602295,0.20036379992961884
1702057136810088200,17.980088134765627,0.988379955291748,1.592373013496399,0.20387627184391022
1702057136827092200,17.99709228515625,0.9888381361961365,1.5824464559555054,0.20876319706439972
1702057136844076300,18.014076171875,0.9532552361488342,1.616349458694458,0.20906862616539001
1702057136861080800,18.031080810546875,0.8888089060783386,1.6751452684402466,0.20372356474399567
1702057136878074600,18.04807470703125,0.8469646573066711,1.7357735633850098,0.1615738570690155
1702057136895069000,18.06506884765625,0.846659243106842,1.7599027156829834,0.12186761945486069
1702057136912063200,18.082063232421874,0.846659243106842,1.7418822050094604,0.13530665636062622
1702057136929057500,18.0990576171875,0.8426886200904846,1.7117971181869507,0.194713294506073
1702057136946044000,18.1160439453125,0.8391761183738708,1.7046194076538086,0.2509129047393799
1702057136963045600,18.133045654296875,0.8327620625495911,1.7516560554504395,0.2739730477333069
1702057136980039700,18.150039794921874,0.8097018599510193,1.7815884351730347,0.27351492643356323
1702057136997034200,18.1670341796875,0.7958046793937683,1.7837265729904175,0.28435778617858887
1702057137014028300,18.1840283203125,0.8512406945228577,1.7739527225494385,0.32788193225860596
1702057137031022300,18.201022216796876,0.9265298843383789,1.7234035730361938,0.44913867115974426
1702057137048016400,18.218016357421874,0.936609148979187,1.686446189880371,0.5777258276939392
1702057137065010700,18.2350107421875,0.9051495790481567,1.7006487846374512,0.6207917928695679
1702057137082002200,18.252002197265625,0.8487972617149353,1.7957911491394043,0.48609602451324463
1702057137099001600,18.269001708984376,0.7727445363998413,1.761582612991333,0.1736384481191635
1702057137115993000,18.2859931640625,0.6928738951683044,1.565953016281128,-0.14523321390151978
1702057137132987100,18.302987060546876,0.6085745096206665,1.431868076324463,-0.27061331272125244
1702057137149981700,18.319981689453126,0.598647952079773,1.4989105463027954,-0.17821992933750153
1702057137166975700,18.336975830078124,0.6873761415481567,1.7402023077011108,0.05619960278272629
1702057137183969800,18.3539697265625,0.8672759532928467,1.938886284828186,0.26633724570274353
1702057137200964000,18.370964111328124,0.9699012637138367,1.956906795501709,0.38408151268959045
1702057137217958100,18.387958251953126,1.002277135848999,1.7907514572143555,0.4184426963329315
1702057137234946600,18.404946533203123,1.0129673480987549,1.5929838418960571,0.41431936621665955
1702057137251946500,18.421946533203126,1.0181596279144287,1.5529721975326538,0.38576140999794006
1702057137268936700,18.438936767578124,1.012050986289978,1.6123788356781006,0.36361753940582275
1702057137285939000,18.45593896484375,0.979216992855072,1.6502524614334106,0.3727805018424988
1702057137302929000,18.472928955078125,0.8994990587234497,1.6242907047271729,0.4053090810775757
1702057137319912700,18.48991259765625,0.8358163833618164,1.605353832244873,0.3854559659957886
1702057137336917200,18.506917236328125,0.7866417169570923,1.6342172622680664,0.3168863356113434
1702057137353911600,18.52391162109375,0.7325801253318787,1.6322319507598877,0.23396138846874237
1702057137370903300,18.5409033203125,0.6551529765129089,1.615127682685852,0.18081611394882202
1702057137387902500,18.55790234375,0.5685628056526184,1.621999979019165,0.15393804013729095
1702057137404894200,18.574894287109377,0.5148066878318787,1.6090190410614014,0.11759155988693237
1702057137421888300,18.59188818359375,0.49556443095207214,1.563051462173462,0.0685696229338646
1702057137438882300,18.60888232421875,0.48685958981513977,1.514793038368225,0.015882495790719986
1702057137455876600,18.625876708984375,0.4531092941761017,1.4776830673217773,-0.0013744467869400978
1702057137472870700,18.64287060546875,0.39645153284072876,1.500285029411316,0.01970040425658226
1702057137489865000,18.659864990234375,0.3654501438140869,1.531133770942688,0.056810468435287476
1702057137506859300,18.676859375,0.3721696436405182,1.566258430480957,0.10949759185314178
1702057137523842600,18.693842529296877,0.4260784983634949,1.5676329135894775,0.1661553531885147
1702057137540837400,18.71083740234375,0.4888449013233185,1.5091426372528076,0.23594669997692108
1702057137557841400,18.72784130859375,0.5227479338645935,1.4842498302459717,0.31062498688697815
1702057137574833000,18.7448330078125,0.5174028873443604,1.5320500135421753,0.3550654351711273
1702057137591832600,18.76183251953125,0.5148066878318787,1.5590808391571045,0.3462078869342804
1702057137608824000,18.778823974609374,0.5244278311729431,1.4917329549789429,0.32039880752563477
1702057137625815000,18.79581494140625,0.5209153294563293,1.3862059116363525,0.3245221674442291
1702057137642812400,18.8128125,0.49816060066223145,1.3031282424926758,0.33918291330337524
1702057137659806500,18.829806396484376,0.48655417561531067,1.3142765760421753,0.2938261926174164
1702057137676800800,18.84680078125,0.48808133602142334,1.3574953079223633,0.1768454909324646
1702057137693794800,18.863794921875,0.4758640229701996,1.3663527965545654,0.07177666574716568
1702057137710789000,18.8807890625,0.4605923891067505,1.3607022762298584,0.023976460099220276
1702057137727783200,18.897783203125,0.4593706727027893,1.3341296911239624,0.018020525574684143
1702057137744777500,18.914777587890626,0.4674646258354187,1.277471899986267,0.028557950630784035
1702057137761771500,18.931771484375,0.4917465150356293,1.2353222370147705,0.02168571576476097
1702057137778765800,18.948765869140626,0.5120577812194824,1.2822061777114868,0.049785517156124115
1702057137795759900,18.965759765625,0.5138903856277466,1.3548991680145264,0.1287398487329483
1702057137812754200,18.982754150390626,0.5071708559989929,1.4155274629592896,0.2125810980796814
1702057137829748200,18.999748291015624,0.4918992519378662,1.3758212327957153,0.27947086095809937
1702057137846742300,19.0167421875,0.4735732674598694,1.2557861804962158,0.32528573274612427
1702057137863736600,19.033736572265624,0.43829581141471863,1.1464413404464722,0.3423899710178375
1702057137880730600,19.050730712890626,0.3952298164367676,1.1701123714447021,0.3136793076992035
1702057137897714700,19.067714599609374,0.3504839241504669,1.294118046760559,0.24083362519741058
1702057137914719000,19.084718994140626,0.280539870262146,1.3878858089447021,0.1941024363040924
1702057137931713300,19.10171337890625,0.21594086289405823,1.4091134071350098,0.18127426505088806
1702057137948707300,19.118707275390626,0.2197587788105011,1.4274393320083618,0.15592335164546967
1702057137965701600,19.13570166015625,0.2587014436721802,1.4260649681091309,0.11423180252313614
1702057137982695700,19.15269580078125,0.2791654169559479,1.4428637027740479,0.08048149943351746
1702057137999687400,19.1696875,0.3000875413417816,1.5066990852355957,0.05146539583802223
1702057138016680700,19.1866806640625,0.3778201639652252,1.5525140762329102,0.023365596309304237
1702057138033680100,19.20368017578125,0.4781547784805298,1.550986886024475,0.022449297830462456
1702057138050672400,19.22067236328125,0.5470298528671265,1.492038369178772,0.06322455406188965
1702057138067666700,19.237666748046873,0.5780312418937683,1.4343116283416748,0.11239920556545258
1702057138084660700,19.25466064453125,0.6430884003639221,1.5230398178100586,0.1414152979850769
1702057138101655000,19.271655029296873,0.7638869881629944,1.6252069473266602,0.18585574626922607
1702057138118648800,19.28864892578125,0.8776606321334839,1.6467399597167969,0.2845104932785034
1702057138135641600,19.3056416015625,0.9549350738525391,1.5612188577651978,0.3956879675388336
1702057138152639200,19.32263916015625,0.9879218339920044,1.4631749391555786,0.45784351229667664
1702057138169631500,19.339631591796874,0.9705121517181396,1.4521794319152832,0.4584543704986572
1702057138186625800,19.356625732421875,0.9190467596054077,1.4892895221710205,0.38026362657546997
1702057138203619800,19.373619873046874,0.8526151776313782,1.5740469694137573,0.23777928948402405
1702057138220614100,19.3906142578125,0.8124507665634155,1.6270395517349243,0.10583240538835526
1702057138237608400,19.4076083984375,0.8246681094169617,1.6537649631500244,0.062460970133543015
1702057138254602500,19.4246025390625,0.8659014701843262,1.6424639225006104,0.11728613078594208
1702057138271596500,19.441596435546874,0.879493236541748,1.6088663339614868,0.24465152621269226
1702057138288590800,19.4585908203125,0.8852964639663696,1.6409367322921753,0.34162637591362
1702057138305574700,19.47557470703125,0.875064492225647,1.702786922454834,0.3449861407279968
1702057138322579200,19.4925791015625,0.8567385077476501,1.7093536853790283,0.26939156651496887
1702057138339573200,19.5095732421875,0.8292495608329773,1.7061465978622437,0.2217440903186798
1702057138356567300,19.5265673828125,0.8373435139656067,1.7554739713668823,0.24602597951889038
1702057138373561600,19.5435615234375,0.8532260060310364,1.794722080230713,0.31261029839515686
1702057138390556000,19.560555908203124,0.8567385077476501,1.7534886598587036,0.33399057388305664
1702057138407555600,19.5775556640625,0.8295549750328064,1.6391041278839111,0.2519819140434265
1702057138424544300,19.594544189453124,0.8002334833145142,1.529606580734253,0.1085812970995903
1702057138441535700,19.61153564453125,0.8002334833145142,1.5308283567428589,-0.0024434609804302454
1702057138458532400,19.628532470703124,0.8061894178390503,1.7122552394866943,0.05390885844826698
1702057138475526000,19.64552587890625,0.8655960559844971,1.9300287961959839,0.22632557153701782
1702057138492521000,19.66252099609375,0.941343367099762,1.9830212593078613,0.38896843791007996
1702057138509515000,19.679514892578126,0.9818131923675537,1.7866281270980835,0.4576907753944397
1702057138526509000,19.696509033203125,1.0002918243408203,1.5541938543319702,0.5036584138870239
1702057138543503400,19.71350341796875,1.0268645286560059,1.4445436000823975,0.5117523670196533
1702057138560497700,19.73049755859375,1.0322095155715942,1.4373658895492554,0.47479501366615295
1702057138577491700,19.74749169921875,0.988074541091919,1.4246904850006104,0.4138612151145935
1702057138594485800,19.76448583984375,0.901637077331543,1.3976596593856812,0.36789360642433167
1702057138611477200,19.781477294921874,0.7929030656814575,1.4185818433761597,0.3597996234893799
1702057138628476700,19.7984765625,0.7089090943336487,1.4717271327972412,0.3539963960647583
1702057138645468400,19.815468505859375,0.6262896060943604,1.492343783378601,0.35521814227104187
1702057138662462500,19.83246240234375,0.5448917746543884,1.4874569177627563,0.3597996234893799
1702057138679456800,19.849456787109375,0.47800204157829285,1.504713773727417,0.3396410644054413
1702057138696440800,19.86644091796875,0.4202753007411957,1.5086843967437744,0.2715296149253845
1702057138713444900,19.88344482421875,0.36789360642433167,1.4726433753967285,0.18325957655906677
1702057138730439200,19.900439208984373,0.32039880752563477,1.429271936416626,0.12553280591964722
1702057138747433500,19.91743359375,0.28435778617858887,1.3924673795700073,0.12431107461452484
1702057138764427500,19.934427490234373,0.28237244486808777,1.3968961238861084,0.164170041680336
1702057138781421600,19.951421630859375,0.2935207486152649,1.4092661142349243,0.21135938167572021
1702057138798397400,19.9683974609375,0.2866485118865967,1.4054481983184814,0.2347249686717987
1702057138815410200,19.98541015625,0.2577851414680481,1.4063645601272583,0.206777885556221
1702057138832404200,20.002404296875,0.2713768780231476,1.3533719778060913,0.16325373947620392
1702057138849398300,20.019398193359375,0.3194825351238251,1.306488037109375,0.16371189057826996
1702057138866387000,20.036386962890624,0.35094207525253296,1.3101532459259033,0.22800545394420624
1702057138883386600,20.05338671875,0.36102136969566345,1.3326025009155273,0.29336804151535034
1702057138900378400,20.07037841796875,0.3649919927120209,1.3252722024917603,0.28527405858039856
1702057138917377800,20.087377685546876,0.3674354553222656,1.3283264636993408,0.21059578657150269
1702057138934378000,20.1043779296875,0.3585779070854187,1.3423763513565063,0.1316414624452591
1702057138951363300,20.12136328125,0.361174076795578,1.39323091506958,0.1108720451593399
1702057138968357600,20.138357666015626,0.3897320330142975,1.4451544284820557,0.1514945775270462
1702057138985351700,20.1553515625,0.40973785519599915,1.4508049488067627,0.2093740701675415
1702057139002346000,20.172345947265626,0.42149701714515686,1.3817771673202515,0.21181751787662506
1702057139019324400,20.189324462890625,0.4057672321796417,1.2852604389190674,0.16982053220272064
1702057139036334300,20.206334228515626,0.4024074673652649,1.2820534706115723,0.10170906037092209
1702057139053328400,20.223328369140624,0.41233405470848083,1.3271046876907349,0.0754418596625328
1702057139070322700,20.24032275390625,0.4205807149410248,1.3785701990127563,0.14706580340862274
1702057139087316700,20.257316650390624,0.4196644127368927,1.412778615951538,0.28237244486808777
1702057139104315600,20.274315673828124,0.4141666293144226,1.4164438247680664,0.3929390609264374
1702057139121305000,20.29130517578125,0.3908010423183441,1.3820825815200806,0.39843684434890747
1702057139138299100,20.308299072265626,0.304669052362442,1.3869695663452148,0.3251330256462097
1702057139155293400,20.32529345703125,0.2451096773147583,1.44057297706604,0.24190263450145721
1702057139172287500,20.34228759765625,0.2718350291252136,1.4485142230987549,0.1823432743549347
1702057139189267700,20.359267822265625,0.35384368896484375,1.4306464195251465,0.18845193088054657
1702057139206276000,20.376276123046875,0.4363104999065399,1.4605787992477417,0.23579397797584534
1702057139223270100,20.393270263671877,0.4804455041885376,1.4782938957214355,0.3068070709705353
1702057139240264200,20.41026416015625,0.4772384762763977,1.493260145187378,0.32268956303596497
1702057139257258500,20.427258544921877,0.45005497336387634,1.5358679294586182,0.2393064647912979
1702057139274252500,20.44425244140625,0.4509712755680084,1.5913039445877075,0.10690141469240189
1702057139291246600,20.46124658203125,0.48609602451324463,1.5792393684387207,0.030543262138962746
1702057139308241000,20.478240966796875,0.5254968404769897,1.5080735683441162,0.06398813426494598
1702057139325235200,20.495235107421873,0.5462662577629089,1.4515684843063354,0.15012013912200928
1702057139342219000,20.512218994140625,0.5364924073219299,1.4201090335845947,0.1944078654050827
1702057139359223600,20.5292236328125,0.5112941861152649,1.4595097303390503,0.18585574626922607
1702057139376217600,20.546217529296875,0.4804455041885376,1.5697709321975708,0.17150041460990906
1702057139393201400,20.563201416015627,0.48487427830696106,1.6410894393920898,0.17592918872833252
1702057139410206000,20.5802060546875,0.5345070958137512,1.610698938369751,0.2119702398777008
1702057139427200300,20.5972001953125,0.6157521605491638,1.5196800231933594,0.2922990322113037
1702057139444194300,20.6141943359375,0.6540839672088623,1.4492777585983276,0.38606682419776917
1702057139461188400,20.631188232421874,0.6650795340538025,1.4211779832839966,0.4011857509613037
1702057139478182400,20.648182373046875,0.6482807397842407,1.412473201751709,0.3326161205768585
1702057139495176700,20.6651767578125,0.6249151229858398,1.444390892982483,0.22082778811454773
1702057139512171000,20.6821708984375,0.6198754906654358,1.4634803533554077,0.12293662875890732
1702057139529165000,20.6991650390625,0.6540839672088623,1.4205671548843384,0.09407325088977814
1702057139546154800,20.71615478515625,0.6763805150985718,1.3716979026794434,0.1408044397830963
1702057139563153400,20.7331533203125,0.6887505650520325,1.3790283203125,0.2047925740480423
1702057139580138000,20.750137939453126,0.6861543655395508,1.404073715209961,0.23273965716362
1702057139597141800,20.767141845703126,0.6757696866989136,1.4534010887145996,0.21899518370628357
1702057139614136000,20.784135986328124,0.6603453159332275,1.5048664808273315,0.18509216606616974
1702057139631130000,20.801130126953126,0.6559165716171265,1.488220453262329,0.16951510310173035
1702057139648124400,20.81812451171875,0.6803511381149292,1.4240796566009521,0.18814650177955627
1702057139665118500,20.835118408203126,0.7144069075584412,1.3968961238861084,0.17821992933750153
1702057139682112800,20.85211279296875,0.7318165898323059,1.45004141330719,0.1362229436635971
1702057139699106800,20.86910693359375,0.7302893996238708,1.568701982498169,0.07757988572120667
1702057139716098300,20.886098388671876,0.7046330571174622,1.6575828790664673,0.02626720629632473
1702057139733095200,20.90309521484375,0.7076873779296875,1.653917670249939,0.027183502912521362
1702057139750092000,20.920092041015625,0.7605272531509399,1.5937473773956299,0.07330382615327835
1702057139767083500,20.93708349609375,0.8629998564720154,1.5354098081588745,0.17547103762626648
1702057139784077800,20.954077880859376,0.9233227968215942,1.4804319143295288,0.31810808181762695
1702057139801068000,20.971068115234374,0.8972083330154419,1.5293011665344238,0.3995058834552765
1702057139818069800,20.98806982421875,0.8384125232696533,1.632842779159546,0.3543018400669098
1702057139835060200,21.005060302734375,0.7922922372817993,1.6823228597640991,0.24556782841682434
1702057139852054300,21.02205419921875,0.7913759350776672,1.6493362188339233,0.18448130786418915
1702057139869046800,21.039046875,0.8136724829673767,1.5302174091339111,0.20005837082862854
1702057139886045400,21.05604541015625,0.7941248416900635,1.3894129991531372,0.2513710558414459
1702057139903037000,21.073036865234375,0.6974554061889648,1.3498594760894775,0.24434609711170197
1702057139920031000,21.090031005859377,0.608421802520752,1.4672982692718506,0.13988813757896423
1702057139937022500,21.1070224609375,0.5546656250953674,1.5416711568832397,0.04841107130050659
1702057139954013000,21.124012939453124,0.523511528968811,1.5380059480667114,0.06902777403593063
1702057139971008300,21.14100830078125,0.5325217843055725,1.489442229270935,0.16401731967926025
1702057139988007700,21.158007568359373,0.5480988621711731,1.3941471576690674,0.2557998299598694
1702057140005002000,21.175001953125,0.5279402732849121,1.3319916725158691,0.3219259977340698
1702057140021996000,21.19199609375,0.45005497336387634,1.3813190460205078,0.3773620128631592
1702057140038999800,21.208999755859374,0.37598755955696106,1.479362964630127,0.39217549562454224
1702057140055984400,21.225984375,0.34162637591362,1.524566888809204,0.3854559659957886
1702057140072978400,21.242978515625,0.3465133011341095,1.475545048713684,0.3729332387447357
1702057140089979400,21.2599794921875,0.34804046154022217,1.381929874420166,0.361174076795578
1702057140106967300,21.27696728515625,0.3225368559360504,1.311833143234253,0.3260493278503418
1702057140123958500,21.29395849609375,0.2793181240558624,1.31916344165802,0.2577851414680481
1702057140140957700,21.310957763671876,0.2428189367055893,1.410029649734497,0.1644754707813263
1702057140157939200,21.327939208984375,0.23319780826568604,1.4726433753967285,0.07299839705228806
1702057140174943500,21.344943603515624,0.26893341541290283,1.4445436000823975,0.04612032696604729
1702057140191937800,21.361937744140626,0.33337971568107605,1.3687963485717773,0.08765916526317596
1702057140208932000,21.37893212890625,0.3836233615875244,1.2739595174789429,0.1411098688840866
1702057140225926100,21.395926025390626,0.403323769569397,1.2460123300552368,0.16798794269561768
