time,seconds_elapsed,z,y,x
1702062828132028200,0.068028076171875,0.10537425428628922,0.0734565481543541,0.11514809727668762
1702062828148674300,0.08467431640625,0.09682214260101318,0.07513642311096191,0.13759739696979523
1702062828165494500,0.10149462890625,0.10949759185314178,0.1010981947183609,0.15531249344348907
1702062828182489300,0.1184892578125,0.11911872029304504,0.1420261710882187,0.1547016203403473
1702062828199483000,0.13548291015625,0.12507465481758118,0.18157969415187836,0.12202033400535583
1702062828216478200,0.152478271484375,0.14278975129127502,0.2379320114850998,0.06933320313692093
1702062828233468000,0.169468017578125,0.1638645976781845,0.2997821271419525,-0.018020525574684143
1702062828250465000,0.186465087890625,0.1898263692855835,0.34895676374435425,-0.07712173461914062
1702062828267457800,0.203457763671875,0.2356412708759308,0.3819434940814972,-0.05360342562198639
1702062828284456200,0.220456298828125,0.2854267954826355,0.41141775250434875,0.01542434748262167
1702062828301443000,0.237443115234375,0.33735033869743347,0.4277583956718445,0.06811147183179855
1702062828318441200,0.254441162109375,0.3982841372489929,0.403781920671463,0.0936150997877121
1702062828335434200,0.271434326171875,0.48227810859680176,0.3425426781177521,0.15241087973117828
1702062828352424000,0.288423828125,0.5754350423812866,0.3116939961910248,0.22159136831760406
1702062828369420000,0.305419921875,0.6464481353759766,0.3588833212852478,0.21212296187877655
1702062828386407000,0.322406982421875,0.7177666425704956,0.4905247986316681,0.1791362315416336
1702062828403405000,0.339405029296875,0.7793113589286804,0.6102544069290161,0.1719585657119751
1702062828420401000,0.35640087890625,0.7973318696022034,0.5884159207344055,0.17119498550891876
1702062828437396200,0.373396240234375,0.7909177541732788,0.49266281723976135,0.1592831164598465
1702062828454385700,0.3903857421875,0.7982481718063354,0.46211954951286316,0.14446963369846344
1702062828471382800,0.4073828125,0.8229882121086121,0.5510004758834839,0.13271047174930573
1702062828488376600,0.42437646484375,0.8156577944755554,0.7000515460968018,0.14324790239334106
1702062828505379800,0.4413798828125,0.7884743213653564,0.8823948502540588,0.1589776873588562
1702062828522354200,0.458354248046875,0.7678576111793518,1.0441213846206665,0.1598939746618271
1702062828539358000,0.47535791015625,0.7504479289054871,1.0888673067092896,0.1339322030544281
1702062828556352300,0.492352294921875,0.7021896243095398,1.0062477588653564,0.076052725315094
1702062828573341700,0.509341796875,0.627358615398407,0.8626944422721863,0.04398229718208313
1702062828590338000,0.526338134765625,0.5656611919403076,0.8263479471206665,0.12568552792072296
1702062828607333400,0.54333349609375,0.5786421298980713,0.9036223888397217,0.25931230187416077
1702062828624323300,0.5603232421875,0.6294966340065002,1.0152580738067627,0.3549126982688904
1702062828641320200,0.5773203125,0.6812674403190613,1.1438452005386353,0.3778201639652252
1702062828658312700,0.594312744140625,0.6879869699478149,1.2023354768753052,0.3623957931995392
1702062828675308300,0.611308349609375,0.645684540271759,1.1320860385894775,0.3799581825733185
1702062828692298000,0.628298095703125,0.6188064813613892,1.0199922323226929,0.43478333950042725
1702062828709294000,0.645294189453125,0.6261368989944458,0.9019425511360168,0.4612032473087311
1702062828726284000,0.662283935546875,0.6079636216163635,0.7648032903671265,0.4619668424129486
1702062828743278800,0.67927880859375,0.5426010489463806,0.7342600226402283,0.47540587186813354
1702062828760275000,0.69627490234375,0.4841107130050659,0.7232644557952881,0.45326200127601624
1702062828777260000,0.713260009765625,0.4482223689556122,0.6998988389968872,0.3741549551486969
1702062828794260200,0.73026025390625,0.4144720733165741,0.6618725061416626,0.2382374405860901
1702062828811257300,0.74725732421875,0.36529740691185,0.6352998614311218,0.11071932315826416
1702062828828250000,0.76425,0.3352122902870178,0.6800457239151001,0.07452555745840073
1702062828845245400,0.781245361328125,0.33796119689941406,0.7214318513870239,0.1241583600640297
1702062828862235000,0.79823486328125,0.3478877544403076,0.7148650288581848,0.2587014436721802
1702062828879231000,0.81523095703125,0.37140607833862305,0.6624833345413208,0.4108068645000458
1702062828896213800,0.8322138671875,0.39965859055519104,0.5838344693183899,0.5015203952789307
1702062828913218600,0.849218505859375,0.4225660264492035,0.5164865851402283,0.5241223573684692
1702062828930201900,0.866201904296875,0.4222606122493744,0.4789183437824249,0.46929723024368286
1702062828947205000,0.883205078125,0.41828998923301697,0.4888449013233185,0.3790418803691864
1702062828964199700,0.90019970703125,0.4297437071800232,0.5061018466949463,0.31444287300109863
1702062828981184000,0.91718408203125,0.45204028487205505,0.4836525619029999,0.3000875413417816
1702062828998187300,0.934187255859375,0.45982882380485535,0.4648684561252594,0.3017674386501312
1702062829015182300,0.951182373046875,0.45173484086990356,0.4834998548030853,0.28466320037841797
1702062829032172300,0.96817236328125,0.4265366494655609,0.537408709526062,0.23777928948402405
1702062829049168100,0.985168212890625,0.41523563861846924,0.5812382698059082,0.14905111491680145
1702062829066163700,1.002163818359375,0.4034765064716339,0.5830708742141724,0.04948008432984352
1702062829083153200,1.019153076171875,0.4231768846511841,0.5574145317077637,-0.00427605677396059
1702062829100146400,1.036146484375,0.4697553813457489,0.5647448897361755,0.01817324012517929
1702062829117147600,1.053147705078125,0.5070181488990784,0.5803219676017761,0.10231992602348328
1702062829134134300,1.07013427734375,0.5480988621711731,0.6275113224983215,0.19135354459285736
1702062829151131400,1.08713134765625,0.603076696395874,0.7031059265136719,0.22876903414726257
1702062829168119300,1.104119384765625,0.6598871946334839,0.7353290319442749,0.22632557153701782
1702062829185119200,1.121119140625,0.6994407176971436,0.7113525867462158,0.23136521875858307
1702062829202100200,1.138100341796875,0.7283040881156921,0.671493649482727,0.27030786871910095
1702062829219107800,1.15510791015625,0.7515169382095337,0.632398247718811,0.3289509415626526
1702062829236100600,1.1721005859375,0.760832667350769,0.6296493411064148,0.37598755955696106
1702062829253090300,1.18909033203125,0.755793035030365,0.6582072973251343,0.3700316250324249
1702062829270086700,1.206086669921875,0.7527387142181396,0.7070765495300293,0.3223841190338135
1702062829287081700,1.223081787109375,0.7535023093223572,0.7568620443344116,0.28955012559890747
1702062829304068400,1.240068359375,0.7576256394386292,0.8060367107391357,0.2906191349029541
1702062829321068300,1.257068359375,0.7661777138710022,0.8245153427124023,0.2926044464111328
1702062829338061300,1.274061279296875,0.7560984492301941,0.8037459254264832,0.2877175211906433
1702062829355056600,1.291056640625,0.7548767328262329,0.8304712772369385,0.3156646192073822
1702062829372046300,1.30804638671875,0.7629706859588623,0.8834638595581055,0.3669773042201996
1702062829389040600,1.32504052734375,0.7712173461914062,0.930347740650177,0.4306600093841553
1702062829406039600,1.34203955078125,0.7954992651939392,0.9706648588180542,0.46364670991897583
1702062829423034400,1.359034423828125,0.8240572214126587,0.9871582388877869,0.4331034719944
1702062829440023600,1.3760234375,0.8455902338027954,0.9529497623443604,0.35934147238731384
1702062829457019000,1.393018798828125,0.8425359129905701,0.8819366693496704,0.26343563199043274
1702062829474008600,1.410008544921875,0.8327620625495911,0.8723155856132507,0.15561792254447937
1702062829491007200,1.42700732421875,0.8382598161697388,0.9450085163116455,0.051770828664302826
1702062829507996700,1.44399658203125,0.8578075170516968,1.0193814039230347,0.006719517521560192
1702062829524993500,1.46099365234375,0.8805622458457947,1.0468703508377075,0.036041051149368286
1702062829541983200,1.477983154296875,0.9158397316932678,0.9865473508834839,0.1010981947183609
1702062829558965500,1.494965576171875,0.9749409556388855,0.8474228382110596,0.21319197118282318
1702062829575975000,1.511974853515625,1.0209085941314697,0.7246388792991638,0.3396410644054413
1702062829592964600,1.528964599609375,1.020603060722351,0.6963863968849182,0.4193589985370636
1702062829609960700,1.545960693359375,0.9906707406044006,0.7565566301345825,0.427452951669693
1702062829626959400,1.56295947265625,0.9111055135726929,0.8235990405082703,0.38576140999794006
1702062829643950000,1.5799501953125,0.8503243923187256,0.8471173644065857,0.30970868468284607
1702062829660949500,1.596949462890625,0.8208501935005188,0.7806857824325562,0.2321287989616394
1702062829677927200,1.61392724609375,0.7809911966323853,0.6633996367454529,0.21059578657150269
1702062829694928600,1.6309287109375,0.7008151412010193,0.6023131608963013,0.2542726695537567
1702062829711922000,1.647921875,0.5922338366508484,0.6739370822906494,0.304669052362442
1702062829728921300,1.66492138671875,0.5129740834236145,0.8269588351249695,0.33719760179519653
1702062829745914600,1.68191455078125,0.46960264444351196,0.9592111706733704,0.37522396445274353
1702062829762903600,1.698903564453125,0.4492913782596588,1.0525208711624146,0.4014911949634552
1702062829779895600,1.7158955078125,0.43218716979026794,1.1189523935317993,0.4155410826206207
1702062829796899600,1.732899658203125,0.4043927788734436,1.1403326988220215,0.4173736870288849
1702062829813883100,1.749883056640625,0.36483925580978394,1.1287262439727783,0.39538252353668213
1702062829830877000,1.766876953125,0.3344487249851227,1.1226176023483276,0.3623957931995392
1702062829847875000,1.783875,0.3396410644054413,1.12506103515625,0.3075706362724304
1702062829864857600,1.800857666015625,0.3666718602180481,1.1242974996566772,0.26710084080696106
1702062829881855000,1.81785498046875,0.39874228835105896,1.1074986457824707,0.28298333287239075
1702062829898856200,1.834856201171875,0.4280638098716736,1.1081095933914185,0.3344487249851227
1702062829915849000,1.851848876953125,0.4567744731903076,1.0992519855499268,0.37400224804878235
1702062829932838700,1.868838623046875,0.47311514616012573,1.0687087774276733,0.3669773042201996
1702062829949835000,1.8858349609375,0.4787656366825104,1.0100656747817993,0.36590829491615295
1702062829966830000,1.902830078125,0.4735732674598694,0.9428704977035522,0.44028112292289734
1702062829983818500,1.919818603515625,0.456163614988327,0.9230173826217651,0.5668829679489136
1702062830000818000,1.93681787109375,0.42638394236564636,1.0073168277740479,0.6559165716171265
1702062830017800200,1.95380029296875,0.42271876335144043,1.1073459386825562,0.6243042945861816
1702062830034805000,1.970804931640625,0.4259257912635803,1.1534663438796997,0.4764748811721802
1702062830051796000,1.9877958984375,0.40912699699401855,1.1410962343215942,0.27809640765190125
1702062830068790800,2.004790771484375,0.33658674359321594,1.0178542137145996,0.04917465150356293
1702062830085776000,2.02177587890625,0.22770002484321594,0.9082038998603821,-0.15363261103630066
1702062830102786800,2.038786865234375,0.17043140530586243,0.9518807530403137,-0.2255619913339615
1702062830119772000,2.05577197265625,0.20128010213375092,1.1258246898651123,-0.11728613078594208
1702062830136767200,2.072767333984375,0.3072652220726013,1.316567301750183,0.14049901068210602
1702062830153757000,2.0897568359375,0.45036038756370544,1.4300355911254883,0.46899178624153137
1702062830170753800,2.10675390625,0.5458080768585205,1.3468050956726074,0.7272350788116455
1702062830187746600,2.12374658203125,0.556345522403717,1.1099421977996826,0.8103127479553223
1702062830204742400,2.140742431640625,0.5316054821014404,0.9019425511360168,0.7142542004585266
1702062830221731800,2.15773193359375,0.49877145886421204,0.8008443117141724,0.5126686692237854
1702062830238728000,2.17472802734375,0.46990808844566345,0.8074111342430115,0.3116939961910248
1702062830255723300,2.19172314453125,0.4360050559043884,0.9130908250808716,0.14813482761383057
1702062830272703000,2.208702880859375,0.3917173445224762,1.06657075881958,0.012980886735022068
1702062830289711600,2.225711669921875,0.34758231043815613,1.147204875946045,-0.14844025671482086
1702062830306704000,2.242703857421875,0.3623957931995392,1.1856894493103027,-0.3061962127685547
1702062830323697700,2.25969775390625,0.4586070775985718,1.2383766174316406,-0.36132678389549255
1702062830340693000,2.27669287109375,0.5992587804794312,1.3017538785934448,-0.24953845143318176
1702062830357678000,2.293677978515625,0.7615962624549866,1.337031364440918,0.0006108652451075613
1702062830374701300,2.310701416015625,0.9130908250808716,1.249066710472107,0.2785545587539673
1702062830391673300,2.32767333984375,1.0031934976577759,1.0813841819763184,0.4547891616821289
1702062830408664600,2.34466455078125,1.0216721296310425,0.993725061416626,0.521984338760376
1702062830425660400,2.361660400390625,0.99876469373703,1.0335839986801147,0.5204572081565857
1702062830442649300,2.3786494140625,0.9712757468223572,1.1684324741363525,0.48426342010498047
1702062830459653600,2.395653564453125,0.9405797719955444,1.2793045043945312,0.4216497242450714
1702062830476639000,2.412638916015625,0.9230173826217651,1.3353514671325684,0.34315356612205505
1702062830493636000,2.429635986328125,0.8787296414375305,1.3220651149749756,0.26022860407829285
1702062830510622500,2.44662255859375,0.8060367107391357,1.2957979440689087,0.1915062516927719
1702062830527611000,2.46361083984375,0.7544185519218445,1.33168625831604,0.14538592100143433
1702062830544614400,2.480614501953125,0.75105881690979,1.4324790239334106,0.1270599663257599
1702062830561611800,2.49761181640625,0.7632761001586914,1.5312864780426025,0.13118331134319305
1702062830578603300,2.514603271484375,0.7950411438941956,1.5754214525222778,0.15592335164546967
1702062830595598300,2.531598388671875,0.8434522151947021,1.5751160383224487,0.1966986060142517
1702062830612587000,2.5485869140625,0.8949176073074341,1.5430456399917603,0.289702832698822
1702062830629583000,2.5655830078125,0.9430232048034668,1.500285029411316,0.4541783034801483
1702062830646578700,2.58257861328125,0.9970847964286804,1.5215126276016235,0.6125451326370239
1702062830663565600,2.599565673828125,1.0216721296310425,1.6033685207366943,0.664315938949585
1702062830680567800,2.61656787109375,1.0025825500488281,1.6536122560501099,0.588874101638794
1702062830697556500,2.633556396484375,0.9712757468223572,1.591456651687622,0.4210388660430908
1702062830714549000,2.650549072265625,0.9297369122505188,1.4738651514053345,0.25473082065582275
1702062830731549200,2.667549072265625,0.9014843702316284,1.4692835807800293,0.16065755486488342
1702062830748539100,2.6845390625,0.8813258409500122,1.6131423711776733,0.1635591685771942
1702062830765524000,2.70152392578125,0.8623890280723572,1.778228759765625,0.26740625500679016
1702062830782524400,2.7185244140625,0.8706356883049011,1.8723019361495972,0.44745880365371704
1702062830799510000,2.735510009765625,0.9089674949645996,1.7988454103469849,0.6131559610366821
1702062830816514600,2.7525146484375,0.9433286786079407,1.6195564270019531,0.7070765495300293
1702062830833506600,2.769506591796875,0.8976664543151855,1.4427109956741333,0.7240280508995056
1702062830850502400,2.78650244140625,0.8294022679328918,1.429271936416626,0.6400340795516968
1702062830867495200,2.8034951171875,0.7864890098571777,1.5267049074172974,0.44486260414123535
1702062830884483800,2.82048388671875,0.7724391222000122,1.5683965682983398,0.21349740028381348
1702062830901486600,2.837486572265625,0.7704538106918335,1.4998269081115723,0.07635815441608429
1702062830918476300,2.854476318359375,0.7571674585342407,1.3738359212875366,0.06475171446800232
1702062830935471600,2.8714716796875,0.7133378982543945,1.2950342893600464,0.128434419631958
1702062830952461300,2.88846142578125,0.6582072973251343,1.3125966787338257,0.18295414745807648
1702062830969457700,2.905457763671875,0.6255260109901428,1.4376713037490845,0.2249511331319809
1702062830986453200,2.922453369140625,0.6317873597145081,1.5329663753509521,0.2687807083129883
1702062831003442400,2.9394423828125,0.6569855809211731,1.545030951499939,0.3318525552749634
1702062831020442400,2.9564423828125,0.6528622508049011,1.507157325744629,0.4144720733165741
1702062831037430000,2.973429931640625,0.6449210047721863,1.472796082496643,0.45402559638023376
1702062831054425000,2.990425048828125,0.6363688707351685,1.4259121417999268,0.4231768846511841
1702062831071418600,3.007418701171875,0.6059783101081848,1.3640620708465576,0.36361753940582275
1702062831088413200,3.0244130859375,0.5493205785751343,1.3145819902420044,0.2819143235683441
1702062831105398300,3.041398193359375,0.513737678527832,1.362687587738037,0.1742493063211441
1702062831122399200,3.058399169921875,0.5004513263702393,1.4651602506637573,0.11423180252313614
1702062831139394600,3.07539453125,0.4990769028663635,1.5176947116851807,0.13958270847797394
1702062831156388600,3.092388671875,0.5199990272521973,1.4726433753967285,0.2047925740480423
1702062831173379600,3.109379638671875,0.5557346343994141,1.396132469177246,0.25366178154945374
1702062831190369500,3.12636962890625,0.5716171264648438,1.344361662864685,0.25213462114334106
1702062831207372500,3.14337255859375,0.5723807215690613,1.3571898937225342,0.20112738013267517
1702062831224364000,3.160364013671875,0.5870414972305298,1.4230105876922607,0.13836097717285156
1702062831241357600,3.177357666015625,0.6085745096206665,1.4746286869049072,0.11071932315826416
1702062831258351400,3.194351318359375,0.6212499737739563,1.430799126625061,0.09758572280406952
1702062831275345200,3.21134521484375,0.6143777370452881,1.3009902238845825,0.030695978552103043
1702062831292339000,3.2283388671875,0.5836817622184753,1.160033106803894,-0.09056077152490616
1702062831309332500,3.24533251953125,0.5476406812667847,1.1301007270812988,-0.19089539349079132
1702062831326315000,3.26231494140625,0.5334380865097046,1.24647057056427,-0.242513507604599
1702062831343312600,3.279312744140625,0.5436700582504272,1.4005613327026367,-0.17730364203453064
1702062831360303400,3.296303466796875,0.5627595782279968,1.4489723443984985,0.014813481830060482
1702062831377307100,3.31330712890625,0.5555819272994995,1.3652838468551636,0.2168571650981903
1702062831394301200,3.33030126953125,0.531758189201355,1.30801522731781,0.3026837408542633
1702062831411294700,3.347294677734375,0.5148066878318787,1.328937292098999,0.24816401302814484
1702062831428289000,3.3642890625,0.5297728776931763,1.396132469177246,0.16249015927314758
1702062831445279000,3.381279052734375,0.5601634383201599,1.4385876655578613,0.12003502249717712
1702062831462279200,3.398279052734375,0.5636758804321289,1.3933836221694946,0.12599095702171326
1702062831479269600,3.41526953125,0.55695641040802,1.31916344165802,0.1411098688840866
1702062831496263200,3.43226318359375,0.5571091175079346,1.264491081237793,0.10384709388017654
1702062831513257000,3.449257080078125,0.5618433356285095,1.250899314880371,-0.001527163083665073
1702062831530251000,3.4662509765625,0.5671883821487427,1.2971723079681396,-0.16065755486488342
1702062831547233800,3.48323388671875,0.5807801485061646,1.3982704877853394,-0.31459560990333557
1702062831564223500,3.500223388671875,0.6174320578575134,1.5181528329849243,-0.35445454716682434
1702062831581232000,3.517232177734375,0.6914994716644287,1.5745052099227905,-0.24327708780765533
1702062831598225700,3.5342255859375,0.817948579788208,1.5361733436584473,-0.038179077208042145
1702062831615219200,3.55121923828125,0.9355401396751404,1.3993395566940308,0.15317445993423462
1702062831632213000,3.568212890625,0.9860892295837402,1.2524265050888062,0.270766019821167
1702062831649206800,3.585206787109375,0.9928087592124939,1.2229522466659546,0.3286454975605011
1702062831666200600,3.60220068359375,1.0114401578903198,1.2861768007278442,0.3306308090686798
1702062831683194000,3.619194091796875,1.0363328456878662,1.359786033630371,0.30543261766433716
1702062831700188000,3.63618798828125,1.041372537612915,1.4285084009170532,0.31444287300109863
1702062831717181400,3.653181396484375,1.0343475341796875,1.430799126625061,0.34284812211990356
1702062831734170000,3.670170166015625,1.0407617092132568,1.4262176752090454,0.3608686327934265
1702062831751155500,3.687155517578125,1.0519099235534668,1.4327844381332397,0.3410155177116394
1702062831768159000,3.704158935546875,1.049619197845459,1.4738651514053345,0.31841349601745605
1702062831785156400,3.72115625,1.0502300262451172,1.5183055400848389,0.3234531581401825
1702062831802145800,3.738145751953125,1.0516045093536377,1.5748106241226196,0.33628132939338684
1702062831819148300,3.755148193359375,0.9891435503959656,1.6285667419433594,0.31581732630729675
1702062831836137500,3.772137451171875,0.9721920490264893,1.7092009782791138,0.23808473348617554
1702062831853131300,3.78913134765625,1.0800096988677979,1.7925840616226196,0.17531833052635193
1702062831870122200,3.806122314453125,1.190423607826233,1.8122844696044922,0.23167064785957336
1702062831887121400,3.823121337890625,1.2476922273635864,1.7734944820404053,0.32879820466041565
1702062831904114000,3.840114013671875,1.2374602556228638,1.7366899251937866,0.32757648825645447
1702062831921106000,3.85710595703125,1.1936306953430176,1.7085901498794556,0.21807889640331268
1702062831938100000,3.874099853515625,1.1513283252716064,1.7021759748458862,0.055894169956445694
1702062831955093200,3.89109326171875,1.1407908201217651,1.750434398651123,-0.05314527451992035
1702062831972087800,3.908087890625,1.1217013597488403,1.8735237121582031,-0.00733038317412138
1702062831989080800,3.925080810546875,1.1380419731140137,2.001958131790161,0.20952677726745605
1702062832006075000,3.942074951171875,1.2148582935333252,1.989129900932312,0.4915938079357147
1702062832023068200,3.959068115234375,1.2796099185943604,1.783879280090332,0.6905831694602966
1702062832040062200,3.976062255859375,1.2817480564117432,1.4926491975784302,0.7615962624549866
1702062832057055700,3.9930556640625,1.2379183769226074,1.2848023176193237,0.7116580009460449
1702062832074049500,4.010049560546875,1.1372783184051514,1.256244421005249,0.5722280144691467
1702062832091043000,4.02704296875,1.0254900455474854,1.3422236442565918,0.4268420934677124
1702062832108037000,4.044037109375,0.9466884136199951,1.4359915256500244,0.33017265796661377
1702062832125030700,4.06103076171875,0.8839219808578491,1.4335479736328125,0.29016098380088806
1702062832142024400,4.0780244140625,0.82207190990448,1.3420709371566772,0.27580565214157104
1702062832159018000,4.09501806640625,0.737772524356842,1.2208142280578613,0.24572055041790009
1702062832176011800,4.11201171875,0.6516404747962952,1.1719449758529663,0.19089539349079132
1702062832193012000,4.129011962890625,0.5904012322425842,1.2906055450439453,0.12232576310634613
1702062832209999400,4.145999267578125,0.5511531829833984,1.4550809860229492,0.031154127791523933
1702062832226993000,4.162992919921875,0.5560401082038879,1.5173892974853516,0
1702062832243986700,4.179986572265625,0.5907067060470581,1.4477506875991821,0.10491610318422318
1702062832260980200,4.196980224609375,0.616973876953125,1.2950342893600464,0.3119994103908539
1702062832277974000,4.21397412109375,0.6177374720573425,1.1525499820709229,0.5077817440032959
1702062832294957300,4.230957275390625,0.5972734689712524,1.1244502067565918,0.5842925906181335
1702062832311961600,4.247961669921875,0.5821545720100403,1.222494125366211,0.5125159621238708
1702062832328955100,4.264955078125,0.5690209865570068,1.377501130104065,0.32498031854629517
1702062832345949200,4.28194921875,0.5505422949790955,1.4495831727981567,0.1745547503232956
1702062832362942700,4.298942626953125,0.5754350423812866,1.363909363746643,0.19746218621730804
1702062832379936500,4.3159365234375,0.6398813724517822,1.18660569190979,0.3675881624221802
1702062832396929800,4.3329296875,0.6771441102027893,1.0821478366851807,0.5479460954666138
1702062832413926000,4.34992578125,0.6808093190193176,1.0152580738067627,0.6105598211288452
1702062832430915300,4.366915283203125,0.6302602291107178,0.9695958495140076,0.4795292317867279
1702062832447903700,4.38390380859375,0.5407684445381165,0.9566149711608887,0.2301434874534607
1702062832464905000,4.400905029296875,0.4648684561252594,0.9440922141075134,-0.010079276748001575
1702062832481898800,4.417898681640625,0.42378777265548706,1.0219775438308716,-0.10064005106687546
1702062832498892500,4.434892578125,0.42730024456977844,1.2078332901000977,0.023365596309304237
1702062832515886000,4.451885986328125,0.4712825417518616,1.3889548778533936,0.30375275015830994
1702062832532879600,4.468879638671875,0.5331326723098755,1.4311045408248901,0.5290092825889587
1702062832549873400,4.485873291015625,0.546571671962738,1.3326025009155273,0.57436603307724
1702062832566867200,4.5028671875,0.5293147563934326,1.1658363342285156,0.5196936130523682
1702062832583861000,4.519861083984375,0.5222898125648499,1.089020013809204,0.4098905920982361
1702062832600851000,4.536850830078125,0.5502368807792664,1.0873401165008545,0.2922990322113037
1702062832617851600,4.5538515625,0.5823072791099548,1.083064079284668,0.23640485107898712
1702062832634841900,4.570841796875,0.5936083197593689,1.0326677560806274,0.23518311977386475
1702062832651835600,4.587835693359375,0.5876523852348328,1.0172433853149414,0.19013181328773499
1702062832668829400,4.604829345703125,0.5578727126121521,1.1441506147384644,0.06368270516395569
1702062832685812700,4.621812744140625,0.5571091175079346,1.3720033168792725,-0.0988074541091919
1702062832702817000,4.638817138671875,0.6201809644699097,1.5349516868591309,-0.13973543047904968
1702062832719810600,4.655810546875,0.7588473558425903,1.559233546257019,0.020463986322283745
1702062832736804400,4.672804443359375,0.8846855759620667,1.4414892196655273,0.3217732608318329
1702062832753798100,4.689798095703125,0.9489791393280029,1.3161091804504395,0.5971207618713379
1702062832770792000,4.7067919921875,0.9428704977035522,1.3034337759017944,0.6786713004112244
1702062832787785500,4.723785400390625,0.9343183636665344,1.4074335098266602,0.5789475440979004
1702062832804779300,4.740779296875,0.9364564418792725,1.538158655166626,0.4086688458919525
1702062832821772800,4.757772705078125,0.9404270648956299,1.6239852905273438,0.29825496673583984
1702062832838763800,4.774763671875,0.9567676782608032,1.6052011251449585,0.31230485439300537
1702062832855763000,4.791762939453125,0.9804387092590332,1.5457944869995117,0.4248567819595337
1702062832872743400,4.808743408203125,0.9914342761039734,1.5538884401321411,0.5305364727973938
1702062832889747700,4.825747802734375,0.9724974632263184,1.6882787942886353,0.5400048494338989
1702062832906741500,4.842741455078125,0.9578366875648499,1.9182696342468262,0.4236350357532501
1702062832923735300,4.8597353515625,0.964403510093689,2.119091510772705,0.24068090319633484
1702062832940728800,4.876728759765625,0.9958630800247192,2.1412353515625,0.11331550031900406
1702062832957722600,4.89372265625,1.072068452835083,2.007150411605835,0.1511891484260559
1702062832974716200,4.910716064453125,1.1056660413742065,1.8257235288619995,0.3634648323059082
1702062832991708700,4.927708740234375,1.1068878173828125,1.7179057598114014,0.6386595964431763
1702062833008702500,4.944702392578125,1.125366449356079,1.6966781616210938,0.7693848013877869
1702062833025700000,4.9617001953125,1.1583532094955444,1.711338996887207,0.6667594313621521
1702062833042691000,4.978691162109375,1.1575896739959717,1.7799086570739746,0.46013423800468445
1702062833059674400,4.99567431640625,1.1450668573379517,1.8721492290496826,0.32650747895240784
1702062833076668000,5.01266796875,1.1421653032302856,1.923767328262329,0.32589662075042725
1702062833093672200,5.029672119140625,1.1627819538116455,1.9260581731796265,0.44028112292289734
1702062833110666000,5.046666015625,1.1817188262939453,1.853670597076416,0.5736024379730225
1702062833127659800,5.06365966796875,1.1669052839279175,1.7377588748931885,0.6795876026153564
1702062833144653300,5.0806533203125,1.1154398918151855,1.6265814304351807,0.6867652535438538
1702062833161647000,5.097647216796875,1.0538952350616455,1.5887078046798706,0.6064364910125732
1702062833178641200,5.11464111328125,0.9947940707206726,1.608102798461914,0.4818199574947357
1702062833195634700,5.131634765625,0.9320276379585266,1.599397897720337,0.3666718602180481
1702062833212634600,5.148634521484375,0.8546004891395569,1.5433510541915894,0.3295617997646332
1702062833229622000,5.1656220703125,0.7930558323860168,1.4660766124725342,0.3381139039993286
1702062833246615600,5.182615478515625,0.7481572031974792,1.3825408220291138,0.36010506749153137
1702062833263609600,5.199609619140625,0.6947064995765686,1.3463469743728638,0.361174076795578
1702062833280600800,5.216600830078125,0.6467535495758057,1.3750576972961426,0.34116822481155396
1702062833297599000,5.233598876953125,0.6126978397369385,1.463938593864441,0.3165809214115143
1702062833314590700,5.2505908203125,0.561079740524292,1.4970779418945312,0.30405816435813904
1702062833331584300,5.267584228515625,0.47571131587028503,1.3585642576217651,0.29535335302352905
1702062833348578000,5.284578125,0.42042800784111023,1.154382586479187,0.24938572943210602
1702062833365571800,5.30157177734375,0.3949243724346161,1.0517572164535522,0.168751522898674
1702062833382565400,5.3185654296875,0.36789360642433167,1.0558805465698242,0.07498370856046677
1702062833399549700,5.3355498046875,0.3364340364933014,1.098793864250183,0.003512475173920393
1702062833416553000,5.352552978515625,0.30253100395202637,1.0793988704681396,-0.019547687843441963
1702062833433546500,5.36954638671875,0.2736676335334778,0.9899071455001831,-0.010231993161141872
1702062833450540000,5.3865400390625,0.28588494658470154,0.9451612234115601,0.004581489134579897
1702062833467529000,5.403529052734375,0.3136793076992035,0.9960157871246338,0.009621127508580685
1702062833484527600,5.420527587890625,0.35659259557724,1.0852020978927612,0.024892758578062057
1702062833501521200,5.437521240234375,0.41691553592681885,1.1074986457824707,0.05971207842230797
1702062833518515200,5.45451513671875,0.46639561653137207,1.0378600358963013,0.11331550031900406
1702062833535508700,5.4715087890625,0.49816060066223145,0.9092729091644287,0.1635591685771942
1702062833552502800,5.488502685546875,0.5195409059524536,0.8136724829673767,0.11102475970983505
1702062833569496300,5.505496337890625,0.5015203952789307,0.770606517791748,-0.08857546001672745
1702062833586489900,5.52248974609375,0.4492913782596588,0.8286387324333191,-0.2557998299598694
1702062833603483600,5.539483642578125,0.41599923372268677,1.0143417119979858,-0.22388210892677307
1702062833620477400,5.5564775390625,0.39843684434890747,1.257924199104309,0.03176499158143997
1702062833637471000,5.573470947265625,0.42668938636779785,1.3723087310791016,0.3326161205768585
1702062833654464800,5.59046484375,0.475253164768219,1.2739595174789429,0.48915034532546997
1702062833671458600,5.60745849609375,0.5383250117301941,1.1030699014663696,0.4631885588169098
1702062833688452000,5.6244521484375,0.5859724879264832,0.9663888216018677,0.28817567229270935
1702062833705435600,5.641435546875,0.5881105065345764,0.9447031021118164,0.04596760869026184
1702062833722429200,5.65842919921875,0.5835290551185608,1.0392345190048218,-0.1411098688840866
1702062833739433500,5.67543359375,0.588263213634491,1.0919215679168701,-0.24556782841682434
1702062833756427000,5.692427001953125,0.6024658679962158,1.135140299797058,-0.25014930963516235
1702062833773417000,5.7094169921875,0.6438519954681396,1.2454015016555786,-0.13866640627384186
1702062833790414600,5.72641455078125,0.746630072593689,1.3836097717285156,0.09040805697441101
1702062833807408400,5.743408447265625,0.8413141369819641,1.436449646949768,0.37919458746910095
1702062833824402000,5.76040185546875,0.8686503767967224,1.362382173538208,0.6146831512451172
1702062833841395700,5.777395751953125,0.8762862086296082,1.2472341060638428,0.6905831694602966
1702062833858370600,5.79437060546875,0.9075930118560791,1.2211196422576904,0.6516404747962952
1702062833875383000,5.811383056640625,0.9305005073547363,1.23394775390625,0.5771149396896362
1702062833892374300,5.828374267578125,0.9153815507888794,1.2244794368743896,0.5112941861152649
1702062833909373000,5.845373046875,0.869719386100769,1.224173903465271,0.4378376603126526
1702062833926354000,5.86235400390625,0.8229882121086121,1.226922869682312,0.34865134954452515
1702062833943358200,5.879358154296875,0.8020660877227783,1.2030991315841675,0.24694228172302246
1702062833960351500,5.8963515625,0.801913321018219,1.2011138200759888,0.16722436249256134
1702062833977345300,5.91334521484375,0.8022187948226929,1.2530373334884644,0.14553864300251007
1702062833994339000,5.930339111328125,0.7938193678855896,1.3231340646743774,0.19333885610103607
1702062834011332900,5.947332763671875,0.7944302558898926,1.3909401893615723,0.275347501039505
1702062834028326700,5.96432666015625,0.8084801435470581,1.4592043161392212,0.3507893681526184
1702062834045320200,5.9813203125,0.8121453523635864,1.532508134841919,0.4082106947898865
1702062834062314000,5.99831396484375,0.8223773241043091,1.5992451906204224,0.46105054020881653
1702062834079305500,6.015305419921875,0.8552113175392151,1.6113097667694092,0.49617528915405273
1702062834096303400,6.032303466796875,0.8772025108337402,1.6131423711776733,0.5410739183425903
1702062834113295000,6.049295166015625,0.8796459436416626,1.6519323587417603,0.6064364910125732
1702062834130288600,6.06628857421875,0.8761335015296936,1.6826282739639282,0.6464481353759766
1702062834147270100,6.083270263671875,0.8668177723884583,1.6924021244049072,0.6276640295982361
1702062834164278800,6.10027880859375,0.8825475573539734,1.6916385889053345,0.5059491395950317
1702062834181270000,6.11727001953125,0.8773552179336548,1.7087428569793701,0.3095559775829315
1702062834198247200,6.1342470703125,0.8491026759147644,1.8077030181884766,0.14767667651176453
1702062834215257300,6.15125732421875,0.8494081497192383,1.9394971132278442,0.11560624837875366
1702062834232251000,6.1682509765625,0.899040937423706,2.031737804412842,0.24923302233219147
1702062834249240800,6.18524072265625,0.9537133574485779,2.0233383178710938,0.49754974246025085
1702062834266238500,6.202238525390625,0.9691377282142639,1.9585866928100586,0.7345654368400574
1702062834283232300,6.219232177734375,0.9662361145019531,1.8671096563339233,0.8407033085823059
1702062834300234500,6.236234375,0.9419541954994202,1.7647897005081177,0.8055785298347473
1702062834317219600,6.253219482421875,0.8947648406028748,1.6855299472808838,0.664315938949585
1702062834334213600,6.270213623046875,0.8712465763092041,1.635897159576416,0.4740314185619354
1702062834351207200,6.287207275390625,0.8659014701843262,1.620778203010559,0.30314189195632935
1702062834368200700,6.30420068359375,0.8483390808105469,1.5928311347961426,0.18600846827030182
1702062834385194500,6.321194580078125,0.7893906235694885,1.4906638860702515,0.12828169763088226
1702062834402189300,6.338189208984375,0.7284567952156067,1.388802170753479,0.1420261710882187
1702062834419181000,6.35518115234375,0.6879869699478149,1.3461942672729492,0.17791450023651123
1702062834436176000,6.37217578125,0.6777549982070923,1.397354245185852,0.2093740701675415
1702062834453169400,6.38916943359375,0.6675229668617249,1.4902057647705078,0.27870726585388184
1702062834470163000,6.406162841796875,0.6304129362106323,1.4914275407791138,0.34834590554237366
1702062834487156700,6.42315673828125,0.5780312418937683,1.3535246849060059,0.3520110845565796
1702062834504150500,6.440150634765625,0.545655369758606,1.2539535760879517,0.3127630054950714
1702062834521140000,6.457139892578125,0.5464189648628235,1.2770137786865234,0.27580565214157104
1702062834538140700,6.474140625,0.537408709526062,1.3645201921463013,0.2955060601234436
1702062834555131600,6.491131591796875,0.5227479338645935,1.4085025787353516,0.36560285091400146
1702062834572125200,6.508125244140625,0.528245747089386,1.3539828062057495,0.42409318685531616
1702062834589108500,6.5251083984375,0.5258022546768188,1.241125464439392,0.42791110277175903
1702062834606110500,6.5421103515625,0.4815145432949066,1.2119566202163696,0.3917173445224762
1702062834623108600,6.559108642578125,0.456163614988327,1.2808316946029663,0.2919935882091522
1702062834640100400,6.576100341796875,0.47021353244781494,1.3322970867156982,0.09025534242391586
1702062834657094000,6.593093994140625,0.4789183437824249,1.3303117752075195,-0.11667526513338089
1702062834674087700,6.610087646484375,0.47678032517433167,1.33168625831604,-0.1992947906255722
1702062834691081200,6.627081298828125,0.4960225820541382,1.4265230894088745,-0.05009094998240471
1702062834708075300,6.6440751953125,0.5455026626586914,1.5496124029159546,0.247094988822937
1702062834725070300,6.6610703125,0.6108652353286743,1.5606080293655396,0.5076290369033813
1702062834742060800,6.678060791015625,0.6514877676963806,1.462716817855835,0.6097962260246277
1702062834759056100,6.69505615234375,0.6663012504577637,1.36482572555542,0.5340489149093628
1702062834776039400,6.712039306640625,0.6385068893432617,1.3658946752548218,0.34697145223617554
1702062834793043700,6.729043701171875,0.6062837839126587,1.489442229270935,0.15515977144241333
1702062834810037800,6.746037841796875,0.6168211698532104,1.6239852905273438,0.03634648025035858
1702062834827031000,6.763031005859375,0.6872233748435974,1.6226108074188232,0.009926560334861279
1702062834844024600,6.780024658203125,0.7554876208305359,1.4789047241210938,0.04199698567390442
1702062834861018400,6.797018310546875,0.7757988572120667,1.391398310661316,0.08261952549219131
1702062834878012200,6.81401220703125,0.7924449443817139,1.4602733850479126,0.11102475970983505
1702062834894992400,6.830992431640625,0.8872817754745483,1.6288721561431885,0.18967366218566895
1702062834911999000,6.8479990234375,1.0254900455474854,1.772883653640747,0.38011088967323303
1702062834928993300,6.8649931640625,1.173930287361145,1.868789553642273,0.6432411074638367
1702062834945987000,6.881987060546875,1.277471899986267,1.8522961139678955,0.8533787727355957
1702062834962980900,6.89898095703125,1.3277156352996826,1.754557728767395,0.9321803450584412
1702062834979974700,6.915974609375,1.3028228282928467,1.6333009004592896,0.921795666217804
1702062834996958700,6.932958740234375,1.2240211963653564,1.5922203063964844,0.8936958312988281
1702062835013961700,6.949961669921875,1.1504119634628296,1.6491833925247192,0.8184067010879517
1702062835030955500,6.96695556640625,1.0900890827178955,1.7023286819458008,0.6809620261192322
1702062835047949300,6.98394921875,1.0433578491210938,1.780824899673462,0.5687155723571777
1702062835064942800,7.00094287109375,0.9912815690040588,1.852143406867981,0.4856378734111786
1702062835081936600,7.0179365234375,0.9520334601402283,1.9170478582382202,0.44104471802711487
1702062835098930400,7.034930419921875,0.9465357065200806,1.9792033433914185,0.39584067463874817
1702062835115924200,7.05192431640625,0.9721920490264893,2.0218112468719482,0.37491855025291443
1702062835132917800,7.068917724609375,1.0186177492141724,2.0189096927642822,0.3943135142326355
1702062835149911600,7.08591162109375,1.069166898727417,1.9886717796325684,0.4453207552433014
1702062835166905300,7.1029052734375,1.1107057332992554,1.9532415866851807,0.45753806829452515
1702062835183895600,7.1198955078125,1.1340713500976562,1.8949040174484253,0.3804163336753845
1702062835200893400,7.1368935546875,1.1317806243896484,1.832595705986023,0.26603180170059204
1702062835217870800,7.153870849609375,1.1162035465240479,1.8358027935028076,0.18219055235385895
1702062835234880000,7.1708798828125,1.0876455307006836,1.9384281635284424,0.19028452038764954
1702062835251874000,7.1878740234375,1.0873401165008545,2.0396790504455566,0.3194825351238251
1702062835268867600,7.20486767578125,1.1016954183578491,2.040595293045044,0.5229006409645081
1702062835285861400,7.221861328125,1.1275044679641724,1.9523253440856934,0.7118107080459595
1702062835302855200,7.238855224609375,1.1498011350631714,1.7857118844985962,0.7817547917366028
1702062835319848700,7.2558486328125,1.1238393783569336,1.613600492477417,0.7153232097625732
1702062835336842500,7.272842529296875,1.0305296182632446,1.4970779418945312,0.5369505286216736
1702062835353836300,7.289836181640625,0.9337075352668762,1.478141188621521,0.31749722361564636
1702062835370830000,7.306830078125,0.8888089060783386,1.5231925249099731,0.15302173793315887
1702062835387823600,7.32382373046875,0.8718574047088623,1.4821118116378784,0.10002918541431427
1702062835404817400,7.3408173828125,0.8135197758674622,1.3614659309387207,0.14019356667995453
1702062835421800400,7.357800537109375,0.7105889916419983,1.2974777221679688,0.21700987219810486
1702062835438804700,7.3748046875,0.6061310172080994,1.410029649734497,0.28909197449684143
1702062835455798500,7.391798583984375,0.566730260848999,1.6380351781845093,0.3698789179325104
1702062835472792300,7.408792236328125,0.6091853380203247,1.8208365440368652,0.4775438904762268
1702062835489797400,7.42579736328125,0.646906316280365,1.7831156253814697,0.5713117122650146
1702062835506777000,7.442777099609375,0.6536257863044739,1.5845844745635986,0.6426302194595337
1702062835523775700,7.459775634765625,0.6331618428230286,1.3498594760894775,0.6296493411064148
1702062835540767000,7.47676708984375,0.5719226002693176,1.2289081811904907,0.5042692422866821
1702062835557761300,7.49376123046875,0.5009095072746277,1.2333369255065918,0.2825251817703247
1702062835574743800,7.510743896484375,0.451123982667923,1.3139711618423462,0.0907134860754013
1702062835591748000,7.527748046875,0.4343251883983612,1.4149166345596313,0.03695734590291977
1702062835608741000,7.5447412109375,0.4466952085494995,1.4674509763717651,0.10461067408323288
1702062835625736400,7.561736328125,0.4642575979232788,1.4378241300582886,0.22143864631652832
1702062835642729500,7.5787294921875,0.4766276180744171,1.3240504264831543,0.2793181240558624
1702062835659723000,7.595722900390625,0.4925101101398468,1.249372124671936,0.2542726695537567
1702062835676716800,7.612716796875,0.49816060066223145,1.2528846263885498,0.21410827338695526
1702062835693710300,7.62971044921875,0.4787656366825104,1.288467526435852,0.18875735998153687
1702062835710704400,7.646704345703125,0.4583016633987427,1.3161091804504395,0.11927144229412079
1702062835727698000,7.663697998046875,0.44455718994140625,1.2851077318191528,-0.0403171069920063
1702062835744691700,7.680691650390625,0.4056145250797272,1.200197458267212,-0.20494529604911804
1702062835761685200,7.697685302734375,0.3692680299282074,1.1974486112594604,-0.27870726585388184
1702062835778679000,7.714678955078125,0.361174076795578,1.3031282424926758,-0.19593502581119537
1702062835795672800,7.7316728515625,0.3793473243713379,1.4121677875518799,0.024892758578062057
1702062835812666400,7.748666259765625,0.4193589985370636,1.4359915256500244,0.2880229651927948
1702062835829660200,7.76566015625,0.46731191873550415,1.3753631114959717,0.5071708559989929
1702062835846654000,7.782654052734375,0.4856378734111786,1.361007809638977,0.6230825781822205
1702062835863647500,7.7996474609375,0.45662176609039307,1.386358618736267,0.570242702960968
1702062835880641300,7.816641357421875,0.44684791564941406,1.386053204536438,0.38576140999794006
1702062835897635000,7.833635009765625,0.4570799171924591,1.2820534706115723,0.1788308024406433
1702062835914628900,7.85062890625,0.43157628178596497,1.1488847732543945,0.060933809727430344
1702062835931622400,7.867622314453125,0.4095851480960846,1.1305588483810425,0.0607810914516449
1702062835948616200,7.8846162109375,0.41172316670417786,1.2764029502868652,0.11820242553949356
1702062835965610000,7.90160986328125,0.42271876335144043,1.5056301355361938,0.18188512325286865
1702062835982603500,7.918603515625,0.470671683549881,1.6436856985092163,0.1941024363040924
1702062835999600400,7.935600341796875,0.5711590051651001,1.6184874773025513,0.17150041460990906
1702062836016587500,7.95258740234375,0.7096726894378662,1.5303701162338257,0.17119498550891876
1702062836033590300,7.96959033203125,0.8385652899742126,1.4498887062072754,0.29306259751319885
1702062836050578400,7.986578369140625,0.9344711303710938,1.4234687089920044,0.5175555944442749
1702062836067572200,8.003572265625,0.9888381361961365,1.3953689336776733,0.685390830039978
1702062836084566000,8.02056591796875,0.9850202202796936,1.412473201751709,0.7499898076057434
1702062836101559600,8.0375595703125,0.9396634697914124,1.442100167274475,0.6835582256317139
1702062836118553600,8.0545537109375,0.907898485660553,1.3171781301498413,0.4528038501739502
1702062836135547100,8.071547119140625,0.9327912330627441,1.1035280227661133,0.17272214591503143
1702062836152541000,8.088541015625,0.969443142414093,1.066265344619751,0.09025534242391586
1702062836169534700,8.10553466796875,0.9801332950592041,1.2261592149734497,0.27320948243141174
1702062836186528000,8.122528076171875,0.9909761548042297,1.4625641107559204,0.5120577812194824
1702062836203522000,8.13952197265625,0.9836457371711731,1.483486294746399,0.5777258276939392
1702062836220515600,8.156515625,0.9952521920204163,1.3839151859283447,0.44364088773727417
1702062836237509400,8.17350927734375,1.0073168277740479,1.3180944919586182,0.26022860407829285
1702062836254503000,8.1905029296875,0.9764680862426758,1.3842206001281738,0.26053401827812195
1702062836271486500,8.207486572265625,0.9552405476570129,1.5099061727523804,0.44425174593925476
1702062836288490800,8.22449072265625,0.9773843884468079,1.6093244552612305,0.6485861539840698
1702062836305474000,8.24147412109375,0.9755517840385437,1.492038369178772,0.6429356932640076
1702062836322477800,8.258477783203125,0.9769262671470642,1.2725850343704224,0.479834645986557
1702062836339471600,8.2754716796875,0.9695958495140076,1.0803152322769165,0.32421672344207764
1702062836356465400,8.29246533203125,0.9506590366363525,1.086118459701538,0.4531092941761017
1702062836373459200,8.309459228515625,0.9589056968688965,1.2463178634643555,0.9187413454055786
1702062836390450400,8.326450439453126,0.9387471675872803,1.3151928186416626,1.40269935131073
1702062836407449300,8.343449462890625,0.8307767510414124,1.2458596229553223,1.5601497888565063
1702062836424440000,8.360440185546874,0.7295258045196533,1.0590876340866089,1.2026410102844238
1702062836441423400,8.37742333984375,0.6154467463493347,0.8350527882575989,0.4867068827152252
1702062836458427600,8.394427734375,0.4334088861942291,0.6487388610839844,-0.1488984078168869
1702062836475421200,8.411421142578124,0.20922134816646576,0.5838344693183899,-0.4245513379573822
1702062836492417500,8.42841748046875,0.03497203439474106,0.6988298296928406,-0.3923282027244568
1702062836509409000,8.445408935546874,0.03237585723400116,0.9628763198852539,-0.2142609804868698
1702062836526402600,8.462402587890624,0.1466076523065567,1.0363328456878662,-0.016035212203860283
1702062836543396000,8.47939599609375,0.25961771607398987,0.8600982427597046,0.14019356667995453
1702062836560390000,8.496389892578126,0.2993239760398865,0.8057312369346619,0.19486601650714874
1702062836577383700,8.5133837890625,0.31444287300109863,1.034500241279602,0.168751522898674
1702062836594377500,8.53037744140625,0.35811975598335266,1.2932016849517822,0.11484266817569733
1702062836611371000,8.54737109375,0.41661009192466736,1.4282029867172241,0.13607023656368256
1702062836628364800,8.56436474609375,0.4205807149410248,1.4214833974838257,0.2002110779285431
1702062836645358600,8.581358642578126,0.370947927236557,1.3341296911239624,0.2620611786842346
1702062836662352400,8.598352294921876,0.30375275015830994,1.1817188262939453,0.21319197118282318
1702062836679346000,8.615345947265626,0.25106561183929443,1.0783299207687378,0.09437867999076843
1702062836696329500,8.63232958984375,0.24694228172302246,1.1158981323242188,0.00733038317412138
1702062836713333500,8.64933349609375,0.27519479393959045,1.171028733253479,-0.003512475173920393
1702062836730327000,8.6663271484375,0.28588494658470154,1.17240309715271,0.04657847434282303
1702062836747320800,8.68332080078125,0.2889392673969269,1.1633929014205933,0.06475171446800232
1702062836764314400,8.700314453125,0.32299500703811646,1.1261301040649414,-0.04902193695306778
1702062836781305900,8.717305908203125,0.37491855025291443,1.0618364810943604,-0.1748601794242859
1702062836798304500,8.734304443359376,0.384845107793808,0.9711230397224426,-0.15363261103630066
1702062836815295700,8.751295654296875,0.35873061418533325,0.9195048809051514,0.04077525436878204
1702062836832289300,8.768289306640625,0.35934147238731384,1.0659598112106323,0.3384193480014801
1702062836849283300,8.785283447265625,0.37797287106513977,1.3976596593856812,0.6342308521270752
1702062836866267100,8.80226708984375,0.41691553592681885,1.550681471824646,0.7327328324317932
1702062836883270400,8.8192705078125,0.45433104038238525,1.4260649681091309,0.6148358583450317
1702062836900264200,8.83626416015625,0.4599815309047699,1.1989758014678955,0.42531493306159973
1702062836917258000,8.853258056640625,0.44104471802711487,1.0545061826705933,0.27030786871910095
1702062836934249500,8.87024951171875,0.4334088861942291,1.041067123413086,0.17669276893138885
1702062836951251200,8.887251220703124,0.4447098970413208,1.1091785430908203,0.09483683109283447
1702062836968239000,8.904239013671875,0.46441030502319336,1.2568552494049072,0.014049900695681572
1702062836985233000,8.92123291015625,0.5380195379257202,1.3797918558120728,-0.04581489413976669
1702062837002224000,8.93822412109375,0.6511823534965515,1.3981177806854248,-0.025503624230623245
1702062837019222800,8.955222900390625,0.7389942407608032,1.302364706993103,0.0887281745672226
1702062837036214000,8.972214111328125,0.7812966704368591,1.2296717166900635,0.23915374279022217
1702062837053207600,8.98920751953125,0.7709119319915771,1.1965322494506836,0.3880521357059479
1702062837070201300,9.006201416015625,0.7209737300872803,1.2605204582214355,0.48487427830696106
1702062837087198200,9.0231982421875,0.7102835774421692,1.3657419681549072,0.513126790523529
1702062837104185900,9.040185791015626,0.7562511563301086,1.4237741231918335,0.5227479338645935
1702062837121182700,9.0571826171875,0.7907650470733643,1.356884479522705,0.5597052574157715
1702062837138176300,9.07417626953125,0.7797694802284241,1.2400563955307007,0.6058256030082703
1702062837155168800,9.091168701171876,0.7379252314567566,1.1575896739959717,0.5952881574630737
1702062837172162600,9.10816259765625,0.7035640478134155,1.2136365175247192,0.5074763298034668
1702062837189159400,9.125159423828125,0.6924157738685608,1.3894129991531372,0.3588833212852478
1702062837206151200,9.142151123046874,0.688903272151947,1.5693128108978271,0.2148718535900116
1702062837223128300,9.15912841796875,0.7134906053543091,1.6061174869537354,0.1408044397830963
1702062837240138500,9.176138427734376,0.769079327583313,1.4917329549789429,0.18096883594989777
1702062837257132500,9.193132568359376,0.8405506014823914,1.3822352886199951,0.2974913716316223
1702062837274126000,9.2101259765625,0.8788823485374451,1.3632985353469849,0.4424191415309906
1702062837291119600,9.22711962890625,0.8938485980033875,1.4546228647232056,0.5711590051651001
1702062837308113700,9.24411376953125,0.9092729091644287,1.5960382223129272,0.6293439269065857
1702062837325107200,9.261107177734376,0.9152288436889648,1.654223084449768,0.536797821521759
1702062837342101200,9.278101318359376,0.917061448097229,1.614822268486023,0.34895676374435425
1702062837359094500,9.295094482421876,0.9147707223892212,1.5114333629608154,0.18005253374576569
1702062837376088300,9.31208837890625,0.9111055135726929,1.467145562171936,0.12965615093708038
1702062837393082000,9.32908203125,0.9188940525054932,1.5425875186920166,0.16890424489974976
1702062837410076000,9.346075927734375,0.9239336848258972,1.6259706020355225,0.2428189367055893
1702062837427069400,9.3630693359375,0.9056077003479004,1.6436856985092163,0.3240640163421631
1702062837444063200,9.380063232421875,0.8895725011825562,1.658041000366211,0.4121813178062439
1702062837461057000,9.39705712890625,0.8914051055908203,1.6885842084884644,0.5163338780403137
1702062837478050600,9.414050537109375,0.8909469842910767,1.6752979755401611,0.6006332635879517
1702062837495044400,9.43104443359375,0.8657487630844116,1.6487252712249756,0.6369797587394714
1702062837512038000,9.448037841796875,0.8170322775840759,1.6082555055618286,0.6116288304328918
1702062837529031700,9.46503173828125,0.7814493775367737,1.5460999011993408,0.5329799056053162
1702062837546025500,9.482025390625,0.7603744864463806,1.4480561017990112,0.38438695669174194
1702062837563007200,9.49900732421875,0.7458664774894714,1.3552045822143555,0.23808473348617554
1702062837580014300,9.516014404296875,0.7130324840545654,1.286940336227417,0.1319468915462494
1702062837597006600,9.533006591796875,0.6485861539840698,1.265865445137024,0.11927144229412079
1702062837614000400,9.55000048828125,0.5578727126121521,1.2435688972473145,0.16004669666290283
1702062837630994000,9.566993896484375,0.4723515510559082,1.1985175609588623,0.14416420459747314
1702062837647987700,9.58398779296875,0.4158465266227722,1.127810001373291,0.03985895588994026
1702062837664981800,9.600981689453125,0.3718642294406891,1.1020009517669678,-0.07040221989154816
1702062837681975300,9.617975341796875,0.3321579694747925,1.1673635244369507,-0.09376781433820724
1702062837698956300,9.634956298828126,0.3061962127685547,1.266018271446228,-0.04795292019844055
1702062837715958000,9.6519580078125,0.31749722361564636,1.3611605167388916,0.041233405470848083
1702062837732956200,9.6689560546875,0.34773504734039307,1.3180944919586182,0.1036943718791008
1702062837749954800,9.685954833984376,0.3816380500793457,1.2050844430923462,0.11972958594560623
1702062837766943700,9.70294384765625,0.4300491213798523,1.235474944114685,0.12965615093708038
1702062837783936500,9.7199365234375,0.47708576917648315,1.3124439716339111,0.16065755486488342
1702062837800932900,9.736932861328125,0.5155702829360962,1.3629931211471558,0.1966986060142517
1702062837817924000,9.753924072265624,0.5655084848403931,1.3066407442092896,0.2583959996700287
1702062837834918700,9.770918701171874,0.607810914516449,1.2183706760406494,0.35705074667930603
1702062837851910700,9.78791064453125,0.5958990454673767,1.1349875926971436,0.44104471802711487
1702062837868907800,9.80490771484375,0.5401576161384583,1.1061242818832397,0.4108068645000458
1702062837885899800,9.821899658203124,0.4833471179008484,1.1195632219314575,0.2393064647912979
1702062837902891000,9.83889111328125,0.42302417755126953,1.0920743942260742,-0.0006108652451075613
1702062837919890000,9.855889892578125,0.4127921760082245,1.055269718170166,-0.17027868330478668
1702062837936881000,9.872880859375,0.43676865100860596,0.9886853694915771,-0.20112738013267517
1702062837953874700,9.889874755859376,0.4349360466003418,0.9451612234115601,-0.028099801391363144
1702062837970865700,9.90686572265625,0.3738495409488678,1.0685560703277588,0.35155296325683594
1702062837987864600,9.923864501953124,0.27611109614372253,1.289689302444458,0.7586946487426758
1702062838004855800,9.940855712890626,0.22113321721553802,1.4715744256973267,0.9100365042686462
1702062838021849300,9.957849365234376,0.256868839263916,1.567480206489563,0.7909177541732788
1702062838038843100,9.974843017578126,0.3517056703567505,1.5233452320098877,0.5380195379257202
1702062838055837000,9.9918369140625,0.37827831506729126,1.2837333679199219,0.3032945990562439
1702062838072831000,10.0088310546875,0.38087448477745056,1.0674870014190674,0.16371189057826996
1702062838089824500,10.025824462890625,0.4164573848247528,0.9731083512306213,0.06215553730726242
1702062838106818300,10.042818359375,0.5044219493865967,0.9682214260101318,-0.10644327104091644
1702062838123811600,10.0598115234375,0.6133087277412415,1.1549934148788452,-0.2626720666885376
1702062838140805600,10.0768056640625,0.7073819637298584,1.4373658895492554,-0.3222314119338989
1702062838157799400,10.09379931640625,0.8283332586288452,1.5862643718719482,-0.27351492643356323
1702062838174793000,10.11079296875,0.9393580555915833,1.4941763877868652,-0.1111774742603302
1702062838191786800,10.127786865234375,1.018770456314087,1.3127493858337402,0.166460782289505
1702062838208780800,10.14478076171875,1.0253373384475708,1.2116512060165405,0.47907108068466187
1702062838225774300,10.1617744140625,0.9573785662651062,1.2371548414230347,0.6609562039375305
1702062838242767400,10.178767333984375,0.8941540122032166,1.338711142539978,0.633009135723114
1702062838259751400,10.19575146484375,0.8759807348251343,1.4605787992477417,0.48029279708862305
1702062838276755500,10.21275537109375,0.8578075170516968,1.463938593864441,0.3504839241504669
1702062838293749000,10.2297490234375,0.8155050873756409,1.3662000894546509,0.32589662075042725
1702062838310743000,10.246742919921875,0.7640396952629089,1.250593900680542,0.37751471996307373
1702062838327736300,10.263736328125,0.7244861721992493,1.1749993562698364,0.4628831446170807
1702062838344731600,10.280731689453125,0.6823364496231079,1.2046263217926025,0.5309945940971375
1702062838361723600,10.2977236328125,0.6559165716171265,1.3808609247207642,0.522595226764679
1702062838378717700,10.3147177734375,0.6565274000167847,1.5897767543792725,0.43829581141471863
1702062838395711200,10.331711181640625,0.6974554061889648,1.7055357694625854,0.3819434940814972
1702062838412710100,10.348710205078126,0.7754934430122375,1.7093536853790283,0.47448956966400146
1702062838429688600,10.3656884765625,0.8768970370292664,1.618945598602295,0.6904304623603821
1702062838446692400,10.3826923828125,0.9488264322280884,1.4411838054656982,0.9236282706260681
1702062838463686400,10.399686279296875,1.023046612739563,1.3617713451385498,1.0757336616516113
1702062838480680000,10.416679931640624,1.0502300262451172,1.4871513843536377,0.9790642857551575
1702062838497673500,10.433673583984374,1.020603060722351,1.7093536853790283,0.6064364910125732
1702062838514667500,10.45066748046875,0.9570731520652771,1.8889480829238892,0.1739438772201538
1702062838531661300,10.467661376953124,0.9065240025520325,1.9413297176361084,-0.043218716979026794
1702062838548654800,10.48465478515625,0.9085093140602112,1.8342756032943726,0.015577063895761967
1702062838565648400,10.5016484375,0.9424123764038086,1.6381878852844238,0.2727513313293457
1702062838582642000,10.518641845703126,0.9640980958938599,1.480737328529358,0.5383250117301941
1702062838599635700,10.5356357421875,0.9850202202796936,1.4031574726104736,0.5789475440979004
1702062838616629800,10.552629638671876,0.9966266751289368,1.389107584953308,0.4447098970413208
1702062838633623600,10.56962353515625,0.9712757468223572,1.3949108123779297,0.37262779474258423
1702062838650617000,10.5866171875,0.9097310900688171,1.3603968620300293,0.4178318381309509
1702062838667610600,10.603610595703126,0.8872817754745483,1.296714186668396,0.5077817440032959
1702062838684604400,10.6206044921875,0.9111055135726929,1.1340713500976562,0.5398521423339844
1702062838701598200,10.63759814453125,0.9028588533401489,0.907898485660553,0.4996877610683441
1702062838718591700,10.654591796875,0.8306240439414978,0.7906123399734497,0.42378777265548706
1702062838735585500,10.67158544921875,0.7050912380218506,0.8655960559844971,0.35781431198120117
1702062838752579300,10.688579345703126,0.5893322229385376,1.0910053253173828,0.33047810196876526
1702062838769570000,10.705570068359375,0.5230533480644226,1.2973250150680542,0.35659259557724
1702062838786567000,10.72256689453125,0.4786129295825958,1.3881912231445312,0.42149701714515686
1702062838803550000,10.739550048828125,0.43936482071876526,1.3451253175735474,0.5105306506156921
1702062838820554200,10.75655419921875,0.3649919927120209,1.2473868131637573,0.5775730609893799
1702062838837548500,10.773548583984375,0.3068070709705353,1.171028733253479,0.5564982295036316
1702062838854537200,10.790537109375,0.2617557644844055,1.1551461219787598,0.4072943925857544
1702062838871539500,10.80753955078125,0.20357084274291992,1.180649757385254,0.26145032048225403
1702062838888529200,10.824529052734375,0.168751522898674,1.2628111839294434,0.20830504596233368
1702062838905512400,10.841512451171875,0.18295414745807648,1.3376421928405762,0.26251932978630066
1702062838922516500,10.8585166015625,0.20036379992961884,1.3269519805908203,0.3465133011341095
1702062838939510300,10.87551025390625,0.20082195103168488,1.267698049545288,0.3810271918773651
1702062838956503800,10.89250390625,0.19837848842144012,1.2551753520965576,0.3672827184200287
1702062838973495000,10.9094951171875,0.20693060755729675,1.34115469455719,0.29138273000717163
1702062838990494200,10.926494140625,0.25014930963516235,1.3990341424942017,0.15302173793315887
1702062839007484700,10.943484619140625,0.3188716471195221,1.3510812520980835,0.038179077208042145
1702062839024472000,10.96047216796875,0.3637702465057373,1.2162326574325562,0.0555887371301651
1702062839041472500,10.977472412109375,0.3819434940814972,1.1560624837875366,0.2588541507720947
1702062839058466000,10.994466064453125,0.38117989897727966,1.2279918193817139,0.5490151643753052
1702062839075460000,11.011460205078125,0.3245221674442291,1.377806544303894,0.7701483368873596
1702062839092453600,11.02845361328125,0.2945897579193115,1.5236506462097168,0.7619016766548157
1702062839109447400,11.045447509765625,0.33826664090156555,1.5459471940994263,0.579405665397644
1702062839126441200,11.062441162109375,0.3959933817386627,1.3849842548370361,0.375071257352829
1702062839143434800,11.079434814453125,0.41523563861846924,1.1481212377548218,0.2506074607372284
1702062839160428500,11.096428466796874,0.4245513379573822,1.0696250200271606,0.2454151064157486
1702062839177422300,11.11342236328125,0.43157628178596497,1.1158981323242188,0.2687807083129883
1702062839194405000,11.130405029296876,0.43829581141471863,1.123533844947815,0.21044307947158813
1702062839211409700,11.14740966796875,0.42577308416366577,1.1346821784973145,0.052228979766368866
1702062839228403500,11.164403564453124,0.41920626163482666,1.2983940839767456,-0.15592335164546967
1702062839245397000,11.18139697265625,0.4908302128314972,1.5080735683441162,-0.2874121069908142
1702062839262390800,11.198390869140624,0.6336199641227722,1.592373013496399,-0.22602014243602753
1702062839279382000,11.215382080078125,0.7709119319915771,1.5581644773483276,0.01466076634824276
1702062839296380700,11.232380615234375,0.8623890280723572,1.4223997592926025,0.3582724630832672
1702062839313372000,11.249371826171876,0.8944594264030457,1.29549241065979,0.6459900140762329
1702062839330365700,11.26636572265625,0.8881980776786804,1.306793451309204,0.7345654368400574
1702062839347359500,11.283359375,0.8810204267501831,1.4144585132598877,0.6640105247497559
1702062839364353000,11.30035302734375,0.875064492225647,1.500590443611145,0.5360342264175415
1702062839381347000,11.31734716796875,0.8581129312515259,1.4605787992477417,0.4488332271575928
1702062839398340600,11.334340576171876,0.7993171811103821,1.311833143234253,0.4430300295352936
1702062839415334100,11.351334228515626,0.7107416987419128,1.2405146360397339,0.45952337980270386
1702062839432328000,11.368327880859376,0.6531676650047302,1.32863187789917,0.42699480056762695
1702062839449321700,11.38532177734375,0.637132465839386,1.5251778364181519,0.3533855378627777
1702062839466312700,11.402312744140625,0.6557638645172119,1.6172657012939453,0.26832255721092224
1702062839483311600,11.4193115234375,0.6592763066291809,1.571908950805664,0.2710714638233185
1702062839500300500,11.436300537109375,0.6574437022209167,1.5068517923355103,0.38179078698158264
1702062839517296600,11.453296630859375,0.6598871946334839,1.5053247213363647,0.5392413139343262
1702062839534290400,11.47029052734375,0.6711881756782532,1.621694564819336,0.6840163469314575
1702062839551284000,11.487283935546875,0.6823364496231079,1.7405078411102295,0.7461718916893005
1702062839568277800,11.50427783203125,0.685390830039978,1.763109803199768,0.6951646208763123
1702062839585265200,11.52126513671875,0.6742424964904785,1.694692850112915,0.5264131426811218
1702062839602262500,11.538262451171875,0.6571382880210876,1.556179165840149,0.2790127098560333
1702062839619271400,11.555271484375,0.6430884003639221,1.472796082496643,0.06994406878948212
1702062839636252700,11.572252685546875,0.6531676650047302,1.5480852127075195,0.0022907445672899485
1702062839653246200,11.58924609375,0.6682865619659424,1.7197383642196655,0.10002918541431427
1702062839670239200,11.6062392578125,0.7348709106445312,1.8481727838516235,0.32421672344207764
1702062839687234600,11.623234619140625,0.8281805515289307,1.8558086156845093,0.5381723046302795
1702062839704227600,11.6402275390625,0.8872817754745483,1.7171422243118286,0.6809620261192322
1702062839721221000,11.65722119140625,0.8772025108337402,1.5126550197601318,0.7493789196014404
1702062839738215000,11.67421484375,0.8240572214126587,1.3741413354873657,0.732122004032135
1702062839755208700,11.691208740234375,0.7780895829200745,1.3489432334899902,0.6276640295982361
1702062839772202200,11.7082021484375,0.7716755270957947,1.3574953079223633,0.4486805200576782
1702062839789196000,11.725196044921875,0.7550294399261475,1.3336715698242188,0.2292271852493286
1702062839806189800,11.74218994140625,0.6734789609909058,1.2826642990112305,0.04749477282166481
1702062839823183400,11.759183349609375,0.55069500207901,1.225701093673706,-0.01114829070866108
1702062839840176400,11.77617626953125,0.42898011207580566,1.2370021343231201,0.04917465150356293
1702062839857171700,11.793171630859375,0.3572034537792206,1.34115469455719,0.16569720208644867
1702062839874164500,11.81016455078125,0.3245221674442291,1.4799737930297852,0.304669052362442
1702062839891158300,11.827158203125,0.3251330256462097,1.5045610666275024,0.42470407485961914
1702062839908154400,11.844154296875,0.31871894001960754,1.36955988407135,0.4550946056842804
1702062839925143800,11.861143798828126,0.28725937008857727,1.2124147415161133,0.42562034726142883
1702062839942139400,11.878139404296874,0.2713768780231476,1.182482361793518,0.38209620118141174
1702062839959133200,11.89513330078125,0.28267788887023926,1.2441798448562622,0.30146199464797974
1702062839976114400,11.912114501953125,0.2919935882091522,1.3322970867156982,0.20326541364192963
1702062839993120800,11.929120849609374,0.31352660059928894,1.3842206001281738,0.1336267739534378
1702062840010114600,11.946114501953126,0.3533855378627777,1.3578007221221924,0.12018773704767227
1702062840027108000,11.963108154296876,0.41661009192466736,1.264491081237793,0.16600263118743896
1702062840044102000,11.980101806640626,0.46563202142715454,1.1977540254592896,0.2405281960964203
1702062840061095700,11.997095703125,0.46379944682121277,1.2064588069915771,0.31932979822158813
1702062840078089200,12.014089111328126,0.45891252160072327,1.2785409688949585,0.3813326358795166
1702062840095083000,12.0310830078125,0.4674646258354187,1.363909363746643,0.3959933817386627
1702062840112074200,12.04807421875,0.44486260414123535,1.3770430088043213,0.3251330256462097
1702062840129073000,12.065072998046874,0.3959933817386627,1.3494013547897339,0.16050484776496887
1702062840146064400,12.082064453125,0.36560285091400146,1.3533719778060913,-0.05864306539297104
1702062840163058000,12.099057861328125,0.34208452701568604,1.3619240522384644,-0.24862214922904968
1702062840180051500,12.116051513671875,0.3243694305419922,1.415069341659546,-0.2577851414680481
1702062840197045200,12.133045166015625,0.34895676374435425,1.5439618825912476,-0.03451388701796532
1702062840214039000,12.1500390625,0.4242459237575531,1.648572564125061,0.3393356502056122
1702062840231032600,12.167032470703125,0.5096143484115601,1.5639677047729492,0.6139195561408997
1702062840248026600,12.184026611328125,0.5268712639808655,1.404073715209961,0.6772968173027039
1702062840265020200,12.201020263671875,0.4940372705459595,1.3277156352996826,0.5703954100608826
1702062840282014000,12.218013916015625,0.46410486102104187,1.3339769840240479,0.3911064863204956
1702062840299005200,12.235005126953125,0.461355984210968,1.4092661142349243,0.26022860407829285
1702062840316003800,12.25200390625,0.4729624092578888,1.4463762044906616,0.2025018334388733
1702062840332995000,12.2689951171875,0.43020185828208923,1.2846496105194092,0.13530665636062622
1702062840349988600,12.285988525390625,0.3318525552749634,1.1728612184524536,0.020616702735424042
1702062840366982400,12.302982421875,0.25763240456581116,1.3629931211471558,-0.14126259088516235
1702062840383976000,12.319975830078125,0.2785545587539673,1.7143932580947876,-0.266184538602829
1702062840400969700,12.3369697265625,0.41630467772483826,1.9938641786575317,-0.21349740028381348
1702062840417963500,12.353963623046875,0.5972734689712524,2.0441079139709473,0.0006108652451075613
1702062840434957300,12.370957275390625,0.7580837607383728,1.8440494537353516,0.3095559775829315
1702062840451951400,12.387951416015625,0.8663596510887146,1.5876387357711792,0.5874996781349182
1702062840468944600,12.404944580078125,0.930347740650177,1.4628695249557495,0.6947064995765686
1702062840485938400,12.4219384765625,0.9876163601875305,1.4787520170211792,0.6291912198066711
1702062840502932200,12.43893212890625,1.0005972385406494,1.54945969581604,0.5123631954193115
1702062840519925800,12.45592578125,0.9807441234588623,1.5804611444473267,0.4599815309047699
1702062840536931000,12.47293115234375,0.9408851861953735,1.5673274993896484,0.47479501366615295
1702062840553913300,12.489913330078124,0.8775079250335693,1.5251778364181519,0.49067750573158264
1702062840570907100,12.5069072265625,0.8098546266555786,1.5195273160934448,0.46303585171699524
1702062840587901000,12.52390087890625,0.7710646390914917,1.6042848825454712,0.42088615894317627
1702062840604894500,12.54089453125,0.7658722996711731,1.7247780561447144,0.39935314655303955
1702062840621888300,12.55788818359375,0.7800748944282532,1.7522670030593872,0.42959097027778625
1702062840638865000,12.574864990234374,0.8060367107391357,1.666898488998413,0.4992296099662781
1702062840655875600,12.59187548828125,0.8000807762145996,1.5418238639831543,0.5768095254898071
1702062840672869400,12.608869384765624,0.7909177541732788,1.4605787992477417,0.6082690954208374
1702062840689860400,12.6258603515625,0.7622070908546448,1.4540120363235474,0.5297728776931763
1702062840706859800,12.64285986328125,0.7238753437995911,1.5322027206420898,0.3075706362724304
1702062840723848000,12.659847900390625,0.6921103000640869,1.6322319507598877,0.07208210229873657
1702062840740846800,12.676846923828125,0.7035640478134155,1.7534886598587036,-0.004428773187100887
1702062840757838000,12.693838134765626,0.7854200005531311,1.8437440395355225,0.09147707372903824
1702062840774826000,12.710825927734374,0.8747590184211731,1.7931948900222778,0.2695443034172058
1702062840791825400,12.727825439453126,0.8993463516235352,1.6476563215255737,0.48197266459465027
1702062840808821200,12.7448212890625,0.9033169746398926,1.5903877019882202,0.6174320578575134
1702062840825810700,12.761810791015625,0.9424123764038086,1.647045373916626,0.6377432942390442
1702062840842803500,12.778803466796875,0.983340322971344,1.7014124393463135,0.6007859706878662
1702062840859796500,12.79579638671875,0.9677632451057434,1.672243595123291,0.5761986374855042
1702062840876793900,12.8127939453125,0.9275988936424255,1.567785620689392,0.5577199459075928
1702062840893788000,12.829787841796875,0.869719386100769,1.4460707902908325,0.5074763298034668
1702062840910783200,12.846783203125,0.8061894178390503,1.4240796566009521,0.4460843503475189
1702062840927764700,12.8637646484375,0.7623597979545593,1.442100167274475,0.3908010423183441
1702062840944754700,12.880754638671876,0.7137960195541382,1.4401148557662964,0.3787364661693573
1702062840961762600,12.897762451171875,0.6401867866516113,1.4404202699661255,0.39904773235321045
1702062840978756400,12.91475634765625,0.5493205785751343,1.4272866249084473,0.42577308416366577
1702062840995746000,12.93174609375,0.4792237877845764,1.3784173727035522,0.43768495321273804
1702062841012747500,12.94874755859375,0.4056145250797272,1.3735305070877075,0.417679101228714
1702062841029737500,12.965737548828125,0.31902438402175903,1.4396566152572632,0.36529740691185
1702062841046731000,12.98273095703125,0.24434609711170197,1.5552629232406616,0.2880229651927948
1702062841063725000,12.99972509765625,0.2145664244890213,1.618945598602295,0.20143280923366547
1702062841080716000,13.016716064453124,0.23854288458824158,1.6268868446350098,0.15745051205158234
1702062841097714700,13.033714599609375,0.26221391558647156,1.5821410417556763,0.1892155110836029
1702062841114706000,13.050705810546875,0.28420504927635193,1.51158607006073,0.23854288458824158
1702062841131699700,13.06769970703125,0.3271183371543884,1.4970779418945312,0.24892759323120117
1702062841148691200,13.084691162109374,0.3674354553222656,1.521665334701538,0.22861631214618683
1702062841165687300,13.101687255859375,0.3966042697429657,1.5544993877410889,0.21471913158893585
1702062841182680800,13.118680908203125,0.4303545653820038,1.5468635559082031,0.20861047506332397
1702062841199674600,13.135674560546875,0.46502116322517395,1.4879150390625,0.2200642079114914
1702062841216668700,13.152668701171875,0.4944954216480255,1.3753631114959717,0.23426681756973267
1702062841233658600,13.16965869140625,0.499382346868515,1.288467526435852,0.21013765037059784
1702062841250644500,13.18664453125,0.4888449013233185,1.3151928186416626,0.10186178237199783
1702062841267649300,13.203649169921874,0.46761733293533325,1.3773484230041504,-0.05543602257966995
1702062841284643300,13.220643310546874,0.4311181604862213,1.406822681427002,-0.09392052888870239
1702062841301636900,13.237636962890624,0.3995058834552765,1.4732542037963867,0.1492038369178772
1702062841318630700,13.254630615234374,0.35246923565864563,1.5848898887634277,0.5765040516853333
1702062841335622100,13.2716220703125,0.32971450686454773,1.6730071306228638,0.9408851861953735
1702062841352620500,13.28862060546875,0.36224308609962463,1.6783522367477417,0.9879218339920044
1702062841369607400,13.305607421875,0.4277583956718445,1.6329954862594604,0.7658722996711731
1702062841386609700,13.322609619140625,0.4369213581085205,1.4692835807800293,0.4291328489780426
1702062841403599600,13.339599609375,0.43967026472091675,1.2947288751602173,0.14767667651176453
1702062841420592600,13.356592529296876,0.4657847583293915,1.357953429222107,0.040164388716220856
1702062841437586400,13.37358642578125,0.4717406928539276,1.4779884815216064,-0.058184914290905
1702062841454580500,13.39058056640625,0.460897833108902,1.5642731189727783,-0.21441370248794556
1702062841471574300,13.40757421875,0.4495968222618103,1.731955647468567,-0.3390302062034607
1702062841488564700,13.424564697265625,0.5036584138870239,1.9226983785629272,-0.3433062732219696
1702062841505564400,13.441564453125,0.6250678896903992,2.0609066486358643,-0.19379699230194092
1702062841522555100,13.45855517578125,0.8219192028045654,2.08747935295105,0.09040805697441101
1702062841539550700,13.47555078125,1.0068585872650146,1.8921550512313843,0.4766276180744171
1702062841556541200,13.492541259765625,1.0816895961761475,1.5528194904327393,0.8349000811576843
1702062841573536300,13.509536376953125,1.0630582571029663,1.3187053203582764,1.0054842233657837
1702062841590539500,13.52653955078125,1.0088438987731934,1.2765556573867798,0.9572258591651917
1702062841607523800,13.54352392578125,0.9358455538749695,1.4049900770187378,0.7670940160751343
1702062841624515000,13.56051513671875,0.8292495608329773,1.5935946702957153,0.5050328373908997
1702062841641514000,13.577513916015626,0.7295258045196533,1.7029396295547485,0.2616030275821686
1702062841658505000,13.5945048828125,0.6618725061416626,1.677588701248169,0.10445795953273773
1702062841675498800,13.611498779296875,0.633009135723114,1.6383405923843384,0.07177666574716568
1702062841692492300,13.6284921875,0.6530149579048157,1.652390480041504,0.12232576310634613
1702062841709486300,13.645486328125,0.7076873779296875,1.6757560968399048,0.18096883594989777
1702062841726480000,13.66247998046875,0.7672467231750488,1.6798794269561768,0.22250767052173615
1702062841743473700,13.6794736328125,0.8061894178390503,1.6869044303894043,0.2912299931049347
1702062841760467500,13.696467529296875,0.850171685218811,1.7203491926193237,0.380721777677536
1702062841777461000,13.7134609375,0.8799513578414917,1.7246253490447998,0.43967026472091675
1702062841794454800,13.730454833984375,0.8816312551498413,1.7088955640792847,0.42959097027778625
1702062841811448600,13.747448486328125,0.8365799784660339,1.665065884590149,0.35155296325683594
1702062841828432000,13.764431884765624,0.7632761001586914,1.686140775680542,0.25702154636383057
1702062841845432300,13.781432373046876,0.7160868048667908,1.7389806509017944,0.15653422474861145
1702062841862426400,13.79842626953125,0.7156286239624023,1.8225164413452148,0.12797626852989197
1702062841879426300,13.81542626953125,0.7309002876281738,1.8448129892349243,0.1814269721508026
1702062841896417000,13.8324169921875,0.7383833527565002,1.8106045722961426,0.2993239760398865
1702062841913410800,13.849410888671875,0.7887797355651855,1.746311068534851,0.41691553592681885
1702062841930404400,13.866404296875,0.8454375267028809,1.6853772401809692,0.5054910182952881
1702062841947398100,13.883398193359374,0.859029233455658,1.6313155889511108,0.5595525503158569
1702062841964392000,13.900391845703124,0.845132052898407,1.5913039445877075,0.5858197808265686
1702062841981385700,13.9173857421875,0.8465065360069275,1.533729910850525,0.5829181671142578
1702062841998379300,13.934379150390624,0.8411614298820496,1.4149166345596313,0.5329799056053162
1702062842015373000,13.951373046875,0.7980954647064209,1.316261887550354,0.44654250144958496
1702062842032361700,13.96836181640625,0.7325801253318787,1.2713632583618164,0.3442225754261017
1702062842049363200,13.98536328125,0.6443101167678833,1.2628111839294434,0.27000242471694946
1702062842066345700,14.002345703125,0.5665774941444397,1.3235923051834106,0.2542726695537567
1702062842083348000,14.019347900390626,0.5010622143745422,1.415680170059204,0.3127630054950714
1702062842100341800,14.036341796875,0.4584543704986572,1.4986051321029663,0.3943135142326355
1702062842117335600,14.05333544921875,0.44058656692504883,1.458593487739563,0.4075998365879059
1702062842134329300,14.070329345703126,0.4309654235839844,1.3138184547424316,0.3698789179325104
1702062842151323000,14.087322998046876,0.3923282027244568,1.170875906944275,0.2909245789051056
1702062842168316700,14.104316650390626,0.3400992155075073,1.2105822563171387,0.19364428520202637
1702062842185310200,14.121310302734376,0.3023782968521118,1.3574953079223633,0.10216721147298813
1702062842202301400,14.138301513671875,0.308792382478714,1.5057828426361084,0.06963863968849182
1702062842219300000,14.155300048828124,0.3491095006465912,1.5137240886688232,0.13041973114013672
1702062842236291300,14.172291259765625,0.4095851480960846,1.3829989433288574,0.17302757501602173
1702062842253285000,14.18928515625,0.4616613984107971,1.3261884450912476,0.17928895354270935
1702062842270279200,14.206279052734375,0.484416127204895,1.3654365539550781,0.20815233886241913
1702062842287272400,14.2232724609375,0.5294674634933472,1.4260649681091309,0.327271044254303
1702062842304266500,14.2402666015625,0.5878050923347473,1.4311045408248901,0.4732678532600403
1702062842321261300,14.25726123046875,0.683863639831543,1.4110987186431885,0.5648976564407349
1702062842338253800,14.27425390625,0.8005388975143433,1.3776538372039795,0.5919284224510193
1702062842355247400,14.291247314453125,0.8530732989311218,1.285413146018982,0.5355761051177979
1702062842372241200,14.3082412109375,0.8290968537330627,1.1154398918151855,0.38148534297943115
1702062842389235000,14.32523486328125,0.7324274182319641,1.0500773191452026,0.26343563199043274
1702062842406228700,14.342228759765625,0.6200281977653503,1.2512047290802002,0.2977968156337738
1702062842423222300,14.35922216796875,0.5477933883666992,1.5824464559555054,0.4882340431213379
1702062842440216000,14.376216064453125,0.5572618246078491,1.6730071306228638,0.6887505650520325
1702062842457209600,14.393209716796875,0.6174320578575134,1.5150985717773438,0.746630072593689
1702062842474203400,14.410203369140625,0.6407976150512695,1.2890783548355103,0.6806566119194031
1702062842491197200,14.427197265625,0.5726861953735352,1.1110111474990845,0.5264131426811218
1702062842508191000,14.44419091796875,0.48258355259895325,1.1870639324188232,0.3165809214115143
1702062842525184800,14.461184814453125,0.4332561790943146,1.4289665222167969,0.09254608303308487
1702062842542178300,14.47817822265625,0.4369213581085205,1.5667166709899902,-0.05910121276974678
1702062842559172000,14.495172119140625,0.45463645458221436,1.4891366958618164,-0.11911872029304504
1702062842576166000,14.512165771484375,0.4709770977497101,1.434922456741333,-0.08185594528913498
1702062842593159700,14.52915966796875,0.5047274231910706,1.5170838832855225,0.06123924255371094
1702062842610153200,14.5461533203125,0.5572618246078491,1.6730071306228638,0.2638937830924988
1702062842627147000,14.56314697265625,0.6049093008041382,1.7724255323410034,0.4479169547557831
1702062842644140800,14.580140869140624,0.6543893814086914,1.7655532360076904,0.5551238059997559
1702062842661124000,14.5971240234375,0.7102835774421692,1.695914626121521,0.6392704844474792
1702062842678128000,14.614128173828124,0.741284966468811,1.657124638557434,0.7254024744033813
1702062842695122000,14.631121826171874,0.7383833527565002,1.6378824710845947,0.7654141783714294
1702062842712105000,14.64810498046875,0.6950119137763977,1.6424639225006104,0.7324274182319641
1702062842729109200,14.665109130859374,0.6450737118721008,1.7052303552627563,0.6475171446800232
1702062842746103000,14.68210302734375,0.6360634565353394,1.7744108438491821,0.5230533480644226
1702062842763096800,14.699096923828124,0.6415612101554871,1.8379408121109009,0.4544837474822998
1702062842780090600,14.716090576171876,0.6490443348884583,1.8805487155914307,0.45952337980270386
1702062842797084200,14.733084228515626,0.6878342628479004,1.8765780925750732,0.461355984210968
1702062842814078000,14.750077880859376,0.7605272531509399,1.80510675907135,0.4127921760082245
1702062842831071700,14.76707177734375,0.8005388975143433,1.6856826543807983,0.32940909266471863
1702062842848065300,14.784065185546876,0.79840087890625,1.6067283153533936,0.22678372263908386
1702062842865059000,14.80105908203125,0.7848091125488281,1.6134477853775024,0.1472185254096985
1702062842882049800,14.8180498046875,0.7648032903671265,1.6614007949829102,0.17989981174468994
1702062842899049500,14.835049560546874,0.7742717266082764,1.642922043800354,0.3188716471195221
1702062842916040200,14.852040283203126,0.8113817572593689,1.5650367736816406,0.4815145432949066
1702062842933034000,14.869033935546875,0.8020660877227783,1.4676038026809692,0.588874101638794
1702062842950027500,14.886027587890625,0.7666358947753906,1.4332425594329834,0.5981897711753845
1702062842967021600,14.903021484375,0.7591527700424194,1.4621059894561768,0.5352706909179688
1702062842984015000,14.92001513671875,0.7567093372344971,1.4953981637954712,0.4567744731903076
1702062843001009000,14.9370087890625,0.7417431473731995,1.4760031700134277,0.4112650156021118
1702062843018002700,14.954002685546875,0.7374670505523682,1.4196507930755615,0.3859141170978546
1702062843034996500,14.97099658203125,0.7218900322914124,1.3422236442565918,0.3692680299282074
1702062843051989000,14.987989013671875,0.6884451508522034,1.2965614795684814,0.3842342495918274
1702062843068981500,15.0049814453125,0.6655376553535461,1.2944234609603882,0.37659841775894165
1702062843085981000,15.02198095703125,0.6391177773475647,1.2849550247192383,0.3654501438140869
1702062843102960600,15.038960693359375,0.5992587804794312,1.3072515726089478,0.3546072840690613
1702062843119965000,15.05596484375,0.5545129179954529,1.3694071769714355,0.3257438838481903
1702062843136958700,15.072958740234375,0.4980078935623169,1.4347697496414185,0.28909197449684143
1702062843153950000,15.089949951171874,0.45204028487205505,1.4624114036560059,0.256868839263916
1702062843170948900,15.106948974609375,0.41004329919815063,1.4257594347000122,0.2611449062824249
1702062843187939800,15.12393994140625,0.35384368896484375,1.365131139755249,0.3095559775829315
1702062843204933400,15.140933349609375,0.31902438402175903,1.3329079151153564,0.36331209540367126
1702062843221927200,15.15792724609375,0.2880229651927948,1.3281737565994263,0.3698789179325104
1702062843238921000,15.1749208984375,0.2474004179239273,1.3397802114486694,0.31673362851142883
1702062843255914800,15.191914794921875,0.23686300218105316,1.3298536539077759,0.19807305932044983
1702062843272898600,15.208898681640624,0.24358251690864563,1.2695306539535522,0.09666942805051804
1702062843289902000,15.225902099609375,0.2431243658065796,1.2157745361328125,0.0809396430850029
1702062843306896000,15.242895751953125,0.21212296187877655,1.2189816236495972,0.10705413669347763
1702062843323879200,15.259879150390624,0.19089539349079132,1.2487612962722778,0.10445795953273773
1702062843340883200,15.27688330078125,0.19486601650714874,1.2838860750198364,0.0455094613134861
1702062843357879800,15.2938798828125,0.18631389737129211,1.3040446043014526,-0.05390885844826698
1702062843374868000,15.310867919921876,0.1621847152709961,1.2432634830474854,-0.12828169763088226
1702062843391864600,15.327864501953124,0.1713477075099945,1.1475104093551636,-0.13576480746269226
1702062843408858400,15.3448583984375,0.2347249686717987,1.0711522102355957,-0.08261952549219131
1702062843425852000,15.361851806640624,0.34544429183006287,1.0381654500961304,0.02672535367310047
1702062843442845700,15.378845703125,0.42241331934928894,1.0445796251296997,0.18570303916931152
1702062843459829800,15.395829833984376,0.4239404797554016,1.1104003190994263,0.39416080713272095
1702062843476833000,15.4128330078125,0.3859141170978546,1.1994339227676392,0.5845980644226074
1702062843493816000,15.429816162109375,0.3923282027244568,1.2151637077331543,0.6603453159332275
1702062843510820600,15.446820556640626,0.4282165467739105,1.1678216457366943,0.6420193910598755
1702062843527814100,15.463814208984376,0.4554000496864319,1.0444267988204956,0.5532912015914917
1702062843544808000,15.480807861328126,0.4193589985370636,0.9271407127380371,0.395077109336853
1702062843561801700,15.4978017578125,0.3384193480014801,0.9443976879119873,0.1963931769132614
1702062843578795500,15.51479541015625,0.3094032406806946,1.080162525177002,-0.004428773187100887
1702062843595789000,15.5317890625,0.3698789179325104,1.155604362487793,-0.14187344908714294
1702062843612782800,15.548782958984376,0.42042800784111023,1.1015427112579346,-0.1950187236070633
1702062843629776600,15.565776611328126,0.45433104038238525,1.0406090021133423,-0.13836097717285156
1702062843646770200,15.582770263671875,0.4856378734111786,1.091616153717041,0.021380282938480377
1702062843663764000,15.599763916015625,0.5238169431686401,1.2220358848571777,0.2513710558414459
1702062843680757800,15.6167578125,0.5441282391548157,1.317789077758789,0.46853363513946533
1702062843697751600,15.63375146484375,0.5581781268119812,1.3368785381317139,0.5994115471839905
1702062843714745300,15.650745361328125,0.5812382698059082,1.2728904485702515,0.6102544069290161
1702062843731739000,15.66773876953125,0.5977316498756409,1.2273809909820557,0.5899431109428406
1702062843748732700,15.684732666015625,0.5729916095733643,1.1504119634628296,0.5575672388076782
1702062843765735700,15.701735595703125,0.5438227653503418,1.1258246898651123,0.5335907936096191
1702062843782717700,15.7187177734375,0.5531384944915771,1.158811330795288,0.5120577812194824
1702062843799706000,15.7357060546875,0.5612324476242065,1.21027672290802,0.48166725039482117
1702062843816707600,15.75270751953125,0.5378668308258057,1.268614411354065,0.4398229718208313
1702062843833701000,15.769701171875,0.5482515692710876,1.3193162679672241,0.38469240069389343
1702062843850695000,15.78669482421875,0.5955936312675476,1.3347405195236206,0.33460143208503723
1702062843867688700,15.803688720703125,0.6342308521270752,1.325730323791504,0.32986724376678467
1702062843884676600,15.820676513671875,0.6498079299926758,1.3348932266235352,0.37568211555480957
1702062843901676300,15.83767626953125,0.6850853562355042,1.421025276184082,0.4619668424129486
1702062843918669800,15.854669921875,0.7519751191139221,1.5154039859771729,0.5319108963012695
1702062843935663600,15.87166357421875,0.8078693151473999,1.5279266834259033,0.5424483418464661
1702062843952665900,15.888665771484375,0.8341364860534668,1.4080443382263184,0.4531092941761017
1702062843969651200,15.905651123046875,0.8434522151947021,1.301142930984497,0.2919935882091522
1702062843986644700,15.922644775390625,0.835969090461731,1.3032809495925903,0.1508837193250656
1702062844003638300,15.93963818359375,0.8095491528511047,1.3906347751617432,0.098502017557621
1702062844020632000,15.956632080078125,0.7958046793937683,1.516014814376831,0.1319468915462494
1702062844037625900,15.9736259765625,0.8301658630371094,1.6088663339614868,0.22479841113090515
1702062844054619600,15.99061962890625,0.8516988754272461,1.6186401844024658,0.33689218759536743
1702062844071601200,16.00760107421875,0.851393461227417,1.5149458646774292,0.4541783034801483
1702062844088601900,16.024601806640625,0.8182539939880371,1.3965907096862793,0.5754350423812866
1702062844105598200,16.04159814453125,0.7588473558425903,1.3637566566467285,0.6769914031028748
1702062844122597400,16.058597412109375,0.7363980412483215,1.4312572479248047,0.6968445181846619
1702062844139596300,16.07559619140625,0.7014260292053223,1.4952454566955566,0.6598871946334839
1702062844156582000,16.092581787109374,0.6461427211761475,1.463022232055664,0.6154467463493347
1702062844173575400,16.109575439453124,0.6001750826835632,1.3535246849060059,0.5859724879264832
1702062844190569500,16.126569580078126,0.5352706909179688,1.2826642990112305,0.5722280144691467
1702062844207563000,16.14356298828125,0.45265114307403564,1.275639295578003,0.528245747089386
1702062844224556800,16.160556884765626,0.40485092997550964,1.3463469743728638,0.43829581141471863
1702062844241550600,16.177550537109376,0.38637226819992065,1.3817771673202515,0.337044894695282
1702062844258544400,16.19454443359375,0.3604104816913605,1.3232868909835815,0.25854870676994324
1702062844275547400,16.21154736328125,0.3023782968521118,1.212720274925232,0.2018909603357315
1702062844292531500,16.228531494140626,0.23365595936775208,1.1633929014205933,0.13576480746269226
1702062844309525800,16.24552587890625,0.17867808043956757,1.2473868131637573,0.041691552847623825
1702062844326519000,16.26251904296875,0.12996158003807068,1.3852896690368652,-0.03420845419168472
1702062844343512800,16.279512939453124,0.12553280591964722,1.4653129577636719,-0.037110064178705215
1702062844360506000,16.296506103515625,0.1713477075099945,1.4260649681091309,0.04642575979232788
1702062844377501200,16.313501220703124,0.23655757308006287,1.3290899991989136,0.16814066469669342
1702062844394494000,16.330493896484374,0.2768746614456177,1.2498302459716797,0.24083362519741058
1702062844411487700,16.34748779296875,0.3010038435459137,1.2615894079208374,0.2292271852493286
1702062844428481500,16.3644814453125,0.33567044138908386,1.2997685670852661,0.1869247704744339
1702062844445475300,16.381475341796875,0.37751471996307373,1.3145819902420044,0.1849394589662552
1702062844462468900,16.39846875,0.41431936621665955,1.2731958627700806,0.24113905429840088
1702062844479452200,16.4154521484375,0.4346306324005127,1.2270755767822266,0.31031954288482666
1702062844496456400,16.43245654296875,0.45036038756370544,1.1604912281036377,0.3286454975605011
1702062844513450000,16.449449951171875,0.4456261992454529,1.0919215679168701,0.275347501039505
1702062844530443800,16.46644384765625,0.40912699699401855,1.042441487312317,0.2054034322500229
1702062844547437600,16.4834375,0.36224308609962463,1.0296133756637573,0.12980885803699493
1702062844564431400,16.500431396484377,0.3312416672706604,1.0503827333450317,0.022449297830462456
1702062844581425200,16.517425048828127,0.30222558975219727,1.0680978298187256,-0.060322944074869156
1702062844598419000,16.5344189453125,0.244804248213768,1.1020009517669678,-0.023518312722444534
1702062844615412500,16.55141259765625,0.1915062516927719,1.1762210130691528,0.16233743727207184
1702062844632395800,16.568395751953126,0.21441370248794556,1.1669052839279175,0.4153883755207062
1702062844649399800,16.58539990234375,0.2597704529762268,1.049619197845459,0.6417139172554016
1702062844666388500,16.602388427734375,0.22968533635139465,1.0212140083312988,0.7869471311569214
1702062844683387400,16.619387451171875,0.1840231567621231,1.086118459701538,0.7399105429649353
1702062844700381000,16.636380859375,0.21242839097976685,1.183704137802124,0.5015203952789307
1702062844717374700,16.653374755859375,0.2574796974658966,1.186300277709961,0.22510384023189545
1702062844734368800,16.67036865234375,0.28008171916007996,1.0693196058273315,0.03222314268350601
1702062844751362300,16.6873623046875,0.304669052362442,0.9607383012771606,-0.08521570265293121
1702062844768355800,16.70435595703125,0.3332269787788391,1.0419833660125732,-0.18631389737129211
1702062844785349600,16.721349609375,0.3588833212852478,1.2893837690353394,-0.27061331272125244
1702062844802340900,16.7383408203125,0.408974289894104,1.5112806558609009,-0.2541199326515198
1702062844819339800,16.75533984375,0.5062545537948608,1.624596118927002,-0.10506882518529892
1702062844836330800,16.772330810546876,0.636521577835083,1.5920675992965698,0.09957103431224823
1702062844853324500,16.789324462890626,0.7640396952629089,1.4146112203598022,0.28649580478668213
1702062844870318300,16.806318359375,0.8483390808105469,1.242347240447998,0.46105054020881653
1702062844887312000,16.823311767578126,0.894001305103302,1.198823094367981,0.5917757153511047
1702062844904305700,16.8403056640625,0.8958339095115662,1.2206615209579468,0.6409503817558289
1702062844921299500,16.857299560546874,0.8773552179336548,1.2560917139053345,0.5955936312675476
1702062844938293200,16.874293212890624,0.8432994484901428,1.2793045043945312,0.5032002329826355
1702062844955287000,16.891287109375,0.8043568134307861,1.2935070991516113,0.45326200127601624
1702062844972265500,16.908265380859376,0.7849618196487427,1.2870930433273315,0.4309654235839844
1702062844989275100,16.925275146484374,0.7757988572120667,1.2919800281524658,0.42378777265548706
1702062845006270000,16.94227001953125,0.7544185519218445,1.3622294664382935,0.41752639412879944
1702062845023259600,16.959259765625,0.7634288668632507,1.4862351417541504,0.40393465757369995
1702062845040255500,16.97625537109375,0.8090910315513611,1.5771013498306274,0.40912699699401855
1702062845057246700,16.993246826171877,0.8413141369819641,1.599703311920166,0.43799036741256714
1702062845074245600,17.01024560546875,0.8516988754272461,1.5920675992965698,0.45524731278419495
1702062845091233300,17.0272333984375,0.8465065360069275,1.6255123615264893,0.42210787534713745
1702062845108230700,17.044230712890624,0.8443684577941895,1.782657504081726,0.2669481039047241
1702062845125224200,17.06122412109375,0.8258898258209229,1.9946277141571045,-0.026114489883184433
1702062845142215700,17.078215576171875,0.7846564054489136,2.15543794631958,-0.19746218621730804
1702062845159212000,17.0952119140625,0.7576256394386292,2.1733057498931885,-0.13607023656368256
1702062845176204800,17.112204833984375,0.7954992651939392,1.9810359477996826,0.08659014850854874
1702062845193199000,17.12919921875,0.8755226135253906,1.6291775703430176,0.42302417755126953
1702062845210193000,17.14619287109375,0.9450085163116455,1.326341152191162,0.8286387324333191
1702062845227186400,17.1631865234375,0.9558513760566711,1.1609493494033813,1.0520626306533813
1702062845244174000,17.180174072265626,0.9049968719482422,1.1064296960830688,0.9363036751747131
1702062845261173800,17.197173828125,0.8158105611801147,1.1646145582199097,0.609338104724884
1702062845278170000,17.214170166015624,0.746019184589386,1.275639295578003,0.2857322096824646
1702062845295161300,17.231161376953125,0.7141014933586121,1.3600914478302002,0.0887281745672226
1702062845312155000,17.24815478515625,0.7043276429176331,1.3416128158569336,0.05742133408784866
1702062845329149000,17.26514892578125,0.6754642724990845,1.1798862218856812,0.18860463798046112
1702062845346142700,17.282142822265627,0.5997169613838196,1.0115928649902344,0.32788193225860596
1702062845363136300,17.29913623046875,0.4918992519378662,1.0370965003967285,0.30253100395202637
1702062845380130000,17.316130126953126,0.3669773042201996,1.2244794368743896,0.16798794269561768
1702062845397123800,17.333123779296876,0.3078760802745819,1.4711161851882935,0.10064005106687546
1702062845414117400,17.350117431640626,0.3404046595096588,1.6125315427780151,0.21899518370628357
1702062845431111200,17.367111083984376,0.3956879675388336,1.5564846992492676,0.47678032517433167
1702062845448104700,17.384104736328126,0.4303545653820038,1.3826935291290283,0.6951646208763123
1702062845465098500,17.401098388671876,0.4207334518432617,1.2805262804031372,0.7519751191139221
1702062845482081800,17.418081787109376,0.38927388191223145,1.2533427476882935,0.7037167549133301
1702062845499086300,17.43508642578125,0.34636059403419495,1.2670872211456299,0.6186537742614746
1702062845516079600,17.45207958984375,0.3066543638706207,1.323439598083496,0.5291619896888733
1702062845533073700,17.46907373046875,0.3045163154602051,1.3657419681549072,0.44776421785354614
1702062845550067200,17.486067138671874,0.3263547718524933,1.3709343671798706,0.3854559659957886
1702062845567063300,17.503063232421876,0.3335324227809906,1.3232868909835815,0.37079519033432007
1702062845584052500,17.520052490234374,0.30146199464797974,1.273043155670166,0.3723223805427551
1702062845601046500,17.537046630859376,0.26145032048225403,1.289689302444458,0.3266601860523224
1702062845618044000,17.5540439453125,0.26053401827812195,1.3649784326553345,0.1290452778339386
1702062845635036000,17.571035888671876,0.30512720346450806,1.3829989433288574,-0.1849394589662552
1702062845652028200,17.588028076171874,0.3081815242767334,1.38849675655365,-0.389426589012146
1702062845669024800,17.605024658203124,0.32299500703811646,1.5265522003173828,-0.3672827184200287
1702062845686007000,17.622007080078124,0.3539963960647583,1.739133358001709,-0.11026117950677872
1702062845703010800,17.6390107421875,0.42012256383895874,1.807397484779358,0.3251330256462097
1702062845720004400,17.65600439453125,0.48426342010498047,1.5578590631484985,0.711963415145874
1702062845736998100,17.672998046875,0.5345070958137512,1.254717230796814,0.8617781400680542
1702062845753992000,17.689991943359374,0.5403103232383728,1.136056661605835,0.750142514705658
1702062845770985700,17.70698583984375,0.4836525619029999,1.169501543045044,0.5250386595726013
1702062845787979500,17.7239794921875,0.41462478041648865,1.2867876291275024,0.33689218759536743
1702062845804973300,17.740973388671875,0.3799581825733185,1.3694071769714355,0.2499966025352478
1702062845821966800,17.757966796875,0.3517056703567505,1.2819007635116577,0.2496911734342575
1702062845838960600,17.774960693359375,0.3280346393585205,1.0813841819763184,0.25244006514549255
1702062845855954400,17.791954345703125,0.3214678466320038,1.0235047340393066,0.17638733983039856
1702062845872948000,17.808947998046875,0.31841349601745605,1.2165381908416748,0.03756821155548096
1702062845889941800,17.825941650390625,0.3620903789997101,1.4938709735870361,-0.040164388716220856
1702062845906925000,17.842925048828125,0.4714352488517761,1.6337591409683228,0.06704246252775192
1702062845923929300,17.859929443359373,0.5688682794570923,1.5639677047729492,0.3013092875480652
1702062845940923000,17.8769228515625,0.6548475623130798,1.3542882204055786,0.4925101101398468
1702062845957916700,17.893916748046873,0.7099781036376953,1.2024881839752197,0.5832235813140869
1702062845974910500,17.910910400390627,0.7319692969322205,1.175152063369751,0.5742133259773254
1702062845991904000,17.927904052734377,0.7301366925239563,1.2695306539535522,0.5236642360687256
1702062846008897800,17.944897705078127,0.7151705026626587,1.4202617406845093,0.47189339995384216
1702062846025891600,17.9618916015625,0.7137960195541382,1.5155566930770874,0.4369213581085205
1702062846042875000,17.978875,0.7461718916893005,1.5256359577178955,0.44257187843322754
1702062846059879200,17.995879150390625,0.7883216142654419,1.4164438247680664,0.48456886410713196
1702062846076872700,18.012872802734375,0.803440511226654,1.3298536539077759,0.5623014569282532
1702062846093866500,18.029866455078125,0.8248208165168762,1.3799445629119873,0.6244570016860962
1702062846110849800,18.046849853515624,0.8332201838493347,1.4749341011047363,0.6272059082984924
1702062846127853800,18.063853759765625,0.8339837789535522,1.5369369983673096,0.5490151643753052
1702062846144847600,18.08084765625,0.8196284174919128,1.5425875186920166,0.3828597962856293
1702062846161826800,18.097826904296873,0.8347473740577698,1.4272866249084473,0.15653422474861145
1702062846178837200,18.114837158203127,0.8225300312042236,1.3100005388259888,0.04077525436878204
1702062846195826700,18.13182666015625,0.779464066028595,1.3217597007751465,0.12446379661560059
1702062846212822500,18.148822509765626,0.7670940160751343,1.3842206001281738,0.3020728528499603
1702062846229816600,18.165816650390624,0.8133670687675476,1.3833043575286865,0.3623957931995392
1702062846246809900,18.182809814453126,0.8497135639190674,1.4013248682022095,0.29275718331336975
1702062846263801000,18.199801025390624,0.8332201838493347,1.4315626621246338,0.3061962127685547
1702062846280800000,18.216800048828127,0.7765624523162842,1.4382822513580322,0.44058656692504883
1702062846297791200,18.233791259765624,0.7341073155403137,1.377806544303894,0.5271766781806946
1702062846314785000,18.250784912109374,0.707840085029602,1.3048081398010254,0.5233588218688965
1702062846331778600,18.267778564453124,0.6713408827781677,1.244027018547058,0.4508185386657715
1702062846348772400,18.2847724609375,0.6180428862571716,1.1905763149261475,0.3445279896259308
1702062846365766100,18.30176611328125,0.55069500207901,1.196379542350769,0.24297164380550385
1702062846382759700,18.318759765625,0.4720461070537567,1.2082914113998413,0.19257527589797974
1702062846399751400,18.33575146484375,0.4138612151145935,1.2356276512145996,0.23273965716362
1702062846416747300,18.352747314453126,0.3880521357059479,1.2608258724212646,0.3533855378627777
1702062846433743600,18.36974365234375,0.3744603991508484,1.2738068103790283,0.48777589201927185
1702062846450734600,18.386734619140626,0.3504839241504669,1.2701416015625,0.5535966157913208
1702062846467718000,18.4037177734375,0.29138273000717163,1.269836187362671,0.5461135506629944
1702062846484722200,18.42072216796875,0.2243402600288391,1.3197743892669678,0.5112941861152649
1702062846501716000,18.437716064453124,0.19944749772548676,1.3935363292694092,0.4524984359741211
1702062846518709500,18.45470947265625,0.20433442294597626,1.4278974533081055,0.36972618103027344
1702062846535703300,18.471703369140624,0.19837848842144012,1.3825408220291138,0.2929098904132843
1702062846552686600,18.4886865234375,0.1843285858631134,1.326341152191162,0.2616030275821686
1702062846569691000,18.50569091796875,0.16890424489974976,1.2919800281524658,0.2402227520942688
1702062846586684400,18.522684326171873,0.16325373947620392,1.3130548000335693,0.20784689486026764
1702062846603678200,18.53967822265625,0.19898934662342072,1.3851369619369507,0.19822576642036438
1702062846620672000,18.556672119140625,0.251218318939209,1.3976596593856812,0.21639901399612427
1702062846637665800,18.573665771484375,0.2834414839744568,1.3706289529800415,0.27229318022727966
1702062846654659300,18.590659423828125,0.29107728600502014,1.3406964540481567,0.3349068760871887
1702062846671653000,18.607653076171875,0.28038713335990906,1.3223705291748047,0.3225368559360504
1702062846688647000,18.62464697265625,0.2513710558414459,1.261742115020752,0.13805554807186127
1702062846705640700,18.641640625,0.22418753802776337,1.1501065492630005,-0.1508837193250656
1702062846722634200,18.65863427734375,0.21013765037059784,1.0754282474517822,-0.3248275816440582
1702062846739628000,18.6756279296875,0.2015855312347412,1.1601858139038086,-0.20525072515010834
1702062846756621800,18.692621826171877,0.21395555138587952,1.3483322858810425,0.08231408894062042
1702062846773612800,18.70961279296875,0.26511552929878235,1.476613998413086,0.35705074667930603
1702062846790613000,18.726613037109374,0.337044894695282,1.39323091506958,0.4360050559043884
1702062846807599600,18.743599609375,0.3859141170978546,1.1823296546936035,0.37430769205093384
1702062846824599000,18.76059912109375,0.41951170563697815,0.973566472530365,0.24465152621269226
1702062846841590500,18.777590576171875,0.4190535545349121,0.8988882303237915,0.10934487730264664
1702062846858584000,18.794583984375,0.4095851480960846,0.9569203853607178,-0.0009162978967651725
1702062846875577900,18.811577880859375,0.40622538328170776,0.9897544384002686,-0.1160643994808197
1702062846892571600,18.828571533203124,0.38957929611206055,0.8756753206253052,-0.31322115659713745
1702062846909565400,18.8455654296875,0.33857205510139465,0.797789990901947,-0.5106833577156067
1702062846926559000,18.86255908203125,0.30253100395202637,0.8869763612747192,-0.5879577994346619
1702062846943539200,18.879539306640623,0.34804046154022217,1.123533844947815,-0.4726569950580597
1702062846960546600,18.896546630859376,0.49785518646240234,1.3645201921463013,-0.16539175808429718
1702062846977540000,18.9135400390625,0.6710354685783386,1.384678840637207,0.21120665967464447
1702062846994534000,18.930533935546876,0.7409795522689819,1.1643091440200806,0.5082398653030396
1702062847011527700,18.947527587890626,0.7325801253318787,1.0070114135742188,0.6623306274414062
1702062847028521700,18.964521728515624,0.7397578358650208,0.9911288619041443,0.6198754906654358
1702062847045515300,18.981515380859374,0.7480044960975647,1.0286970138549805,0.47998735308647156
1702062847062508800,18.9985087890625,0.7127270102500916,1.0409144163131714,0.351400226354599
1702062847079502600,19.015502685546874,0.646906316280365,1.024420976638794,0.2802344262599945
1702062847096496400,19.032496337890624,0.6073527932167053,1.0412198305130005,0.2528982162475586
1702062847113487400,19.0494873046875,0.5726861953735352,1.1131491661071777,0.2730567753314972
1702062847130486300,19.066486328125,0.5653557777404785,1.2139419317245483,0.3211624026298523
1702062847147477500,19.0834775390625,0.6038402915000916,1.2809844017028809,0.37690386176109314
1702062847164471300,19.10047119140625,0.6528622508049011,1.3139711618423462,0.44135013222694397
1702062847181468400,19.117468505859375,0.6991352438926697,1.3287845849990845,0.49067750573158264
1702062847198452500,19.134452392578126,0.7533495426177979,1.3379476070404053,0.5085453391075134
1702062847215455000,19.151455078125,0.8196284174919128,1.3660473823547363,0.49464812874794006
1702062847232446000,19.168446044921875,0.9080511927604675,1.3645201921463013,0.46379944682121277
1702062847249437000,19.18543701171875,0.9656252264976501,1.3278683423995972,0.4558582007884979
1702062847266421500,19.20242138671875,0.9437867999076843,1.3139711618423462,0.4583016633987427
1702062847283428900,19.219428955078126,0.8565858006477356,1.399950385093689,0.4440990388393402
1702062847300420900,19.2364208984375,0.7684684991836548,1.5656476020812988,0.4349360466003418
1702062847317414700,19.25341455078125,0.7539604306221008,1.64414381980896,0.47082439064979553
1702062847334398200,19.270398193359377,0.7686212062835693,1.5833626985549927,0.5476406812667847
1702062847351394600,19.28739453125,0.7535023093223572,1.4425582885742188,0.6331618428230286
1702062847368396000,19.30439599609375,0.7345654368400574,1.3321443796157837,0.6747006773948669
1702062847385389600,19.3213896484375,0.7144069075584412,1.294118046760559,0.5937610268592834
1702062847402383400,19.33838330078125,0.6858489513397217,1.2753338813781738,0.42562034726142883
1702062847419367400,19.355367431640627,0.6423248052597046,1.2605204582214355,0.25014930963516235
1702062847436370700,19.37237060546875,0.6108652353286743,1.2373075485229492,0.1342376321554184
1702062847453364700,19.38936474609375,0.6049093008041382,1.2003501653671265,0.11621711403131485
1702062847470358300,19.406358154296875,0.5949827432632446,1.1632401943206787,0.20005837082862854
1702062847487352000,19.42335205078125,0.5829181671142578,1.1612548828125,0.3208569586277008
1702062847504345600,19.440345703125,0.5664247870445251,1.1803443431854248,0.384845107793808
1702062847521339400,19.45733935546875,0.5268712639808655,1.177748203277588,0.36010506749153137
1702062847538333200,19.474333251953126,0.47540587186813354,1.2724323272705078,0.35124751925468445
1702062847555326700,19.49132666015625,0.45204028487205505,1.376279354095459,0.39354994893074036
1702062847572320800,19.50832080078125,0.4691445231437683,1.4172073602676392,0.48288896679878235
1702062847589310700,19.525310791015624,0.47418415546417236,1.3851369619369507,0.5966626405715942
1702062847606308000,19.54230810546875,0.4444044530391693,1.310916781425476,0.6664539575576782
1702062847623301000,19.559301025390624,0.4050036668777466,1.3025174140930176,0.6207917928695679
1702062847640296700,19.576296630859375,0.34926220774650574,1.3278683423995972,0.44547349214553833
1702062847657273300,19.5932734375,0.308792382478714,1.354135513305664,0.24358251690864563
1702062847674283000,19.610282958984374,0.3023782968521118,1.3545936346054077,0.13026700913906097
1702062847691276800,19.62727685546875,0.33658674359321594,1.3640620708465576,0.1498146951198578
1702062847708270800,19.644270751953126,0.40424007177352905,1.386358618736267,0.24816401302814484
1702062847725264400,19.661264404296876,0.446389764547348,1.4231632947921753,0.39614611864089966
1702062847742258000,19.6782578125,0.399200439453125,1.423926830291748,0.4964807331562042
1702062847759251500,19.69525146484375,0.3217732608318329,1.3950635194778442,0.42302417755126953
1702062847776243000,19.712242919921874,0.31062498688697815,1.3848315477371216,0.14828753471374512
1702062847793241600,19.72924169921875,0.3384193480014801,1.3836097717285156,-0.16081027686595917
1702062847810233900,19.74623388671875,0.3546072840690613,1.3814717531204224,-0.2828305959701538
1702062847827225600,19.7632255859375,0.3384193480014801,1.4213306903839111,-0.12721268832683563
1702062847844217600,19.780217529296873,0.3240640163421631,1.5042556524276733,0.19257527589797974
1702062847861216800,19.797216796875,0.33597588539123535,1.5180001258850098,0.4764748811721802
1702062847878208000,19.8142080078125,0.34987306594848633,1.4648548364639282,0.4951062798500061
1702062847895201300,19.831201171875,0.3839288055896759,1.4437800645828247,0.337503045797348
1702062847912195300,19.8481953125,0.44028112292289734,1.4019356966018677,0.15225815773010254
1702062847929188900,19.86518896484375,0.479834645986557,1.3697125911712646,0.05513058975338936
1702062847946183000,19.882182861328126,0.48090365529060364,1.3602441549301147,0.06872233748435974
1702062847963176400,19.899176513671875,0.4893030524253845,1.363603949546814,0.11026117950677872
1702062847980167400,19.91616748046875,0.494189977645874,1.3041973114013672,0.06704246252775192
1702062847997166600,19.93316650390625,0.46731191873550415,1.2342532873153687,-0.07223481684923172
1702062848014157600,19.950157470703125,0.4427245855331421,1.310916781425476,-0.20265454053878784
1702062848031151400,19.9671513671875,0.45265114307403564,1.4637858867645264,-0.22372940182685852
1702062848048145200,19.984145263671873,0.5542075037956238,1.598328948020935,-0.06276640295982361
1702062848065139000,20.001138916015623,0.6988298296928406,1.6056592464447021,0.24724771082401276
1702062848082132500,20.018132568359373,0.8011497855186462,1.4584407806396484,0.5535966157913208
1702062848099126300,20.035126220703123,0.8193230032920837,1.3096951246261597,0.6777549982070923
1702062848116120000,20.0521201171875,0.7999280095100403,1.2829697132110596,0.6018549799919128
1702062848133113900,20.06911376953125,0.7742717266082764,1.3449726104736328,0.451582133769989
1702062848150107400,20.086107421875,0.7573201656341553,1.455997347831726,0.34315356612205505
1702062848167101200,20.10310107421875,0.7680103182792664,1.4880677461624146,0.29306259751319885
1702062848184095000,20.120094970703125,0.7808384895324707,1.396132469177246,0.3107776939868927
1702062848201087700,20.137087646484375,0.7675521969795227,1.3388638496398926,0.4109596014022827
1702062848218071000,20.154071044921874,0.7449501752853394,1.3946053981781006,0.5149593949317932
1702062848235076000,20.171076171875,0.7261660695075989,1.5276212692260742,0.5371032953262329
1702062848252070000,20.18806982421875,0.7237225770950317,1.6045902967453003,0.4928155243396759
1702062848269063400,20.2050634765625,0.7254024744033813,1.6064229011535645,0.4456261992454529
1702062848286057200,20.22205712890625,0.6937901973724365,1.5796974897384644,0.42210787534713745
1702062848303051000,20.239051025390626,0.6960809230804443,1.609171748161316,0.44196099042892456
1702062848320044500,20.25604443359375,0.7619016766548157,1.689195156097412,0.5083925724029541
1702062848337038300,20.273038330078126,0.8055785298347473,1.7165313959121704,0.5763513445854187
1702062848354032000,20.2900322265625,0.7699956297874451,1.6557502746582031,0.5337435007095337
1702062848371026000,20.30702587890625,0.7150177955627441,1.6262760162353516,0.33017265796661377
1702062848388019700,20.324019775390624,0.7055493593215942,1.624901533126831,0.07895433157682419
1702062848405013500,20.341013427734374,0.6873761415481567,1.6070337295532227,-0.04886921867728233
1702062848422007000,20.358007080078124,0.6522513628005981,1.6316211223602295,0.00931569468230009
1702062848438998800,20.374998779296874,0.6261368989944458,1.7214182615280151,0.19868391752243042
1702062848455996400,20.391996337890625,0.6520986557006836,1.8153388500213623,0.4444044530391693
1702062848473002000,20.409001953125,0.7061602473258972,1.7400496006011963,0.6102544069290161
1702062848489982000,20.42598193359375,0.7018841505050659,1.5699236392974854,0.6684392690658569
1702062848506975700,20.442975830078126,0.6623306274414062,1.4353805780410767,0.6339253783226013
1702062848523969500,20.459969482421876,0.6670648455619812,1.3669637441635132,0.5329799056053162
1702062848540963000,20.476963134765626,0.6849326491355896,1.2935070991516113,0.3827070891857147
1702062848557956900,20.493956787109376,0.6731734871864319,1.2499829530715942,0.23777928948402405
1702062848574950700,20.51095068359375,0.6407976150512695,1.262963891029358,0.12828169763088226
1702062848591944400,20.5279443359375,0.5934556126594543,1.2498302459716797,0.053297992795705795
1702062848608936700,20.544936767578125,0.5190827250480652,1.2165381908416748,0.00931569468230009
1702062848625931800,20.561931884765624,0.4411974251270294,1.2137892246246338,-0.01710422709584236
1702062848642925600,20.578925537109374,0.3901901841163635,1.2611312866210938,-0.011759156361222267
1702062848659917000,20.5959169921875,0.413097620010376,1.3681854009628296,0.06185010448098183
1702062848676915500,20.61291552734375,0.5094616413116455,1.493565559387207,0.244804248213768
1702062848693906700,20.62990673828125,0.6056728959083557,1.4885258674621582,0.4079052805900574
1702062848710900500,20.646900390625,0.6633996367454529,1.2680035829544067,0.4141666293144226
1702062848727893000,20.66389306640625,0.6666067242622375,1.0545061826705933,0.32559117674827576
1702062848744888800,20.680888916015626,0.644768238067627,1.0317513942718506,0.20861047506332397
1702062848761881600,20.697881591796875,0.6296493411064148,1.1424707174301147,0.13500121235847473
1702062848778875400,20.71487548828125,0.6207917928695679,1.2371548414230347,0.1748601794242859
1702062848795869000,20.731868896484375,0.6217080950737,1.2637274265289307,0.3202461004257202
1702062848812862700,20.74886279296875,0.6291912198066711,1.2125675678253174,0.44547349214553833
1702062848829858000,20.765858154296875,0.6238461136817932,1.102611780166626,0.4570799171924591
1702062848846850000,20.78285009765625,0.5511531829833984,1.0711522102355957,0.3773620128631592
1702062848863844000,20.799843994140623,0.4596760869026184,1.1444560289382935,0.1944078654050827
1702062848880837600,20.816837646484377,0.4535674452781677,1.2512047290802002,-0.08292495459318161
1702062848897831400,20.83383154296875,0.5022839307785034,1.2844969034194946,-0.2767219543457031
1702062848914825200,20.8508251953125,0.5135849714279175,1.231351613998413,-0.2252565622329712
1702062848931818800,20.86781884765625,0.4944954216480255,1.152855396270752,0.0607810914516449
1702062848948812500,20.8848125,0.498924195766449,1.130711555480957,0.413097620010376
1702062848965806600,20.901806640625,0.5189300179481506,1.155604362487793,0.6183483600616455
1702062848982800100,20.918800048828125,0.5218316316604614,1.1705704927444458,0.5809328556060791
1702062848999794000,20.9357939453125,0.5050328373908997,1.1527026891708374,0.3897320330142975
1702062849016787700,20.95278759765625,0.5094616413116455,1.124755620956421,0.18127426505088806
1702062849033781200,20.96978125,0.5375614166259766,1.0910053253173828,0.06383541971445084
1702062849050762000,20.986761962890625,0.5490151643753052,1.0810787677764893,0.07849618047475815
1702062849067771000,21.00377099609375,0.5455026626586914,1.08718740940094,0.14935655891895294
1702062849084763100,21.02076318359375,0.5041165351867676,1.0093021392822266,0.15012013912200928
1702062849101756400,21.03775634765625,0.4671591818332672,0.9729556441307068,0.01160643994808197
1702062849118750000,21.05475,0.48166725039482117,1.1162035465240479,-0.16432274878025055
1702062849135743700,21.07174365234375,0.5410739183425903,1.300837516784668,-0.18356500566005707
1702062849152737300,21.0887373046875,0.6038402915000916,1.4149166345596313,0.048105638474226
1702062849169731000,21.10573095703125,0.6533203721046448,1.4176654815673828,0.41111230850219727
1702062849186724900,21.122724853515624,0.707534670829773,1.3231340646743774,0.6530149579048157
1702062849203718700,21.13971875,0.7615962624549866,1.23394775390625,0.6687447428703308
1702062849220701700,21.15670166015625,0.7660250067710876,1.1719449758529663,0.5447390675544739
1702062849237706200,21.173706298828126,0.7319692969322205,1.1902709007263184,0.4219551682472229
1702062849254699800,21.19069970703125,0.7058547735214233,1.316567301750183,0.3781255781650543
1702062849271693600,21.207693603515626,0.7095199823379517,1.4231632947921753,0.4210388660430908
1702062849288687400,21.224687255859376,0.7651087045669556,1.4366023540496826,0.5389358401298523
1702062849305678800,21.241678955078125,0.8181012868881226,1.3599387407302856,0.6585127115249634
1702062849322677000,21.258677001953124,0.8452847599983215,1.327562928199768,0.711963415145874
1702062849339664400,21.275664306640625,0.8613200187683105,1.3933836221694946,0.6531676650047302
1702062849356662000,21.292662109375,0.9010262489318848,1.5114333629608154,0.5823072791099548
1702062849373655800,21.30965576171875,0.9604328870773315,1.6146695613861084,0.5523748993873596
1702062849390649600,21.326649658203124,1.0239628553390503,1.6325373649597168,0.5407684445381165
1702062849407643600,21.3436435546875,1.105207920074463,1.5642731189727783,0.5056437253952026
1702062849424637200,21.36063720703125,1.1516337394714355,1.3900238275527954,0.484416127204895
1702062849441631000,21.377630859375,1.1655309200286865,1.4022411108016968,0.5438227653503418
1702062849458624500,21.39462451171875,1.1102476119995117,1.5628987550735474,0.6496551632881165
1702062849475618300,21.411618408203125,1.1058188676834106,1.7705929279327393,0.698066234588623
1702062849492612000,21.428612060546875,1.1733194589614868,1.8362609148025513,0.6540839672088623
1702062849509606000,21.44560595703125,1.2302825450897217,1.7544050216674805,0.5827654600143433
1702062849526599400,21.462599365234375,1.228297233581543,1.5977180004119873,0.593302845954895
1702062849543593200,21.47959326171875,1.1612548828125,1.432326316833496,0.6684392690658569
1702062849560586800,21.496586669921875,1.073290228843689,1.3385584354400635,0.6959282159805298
1702062849577580800,21.513580810546873,1.0013608932495117,1.3307698965072632,0.633009135723114
1702062849594574300,21.53057421875,0.9225592613220215,1.3716979026794434,0.5189300179481506
