time,seconds_elapsed,z,y,x
1702072395452342300,0.11034228515625,-0.7731337547302246,-0.8986186981201172,-0.880664587020874
1702072395469331700,0.127331787109375,-1.4613385200500488,-1.3027613162994385,-1.2530581951141357
1702072395486317600,0.144317626953125,-2.3615736961364746,-1.789283275604248,-1.386587142944336
1702072395503311000,0.16131103515625,-3.0387938022613525,-2.4193997383117676,-1.6132822036743164
1702072395520294400,0.17829443359375,-2.733550548553467,-3.2104127407073975,-1.6901872158050537
1702072395537288700,0.195288818359375,-1.3485565185546875,-4.03458309173584,-2.2518279552459717
1702072395554279400,0.212279541015625,-0.32243919372558594,-5.394107341766357,-2.8451197147369385
1702072395571270400,0.2292705078125,-1.052236795425415,-6.942874431610107,-2.838270902633667
1702072395588262100,0.24626220703125,-2.6355717182159424,-7.327498912811279,-2.8641862869262695
1702072395605248000,0.263248046875,-3.9903573989868164,-7.8587517738342285,-2.920109748840332
1702072395622240500,0.280240478515625,-4.146644592285156,-8.39543628692627,-3.1126699447631836
1702072395639232000,0.29723193359375,-3.0867550373077393,-8.393895149230957,-2.963813304901123
1702072395656218000,0.314218017578125,-1.9511184692382812,-8.47321891784668,-1.9550786018371582
1702072395673211400,0.33121142578125,-0.40919116139411926,-8.33967113494873,-0.21576595306396484
1702072395690200600,0.34820068359375,1.220499038696289,-7.817800521850586,1.3802051544189453
1702072395707191800,0.36519189453125,2.274209976196289,-7.131810188293457,2.1968088150024414
1702072395724179000,0.382178955078125,2.885784387588501,-6.143833160400391,2.7526960372924805
1702072395741170700,0.399170654296875,4.165589332580566,-5.335504531860352,4.690744400024414
1702072395758162400,0.416162353515625,4.958552360534668,-4.717698574066162,5.776249885559082
1702072395775140000,0.43314013671875,4.629034996032715,-3.7365849018096924,6.102563858032227
1702072395792140800,0.450140869140625,4.164679527282715,-2.8490219116210938,6.827757835388184
1702072395809132300,0.46713232421875,3.9288277626037598,-1.5677666664123535,8.17863941192627
1702072395826125800,0.484125732421875,4.033094882965088,0.08879756927490234,9.935468673706055
1702072395843111700,0.501111572265625,4.0379252433776855,1.9881007671356201,11.2384614944458
1702072395860101000,0.51810107421875,3.201592445373535,3.570535182952881,12.137683868408203
1702072395877092900,0.5350927734375,2.2142691612243652,4.97398042678833,12.476107597351074
1702072395894078700,0.55207861328125,1.6724436283111572,6.3883514404296875,11.794474601745605
1702072395911060700,0.569060791015625,1.4420260190963745,7.717127799987793,11.194068908691406
1702072395928063000,0.58606298828125,1.091146469116211,8.715693473815918,10.728815078735352
1702072395945048600,0.603048583984375,0.2935766577720642,9.482669830322266,10.489919662475586
1702072395962023000,0.62002294921875,-0.6680157780647278,10.384590148925781,9.070981979370117
1702072395979030500,0.637030517578125,-1.1209653615951538,11.14755916595459,7.40023946762085
1702072395996021500,0.654021484375,-1.4664056301116943,11.771631240844727,6.143274784088135
1702072396013001700,0.671001708984375,-1.9895468950271606,12.161134719848633,6.734025955200195
1702072396030001400,0.68800146484375,-2.633077383041382,12.191106796264648,7.3591461181640625
1702072396046990600,0.704990478515625,-3.4269328117370605,12.235891342163086,7.318870544433594
1702072396063981300,0.721981201171875,-3.2370409965515137,11.922927856445312,7.221287727355957
1702072396080971300,0.73897119140625,-1.8805909156799316,11.076007843017578,8.64059066772461
1702072396097971000,0.755970947265625,0.012965917587280273,10.224376678466797,10.392566680908203
1702072396114949400,0.772949462890625,1.5752692222595215,10.255960464477539,12.276159286499023
1702072396131931000,0.789930908203125,2.3348779678344727,9.725242614746094,14.302942276000977
1702072396148933000,0.80693310546875,2.1331567764282227,7.453800201416016,15.775910377502441
1702072396165922600,0.823922607421875,2.2849960327148438,4.154245376586914,15.295949935913086
1702072396182913300,0.840913330078125,4.602452278137207,1.2765989303588867,16.113431930541992
1702072396199902000,0.85790185546875,6.822243690490723,-1.5594422817230225,19.63168716430664
1702072396216893400,0.8748935546875,7.240859031677246,-4.083870887756348,23.406387329101562
1702072396233879600,0.891879638671875,5.7727766036987305,-6.8153533935546875,24.224302291870117
1702072396250872000,0.9088720703125,3.6843888759613037,-9.446823120117188,20.353618621826172
1702072396267863600,0.925863525390625,3.9051523208618164,-11.504775047302246,14.71009635925293
1702072396284850000,0.942849853515625,6.151948928833008,-12.7882080078125,8.331544876098633
1702072396301842200,0.95984228515625,9.198354721069336,-13.637239456176758,2.671431541442871
1702072396318833700,0.976833740234375,11.049493789672852,-14.675188064575195,-0.9566917419433594
1702072396335819800,0.99381982421875,12.904433250427246,-16.36001205444336,-3.537386894226074
1702072396352813000,1.01081298828125,12.49795150756836,-18.397733688354492,-5.657544136047363
1702072396369804500,1.027804443359375,11.5853910446167,-20.377521514892578,-7.989050388336182
1702072396386792000,1.0447919921875,11.481992721557617,-21.53302764892578,-11.218404769897461
1702072396403777300,1.06177734375,11.980818748474121,-21.80816650390625,-15.136295318603516
1702072396420774700,1.078774658203125,12.671408653259277,-21.40911865234375,-18.782550811767578
1702072396437764000,1.09576416015625,11.667991638183594,-21.427762985229492,-17.266986846923828
1702072396454750200,1.112750244140625,10.341355323791504,-21.31825065612793,-13.071198463439941
1702072396471742500,1.129742431640625,8.0515775680542,-20.474323272705078,-7.619063854217529
1702072396488734200,1.146734130859375,5.304623603820801,-18.625534057617188,-1.387404441833496
1702072396505720000,1.163719970703125,0.6877832412719727,-17.95589828491211,6.3471574783325195
1702072396522715600,1.180715576171875,-4.04379415512085,-16.43035888671875,11.53411865234375
1702072396539703000,1.197703125,-6.016204833984375,-13.314887046813965,15.08383846282959
1702072396556706000,1.2147060546875,-5.336122512817383,-12.899984359741211,25.268394470214844
1702072396573684700,1.231684814453125,-3.032106637954712,-9.136241912841797,33.76603317260742
1702072396590672400,1.24867236328125,3.434515953063965,0.8193216323852539,34.59068298339844
1702072396607664600,1.26566455078125,7.399251937866211,10.182016372680664,35.3406982421875
1702072396624654600,1.282654541015625,6.887087821960449,11.955795288085938,35.08111572265625
1702072396641640700,1.299640625,5.873478889465332,13.336393356323242,24.048419952392578
1702072396658631700,1.316631591796875,5.720889091491699,14.757217407226562,10.520089149475098
1702072396675621000,1.33362109375,4.483410358428955,17.70119857788086,0.8950471878051758
1702072396692616700,1.35061669921875,2.0027451515197754,18.90753936767578,-3.4249930381774902
1702072396709603800,1.367603759765625,1.4759660959243774,20.428613662719727,-4.200774669647217
1702072396726591200,1.38459130859375,1.587546944618225,22.309110641479492,-3.2637534141540527
1702072396743583700,1.401583740234375,1.226278305053711,23.383392333984375,-3.5777621269226074
1702072396760573200,1.4185732421875,0.2867610454559326,22.970165252685547,-4.807897567749023
1702072396777565000,1.43556494140625,-0.1344456672668457,21.249065399169922,-5.084531784057617
1702072396794550800,1.45255078125,-0.7189600467681885,18.46552848815918,-3.735555648803711
1702072396811550000,1.469550048828125,0.17514050006866455,15.357229232788086,-0.3379631042480469
1702072396828537900,1.486537841796875,1.417494773864746,13.323123931884766,1.775712013244629
1702072396845518000,1.50351806640625,2.3464581966400146,12.22024917602539,4.328088760375977
1702072396862503700,1.520503662109375,2.2152798175811768,11.14608383178711,11.10590934753418
1702072396879501800,1.537501708984375,2.278585910797119,7.415450096130371,20.22239875793457
1702072396896493300,1.554493408203125,4.601663589477539,4.7346367835998535,24.728879928588867
1702072396913474000,1.57147412109375,6.275416851043701,2.8886053562164307,29.270763397216797
1702072396930473500,1.588473388671875,7.464292049407959,-2.564363956451416,34.58711624145508
1702072396947465500,1.605465576171875,9.672167778015137,-7.768995761871338,34.66648864746094
1702072396964451300,1.622451416015625,11.583491325378418,-11.805217742919922,30.319467544555664
1702072396981443600,1.639443603515625,8.927786827087402,-14.908504486083984,24.329675674438477
1702072396998432500,1.6564326171875,6.296047210693359,-16.323820114135742,17.620059967041016
1702072397015424300,1.67342431640625,5.93604850769043,-17.601764678955078,10.577892303466797
1702072397032414000,1.6904140625,8.548030853271484,-20.57879638671875,4.033885955810547
1702072397049403000,1.70740283203125,9.858471870422363,-23.654605865478516,-4.306741714477539
1702072397066393000,1.72439306640625,12.355822563171387,-25.3636417388916,-12.590682983398438
1702072397083384600,1.741384521484375,14.219839096069336,-25.279098510742188,-19.688751220703125
1702072397100375000,1.758375,12.920504570007324,-24.811800003051758,-21.841909408569336
1702072397117366300,1.7753662109375,9.394875526428223,-23.664051055908203,-19.47671127319336
1702072397134351000,1.79235107421875,7.1540913581848145,-20.538864135742188,-17.149065017700195
1702072397151344000,1.80934423828125,7.432906627655029,-18.64383316040039,-11.781441688537598
1702072397168333600,1.82633349609375,6.503021240234375,-17.392728805541992,-5.0576372146606445
1702072397185316000,1.843316162109375,3.6998708248138428,-15.328222274780273,-0.8559784889221191
1702072397202315000,1.86031494140625,0.2838761806488037,-13.218910217285156,2.2531137466430664
1702072397219304700,1.8773046875,-5.655284404754639,-11.790977478027344,6.956038475036621
1702072397236291600,1.89429150390625,-13.04662799835205,-12.635947227478027,14.933536529541016
1702072397253285000,1.91128515625,-18.50218391418457,-10.941871643066406,22.93260955810547
1702072397270274300,1.9282744140625,-13.218547821044922,-9.930322647094727,30.91921043395996
1702072397287266000,1.94526611328125,1.3187546730041504,-3.8726861476898193,36.54990768432617
1702072397304248600,1.96224853515625,14.370128631591797,4.259881973266602,35.68852996826172
1702072397321244400,1.979244384765625,17.3633975982666,7.9857048988342285,27.139728546142578
1702072397338234600,1.996234619140625,15.499526023864746,10.846787452697754,15.45387077331543
1702072397355222300,2.01322216796875,7.379673004150391,12.188624382019043,6.630322456359863
1702072397372214500,2.030214599609375,1.8360135555267334,12.40072250366211,2.0591773986816406
1702072397389191000,2.04719091796875,1.230069637298584,13.016668319702148,-2.0893492698669434
1702072397406192000,2.064192138671875,3.8017208576202393,15.2413969039917,-7.210362911224365
1702072397423185700,2.081185546875,7.526554107666016,18.506053924560547,-11.156485557556152
1702072397440174800,2.0981748046875,8.018948554992676,20.99881362915039,-11.581008911132812
1702072397457166600,2.11516650390625,4.899045467376709,20.697370529174805,-8.736653327941895
1702072397474152400,2.13215234375,2.7855923175811768,18.789798736572266,-6.974054336547852
1702072397491135000,2.149135009765625,3.7513556480407715,16.06602668762207,-6.09276008605957
1702072397508135000,2.166135009765625,5.360940933227539,12.96860122680664,-3.829409122467041
1702072397525124400,2.183124267578125,5.849547386169434,10.221858024597168,-0.45814990997314453
1702072397542104800,2.200104736328125,4.424603462219238,9.615379333496094,3.770639419555664
1702072397559106800,2.21710693359375,2.6403260231018066,10.7373685836792,11.33073902130127
1702072397576092700,2.2340927734375,2.2920355796813965,11.100253105163574,23.88916778564453
1702072397593086000,2.2510859375,3.808465003967285,11.890613555908203,33.788291931152344
1702072397610075100,2.2680751953125,3.688638925552368,8.11037826538086,37.00547409057617
1702072397627067000,2.28506689453125,3.9057822227478027,0.4940814971923828,35.84709167480469
1702072397644038700,2.30203857421875,6.871265411376953,-5.740689277648926,30.62407112121582
1702072397661035000,2.319034912109375,7.363101005554199,-10.698912620544434,23.833208084106445
1702072397678035500,2.336035400390625,4.9819817543029785,-15.191014289855957,17.29269027709961
1702072397695024600,2.353024658203125,4.911592960357666,-19.950023651123047,10.73145580291748
1702072397712015400,2.370015380859375,6.844399452209473,-24.157329559326172,4.949073791503906
1702072397729006800,2.3870068359375,8.521138191223145,-28.419389724731445,-0.33956432342529297
1702072397745984800,2.40398486328125,9.951475143432617,-30.19389533996582,-7.1785125732421875
1702072397762987000,2.420987060546875,11.545812606811523,-29.68040657043457,-13.468317031860352
1702072397779975700,2.4379755859375,12.028219223022461,-29.262649536132812,-15.163469314575195
1702072397796970800,2.454970703125,11.347363471984863,-28.138687133789062,-11.888113975524902
1702072397813946000,2.471946044921875,9.956785202026367,-26.15427589416504,-6.472648620605469
1702072397830939600,2.488939697265625,9.453563690185547,-23.492218017578125,-1.4712748527526855
1702072397847937800,2.505937744140625,8.928483009338379,-20.08199691772461,1.4048185348510742
1702072397864927000,2.522927001953125,6.914048671722412,-17.038658142089844,2.900207042694092
1702072397881918700,2.539918701171875,2.362576723098755,-14.926007270812988,7.81881856918335
1702072397898905000,2.556905029296875,-5.202643394470215,-12.15078353881836,15.087560653686523
1702072397915893500,2.5738935546875,-10.509443283081055,-10.861255645751953,21.90896224975586
1702072397932882400,2.59088232421875,-8.426383972167969,-9.53918743133545,26.443065643310547
1702072397949880600,2.607880615234375,-4.236814498901367,-1.0572686195373535,27.79589080810547
1702072397966857200,2.624857177734375,-0.7829828262329102,6.890204906463623,37.06557846069336
1702072397983854600,2.6418544921875,2.32073712348938,13.101829528808594,43.679134368896484
1702072398000846300,2.658846435546875,6.96574068069458,17.802074432373047,36.57725524902344
1702072398017837800,2.675837890625,10.941450119018555,18.949695587158203,22.251522064208984
1702072398034824000,2.692823974609375,4.9845685958862305,18.220548629760742,8.993119239807129
1702072398051816400,2.70981640625,-1.7907938957214355,17.320507049560547,-0.2443714141845703
1702072398068808200,2.72680810546875,-4.652683258056641,16.7922420501709,-5.872663974761963
1702072398085794000,2.7437939453125,-3.2851052284240723,17.146459579467773,-9.12443733215332
1702072398102784800,2.76078466796875,-0.872169017791748,18.12230110168457,-11.874794960021973
1702072398119778800,2.77777880859375,0.584287166595459,18.169450759887695,-13.421635627746582
1702072398136768000,2.79476806640625,-0.28948211669921875,17.054269790649414,-13.302462577819824
1702072398153754000,2.811754150390625,-1.8987739086151123,15.312503814697266,-11.250926971435547
1702072398170747000,2.828746826171875,-1.4002220630645752,13.868903160095215,-7.618565559387207
1702072398187738400,2.84573828125,1.00459623336792,12.408140182495117,-4.471950531005859
1702072398204721700,2.8627216796875,3.272130012512207,11.222356796264648,-0.5362863540649414
1702072398221718800,2.87971875,3.380025625228882,10.386134147644043,4.319499969482422
1702072398238701800,2.896701904296875,0.6425049304962158,12.032075881958008,11.27874755859375
1702072398255689200,2.913689208984375,-0.993140697479248,11.683418273925781,22.364871978759766
1702072398272689000,2.93068896484375,-0.14346742630004883,14.681076049804688,31.785799026489258
1702072398289682700,2.9476826171875,1.2465379238128662,10.048717498779297,38.77201843261719
1702072398306666200,2.964666259765625,3.111762762069702,3.3682126998901367,37.858673095703125
1702072398323654000,2.98165380859375,7.489050388336182,-2.6751766204833984,32.43466567993164
1702072398340647000,2.99864697265625,8.655206680297852,-7.505560874938965,25.28205680847168
1702072398357635800,3.0156357421875,5.816330909729004,-11.986109733581543,18.9013671875
1702072398374623500,3.03262353515625,5.4844512939453125,-16.40335464477539,12.950438499450684
1702072398391621400,3.049621337890625,7.317500114440918,-20.705411911010742,7.590023994445801
1702072398408609300,3.066609375,8.21982192993164,-25.317489624023438,3.1732685565948486
1702072398425594600,3.0835947265625,8.663370132446289,-29.05437660217285,-1.6873270273208618
1702072398442588000,3.100587890625,10.210855484008789,-30.64678192138672,-8.141122817993164
1702072398459577600,3.11757763671875,12.068859100341797,-30.89019012451172,-12.540865898132324
1702072398476565500,3.1345654296875,12.526639938354492,-29.959400177001953,-13.207682609558105
1702072398493558300,3.151558349609375,10.62698745727539,-27.45923614501953,-10.151734352111816
1702072398510548500,3.168548583984375,8.413416862487793,-24.5374813079834,-2.655427932739258
1702072398527538400,3.185538330078125,6.3569016456604,-21.572521209716797,4.554260730743408
1702072398544526300,3.2025263671875,3.8534224033355713,-17.538715362548828,6.747796058654785
1702072398561520400,3.219520263671875,0.6227421760559082,-14.43423080444336,8.68287467956543
1702072398578508300,3.23650830078125,-4.443087577819824,-12.057948112487793,12.645429611206055
1702072398595496200,3.25349609375,-8.72304630279541,-10.957703590393066,16.44017791748047
1702072398612478200,3.270478271484375,-9.170372009277344,-7.5805463790893555,19.843236923217773
1702072398629470700,3.287470703125,-7.528625965118408,0.5541964769363403,24.271923065185547
1702072398646471200,3.30447119140625,0.17878079414367676,5.135132312774658,36.90521240234375
1702072398663445500,3.321445556640625,5.608193874359131,5.411072254180908,48.49098587036133
1702072398680451300,3.338451416015625,9.961907386779785,10.68203067779541,39.25394058227539
1702072398697438700,3.355438720703125,17.052532196044922,16.889198303222656,17.055709838867188
1702072398714429000,3.372428955078125,13.248188972473145,15.347241401672363,5.075081825256348
1702072398731419000,3.3894189453125,4.316661834716797,14.564549446105957,0.11626338958740234
1702072398748408600,3.40640869140625,-2.104421377182007,16.559602737426758,-4.344644546508789
1702072398765398800,3.423398681640625,-3.9625954627990723,18.220895767211914,-5.9717278480529785
1702072398782388700,3.440388671875,-2.4416306018829346,20.854530334472656,-7.887392044067383
1702072398799379000,3.45737890625,-1.384937047958374,21.758136749267578,-9.75389575958252
1702072398816369200,3.474369140625,-3.0980494022369385,20.39263343811035,-10.608838081359863
1702072398833359000,3.491359130859375,-4.190535068511963,18.53445053100586,-10.544084548950195
1702072398850341000,3.508341064453125,-2.3736817836761475,16.510028839111328,-7.237968444824219
1702072398867339300,3.52533935546875,0.3613700866699219,13.882798194885254,-0.3780221939086914
1702072398884329200,3.5423291015625,3.183972120285034,10.398831367492676,3.9458446502685547
1702072398901319400,3.5593193359375,5.631290435791016,9.637353897094727,5.35853385925293
1702072398918309000,3.57630908203125,9.048928260803223,7.740970611572266,13.11008071899414
1702072398935299000,3.593299072265625,9.222633361816406,9.078292846679688,23.934795379638672
1702072398952289300,3.610289306640625,3.587773323059082,5.130563735961914,28.988990783691406
1702072398969280800,3.62728076171875,4.465250015258789,5.606998443603516,29.929367065429688
1702072398986252500,3.64425244140625,7.385280609130859,-0.4345979690551758,31.75204086303711
1702072399003259400,3.66125927734375,12.605086326599121,-4.327447891235352,29.10591697692871
1702072399020249300,3.678249267578125,11.742563247680664,-8.612265586853027,24.208467483520508
1702072399037239300,3.6952392578125,8.219242095947266,-11.663474082946777,17.99070167541504
1702072399054229500,3.7122294921875,7.000320911407471,-15.589727401733398,12.644674301147461
1702072399071209200,3.729209228515625,8.110876083374023,-19.89446449279785,6.418003559112549
1702072399088197400,3.746197265625,9.060681343078613,-23.27021598815918,-0.5793275833129883
1702072399105199900,3.763199951171875,10.483343124389648,-25.55252456665039,-6.447035789489746
1702072399122189800,3.78018994140625,12.345268249511719,-26.072473526000977,-10.895122528076172
1702072399139179800,3.7971796875,12.200939178466797,-27.49197006225586,-11.506471633911133
1702072399156170000,3.814169921875,10.880765914916992,-27.86383628845215,-11.921775817871094
1702072399173159700,3.83115966796875,9.837739944458008,-25.220067977905273,-12.678013801574707
1702072399190149600,3.848149658203125,9.09300708770752,-22.405662536621094,-10.034379959106445
1702072399207129300,3.86512939453125,8.15180778503418,-20.25796127319336,-3.0685770511627197
1702072399224128300,3.882128173828125,6.0022969245910645,-17.685787200927734,5.6847004890441895
1702072399241121500,3.89912158203125,1.1631360054016113,-14.40188980102539,10.100034713745117
1702072399258110200,3.916110107421875,-4.332195281982422,-11.803350448608398,11.036628723144531
1702072399275100200,3.93310009765625,-10.245311737060547,-9.858588218688965,14.22097110748291
1702072399292089900,3.95008984375,-12.560922622680664,-2.29182505607605,19.83622932434082
1702072399309080000,3.967080078125,-12.761260986328125,3.554304599761963,31.945423126220703
1702072399326070300,3.9840703125,-5.014837265014648,7.152125835418701,43.839378356933594
1702072399343060200,4.001060302734375,5.309511661529541,10.029738426208496,39.85450744628906
1702072399360050200,4.01805029296875,17.39609146118164,13.884113311767578,21.58607292175293
1702072399377040400,4.035040283203125,20.341114044189453,13.9641752243042,8.592955589294434
1702072399394030300,4.0520302734375,12.413555145263672,12.365030288696289,1.3269309997558594
1702072399411020300,4.069020263671875,4.056225776672363,12.855430603027344,-4.926718711853027
1702072399427999700,4.085999755859375,-0.1685187816619873,13.918792724609375,-9.769454002380371
1702072399445000000,4.103,-0.7990939617156982,15.698800086975098,-12.278847694396973
1702072399461991000,4.119990966796875,0.8922593593597412,16.244403839111328,-11.939518928527832
1702072399478980600,4.136980712890625,1.6888777017593384,15.01944637298584,-11.098801612854004
1702072399495970600,4.153970458984375,1.1892107725143433,13.610302925109863,-12.182557106018066
1702072399512970200,4.17097021484375,-0.594595193862915,12.908212661743164,-12.569313049316406
1702072399529940000,4.18793994140625,-0.9567070007324219,12.338266372680664,-9.819151878356934
1702072399546938000,4.204938232421875,1.4380276203155518,11.617094039916992,-4.900402545928955
1702072399563933400,4.221933349609375,3.3090782165527344,11.40625286102295,-0.13085269927978516
1702072399580920800,4.2389208984375,4.820631980895996,9.705195426940918,5.965055465698242
1702072399597910800,4.255910888671875,7.853042125701904,11.47031307220459,12.165481567382812
1702072399614900700,4.272900634765625,4.492636203765869,10.987411499023438,19.82590103149414
1702072399631890700,4.289890625,0.9940385818481445,14.101783752441406,25.829524993896484
1702072399648868900,4.306868896484375,0.8619065284729004,11.25206184387207,32.722476959228516
1702072399665870000,4.3238701171875,4.908252716064453,5.915884494781494,35.336700439453125
1702072399682863000,4.340863037109375,10.209310531616211,0.9586200714111328,30.934310913085938
1702072399699853800,4.357853759765625,8.955896377563477,-5.260049819946289,24.902896881103516
1702072399716839400,4.37483935546875,6.166789531707764,-11.50023365020752,18.13870620727539
1702072399733832700,4.391832763671875,6.473661422729492,-18.03295135498047,11.624679565429688
1702072399750820900,4.40882080078125,7.675052165985107,-22.98509407043457,4.817809104919434
1702072399767811000,4.42581103515625,8.84937858581543,-26.323598861694336,-1.4277067184448242
1702072399784801300,4.44280126953125,9.408129692077637,-27.38484001159668,-6.120255470275879
1702072399801792500,4.45979248046875,10.758138656616211,-28.755468368530273,-7.621816635131836
1702072399818781200,4.47678125,11.739757537841797,-29.81974220275879,-8.076059341430664
1702072399835771100,4.493771240234375,12.528728485107422,-28.617103576660156,-8.58940601348877
1702072399852761300,4.51076123046875,11.999590873718262,-24.907554626464844,-7.988734245300293
1702072399869751000,4.5277509765625,10.298910140991211,-20.807079315185547,-1.449228048324585
1702072399886740500,4.544740478515625,7.857198715209961,-17.718921661376953,8.768284797668457
1702072399903732000,4.56173193359375,5.688664436340332,-14.58954906463623,15.45118522644043
1702072399920721400,4.578721435546875,1.4828944206237793,-11.196348190307617,13.042192459106445
1702072399937692700,4.595692626953125,-6.146880626678467,-8.436474800109863,10.033488273620605
1702072399954701300,4.612701416015625,-13.36231517791748,-4.09796667098999,11.590242385864258
1702072399971691300,4.629691162109375,-12.181108474731445,2.7533915042877197,18.4260196685791
1702072399988681500,4.646681396484375,-5.686675071716309,7.205109119415283,33.55117416381836
1702072400005671700,4.663671630859375,-2.21757173538208,11.120450019836426,40.037841796875
1702072400022661400,4.680661376953125,3.908118724822998,15.763537406921387,30.342933654785156
1702072400039651300,4.6976513671875,11.059720993041992,18.130521774291992,15.153671264648438
1702072400056642300,4.714642333984375,9.901399612426758,16.475526809692383,4.910475730895996
1702072400073631500,4.731631591796875,4.860145092010498,15.491538047790527,-2.345877170562744
1702072400090620000,4.748619873046875,2.8436341285705566,16.419105529785156,-7.967159748077393
1702072400107604700,4.765604736328125,2.1822710037231445,17.889305114746094,-8.203624725341797
1702072400124612400,4.7826123046875,2.1711459159851074,20.295820236206055,-8.560569763183594
1702072400141589200,4.79958935546875,1.2854838371276855,21.0229549407959,-10.171992301940918
1702072400158584300,4.816584228515625,-1.9171481132507324,19.23541259765625,-11.302785873413086
1702072400175571700,4.83357177734375,-2.5854547023773193,17.049924850463867,-10.756123542785645
1702072400192562000,4.85056201171875,0.4106884002685547,14.498459815979004,-6.659051895141602
1702072400209552000,4.8675517578125,3.971343517303467,12.365273475646973,-0.9011626243591309
1702072400226541800,4.884541748046875,6.916598320007324,11.566335678100586,4.973660469055176
1702072400243532000,4.901531982421875,5.781725883483887,11.661771774291992,10.817608833312988
1702072400260522200,4.918522216796875,5.78012752532959,8.899116516113281,23.336139678955078
1702072400277512000,4.935511962890625,2.678053140640259,12.482558250427246,26.21892738342285
1702072400294502100,4.952502197265625,2.3976542949676514,10.049070358276367,32.41032791137695
1702072400311492000,4.9694921875,4.28017520904541,4.266664981842041,37.44183349609375
1702072400328484900,4.98648486328125,9.210494995117188,-0.8525333404541016,34.17294692993164
1702072400345472300,5.00347216796875,10.714266777038574,-6.210519790649414,27.678470611572266
1702072400362454500,5.02045458984375,6.046374320983887,-11.051145553588867,20.90224266052246
1702072400379441400,5.03744140625,3.33489727973938,-14.449392318725586,13.640305519104004
1702072400396442000,5.054442138671875,4.864529132843018,-17.18410301208496,7.673817157745361
1702072400413432300,5.071432373046875,7.839238166809082,-21.902366638183594,3.7071213722229004
1702072400430422300,5.08842236328125,10.951059341430664,-26.240283966064453,-0.2941310405731201
1702072400447412500,5.10541259765625,13.609604835510254,-28.022729873657227,-6.151365280151367
1702072400464402200,5.122402099609375,14.184425354003906,-28.16813850402832,-9.865888595581055
1702072400481392400,5.139392333984375,13.938593864440918,-28.166217803955078,-10.493247985839844
1702072400498371800,5.156371826171875,12.813758850097656,-26.3458309173584,-9.754366874694824
1702072400515372500,5.17337255859375,10.395313262939453,-23.34623146057129,-7.220151901245117
1702072400532365000,5.190364990234375,8.637063980102539,-20.954994201660156,-1.21893310546875
1702072400549349600,5.207349609375,7.319254398345947,-18.608652114868164,6.288153648376465
1702072400566342100,5.224342041015625,4.900623321533203,-15.995122909545898,9.895187377929688
1702072400583331800,5.241331787109375,0.4091196060180664,-14.300436019897461,10.804025650024414
1702072400600323000,5.258322998046875,-5.725772857666016,-13.193665504455566,11.014139175415039
1702072400617312500,5.2753125,-12.797555923461914,-10.368762016296387,17.283939361572266
1702072400634300000,5.2922998046875,-15.974945068359375,-4.51127290725708,29.951391220092773
1702072400651284700,5.30928466796875,-9.560422897338867,2.82685923576355,42.39654541015625
1702072400668282600,5.32628271484375,0.6383304595947266,11.425352096557617,46.09853744506836
1702072400685272800,5.34327294921875,10.572200775146484,18.34404945373535,39.16450881958008
1702072400702262800,5.3602626953125,12.63897705078125,19.782493591308594,25.600616455078125
1702072400719253000,5.3772529296875,8.590189933776855,16.76837730407715,11.489882469177246
1702072400736242700,5.39424267578125,4.9323410987854,14.327179908752441,-0.654083251953125
1702072400753232000,5.41123193359375,4.069220066070557,14.189286231994629,-8.241504669189453
1702072400770212000,5.428212158203125,3.9950685501098633,14.78096866607666,-10.79698371887207
1702072400787224000,5.44522412109375,4.589986801147461,15.97327709197998,-11.63715648651123
1702072400804202800,5.46220263671875,4.213640213012695,16.47348403930664,-11.656245231628418
1702072400821190400,5.4791904296875,3.3198962211608887,15.27666187286377,-12.08055305480957
1702072400838185500,5.496185546875,2.3675310611724854,13.564230918884277,-13.159965515136719
1702072400855172900,5.5131728515625,2.2612085342407227,11.93863296508789,-12.461009979248047
1702072400872162800,5.530162841796875,3.439457416534424,10.744620323181152,-8.43967342376709
1702072400889153000,5.547153076171875,4.865270137786865,10.04423713684082,-2.642979621887207
1702072400906143000,5.56414306640625,4.813360214233398,10.532901763916016,3.1728973388671875
1702072400923133200,5.58113330078125,4.575308799743652,11.94386100769043,10.83032512664795
1702072400940123100,5.598123046875,5.078552722930908,14.290715217590332,21.411317825317383
1702072400957113000,5.615113037109375,3.8390634059906006,17.67194175720215,32.49852752685547
1702072400974103000,5.63210302734375,-0.09328842163085938,16.65652084350586,41.705265045166016
1702072400991093000,5.649093017578125,-2.8249244689941406,8.008962631225586,46.50450134277344
1702072401008083000,5.6660830078125,2.686267852783203,-0.998741626739502,39.186920166015625
1702072401025069300,5.6830693359375,8.486282348632812,-8.40023422241211,28.817659378051758
1702072401042060500,5.700060546875,7.822937965393066,-16.11106300354004,21.451282501220703
1702072401059055900,5.717055908203125,4.61276912689209,-20.981657028198242,14.420084953308105
1702072401076040400,5.73404052734375,3.05971622467041,-23.366668701171875,7.903547763824463
1702072401093035800,5.751035888671875,3.213266134262085,-26.040084838867188,2.654588222503662
1702072401110023200,5.768023193359375,4.964836597442627,-28.755979537963867,-2.0456924438476562
1702072401127013400,5.785013427734375,9.04137897491455,-31.22414779663086,-5.555121898651123
1702072401144003000,5.802003173828125,13.626912117004395,-32.944801330566406,-7.881160736083984
1702072401160993300,5.8189931640625,16.110111236572266,-32.07954025268555,-10.558914184570312
1702072401177983200,5.835983154296875,14.646970748901367,-28.835494995117188,-10.449028015136719
1702072401194973200,5.85297314453125,10.890657424926758,-25.729032516479492,-5.835736274719238
1702072401211963400,5.86996337890625,8.348905563354492,-24.038070678710938,2.7233762741088867
1702072401228953300,5.886953369140625,6.075196743011475,-22.559537887573242,10.727950096130371
1702072401245940500,5.9039404296875,5.055960178375244,-18.765945434570312,16.118932723999023
1702072401262935800,5.920935791015625,2.6756017208099365,-14.84500503540039,15.33494758605957
1702072401279919400,5.93791943359375,-1.9207773208618164,-12.697440147399902,14.883451461791992
1702072401296913700,5.95491357421875,-9.861326217651367,-5.675666809082031,19.54962730407715
1702072401313903600,5.971903564453125,-13.105255126953125,1.120465874671936,34.34085464477539
1702072401330893300,5.988893310546875,-8.185552597045898,7.960415840148926,47.95679473876953
1702072401347883500,6.005883544921875,0.5571315288543701,12.44083023071289,47.12450408935547
1702072401364873500,6.02287353515625,12.172527313232422,18.41149139404297,29.43978500366211
1702072401381863700,6.03986376953125,15.169798851013184,17.883285522460938,13.540631294250488
1702072401398853400,6.056853271484375,8.903117179870605,14.744627952575684,5.618230819702148
1702072401415843300,6.07384326171875,2.3685555458068848,14.175382614135742,-0.8464584350585938
1702072401432834800,6.090834716796875,-0.7998812198638916,15.255229949951172,-5.417860507965088
1702072401449822500,6.107822509765625,-0.2585639953613281,17.150575637817383,-8.697891235351562
1702072401466813400,6.1248134765625,1.5315141677856445,18.67253875732422,-11.028965950012207
1702072401483803400,6.141803466796875,0.7468864917755127,17.78049087524414,-11.997207641601562
1702072401500793300,6.15879345703125,-2.6735315322875977,15.96038818359375,-13.034866333007812
1702072401517783600,6.175783447265625,-5.243354797363281,14.884140014648438,-13.285045623779297
1702072401534763000,6.192762939453125,-3.0012950897216797,13.86584186553955,-10.478970527648926
1702072401551763700,6.209763671875,1.498064637184143,12.999434471130371,-5.598214149475098
1702072401568753700,6.226753662109375,4.899477005004883,11.947643280029297,1.0096378326416016
1702072401585744000,6.243743896484375,5.915061950683594,11.634598731994629,8.466139793395996
1702072401602734000,6.260734130859375,5.968790054321289,9.726114273071289,17.994728088378906
1702072401619723800,6.277723876953125,4.369078159332275,9.710399627685547,25.247173309326172
1702072401636713700,6.294713623046875,2.8711838722229004,7.707261085510254,33.909915924072266
1702072401653701000,6.311701171875,2.346313238143921,0.11069583892822266,39.90663146972656
1702072401670696200,6.3286962890625,7.168692111968994,-6.428396701812744,36.423667907714844
1702072401687669200,6.345669189453125,11.536968231201172,-11.343591690063477,27.818622589111328
1702072401704673800,6.362673828125,9.589937210083008,-14.640449523925781,18.899330139160156
1702072401721664000,6.3796640625,5.146474838256836,-16.57311248779297,11.611475944519043
1702072401738644000,6.39664404296875,4.49714469909668,-18.456375122070312,5.82703971862793
1702072401755644000,6.413643798828125,7.34339714050293,-20.622058868408203,0.5004119873046875
1702072401772633900,6.4306337890625,9.824661254882812,-22.224594116210938,-5.402353286743164
1702072401789623800,6.447623779296875,12.4688720703125,-22.771194458007812,-9.491856575012207
1702072401806609700,6.464609619140625,14.727684020996094,-23.45828628540039,-10.854452133178711
1702072401823605000,6.48160498046875,14.370336532592773,-23.682117462158203,-11.410070419311523
1702072401840594000,6.498593994140625,12.033883094787598,-21.88253402709961,-12.178879737854004
1702072401857584400,6.51558447265625,9.723305702209473,-19.472898483276367,-11.143856048583984
1702072401874573300,6.5325732421875,8.1910982131958,-17.560096740722656,-6.9475812911987305
1702072401891553500,6.549553466796875,6.041470527648926,-16.379179000854492,-0.652519702911377
1702072401908553700,6.5665537109375,1.962388515472412,-14.669739723205566,4.757260322570801
1702072401925541400,6.583541259765625,-3.3840036392211914,-12.741302490234375,7.513692378997803
1702072401942536700,6.60053662109375,-8.411828994750977,-11.162019729614258,10.004072189331055
1702072401959523800,6.61752392578125,-13.391175270080566,-7.340714931488037,16.539474487304688
1702072401976514000,6.63451416015625,-15.143157005310059,-1.377164363861084,27.061431884765625
1702072401993504000,6.65150390625,-10.792980194091797,2.8446197509765625,38.97815704345703
1702072402010494200,6.668494140625,-1.0533971786499023,9.061206817626953,40.5079231262207
1702072402027484000,6.68548388671875,10.290935516357422,14.041863441467285,29.236812591552734
1702072402044473900,6.702473876953125,16.327613830566406,15.240078926086426,16.291156768798828
1702072402061464000,6.719464111328125,11.539512634277344,13.812456130981445,4.865971565246582
1702072402078454000,6.7364541015625,3.414947271347046,13.42485237121582,-3.9957275390625
1702072402095441400,6.75344140625,-0.656548023223877,13.631656646728516,-9.459382057189941
1702072402112436700,6.770436767578125,-0.2540769577026367,14.537735939025879,-11.833816528320312
1702072402129424000,6.787423828125,1.785679578781128,16.70417594909668,-13.733234405517578
1702072402146414000,6.8044140625,2.394473075866699,16.894060134887695,-14.116998672485352
1702072402163406300,6.82140625,1.0999698638916016,15.387677192687988,-13.911065101623535
1702072402180391700,6.8383916015625,-1.2367761135101318,14.064697265625,-12.904958724975586
1702072402197384200,6.85538427734375,-0.9449241161346436,13.06116771697998,-9.225069999694824
1702072402214374100,6.8723740234375,2.2531886100769043,12.838844299316406,-3.5158748626708984
1702072402231364000,6.889364013671875,4.160453796386719,10.364659309387207,5.080862045288086
1702072402248354300,6.906354248046875,4.889166355133057,13.485316276550293,10.250309944152832
1702072402265344300,6.92334423828125,4.886175632476807,11.033722877502441,19.249284744262695
1702072402282334000,6.940333984375,3.9388816356658936,12.287786483764648,24.129375457763672
1702072402299324200,6.95732421875,1.319420337677002,11.690792083740234,32.1273307800293
1702072402316320300,6.9743203125,3.488111972808838,6.026841163635254,37.482879638671875
1702072402333293300,6.991293212890625,11.026810646057129,-0.5606565475463867,33.142234802246094
1702072402350283500,7.008283447265625,14.778423309326172,-5.826608657836914,24.703723907470703
1702072402367282200,7.0252822265625,11.108236312866211,-11.080297470092773,18.61895751953125
1702072402384276500,7.0422763671875,7.111571311950684,-16.05902862548828,13.422541618347168
1702072402401264400,7.059264404296875,5.423116207122803,-19.956558227539062,7.555321216583252
1702072402418254300,7.07625439453125,6.399521350860596,-23.330066680908203,1.8675472736358643
1702072402435234800,7.09323486328125,8.543675422668457,-25.709552764892578,-3.315181255340576
1702072402452234200,7.110234130859375,10.786787986755371,-26.051725387573242,-7.7055864334106445
1702072402469224200,7.12722412109375,12.640083312988281,-26.967029571533203,-8.896736145019531
1702072402486214100,7.144214111328125,11.82728385925293,-27.35662078857422,-8.575057983398438
1702072402503204400,7.161204345703125,9.34132194519043,-24.614471435546875,-8.984640121459961
1702072402520194000,7.178194091796875,7.4377241134643555,-21.410837173461914,-6.708597660064697
1702072402537184300,7.195184326171875,6.818231582641602,-19.82366371154785,-0.678797721862793
1702072402554174000,7.212174072265625,6.63818883895874,-17.663618087768555,4.825889587402344
1702072402571153700,7.229153564453125,3.5255489349365234,-14.855964660644531,9.535660743713379
1702072402588155000,7.24615478515625,-3.9792709350585938,-12.259459495544434,13.188081741333008
1702072402605127700,7.263127685546875,-10.367488861083984,-9.139965057373047,15.739749908447266
1702072402622134300,7.28013427734375,-9.547002792358398,0.03850126266479492,16.076642990112305
1702072402639124500,7.29712451171875,-5.119118690490723,3.461252212524414,28.547344207763672
1702072402656114000,7.314114013671875,1.1066415309906006,7.1053619384765625,44.26034927368164
1702072402673104100,7.331104248046875,7.4784770011901855,11.55252742767334,44.13572692871094
1702072402690094300,7.34809423828125,17.870208740234375,16.964008331298828,25.55752944946289
1702072402707084300,7.365084228515625,18.361045837402344,16.16877555847168,9.004548072814941
1702072402724074000,7.382073974609375,10.848044395446777,12.805712699890137,0.6125755310058594
1702072402741053700,7.3990537109375,3.3157670497894287,11.825197219848633,-5.589761257171631
1702072402758054100,7.41605419921875,-1.0746166706085205,12.890082359313965,-9.87277889251709
1702072402775044400,7.43304443359375,-1.1218438148498535,15.018355369567871,-11.244070053100586
1702072402792034000,7.450033935546875,0.9904487133026123,16.399917602539062,-9.488097190856934
1702072402809013500,7.467013427734375,1.2949156761169434,15.918892860412598,-8.220215797424316
1702072402826014000,7.484013916015625,-2.1604552268981934,15.155362129211426,-10.597724914550781
1702072402843004400,7.50100439453125,-5.227873802185059,14.131499290466309,-11.95954418182373
1702072402859993900,7.517993896484375,-1.6556627750396729,12.983010292053223,-9.337032318115234
1702072402876984300,7.534984375,3.3993046283721924,11.106634140014648,-3.821929454803467
1702072402893974300,7.551974365234375,3.785954236984253,10.532732963562012,2.142228126525879
1702072402910964200,7.568964111328125,3.87524676322937,10.764995574951172,10.474455833435059
1702072402927954000,7.585953857421875,5.071686267852783,8.806642532348633,16.711761474609375
1702072402944944000,7.602944091796875,4.229245662689209,14.380373001098633,23.48215103149414
1702072402961942500,7.619942626953125,5.85552978515625,11.250852584838867,32.83898162841797
1702072402978924300,7.63692431640625,6.965421199798584,6.338462829589844,34.5673828125
1702072402995907800,7.653907958984375,11.379144668579102,1.119978904724121,31.380409240722656
1702072403012902700,7.670902587890625,13.353763580322266,-4.614867210388184,25.730682373046875
1702072403029892900,7.687892822265625,10.30965805053711,-9.253801345825195,19.211660385131836
1702072403046887700,7.7048876953125,8.161538124084473,-15.049840927124023,13.687667846679688
1702072403063873300,7.721873291015625,7.442122936248779,-20.135971069335938,8.072394371032715
1702072403080864000,7.738864013671875,7.403254508972168,-24.9970760345459,2.7640678882598877
1702072403097854000,7.75585400390625,7.461423873901367,-27.33544921875,-3.890228509902954
1702072403114844200,7.77284423828125,9.524402618408203,-27.64379119873047,-9.573057174682617
1702072403131834000,7.789834228515625,11.47074031829834,-28.821807861328125,-10.877320289611816
1702072403148824000,7.806823974609375,12.572486877441406,-28.401945114135742,-11.186609268188477
1702072403165817300,7.8238173828125,11.803668975830078,-25.72784423828125,-9.661736488342285
1702072403182796300,7.84079638671875,10.063041687011719,-23.02920913696289,-3.5983386039733887
1702072403199791900,7.8577919921875,7.496135234832764,-20.136234283447266,5.407253265380859
1702072403216786000,7.874785888671875,4.254836082458496,-16.766315460205078,10.759101867675781
1702072403233774000,7.891774169921875,-0.016374588012695312,-12.66421127319336,9.33397102355957
1702072403250764000,7.908763916015625,-5.8462347984313965,-10.607020378112793,8.816999435424805
1702072403267753700,7.925753662109375,-11.481405258178711,-5.855536460876465,14.146392822265625
1702072403284741400,7.942741455078125,-11.072607040405273,2.9688796997070312,25.746023178100586
1702072403301736700,7.95973681640625,-7.498336315155029,10.394110679626465,42.70600128173828
1702072403318723800,7.976723876953125,-4.037757873535156,13.836337089538574,48.19696044921875
1702072403335713800,7.9937138671875,4.76434326171875,16.358718872070312,29.93994140625
1702072403352704000,8.0107041015625,14.761271476745605,15.92310619354248,12.287428855895996
1702072403369694000,8.02769384765625,12.20233154296875,12.701922416687012,2.9472885131835938
1702072403386684000,8.044683837890625,4.798484802246094,11.52804183959961,-4.068729877471924
1702072403403671300,8.06167138671875,0.7757024765014648,11.56339168548584,-8.955734252929688
1702072403420656000,8.07865625,0.22705602645874023,12.297099113464355,-11.25456428527832
1702072403437654500,8.095654541015625,1.0278830528259277,14.018803596496582,-11.975484848022461
1702072403454641400,8.112641357421875,0.41120147705078125,14.78329849243164,-12.626867294311523
1702072403471636200,8.12963623046875,-2.71970534324646,14.031794548034668,-14.058457374572754
1702072403488623900,8.146623779296876,-4.335160255432129,13.119977951049805,-14.711458206176758
1702072403505613800,8.16361376953125,-2.131718397140503,12.796164512634277,-13.581140518188477
1702072403522604000,8.18060400390625,1.3692233562469482,12.636497497558594,-7.2647857666015625
1702072403539593700,8.19759375,4.541040897369385,12.757697105407715,1.9237136840820312
1702072403556584000,8.214583984375,5.211116313934326,11.632135391235352,9.26784610748291
1702072403573574000,8.231573974609375,7.547698974609375,12.180460929870605,12.747981071472168
1702072403590563600,8.2485634765625,7.940145969390869,16.212379455566406,18.665433883666992
1702072403607553500,8.265553466796876,3.9902498722076416,14.382572174072266,29.006614685058594
1702072403624543500,8.28254345703125,4.5219855308532715,11.037954330444336,34.000335693359375
1702072403641531400,8.299531494140625,9.075977325439453,3.6381750106811523,33.55994415283203
1702072403658526200,8.316526123046875,11.847108840942383,-2.030264377593994,27.424318313598633
1702072403675513900,8.333513916015624,9.563812255859375,-9.21935749053955,22.331562042236328
1702072403692503800,8.35050390625,6.5491766929626465,-16.502878189086914,15.949760437011719
1702072403709493500,8.367493408203124,5.783657073974609,-21.98861312866211,7.651382923126221
1702072403726483500,8.3844833984375,6.397434234619141,-25.36739730834961,0.0015592575073242188
1702072403743465500,8.401465576171875,6.720829010009766,-27.038183212280273,-5.133769989013672
1702072403760463600,8.418463623046875,8.10342788696289,-27.45705795288086,-7.697318077087402
1702072403777453600,8.43545361328125,10.018566131591797,-27.72283935546875,-7.6934404373168945
1702072403794443800,8.45244384765625,10.692452430725098,-28.34749984741211,-5.443824768066406
1702072403811433700,8.469433837890625,9.628643989562988,-26.524234771728516,-5.541958808898926
1702072403828423400,8.48642333984375,8.724163055419922,-22.768604278564453,-5.509089469909668
1702072403845413600,8.50341357421875,7.748062610626221,-20.356769561767578,0.3558173179626465
1702072403862402600,8.520402587890626,5.362148284912109,-18.46662712097168,8.697192192077637
1702072403879394000,8.53739404296875,1.39994478225708,-16.14910888671875,14.904454231262207
1702072403896383500,8.554383544921874,-3.93035888671875,-14.066503524780273,14.128473281860352
1702072403913373700,8.571373779296875,-6.882168292999268,-10.222587585449219,14.99142837524414
1702072403930363400,8.58836328125,-6.767391681671143,-2.647186040878296,22.542789459228516
1702072403947353600,8.605353515625,-2.951958179473877,4.16693115234375,37.52115249633789
1702072403964343300,8.62234326171875,3.2903804779052734,10.292023658752441,47.060089111328125
1702072403981333200,8.639333251953126,6.732932090759277,16.313251495361328,34.71424865722656
1702072403998313000,8.65631298828125,12.448041915893555,17.758544921875,18.550437927246094
1702072404015313400,8.6733134765625,11.760285377502441,15.643945693969727,8.574825286865234
1702072404032303600,8.6903037109375,6.775101661682129,14.572502136230469,-0.4242429733276367
1702072404049293600,8.70729345703125,2.783099412918091,14.824320793151855,-7.274374008178711
1702072404066283300,8.724283203125,0.07358336448669434,16.146728515625,-10.138341903686523
1702072404083273200,8.741273193359374,-0.7329287528991699,18.39018440246582,-11.610435485839844
1702072404100262100,8.75826220703125,-0.6655137538909912,19.368656158447266,-12.849824905395508
1702072404117250800,8.775250732421876,-3.081573724746704,18.231264114379883,-13.010690689086914
1702072404134245600,8.79224560546875,-4.815271854400635,16.68797492980957,-13.356109619140625
1702072404151223000,8.80922314453125,-2.2043423652648926,15.690271377563477,-11.240531921386719
1702072404168221200,8.82622119140625,1.410388708114624,15.429204940795898,-6.308540344238281
1702072404185215200,8.84321533203125,4.038305759429932,14.322704315185547,-0.011699676513671875
1702072404202203000,8.860202880859376,6.2028093338012695,13.09663200378418,6.427364349365234
1702072404219193000,8.877193115234375,8.400419235229492,11.570637702941895,13.17611026763916
1702072404236180200,8.89418017578125,11.839367866516113,9.047274589538574,20.507112503051758
1702072404253165300,8.911165283203125,8.575443267822266,10.106786727905273,25.220645904541016
1702072404270152400,8.92815234375,7.480642318725586,7.558219909667969,30.79361915588379
1702072404287150300,8.945150390625,10.923611640930176,3.2853140830993652,34.410064697265625
1702072404304145400,8.9621455078125,13.311488151550293,-3.377086639404297,33.67461395263672
1702072404321129200,8.979129150390625,9.589448928833008,-9.602513313293457,27.952173233032227
1702072404338126600,8.996126708984375,5.222062110900879,-14.480671882629395,19.6258544921875
1702072404355112700,9.01311279296875,3.641812801361084,-18.793601989746094,11.684867858886719
1702072404372102700,9.0301025390625,6.309447288513184,-22.536909103393555,4.886061668395996
1702072404389092600,9.047092529296876,8.96850872039795,-25.791227340698242,-0.5151495933532715
1702072404406082600,9.06408251953125,10.445711135864258,-27.65032386779785,-4.692368984222412
1702072404423072800,9.08107275390625,11.279287338256836,-29.830753326416016,-6.768796443939209
1702072404440062700,9.098062744140625,10.695648193359375,-30.93173599243164,-8.770278930664062
1702072404457053000,9.115052978515624,9.133565902709961,-29.573383331298828,-10.856279373168945
1702072404474042400,9.13204248046875,7.7728071212768555,-26.273040771484375,-9.737016677856445
1702072404491032600,9.149032470703125,6.757246017456055,-23.60715103149414,-2.3295044898986816
1702072404508025600,9.166025634765624,5.166801452636719,-21.47515106201172,8.97462272644043
1702072404525009400,9.183009521484376,2.7773706912994385,-18.127920150756836,12.852810859680176
1702072404542002700,9.200002685546876,-0.4945354461669922,-15.155553817749023,8.542267799377441
1702072404558992400,9.216992431640625,-6.164816856384277,-11.991470336914062,7.514359474182129
1702072404575982300,9.233982421875,-10.744807243347168,-5.6602678298950195,17.259281158447266
1702072404592972500,9.25097265625,-7.337559223175049,-0.11752867698669434,37.346858978271484
1702072404609962800,9.267962646484374,2.508153200149536,8.346478462219238,50.83414840698242
1702072404626952400,9.284952392578125,9.835712432861328,16.955392837524414,41.63845443725586
1702072404643942100,9.301942138671874,16.560745239257812,19.550830841064453,24.95852279663086
1702072404660932400,9.318932373046875,13.401897430419922,17.593114852905273,12.744027137756348
1702072404677922300,9.33592236328125,5.5443339347839355,16.02264976501465,2.210437774658203
1702072404694901800,9.35290185546875,1.500916600227356,15.732166290283203,-6.976583003997803
1702072404711905300,9.3699052734375,-0.6655280590057373,16.50314712524414,-10.436214447021484
1702072404728889300,9.386889404296875,-0.9621491432189941,17.758527755737305,-9.493094444274902
1702072404745880000,9.403880126953124,-1.539396047592163,18.968679428100586,-9.8154878616333
1702072404762872800,9.420872802734374,-2.7557575702667236,18.071985244750977,-11.859122276306152
1702072404779862300,9.4378623046875,-6.100849151611328,16.930322647094727,-14.314268112182617
1702072404796852000,9.45485205078125,-4.26376485824585,15.99265193939209,-13.615238189697266
1702072404813842200,9.47184228515625,1.3485571146011353,15.390999794006348,-8.244861602783203
1702072404830829600,9.48882958984375,5.831905364990234,14.429643630981445,0.6118431091308594
1702072404847825000,9.505824951171874,7.51432991027832,14.385191917419434,7.916894912719727
1702072404864811800,9.522811767578125,8.000696182250977,12.997060775756836,14.76785945892334
1702072404881801700,9.5398017578125,8.476461410522461,8.516157150268555,21.083873748779297
1702072404898791700,9.556791748046875,7.981739521026611,9.640847206115723,24.447612762451172
1702072404915782000,9.573781982421876,8.020898818969727,5.396626949310303,31.807279586791992
1702072404932770000,9.59077001953125,10.173799514770508,1.349144458770752,33.53158187866211
1702072404949760000,9.607760009765625,11.305571556091309,-4.574394702911377,31.93325424194336
1702072404966742800,9.62474267578125,6.624873161315918,-9.646060943603516,25.587305068969727
1702072404983729000,9.64172900390625,2.4871554374694824,-13.052340507507324,17.126447677612305
1702072405000726500,9.6587265625,3.257100820541382,-17.284832000732422,10.244953155517578
1702072405017724000,9.675723876953125,8.323647499084473,-21.593996047973633,4.1439595222473145
1702072405034711600,9.692711669921875,12.123308181762695,-25.031517028808594,-1.079531192779541
1702072405051701800,9.70970166015625,12.98737621307373,-26.467071533203125,-4.925890922546387
1702072405068691700,9.726691650390626,11.86376667022705,-27.842815399169922,-6.4854936599731445
1702072405085681400,9.743681396484375,10.822807312011719,-29.285184860229492,-8.10479736328125
1702072405102671600,9.760671630859376,10.109386444091797,-28.747323989868164,-10.864444732666016
1702072405119650800,9.77765087890625,9.974693298339844,-26.502771377563477,-11.574739456176758
1702072405136651300,9.7946513671875,10.142074584960938,-24.007347106933594,-6.700488567352295
1702072405153630700,9.811630615234375,9.673171043395996,-22.64141273498535,3.8173465728759766
1702072405170618400,9.828618408203125,6.172239780426025,-20.214069366455078,11.699993133544922
1702072405187623700,9.845623779296876,-0.4635472297668457,-16.66134262084961,11.929864883422852
1702072405204611300,9.862611328125,-6.930041790008545,-13.246624946594238,10.363581657409668
1702072405221601000,9.87960107421875,-10.32175350189209,-6.715351104736328,16.096513748168945
1702072405238589400,9.89658935546875,-9.680679321289062,-1.8389580249786377,34.65144348144531
1702072405255581200,9.913581298828126,3.1597700119018555,4.0586090087890625,51.571353912353516
1702072405272578000,9.930578125,12.380422592163086,12.262115478515625,44.10438919067383
1702072405289561000,9.94756103515625,16.055343627929688,17.156356811523438,24.92845916748047
1702072405306551000,9.964551025390625,13.196621894836426,17.066539764404297,13.924531936645508
1702072405323541000,9.981541015625,4.868391990661621,15.964914321899414,7.995882034301758
1702072405340531000,9.998531005859375,-0.23654866218566895,15.084997177124023,-0.40347862243652344
1702072405357521000,10.01552099609375,-1.2054083347320557,15.399916648864746,-8.389010429382324
1702072405374510800,10.0325107421875,1.8386831283569336,17.402685165405273,-13.073333740234375
1702072405391500800,10.049500732421874,1.768768548965454,19.849334716796875,-14.329047203063965
1702072405408488000,10.066488037109375,-4.545965194702148,19.7115478515625,-12.44107437133789
1702072405425489000,10.083489013671874,-10.1198148727417,19.343486785888672,-11.250032424926758
1702072405442470700,10.100470703125,-6.317518711090088,18.189735412597656,-8.395675659179688
1702072405459460900,10.1174609375,1.903976559638977,17.03304100036621,-4.184268474578857
1702072405476440000,10.134440185546875,6.889267921447754,16.111858367919922,2.5076093673706055
1702072405493440500,10.1514404296875,8.71080207824707,14.483455657958984,8.30648422241211
1702072405510430500,10.168430419921876,7.065778732299805,12.02679443359375,13.352581977844238
1702072405527420400,10.18542041015625,9.831388473510742,8.885019302368164,19.69329261779785
1702072405544421000,10.202421142578125,11.72691535949707,8.719955444335938,27.814655303955078
1702072405561398300,10.219398193359375,13.990049362182617,5.116133689880371,37.64250183105469
1702072405578392800,10.236392822265625,14.084061622619629,-1.1203317642211914,38.668392181396484
1702072405595379000,10.25337890625,13.576498031616211,-6.4047627449035645,33.39604568481445
1702072405612385300,10.27038525390625,10.45419692993164,-10.804207801818848,26.79572105407715
1702072405629356800,10.287356689453125,8.245972633361816,-14.978392601013184,19.485862731933594
1702072405646351000,10.30435107421875,7.873835563659668,-18.70273208618164,12.278071403503418
1702072405663339800,10.32133984375,9.386126518249512,-22.21735382080078,5.90805721282959
1702072405680330000,10.338330078125,10.35738754272461,-26.136917114257812,0.6171579360961914
1702072405697320000,10.35531982421875,10.684581756591797,-28.80791473388672,-5.8437418937683105
1702072405714310000,10.372309814453125,10.037960052490234,-29.937952041625977,-10.366296768188477
1702072405731300000,10.389300048828124,8.568665504455566,-32.35725402832031,-10.762145042419434
1702072405748288300,10.406288330078125,7.866965293884277,-32.58153533935547,-12.281198501586914
1702072405765281300,10.42328125,8.89095401763916,-29.842899322509766,-13.624448776245117
1702072405782269700,10.440269775390625,10.401729583740234,-26.077529907226562,-9.435821533203125
1702072405799249000,10.457248779296876,11.899930953979492,-23.657920837402344,-0.045499324798583984
1702072405816249900,10.474249755859375,9.110015869140625,-20.77960777282715,8.027828216552734
1702072405833239600,10.491239501953125,1.0514039993286133,-17.493812561035156,9.518732070922852
1702072405850229500,10.5082294921875,-7.1603240966796875,-14.668878555297852,7.390544414520264
1702072405867209200,10.525209228515624,-8.945068359375,-11.666388511657715,11.696718215942383
1702072405884205800,10.542205810546875,-5.23578405380249,-9.192551612854004,30.373151779174805
1702072405901203500,10.559203369140626,7.718764305114746,-2.780174732208252,48.83206558227539
1702072405918178800,10.5761787109375,19.990184783935547,6.81522798538208,46.73827362060547
1702072405935179300,10.59317919921875,23.859622955322266,16.587106704711914,31.381696701049805
1702072405952169500,10.61016943359375,18.493621826171875,18.967121124267578,22.90225601196289
1702072405969160200,10.62716015625,5.187558174133301,18.112077713012695,17.109092712402344
1702072405986149000,10.644149169921874,-4.571263313293457,18.47478485107422,9.482646942138672
1702072406003139300,10.661139404296875,-6.898286819458008,19.000715255737305,0.9759426116943359
1702072406020129000,10.67812890625,-5.628686428070068,21.202730178833008,-8.130833625793457
1702072406037118700,10.69511865234375,-4.776366233825684,23.370588302612305,-13.249229431152344
1702072406054108400,10.7121083984375,-7.709329128265381,22.53968620300293,-11.565515518188477
1702072406071099400,10.729099365234376,-9.552753448486328,20.58940887451172,-7.162147521972656
1702072406088088800,10.7460888671875,-6.087908744812012,17.941762924194336,-3.5574874877929688
1702072406105078800,10.763078857421876,-0.7195349931716919,17.22825813293457,-2.9192819595336914
1702072406122068500,10.780068359375,3.7774267196655273,14.207717895507812,1.3056163787841797
1702072406139058700,10.79705859375,6.8041791915893555,12.767313957214355,7.149580001831055
1702072406156048600,10.814048583984375,10.264681816101074,8.899221420288086,16.057682037353516
1702072406173038600,10.83103857421875,13.883733749389648,4.871716499328613,22.45478630065918
1702072406190028300,10.8480283203125,13.829011917114258,3.564725637435913,27.506711959838867
1702072406207018800,10.865018798828125,12.144768714904785,1.523573875427246,34.74970245361328
1702072406224008700,10.8820087890625,14.0961275100708,-4.548679351806641,38.267250061035156
1702072406240998100,10.898998046875,15.6631498336792,-8.396698951721191,32.657379150390625
1702072406257988400,10.91598828125,12.522956848144531,-12.048772811889648,25.808685302734375
1702072406274978000,10.93297802734375,10.492664337158203,-15.268241882324219,17.983428955078125
1702072406291959000,10.949958984375,9.753732681274414,-19.67994499206543,10.702089309692383
1702072406308955600,10.96695556640625,9.882088661193848,-24.201644897460938,4.182605266571045
1702072406325950000,10.983949951171875,9.190934181213379,-28.350147247314453,-3.0987892150878906
1702072406342938000,11.000938232421875,8.76220703125,-29.505367279052734,-10.969583511352539
1702072406359928000,11.017927978515624,6.958500862121582,-29.794313430786133,-14.065651893615723
1702072406376918000,11.03491796875,6.34428596496582,-30.939239501953125,-13.461931228637695
1702072406393894700,11.051894775390625,8.349048614501953,-29.642131805419922,-15.223386764526367
1702072406410898000,11.06889794921875,10.520524978637695,-27.101177215576172,-14.364418029785156
1702072406427887900,11.085887939453125,10.502965927124023,-23.814878463745117,-9.496722221374512
1702072406444877600,11.102877685546876,9.200822830200195,-22.399892807006836,-1.4734735488891602
1702072406461867500,11.119867431640625,4.595376968383789,-20.978208541870117,2.7060275077819824
1702072406478857500,11.136857421875,-0.32186412811279297,-18.74930763244629,8.600571632385254
1702072406495836700,11.153836669921875,-1.7188925743103027,-17.89144515991211,16.939157485961914
1702072406512835800,11.1708359375,0.019167423248291016,-13.986150741577148,19.544605255126953
1702072406529826800,11.187826904296875,6.339513778686523,-5.362667083740234,23.505558013916016
1702072406546819000,11.204819091796875,12.057214736938477,-1.6763453483581543,36.24993896484375
1702072406563807000,11.221806884765625,15.669882774353027,3.4206929206848145,50.17498779296875
1702072406580797000,11.238796875,17.842220306396484,10.94484806060791,38.77610397338867
1702072406597793000,11.25579296875,20.492116928100586,16.443265914916992,17.137035369873047
1702072406614776800,11.27277685546875,15.898509979248047,16.233896255493164,7.926392555236816
1702072406631767000,11.28976708984375,5.653193473815918,16.522817611694336,4.910606384277344
1702072406648756700,11.3067568359375,-4.095077037811279,18.190542221069336,-0.8900794982910156
1702072406665747000,11.323746826171876,-9.856162071228027,20.46754264831543,-6.223176956176758
1702072406682734000,11.340734130859374,-8.865683555603027,22.16598892211914,-8.76305866241455
1702072406699729200,11.357729248046875,-7.710073947906494,21.75569725036621,-8.535046577453613
1702072406716725800,11.374725830078125,-10.022348403930664,18.71846580505371,-7.394106388092041
1702072406733693400,11.391693359375,-11.255049705505371,15.892156600952148,-6.3148298263549805
1702072406750698800,11.40869873046875,-1.5429742336273193,12.925180435180664,-5.004012107849121
1702072406767676000,11.425676025390626,2.688863754272461,11.158294677734375,-2.648776054382324
1702072406784674000,11.442674072265625,4.1170220375061035,9.189618110656738,2.096212387084961
1702072406801668900,11.4596689453125,10.667880058288574,7.707108020782471,11.291709899902344
1702072406818656300,11.47665625,16.00368881225586,3.0437567234039307,17.96063232421875
1702072406835646200,11.493646240234375,17.348167419433594,8.344461441040039,21.849336624145508
1702072406852631000,11.510631103515625,13.411730766296387,4.2515997886657715,34.16081237792969
1702072406869625900,11.5276259765625,17.115400314331055,-2.519993305206299,39.950260162353516
1702072406886614000,11.544614013671875,16.75615692138672,-6.81198263168335,31.87967872619629
1702072406903606000,11.56160595703125,13.756695747375488,-10.928108215332031,23.49277114868164
1702072406920595700,11.578595703125,9.51876163482666,-13.999532699584961,15.362834930419922
1702072406937586000,11.5955859375,7.472795486450195,-17.423255920410156,7.945582389831543
1702072406954576100,11.612576171875,7.111878395080566,-20.716087341308594,1.0556154251098633
1702072406971555000,11.62955517578125,7.359071731567383,-23.631071090698242,-4.535134315490723
1702072406988555000,11.646554931640624,7.784440040588379,-25.45549774169922,-9.79585075378418
1702072407005546000,11.6635458984375,7.473094940185547,-26.395389556884766,-13.654293060302734
1702072407022535200,11.68053515625,6.742262363433838,-27.910627365112305,-14.550390243530273
1702072407039525400,11.697525390625,6.279689788818359,-28.58566665649414,-15.171552658081055
1702072407056515300,11.714515380859375,5.716355800628662,-26.889856338500977,-15.397398948669434
1702072407073494500,11.73149462890625,6.166187286376953,-23.991634368896484,-12.026973724365234
1702072407090495200,11.7484951171875,6.908068656921387,-22.464128494262695,-2.7333788871765137
1702072407107480600,11.76548046875,5.68355655670166,-20.640586853027344,6.26170015335083
1702072407124479200,11.782479248046876,1.1195952892303467,-17.755615234375,9.455009460449219
1702072407141470700,11.799470703125,-5.515453338623047,-15.890456199645996,8.523164749145508
1702072407158454000,11.8164541015625,-8.808483123779297,-13.148417472839355,11.179506301879883
1702072407175448600,11.833448486328125,-8.252622604370117,-9.276233673095703,25.986631393432617
1702072407192441000,11.850441162109375,-1.7542099952697754,-1.6531364917755127,47.110679626464844
1702072407209421800,11.867421875,8.26019287109375,6.183907508850098,52.2838134765625
1702072407226417200,11.884417236328124,16.51999282836914,12.589054107666016,32.9783935546875
1702072407243404300,11.901404296875,21.262025833129883,14.280035972595215,17.403034210205078
1702072407260394500,11.91839453125,14.223979949951172,13.862259864807129,9.479641914367676
1702072407277384200,11.93538427734375,5.088158130645752,14.244841575622559,1.9535064697265625
1702072407294374100,11.9523740234375,-0.16116094589233398,15.803752899169922,-6.043296813964844
1702072407311364400,11.9693642578125,-1.7918701171875,17.771493911743164,-10.049811363220215
1702072407328352000,11.98635205078125,-0.4370298385620117,20.83701515197754,-13.090545654296875
1702072407345348600,12.0033486328125,-0.8883588314056396,21.47211265563965,-12.758369445800781
1702072407362329000,12.0203291015625,-1.727177381515503,19.911907196044922,-9.827800750732422
1702072407379338200,12.037338134765625,-1.8486509323120117,18.641857147216797,-6.339973449707031
1702072407396311800,12.054311767578126,0.19895625114440918,17.27150535583496,-4.094301223754883
1702072407413305600,12.0713056640625,4.751500129699707,16.612590789794922,-1.9357633590698242
1702072407430283300,12.088283203125,10.118639945983887,15.41386604309082,4.301427841186523
1702072407447283500,12.105283447265625,12.26200008392334,12.73741340637207,14.96951675415039
1702072407464273400,12.1222734375,11.995670318603516,10.012069702148438,22.546907424926758
1702072407481263000,12.13926318359375,12.373541831970215,10.137688636779785,28.09366226196289
1702072407498253000,12.156253173828125,12.155231475830078,7.154474258422852,35.03851318359375
1702072407515243300,12.1732431640625,13.039806365966797,-1.0249977111816406,38.23753356933594
1702072407532233000,12.19023291015625,16.491247177124023,-7.010435581207275,31.92483139038086
1702072407549225700,12.207225830078125,16.470687866210938,-10.999764442443848,25.57229232788086
1702072407566210300,12.224210205078125,12.807506561279297,-16.002124786376953,21.83975601196289
1702072407583202800,12.241202880859374,8.411787986755371,-21.38589859008789,15.935527801513672
1702072407600192800,12.25819287109375,6.628401756286621,-25.393428802490234,8.502421379089355
1702072407617183000,12.275182861328124,7.399562358856201,-28.686511993408203,2.5998380184173584
1702072407634162200,12.292162109375,7.858634948730469,-31.870609283447266,-1.4908850193023682
1702072407651162600,12.30916259765625,7.115967273712158,-33.5051383972168,-6.300495147705078
1702072407668150000,12.32614990234375,5.44071626663208,-33.32173538208008,-11.084383010864258
1702072407685145000,12.34314501953125,5.3997344970703125,-32.9033317565918,-13.28255558013916
1702072407702132500,12.360132568359376,6.838822364807129,-30.282337188720703,-12.774028778076172
1702072407719122400,12.377122314453125,8.475648880004883,-27.6754150390625,-5.973014831542969
1702072407736112400,12.3941123046875,8.13988208770752,-24.718002319335938,6.978604793548584
1702072407753102000,12.41110205078125,4.023134708404541,-19.766584396362305,15.955507278442383
1702072407770091800,12.428091796875,-2.8173584938049316,-13.91885757446289,16.17340087890625
1702072407787082000,12.44508203125,-8.05250358581543,-9.83381462097168,15.841987609863281
1702072407804071400,12.462071533203124,-9.613900184631348,-2.9018521308898926,17.252670288085938
1702072407821062000,12.479061767578125,-4.024936199188232,5.534567832946777,30.3040714263916
1702072407838049800,12.4960498046875,3.2556686401367188,11.189841270446777,45.761749267578125
1702072407855041500,12.51304150390625,11.132989883422852,17.49653434753418,41.42693328857422
1702072407872031700,12.53003173828125,13.737951278686523,21.229827880859375,22.43560028076172
1702072407889021200,12.547021240234375,11.430354118347168,20.42989158630371,11.182511329650879
1702072407906011400,12.564011474609375,7.701935768127441,18.154876708984375,4.930837631225586
1702072407923001300,12.58100146484375,3.728170871734619,16.43752670288086,-0.16547775268554688
1702072407939991000,12.597990966796875,1.6112699508666992,15.774664878845215,-4.520531177520752
1702072407956981000,12.61498095703125,1.1082489490509033,16.170682907104492,-9.229278564453125
1702072407973960700,12.631960693359375,0.29503464698791504,17.75531768798828,-13.418834686279297
1702072407990961200,12.648961181640624,-1.7192881107330322,17.92035484313965,-14.953764915466309
1702072408007950600,12.66595068359375,-3.8707990646362305,17.21693992614746,-14.660953521728516
1702072408024940300,12.682940185546874,-3.820918083190918,16.255903244018555,-12.419137954711914
1702072408041931000,12.699930908203125,-0.6497945785522461,15.971519470214844,-9.377689361572266
1702072408058932700,12.7169326171875,3.558979034423828,15.524005889892578,-4.192856788635254
1702072408075910400,12.733910400390625,4.717041492462158,15.413588523864746,1.800959587097168
1702072408092900400,12.750900390625,2.888087749481201,15.382704734802246,10.598649024963379
1702072408109890300,12.767890380859376,10.826925277709961,9.890907287597656,19.24277687072754
1702072408126880300,12.78488037109375,9.956195831298828,17.982864379882812,24.436203002929688
1702072408143870200,12.8018701171875,5.941852569580078,13.024600982666016,34.20134353637695
1702072408160860000,12.81885986328125,4.424203395843506,9.518580436706543,35.56178283691406
1702072408177837000,12.835837158203125,9.14759635925293,2.8640475273132324,32.232513427734375
1702072408194833400,12.85283349609375,11.401691436767578,-4.383283615112305,28.237926483154297
1702072408211830000,12.869830078125,9.759368896484375,-10.447029113769531,22.931476593017578
1702072408228819500,12.8868193359375,8.042818069458008,-16.543779373168945,17.2496280670166
1702072408245809400,12.903809326171874,7.195629119873047,-22.060260772705078,10.772586822509766
1702072408262788900,12.920788818359375,8.687248229980469,-26.604541778564453,3.743743419647217
1702072408279789300,12.937789306640624,11.653352737426758,-29.70871925354004,-2.7555184364318848
1702072408296779500,12.954779541015625,13.325138092041016,-31.333003997802734,-6.823451995849609
1702072408313770800,12.971770751953125,12.623518943786621,-31.977306365966797,-8.404179573059082
1702072408330759000,12.988759033203126,11.940767288208008,-30.251792907714844,-8.397937774658203
1702072408347748900,13.005748779296875,11.582354545593262,-27.319868087768555,-5.414916515350342
1702072408364739000,13.022739013671876,11.691706657409668,-23.34471321105957,-0.021994590759277344
1702072408381729000,13.03972900390625,10.19036865234375,-20.38618278503418,7.414534091949463
1702072408398718700,13.05671875,7.514516830444336,-17.02556610107422,10.741510391235352
1702072408415711200,13.073711181640626,3.0235159397125244,-14.67918586730957,8.82160472869873
1702072408432691000,13.09069091796875,-2.3853583335876465,-13.431739807128906,8.51380729675293
1702072408449688300,13.107688232421875,-8.019758224487305,-10.77334976196289,14.466445922851562
1702072408466678000,13.124677978515624,-9.744584083557129,-2.9782633781433105,26.297439575195312
1702072408483668500,13.14166845703125,-6.539539813995361,5.631715774536133,38.68933868408203
1702072408500645600,13.158645751953125,-1.2463808059692383,10.382540702819824,47.24128341674805
1702072408517638100,13.17563818359375,7.378661155700684,15.105209350585938,36.95951843261719
1702072408534627800,13.1926279296875,19.23809242248535,17.45157241821289,20.979463577270508
1702072408551624200,13.209624267578125,19.923233032226562,16.636260986328125,11.206620216369629
1702072408568613000,13.226613037109376,11.217979431152344,15.378952980041504,3.8864545822143555
1702072408585605000,13.243605224609375,2.8359084129333496,14.45599365234375,-3.350207805633545
1702072408602593000,13.260593017578126,-1.4683079719543457,14.854902267456055,-8.407569885253906
1702072408619583000,13.2775830078125,-0.3872406482696533,16.26421356201172,-11.439194679260254
1702072408636569600,13.294569580078125,3.260775089263916,17.110925674438477,-12.483050346374512
1702072408653557500,13.3115576171875,4.192439556121826,15.879596710205078,-11.31995964050293
1702072408670544600,13.328544677734374,1.5950756072998047,15.037213325500488,-11.325718879699707
1702072408687537700,13.34553759765625,-1.5816235542297363,14.95755386352539,-10.091310501098633
1702072408704534300,13.3625341796875,1.4987504482269287,14.630782127380371,-5.581340789794922
1702072408721519400,13.379519287109375,6.804717540740967,14.01220989227295,0.6075344085693359
1702072408738517200,13.396517333984375,8.405757904052734,13.622284889221191,7.084461212158203
1702072408755497700,13.413497802734375,8.283270835876465,12.851433753967285,15.611948013305664
1702072408772486100,13.430486083984375,8.285411834716797,12.209590911865234,23.594423294067383
1702072408789477400,13.447477294921875,5.419708728790283,10.920098304748535,31.771339416503906
1702072408806474800,13.464474853515625,1.6477043628692627,5.573614597320557,33.87858963012695
1702072408823457500,13.48145751953125,2.600803852081299,0.06971883773803711,30.16468048095703
1702072408840456000,13.4984560546875,5.447487831115723,-3.5870707035064697,25.644062042236328
1702072408857435400,13.515435302734375,7.547580718994141,-8.719850540161133,23.42792510986328
1702072408874436000,13.53243603515625,8.030609130859375,-14.90198040008545,19.113737106323242
1702072408891426000,13.549426025390625,6.528483867645264,-21.169429779052734,12.48930835723877
1702072408908414200,13.566414306640626,5.353203773498535,-25.913267135620117,6.123095512390137
1702072408925407000,13.583406982421875,4.068475723266602,-28.28232765197754,-0.23605012893676758
1702072408942395400,13.6003955078125,3.1312429904937744,-28.844791412353516,-5.332427024841309
1702072408959382500,13.617382568359375,4.020998001098633,-29.693172454833984,-7.057419300079346
1702072408976375600,13.63437548828125,6.213211536407471,-30.47473907470703,-7.889012336730957
1702072408993365200,13.651365234375,7.487123489379883,-29.183025360107422,-8.542580604553223
1702072409010355000,13.66835498046875,7.645902633666992,-26.676605224609375,-6.531044960021973
1702072409027345000,13.685344970703126,7.422341346740723,-24.096847534179688,-1.191429853439331
1702072409044330500,13.70233056640625,5.788300037384033,-22.079818725585938,5.806582450866699
1702072409061335300,13.719335205078124,2.932187795639038,-18.42491912841797,9.632527351379395
1702072409078317000,13.736317138671875,-0.44269275665283203,-14.859704971313477,11.130154609680176
1702072409095304700,13.7533046875,-5.2748284339904785,-10.882237434387207,12.572681427001953
1702072409112294400,13.77029443359375,-8.769343376159668,-2.84326171875,18.88644790649414
1702072409129274000,13.787274169921876,-6.602426528930664,7.740832805633545,31.357093811035156
1702072409146274300,13.8042744140625,-1.2168726921081543,13.589278221130371,49.0155143737793
1702072409163264000,13.821263916015624,2.9898810386657715,17.98877716064453,46.54669189453125
1702072409180254200,13.838254150390625,13.476133346557617,21.122055053710938,28.24737548828125
1702072409197244000,13.855243896484374,14.946879386901855,18.21902847290039,13.65101146697998
1702072409214233900,13.87223388671875,5.878880500793457,15.686327934265137,2.6439294815063477
1702072409231223800,13.889223876953125,-3.8003180027008057,16.443235397338867,-6.314449787139893
1702072409248213500,13.906213623046876,-6.692194938659668,16.804906845092773,-10.124551773071289
1702072409265203500,13.923203369140625,-1.5943143367767334,16.80903434753418,-10.425189971923828
1702072409282193400,13.940193359375,3.573651075363159,17.528953552246094,-12.193244934082031
1702072409299183000,13.95718310546875,2.6805996894836426,15.31222152709961,-12.353535652160645
1702072409316173300,13.97417333984375,-0.8837788105010986,11.795371055603027,-12.064419746398926
1702072409333163300,13.991163330078125,-2.9845008850097656,8.628130912780762,-11.115471839904785
1702072409350153200,14.0081533203125,-0.5809946060180664,7.761386871337891,-8.3212251663208
1702072409367143000,14.025142822265625,2.2688512802124023,5.616836071014404,-1.7150907516479492
1702072409384130000,14.042130126953126,4.591345310211182,10.07122802734375,4.002259731292725
1702072409401125000,14.059125,5.756621360778809,12.94446086883545,16.1321964263916
1702072409418112800,14.07611279296875,7.131693363189697,15.721282958984375,26.77461814880371
1702072409435102200,14.093102294921875,8.980491638183594,14.618342399597168,33.90034103393555
1702072409452092200,14.110092041015625,9.403196334838867,9.852550506591797,35.07286834716797
1702072409469082000,14.12708203125,10.489910125732422,3.4065184593200684,32.50956344604492
1702072409486072000,14.144072021484375,10.566840171813965,-2.4799532890319824,27.89303207397461
1702072409503059500,14.1610595703125,7.715048789978027,-8.358057022094727,22.49823760986328
1702072409520054500,14.178054443359375,4.018335342407227,-14.310213088989258,16.294666290283203
1702072409537042000,14.1950419921875,2.3839516639709473,-19.51873779296875,9.732994079589844
1702072409554031600,14.212031494140625,3.5012154579162598,-24.097496032714844,4.108763217926025
1702072409571021300,14.229021240234376,7.279879093170166,-28.492267608642578,-0.7989877462387085
1702072409588011300,14.24601123046875,11.514354705810547,-31.66018295288086,-3.9650723934173584
1702072409604999700,14.262999755859376,12.235198974609375,-33.02043151855469,-5.865903854370117
1702072409621992400,14.279992431640625,11.018243789672852,-32.99160385131836,-6.9526801109313965
1702072409638977500,14.2969775390625,10.304265975952148,-29.729400634765625,-8.13926887512207
1702072409655971600,14.3139716796875,10.000267028808594,-26.124183654785156,-4.583032608032227
1702072409672963600,14.330963623046875,9.706645965576172,-23.528240203857422,4.142458915710449
1702072409689950500,14.347950439453125,8.398407936096191,-20.727394104003906,12.287057876586914
1702072409706940400,14.3649404296875,3.276395320892334,-17.386363983154297,15.56585693359375
1702072409723915500,14.38191552734375,0.20061349868774414,-13.591414451599121,13.931047439575195
1702072409740909600,14.39890966796875,-1.8064155578613281,-8.762772560119629,14.252890586853027
1702072409757910500,14.41591064453125,-6.907416343688965,-1.4506584405899048,24.141773223876953
1702072409774900200,14.432900146484375,-7.542936325073242,9.381458282470703,39.85306167602539
1702072409791890000,14.449889892578126,-0.6776270866394043,16.52800941467285,54.962886810302734
1702072409808888300,14.466888427734375,6.704394340515137,22.917896270751953,40.74294662475586
1702072409825869600,14.48386962890625,11.347980499267578,22.732101440429688,18.926286697387695
1702072409842860000,14.500860107421875,8.099759101867676,18.74575424194336,6.711830139160156
1702072409859849200,14.51784912109375,4.743135929107666,15.096035957336426,-2.3757095336914062
1702072409876828700,14.53482861328125,2.783278703689575,14.329914093017578,-9.651689529418945
1702072409893829000,14.5518291015625,2.7260990142822266,15.962464332580566,-12.970029830932617
1702072409910819000,14.568819091796875,4.181239604949951,18.206403732299805,-13.860000610351562
1702072409927808800,14.585808837890625,4.768181324005127,18.56475830078125,-12.552289009094238
1702072409944796400,14.60279638671875,1.700319766998291,16.676586151123047,-11.069536209106445
1702072409961791200,14.619791259765625,-2.4762306213378906,15.151045799255371,-11.846955299377441
1702072409978772000,14.63677197265625,-0.6323044300079346,13.959434509277344,-11.075891494750977
1702072409995768600,14.6537685546875,5.173759460449219,13.315655708312988,-5.780238628387451
1702072410012747300,14.670747314453125,8.098384857177734,14.006279945373535,3.63228702545166
1702072410029748200,14.687748291015625,8.071301460266113,15.379026412963867,11.680473327636719
1702072410046741500,14.704741455078125,7.867531776428223,15.595462799072266,19.735702514648438
1702072410063727900,14.721727783203125,7.47254753112793,14.477827072143555,29.004119873046875
1702072410080717800,14.7387177734375,7.316647529602051,13.088069915771484,33.908145904541016
1702072410097708000,14.7557080078125,9.753955841064453,6.118935585021973,37.02348709106445
1702072410114697700,14.77269775390625,11.884328842163086,0.3974599838256836,34.19630813598633
1702072410131687000,14.78968701171875,9.045738220214844,-6.133195877075195,30.254392623901367
1702072410148678100,14.80667822265625,5.337347984313965,-12.137594223022461,24.016504287719727
1702072410165667600,14.82366748046875,3.3616065979003906,-17.729158401489258,15.929740905761719
1702072410182657300,14.8406572265625,4.045377254486084,-22.887287139892578,7.449245929718018
1702072410199647000,14.85764697265625,6.587742805480957,-27.447046279907227,0.3531765937805176
1702072410216637000,14.874636962890625,8.908095359802246,-29.683822631835938,-4.5991926193237305
1702072410233616100,14.8916162109375,9.142035484313965,-30.940187454223633,-5.494250297546387
1702072410250614000,14.908614013671874,10.377092361450195,-31.840885162353516,-4.83154296875
1702072410267608800,14.92560888671875,10.744131088256836,-30.56134605407715,-5.780218124389648
1702072410284596500,14.942596435546875,9.538488388061523,-27.11221694946289,-5.607402801513672
1702072410301586400,14.95958642578125,8.145936012268066,-23.999502182006836,-0.44620728492736816
1702072410318576000,14.976576171875,6.722170829772949,-21.444665908813477,6.177901744842529
1702072410335566000,14.993566162109374,3.7031500339508057,-17.926868438720703,10.58249282836914
1702072410352550400,15.01055029296875,-0.07604026794433594,-15.186971664428711,12.477131843566895
1702072410369545700,15.027545654296874,-1.46366548538208,-12.940475463867188,12.795694351196289
1702072410386535700,15.04453564453125,-4.506262302398682,-9.933115005493164,16.759735107421875
1702072410403525600,15.061525634765625,-7.254703044891357,-0.7757246494293213,25.980499267578125
1702072410420515000,15.07851513671875,-5.024583339691162,7.882678985595703,41.298187255859375
1702072410437505800,15.095505859375,1.6132557392120361,13.954902648925781,46.61740493774414
1702072410454491000,15.112490966796875,9.048516273498535,19.597639083862305,30.775386810302734
1702072410471482600,15.129482666015624,13.771523475646973,19.997068405151367,18.79970932006836
1702072410488475000,15.146474853515626,8.610105514526367,17.79719352722168,11.3589506149292
1702072410505467100,15.163467041015625,2.3313729763031006,15.846485137939453,1.241337776184082
1702072410522454800,15.180454833984374,-1.9561147689819336,14.962618827819824,-7.874311447143555
1702072410539444700,15.19744482421875,-3.822697162628174,15.686783790588379,-11.371875762939453
1702072410556434400,15.214434326171874,-1.248845100402832,17.791425704956055,-11.816946983337402
1702072410573424000,15.231424072265625,1.5956082344055176,18.656152725219727,-11.117919921875
1702072410590403300,15.2484033203125,-0.058635711669921875,17.537424087524414,-10.347342491149902
1702072410607403800,15.26540380859375,-3.107603073120117,15.954578399658203,-10.415122032165527
1702072410624393700,15.282393798828124,-1.3366789817810059,14.399185180664062,-9.036467552185059
1702072410641383400,15.299383544921875,2.4019768238067627,13.102399826049805,-4.546782970428467
1702072410658373600,15.31637353515625,5.530835151672363,12.540882110595703,1.4542531967163086
1702072410675363600,15.333363525390626,8.345699310302734,12.625953674316406,8.355995178222656
1702072410692350200,15.35035009765625,8.435637474060059,11.550273895263672,16.971237182617188
1702072410709339400,15.36733935546875,8.08599853515625,11.563688278198242,23.56374168395996
1702072410726337000,15.3843369140625,6.542279243469238,11.555306434631348,28.890899658203125
1702072410743323000,15.401322998046876,6.434159755706787,6.110813617706299,33.124916076660156
1702072410760312800,15.418312744140625,8.644539833068848,0.889775276184082,31.376020431518555
1702072410777302800,15.435302734375,10.313179969787598,-2.815446615219116,26.648351669311523
1702072410794290000,15.4522900390625,8.404666900634766,-7.807903289794922,24.459030151367188
1702072410811285000,15.469284912109375,5.14424991607666,-13.982044219970703,19.97027015686035
1702072410828271600,15.486271728515625,3.9467034339904785,-18.34566307067871,11.841572761535645
1702072410845262600,15.5032626953125,6.275245189666748,-22.075965881347656,4.910334587097168
1702072410862251800,15.520251708984375,9.025636672973633,-25.802471160888672,0.3187074661254883
1702072410879239200,15.5372392578125,9.995595932006836,-27.425674438476562,-3.5826940536499023
1702072410896234500,15.554234375,10.128668785095215,-27.959861755371094,-5.967001914978027
1702072410913221600,15.5712216796875,10.333732604980469,-28.982528686523438,-6.389963150024414
1702072410930211600,15.588211669921876,9.982693672180176,-27.264509201049805,-7.903586387634277
1702072410947201300,15.605201171875,8.669425010681152,-24.543060302734375,-6.913380146026611
1702072410964191000,15.62219091796875,7.705798625946045,-22.170623779296875,-1.7539772987365723
1702072410981181000,15.639180908203125,5.5529584884643555,-20.32659339904785,4.686031818389893
1702072410998171000,15.6561708984375,1.9010653495788574,-17.71009635925293,8.05849552154541
1702072411015160800,15.673160888671875,-1.022158145904541,-15.445951461791992,9.602420806884766
1702072411032150300,15.690150390625,-2.0106863975524902,-13.130322456359863,11.730524063110352
1702072411049140500,15.707140380859375,-5.735334873199463,-6.510304927825928,19.111637115478516
1702072411066130200,15.724130126953124,-7.769344806671143,2.5162715911865234,32.568519592285156
1702072411083120000,15.7411201171875,-3.6299734115600586,9.610892295837402,45.068115234375
1702072411100109800,15.75810986328125,1.406865119934082,12.571468353271484,42.7037467956543
1702072411117099800,15.775099853515625,11.15788459777832,15.157817840576172,27.352575302124023
1702072411134085400,15.79208544921875,17.128856658935547,15.980228424072266,14.193452835083008
1702072411151079700,15.80907958984375,12.708876609802246,15.358908653259277,7.044905662536621
1702072411168069600,15.826069580078125,3.215419292449951,14.655332565307617,0.23899555206298828
1702072411185059300,15.843059326171876,-3.022836685180664,15.43410587310791,-7.037791728973389
1702072411202049000,15.860049072265625,-3.901428461074829,17.537616729736328,-10.732767105102539
1702072411219039000,15.8770390625,0.6298565864562988,19.440349578857422,-10.045244216918945
1702072411236029000,15.89402880859375,3.9208247661590576,18.813676834106445,-8.47769832611084
1702072411253018600,15.9110185546875,-0.905235767364502,16.881216049194336,-9.55643367767334
1702072411269998300,15.927998291015625,-6.170299530029297,15.123805046081543,-10.337173461914062
1702072411286998300,15.944998291015626,-4.5222930908203125,13.55213737487793,-7.876833915710449
1702072411303988500,15.961988525390625,0.45311760902404785,12.925735473632812,-1.823664665222168
1702072411320978200,15.978978271484374,6.108361721038818,12.886882781982422,8.284904479980469
1702072411337968000,15.995968017578125,9.622665405273438,13.641855239868164,17.08779525756836
1702072411354946800,16.01294677734375,10.383249282836914,13.841376304626465,26.008481979370117
1702072411371939600,16.029939697265625,9.456016540527344,12.13243293762207,32.501708984375
1702072411388937500,16.0469375,9.50511360168457,8.300432205200195,36.76289367675781
1702072411405928000,16.063927978515625,10.721597671508789,0.4643678665161133,35.08029556274414
1702072411422917400,16.08091748046875,12.54319953918457,-5.338336944580078,26.65851593017578
1702072411439908400,16.097908447265624,8.702110290527344,-10.428093910217285,19.25830841064453
1702072411456886500,16.114886474609374,4.489957809448242,-15.298808097839355,13.965984344482422
1702072411473878500,16.13187841796875,4.394303798675537,-20.221813201904297,8.527945518493652
1702072411490877000,16.148876953125,6.673527240753174,-24.386354446411133,2.3321926593780518
1702072411507866400,16.165866455078124,9.280588150024414,-27.519081115722656,-3.3355894088745117
1702072411524856600,16.182856689453125,10.736370086669922,-28.760616302490234,-6.7367262840271
1702072411541846000,16.199845947265626,11.326726913452148,-28.602556228637695,-7.2031145095825195
1702072411558836200,16.216836181640623,11.987573623657227,-28.97330093383789,-5.585864067077637
1702072411575826000,16.233825927734376,12.798964500427246,-27.593748092651367,-6.069466590881348
1702072411592815900,16.25081591796875,12.744112014770508,-24.319169998168945,-6.08469295501709
1702072411609805800,16.267805908203126,12.117647171020508,-21.987518310546875,-1.831679344177246
1702072411626795300,16.284795166015623,9.638139724731445,-19.840805053710938,6.388701915740967
1702072411643785200,16.30178515625,3.0154542922973633,-16.80287742614746,12.313411712646484
1702072411660775200,16.318775146484374,-1.7666635513305664,-14.063852310180664,13.290125846862793
1702072411677754400,16.33575439453125,-2.684713363647461,-9.916946411132812,14.160850524902344
1702072411694755000,16.352755126953124,-3.8011651039123535,-4.79780387878418,25.076908111572266
1702072411711742200,16.3697421875,-3.9369564056396484,-0.0483018159866333,41.47271728515625
1702072411728737000,16.386737060546874,4.199289798736572,5.673232078552246,45.055789947509766
1702072411745714000,16.4037138671875,8.9274320602417,13.839334487915039,30.71600341796875
1702072411762711600,16.420711669921875,7.378110885620117,16.906600952148438,19.918746948242188
1702072411779706600,16.43770654296875,7.564257621765137,17.59943962097168,15.661520957946777
1702072411796694300,16.4546943359375,7.918763160705566,17.481048583984375,8.89966106414795
1702072411813673500,16.471673583984376,7.238326072692871,17.105283737182617,0.5560779571533203
1702072411830674000,16.488673828125,3.0592494010925293,18.345890045166016,-8.445969581604004
1702072411847663900,16.505663818359373,-0.43271970748901367,21.388429641723633,-12.684974670410156
1702072411864653300,16.5226533203125,-0.8339238166809082,22.21387481689453,-11.851705551147461
1702072411881643300,16.539643310546875,0.6113240718841553,20.37150001525879,-8.79041576385498
1702072411898633000,16.556633056640624,1.895538330078125,18.444799423217773,-7.605393886566162
1702072411915622700,16.57362255859375,5.055439472198486,17.69919776916504,-7.69180154800415
1702072411932617700,16.59061767578125,10.42578125,16.586515426635742,-3.085496425628662
1702072411949607200,16.607607177734376,11.121030807495117,14.80985164642334,5.400852203369141
1702072411966592500,16.624592529296876,6.644951820373535,13.707589149475098,11.996882438659668
1702072411983582200,16.641582275390626,0.7880322933197021,12.402836799621582,18.383522033691406
1702072412000560000,16.65856005859375,-0.05581235885620117,13.150176048278809,26.286832809448242
1702072412017564700,16.675564697265624,4.113652229309082,9.414104461669922,33.96049880981445
1702072412034537700,16.692537841796874,9.16363525390625,2.9952645301818848,35.948341369628906
1702072412051533300,16.709533203125,12.157855033874512,-3.2958827018737793,32.38172912597656
1702072412068531700,16.72653173828125,12.101561546325684,-7.752183437347412,26.570905685424805
1702072412085518800,16.743518798828124,8.442557334899902,-12.254359245300293,21.54180335998535
1702072412102502100,16.760502197265627,5.627856254577637,-16.45462989807129,15.897186279296875
1702072412119499000,16.7774990234375,5.354488372802734,-19.933086395263672,10.04467487335205
1702072412136481000,16.79448095703125,7.2072248458862305,-23.6064453125,4.649294376373291
1702072412153478000,16.811477783203124,10.934938430786133,-26.28524398803711,-1.3027395009994507
1702072412170460200,16.828460205078127,12.930564880371094,-27.156261444091797,-5.915760040283203
1702072412187452400,16.845452392578125,12.066564559936523,-27.714807510375977,-6.9566650390625
1702072412204448300,16.8624482421875,10.179052352905273,-28.333038330078125,-5.296408653259277
1702072412221436200,16.879436279296876,9.283292770385742,-26.824932098388672,-5.443704128265381
1702072412238424300,16.89642431640625,9.480884552001953,-23.63662338256836,-5.020029544830322
1702072412255415000,16.9134150390625,9.684462547302246,-21.47995376586914,0.12987184524536133
1702072412272398600,16.930398681640625,8.48685073852539,-19.858963012695312,9.218191146850586
1702072412289393200,16.94739306640625,5.5038957595825195,-17.5324764251709,15.45598030090332
1702072412306381800,16.9643818359375,0.13645362854003906,-13.975252151489258,14.355903625488281
1702072412323378400,16.98137841796875,-6.670467853546143,-7.505324363708496,11.124946594238281
1702072412340363000,16.998363037109375,-8.950254440307617,2.8280062675476074,17.47068977355957
1702072412357359900,17.01535986328125,-7.674745082855225,6.758392333984375,35.786903381347656
1702072412374346200,17.03234619140625,-0.4121861457824707,10.15712833404541,46.452964782714844
1702072412391341300,17.04934130859375,8.021546363830566,16.162601470947266,31.924896240234375
1702072412408328700,17.06632861328125,11.828911781311035,19.10752296447754,14.347683906555176
1702072412425318000,17.08331787109375,7.665987014770508,17.48591423034668,8.719023704528809
1702072412442308000,17.10030810546875,1.1199026107788086,15.805931091308594,4.56619930267334
1702072412459297800,17.1172978515625,-0.3438854217529297,15.753044128417969,-4.146827220916748
1702072412476287700,17.134287841796876,0.6493024826049805,15.99613094329834,-8.659526824951172
1702072412493277700,17.151277587890625,0.16004133224487305,17.022451400756836,-8.578986167907715
1702072412510249000,17.1682490234375,-1.0048627853393555,18.500133514404297,-11.383829116821289
1702072412527257000,17.185257080078124,-2.703526496887207,18.479101181030273,-12.816291809082031
1702072412544246800,17.202246826171876,-3.097006320953369,17.624675750732422,-11.799155235290527
1702072412561236700,17.21923681640625,0.7285141944885254,16.758432388305664,-8.356444358825684
1702072412578226700,17.236226806640627,4.720837116241455,15.487967491149902,-2.208770275115967
1702072412595216400,17.25321630859375,6.37357759475708,14.950627326965332,3.226914405822754
1702072412612206600,17.27020654296875,5.710299968719482,13.617679595947266,7.699225425720215
1702072412629196300,17.2871962890625,5.170303821563721,11.886777877807617,14.224682807922363
1702072412646186000,17.30418603515625,8.53482437133789,11.878355979919434,21.808469772338867
1702072412663176000,17.321176025390624,7.464029312133789,10.224908828735352,29.508663177490234
1702072412680165600,17.33816552734375,7.576272964477539,5.6742024421691895,32.23186111450195
1702072412697145000,17.35514501953125,9.489093780517578,0.8035745620727539,31.354259490966797
1702072412714145300,17.372145263671875,9.963943481445312,-3.2249300479888916,27.43231201171875
1702072412731135500,17.389135498046876,6.591070175170898,-7.4033050537109375,22.461624145507812
1702072412748127200,17.406127197265626,4.515838623046875,-12.325159072875977,17.026498794555664
1702072412765112800,17.42311279296875,5.6863555908203125,-17.71192169189453,11.21121597290039
1702072412782104800,17.440104736328124,7.824352741241455,-23.591175079345703,5.063132286071777
1702072412799094500,17.457094482421876,11.343585968017578,-27.47721290588379,-2.103494644165039
1702072412816084200,17.474084228515625,12.27145004272461,-28.15119171142578,-8.932086944580078
1702072412833064000,17.49106396484375,11.211585998535156,-28.258438110351562,-10.616495132446289
1702072412850064100,17.508064208984376,9.398300170898438,-29.262603759765625,-7.992185592651367
1702072412867053800,17.5250537109375,7.756992340087891,-26.88915252685547,-7.502294540405273
1702072412884043500,17.54204345703125,7.772974967956543,-23.39007568359375,-5.952868461608887
1702072412901033500,17.559033447265627,9.581605911254883,-20.838911056518555,0.3769383430480957
1702072412918023400,17.5760234375,9.552227973937988,-18.690126419067383,10.614666938781738
1702072412935013400,17.593013427734373,5.686343193054199,-15.769216537475586,16.368488311767578
1702072412952004600,17.610004638671874,-0.14534997940063477,-12.356525421142578,13.454595565795898
1702072412968992300,17.6269921875,-4.564458847045898,-4.288127422332764,8.825937271118164
1702072412985982500,17.643982421875,-5.249416828155518,5.7435455322265625,19.90743637084961
1702072413002972700,17.66097265625,-8.833635330200195,11.45017147064209,43.36444854736328
1702072413019959600,17.67795947265625,-9.952275276184082,13.323822975158691,49.67676544189453
1702072413036954600,17.69495458984375,0.5690031051635742,17.567710876464844,28.027807235717773
1702072413053931300,17.71193115234375,12.237693786621094,18.987428665161133,7.069990158081055
1702072413070931700,17.728931640625,11.99496841430664,15.244380950927734,0.4935007095336914
1702072413087921700,17.745921630859375,5.327334880828857,13.500633239746094,-3.369506359100342
1702072413104911400,17.762911376953124,1.3490731716156006,13.809457778930664,-9.666496276855469
1702072413121901600,17.779901611328125,-0.26292991638183594,14.501189231872559,-12.279898643493652
1702072413138887400,17.796887451171877,0.29003000259399414,15.211685180664062,-10.74081039428711
1702072413155883500,17.813883544921875,-0.09537839889526367,14.913344383239746,-10.239171981811523
1702072413172870700,17.83087060546875,-0.6419768333435059,14.393310546875,-11.533591270446777
1702072413189860900,17.84786083984375,-0.41310739517211914,13.70675277709961,-10.97658634185791
1702072413206850600,17.8648505859375,2.5085983276367188,13.463693618774414,-7.310842037200928
1702072413223840500,17.881840576171875,4.325220108032227,12.934225082397461,-1.9036049842834473
1702072413240827600,17.89882763671875,5.831299304962158,12.632713317871094,1.893202781677246
1702072413257822500,17.915822509765626,6.076030254364014,13.315671920776367,6.466826438903809
1702072413274807000,17.93280712890625,4.888091564178467,12.76428508758545,14.470230102539062
1702072413291802400,17.94980224609375,4.1768341064453125,13.001646995544434,21.394548416137695
1702072413308789800,17.966789794921876,4.958459854125977,13.735414505004883,27.538482666015625
1702072413325779500,17.983779541015625,5.563446521759033,10.089218139648438,30.595659255981445
1702072413342769000,18.000768798828126,8.798383712768555,5.828800678253174,30.680419921875
1702072413359759000,18.017759033203124,10.644394874572754,1.5662217140197754,28.107521057128906
1702072413376748800,18.034748779296876,8.781558990478516,-3.350724458694458,23.625930786132812
1702072413393724700,18.051724609375,6.895345687866211,-9.944829940795898,18.492063522338867
1702072413410731500,18.0687314453125,7.3333916664123535,-16.540924072265625,12.62704849243164
1702072413427718000,18.0857177734375,10.279583930969238,-22.501354217529297,6.484004020690918
1702072413444708000,18.1027080078125,13.333366394042969,-27.054763793945312,0.901134729385376
1702072413461695200,18.1196953125,12.659475326538086,-28.200328826904297,-4.4515604972839355
1702072413478690300,18.136690185546875,9.640685081481934,-28.01450538635254,-6.773382186889648
1702072413495677400,18.153677490234376,9.432793617248535,-27.80500030517578,-6.176542282104492
1702072413512656600,18.17065673828125,10.334185600280762,-25.776538848876953,-5.536971092224121
1702072413529657000,18.187656982421874,10.499359130859375,-22.327484130859375,-3.901844024658203
1702072413546646800,18.204646728515623,10.313835144042969,-19.3157901763916,1.6294255256652832
1702072413563637000,18.221636962890624,8.307984352111816,-17.33098602294922,8.504587173461914
1702072413580626400,18.23862646484375,4.109920501708984,-14.708105087280273,9.71175765991211
1702072413597616600,18.25561669921875,-0.9232888221740723,-12.443840026855469,6.94566011428833
1702072413614603500,18.272603515625,-6.642000198364258,-10.300503730773926,5.787025451660156
1702072413631597600,18.28959765625,-10.96566390991211,-3.2474663257598877,9.66275405883789
1702072413648586800,18.306586669921874,-9.458786964416504,3.1619856357574463,23.292194366455078
1702072413665576200,18.323576171875,-4.5266289710998535,10.272790908813477,36.96391296386719
1702072413682565000,18.340565185546875,-0.47408533096313477,14.953643798828125,39.4639778137207
1702072413699555300,18.357555419921876,6.432642936706543,19.10076141357422,28.220287322998047
1702072413716545300,18.374545166015626,11.930990219116211,19.573123931884766,16.78838348388672
1702072413733531600,18.39153173828125,11.021756172180176,16.002994537353516,9.046509742736816
1702072413750524700,18.408524658203124,7.785829544067383,12.786299705505371,1.1302886009216309
1702072413767514400,18.425514404296877,5.729928970336914,10.922677993774414,-6.158395767211914
1702072413784504600,18.442504638671874,4.520735263824463,11.352592468261719,-10.325896263122559
1702072413801494300,18.459494384765627,4.729860782623291,13.220932006835938,-13.198295593261719
1702072413818484200,18.476484130859376,5.478484153747559,15.04007339477539,-13.837570190429688
1702072413835472000,18.493471923828125,4.622529029846191,14.956633567810059,-10.652231216430664
1702072413852465200,18.510465087890626,2.2269225120544434,15.188901901245117,-9.494237899780273
1702072413869450800,18.52745068359375,2.11751127243042,14.7842435836792,-8.476266860961914
1702072413886446000,18.544446044921877,4.908189296722412,14.0660982131958,-5.367361068725586
1702072413903433000,18.561432861328125,7.375516891479492,13.899282455444336,1.8871111869812012
1702072413920423000,18.5784228515625,7.985307693481445,13.964162826538086,11.701460838317871
1702072413937413400,18.595413330078124,9.033650398254395,15.49776840209961,21.28469467163086
1702072413954402000,18.612402099609376,7.532279968261719,14.299386978149414,26.84542465209961
1702072413971392300,18.629392333984374,5.197651386260986,11.404373168945312,27.698379516601562
1702072413988380200,18.646380126953126,3.276594638824463,5.820522308349609,29.53189468383789
1702072414005374200,18.663374267578124,3.736950159072876,0.8685812950134277,26.23350715637207
1702072414022361900,18.68036181640625,4.379683017730713,-4.305458068847656,20.693443298339844
1702072414039351600,18.6973515625,4.37849235534668,-10.388898849487305,15.904425621032715
1702072414056341200,18.71434130859375,5.254791736602783,-16.853057861328125,10.463940620422363
1702072414073317000,18.731317138671876,6.676725387573242,-21.514331817626953,4.237236499786377
1702072414090321000,18.74832080078125,8.920676231384277,-25.159034729003906,-0.9810810089111328
1702072414107310800,18.765310791015626,10.717486381530762,-27.108821868896484,-4.864258766174316
1702072414124292000,18.7822919921875,11.625970840454102,-27.516324996948242,-5.9574103355407715
1702072414141290500,18.79929052734375,10.641641616821289,-27.44601821899414,-3.5538158416748047
1702072414158278000,18.81627783203125,10.188730239868164,-26.163875579833984,-2.1623153686523438
1702072414175272700,18.833272705078127,10.075643539428711,-23.407445907592773,-1.8896130323410034
1702072414192259800,18.850259765625,10.365644454956055,-20.97047996520996,0.4843759536743164
1702072414209247200,18.867247314453124,9.685932159423828,-18.782243728637695,5.50413179397583
1702072414226242000,18.884241943359374,5.423157215118408,-16.7981014251709,10.898223876953125
1702072414243229400,18.9012294921875,-2.523397922515869,-14.510799407958984,12.982787132263184
1702072414260208000,18.9182080078125,-10.98300552368164,-8.586223602294922,14.049400329589844
1702072414277209600,18.935209716796876,-13.658843994140625,-1.7825713157653809,19.483089447021484
1702072414294198500,18.952198486328125,-7.799012184143066,3.1535449028015137,29.90874671936035
1702072414311188500,18.9691884765625,-4.470132350921631,5.871459007263184,40.632511138916016
1702072414328175900,18.98617578125,-2.484753131866455,10.908475875854492,37.254783630371094
1702072414345170700,19.003170654296873,11.204320907592773,15.58104133605957,20.243942260742188
1702072414362157800,19.02015771484375,14.37956428527832,15.724356651306152,8.737798690795898
1702072414379148000,19.03714794921875,6.242495536804199,15.587215423583984,4.122002601623535
1702072414396137700,19.0541376953125,2.403571128845215,15.828153610229492,0.8731603622436523
1702072414413127400,19.07112744140625,5.698116302490234,16.73572540283203,-0.2848081588745117
1702072414430117000,19.0881171875,8.27726936340332,19.137250900268555,-2.859315872192383
1702072414447107000,19.105107177734375,5.248358726501465,20.4239501953125,-6.815258026123047
1702072414464097000,19.122096923828124,1.2749338150024414,19.483123779296875,-9.567655563354492
1702072414481086500,19.13908642578125,1.8964259624481201,18.293655395507812,-10.983484268188477
1702072414498076700,19.15607666015625,6.410111427307129,18.271053314208984,-8.452024459838867
1702072414515066400,19.17306640625,8.972376823425293,17.813058853149414,-0.7471103668212891
1702072414532056000,19.19005615234375,7.9279890060424805,16.022994995117188,4.279534816741943
1702072414549041000,19.207041015625,5.052116394042969,14.885077476501465,6.202071666717529
1702072414566038800,19.224038818359375,2.3172879219055176,13.518028259277344,12.603105545043945
1702072414583025400,19.241025390625,0.5634231567382812,12.950477600097656,21.371967315673828
1702072414600015600,19.258015625,3.3333873748779297,10.443360328674316,29.93126678466797
1702072414617005000,19.275005126953126,5.0268235206604,8.318119049072266,33.29411697387695
1702072414633982200,19.291982177734376,3.9819347858428955,3.1924118995666504,35.43560791015625
1702072414650985000,19.30898486328125,4.562594890594482,-1.2269172668457031,32.91123580932617
1702072414667974700,19.325974609375,4.021248817443848,-6.517812252044678,27.420703887939453
1702072414684964000,19.342964111328126,3.1235904693603516,-12.04391098022461,20.4591064453125
1702072414701951500,19.359951416015626,3.0475237369537354,-16.854900360107422,13.394613265991211
1702072414718946600,19.376946533203125,4.512415409088135,-22.70676040649414,8.149913787841797
1702072414735933700,19.39393359375,6.679897308349609,-28.706796646118164,3.0152587890625
1702072414752923400,19.41092333984375,7.994543552398682,-32.22032165527344,-3.612009048461914
1702072414769913300,19.427913330078123,7.116342544555664,-32.63077926635742,-9.00434684753418
1702072414786903300,19.4449033203125,7.118504047393799,-31.621294021606445,-10.758359909057617
1702072414803893000,19.46189306640625,8.726439476013184,-29.048416137695312,-8.650866508483887
1702072414820882700,19.478882568359374,10.463354110717773,-25.297578811645508,-2.7857401371002197
1702072414837872400,19.495872314453123,11.064464569091797,-21.906965255737305,4.741403579711914
1702072414854862300,19.5128623046875,11.01476001739502,-19.26253890991211,10.935890197753906
1702072414871852000,19.52985205078125,7.896958351135254,-16.290369033813477,11.084274291992188
1702072414888841700,19.546841796875,1.6145811080932617,-14.237520217895508,7.558034420013428
1702072414905831700,19.563831787109375,-5.155324459075928,-12.699151992797852,6.575390815734863
1702072414922821400,19.5808212890625,-9.051387786865234,-9.2147216796875,13.752021789550781
1702072414939811000,19.59781103515625,-8.032730102539062,-1.1185632944107056,26.236778259277344
1702072414956795000,19.614794921875,-1.2839369773864746,8.439669609069824,39.065643310546875
1702072414973791000,19.631791015625,-0.026463985443115234,16.943267822265625,42.37646484375
1702072414990780700,19.64878076171875,-3.372598171234131,21.419921875,35.330692291259766
1702072415007770400,19.665770263671874,1.5503978729248047,19.846187591552734,23.5891056060791
1702072415024760300,19.68276025390625,9.968297958374023,16.19247817993164,11.543172836303711
1702072415041750000,19.69975,11.552820205688477,13.18816089630127,1.043482780456543
1702072415058740000,19.716739990234377,7.134401321411133,12.298637390136719,-7.058376789093018
1702072415075730000,19.73372998046875,3.6136832237243652,13.081128120422363,-11.724456787109375
1702072415092720400,19.750720458984375,1.2412328720092773,15.386210441589355,-13.838117599487305
1702072415109709300,19.767709228515624,0.5999197959899902,16.22047996520996,-13.000032424926758
1702072415126699000,19.784698974609373,0.3203110694885254,15.666377067565918,-11.739425659179688
1702072415143685600,19.801685546875,0.997791051864624,14.823365211486816,-10.703969955444336
1702072415160675300,19.81867529296875,3.1629176139831543,13.607141494750977,-8.868537902832031
1702072415177666000,19.835666015625,5.148346424102783,12.724319458007812,-5.069392204284668
1702072415194660900,19.852660888671874,5.390264987945557,11.483561515808105,-0.11146783828735352
1702072415211660300,19.869660400390625,5.211626052856445,10.607288360595703,2.700382709503174
1702072415228638000,19.886637939453124,5.427919864654541,9.92841911315918,7.482304573059082
1702072415245627600,19.903627685546876,6.5537495613098145,9.379451751708984,15.387676239013672
1702072415262617300,19.920617431640625,8.919866561889648,11.988527297973633,23.596426010131836
1702072415279607000,19.93760693359375,8.871427536010742,10.634262084960938,32.233741760253906
1702072415296597000,19.954596923828124,7.586468696594238,7.11454963684082,35.585914611816406
1702072415313584000,19.971584228515624,7.626590728759766,2.154975414276123,34.054908752441406
1702072415330576600,19.98857666015625,5.840061187744141,-3.1901497840881348,28.205432891845703
1702072415347564300,20.005564208984374,2.970127582550049,-7.541584014892578,21.12586212158203
1702072415364558600,20.02255859375,2.291076183319092,-12.429349899291992,14.797337532043457
1702072415381546000,20.0395458984375,3.911298990249634,-17.186656951904297,9.088249206542969
1702072415398536000,20.056535888671874,6.679956436157227,-21.50580406188965,3.810946226119995
1702072415415525400,20.073525390625,8.679479598999023,-25.305479049682617,-0.9719853401184082
1702072415432515000,20.09051513671875,8.928681373596191,-28.586692810058594,-3.9610848426818848
1702072415449502500,20.10750244140625,7.38035774230957,-29.379819869995117,-6.8039960861206055
1702072415466497800,20.124497802734375,5.836484432220459,-29.76410675048828,-7.701194763183594
1702072415483469800,20.1414697265625,5.95955228805542,-27.356359481811523,-9.0685453414917
1702072415500469500,20.158469482421875,7.2871856689453125,-24.206886291503906,-6.305086135864258
1702072415517461800,20.175461669921877,8.107553482055664,-21.400524139404297,0.9073486328125
1702072415534451500,20.192451416015626,8.265563011169434,-19.008136749267578,9.26086711883545
1702072415551434000,20.20943408203125,7.103592872619629,-15.642038345336914,13.241382598876953
1702072415568424400,20.226424560546874,1.251110553741455,-12.38057804107666,12.025581359863281
1702072415585422600,20.243422607421873,-5.903558254241943,-6.003274917602539,7.46232795715332
1702072415602408200,20.260408203125,-11.32656478881836,3.6888785362243652,12.061209678649902
1702072415619390200,20.27739013671875,-15.015251159667969,4.672538757324219,32.72463607788086
1702072415636377900,20.2943779296875,-10.64826488494873,6.6581645011901855,46.127811431884766
1702072415653375000,20.311375,3.236945867538452,10.716185569763184,32.26417541503906
1702072415670361600,20.328361572265624,18.846904754638672,15.611371040344238,13.184887886047363
1702072415687360800,20.34536083984375,17.6290225982666,13.496789932250977,7.942507743835449
1702072415704343000,20.362343017578127,10.770882606506348,12.655391693115234,5.264301300048828
1702072415721339400,20.37933935546875,5.546827793121338,12.678719520568848,-1.2382869720458984
1702072415738329000,20.3963291015625,1.9202473163604736,12.853446006774902,-4.943652153015137
1702072415755315500,20.4133154296875,1.2742717266082764,14.043571472167969,-6.954143524169922
1702072415772305400,20.430305419921876,2.9239678382873535,14.819846153259277,-9.757878303527832
1702072415789292500,20.44729248046875,3.7881412506103516,13.792588233947754,-10.4448881149292
1702072415806280700,20.46428076171875,3.1885218620300293,12.595810890197754,-10.20042896270752
1702072415823276800,20.48127685546875,3.7451705932617188,12.32296085357666,-8.70710277557373
1702072415840268800,20.498268798828125,5.721966743469238,12.615015983581543,-5.179986000061035
1702072415857252900,20.5152529296875,7.022792339324951,13.295391082763672,0.24926042556762695
1702072415874241500,20.532241455078125,3.5779366493225098,13.392738342285156,7.218990802764893
1702072415891240400,20.549240478515625,16.84906005859375,10.484445571899414,16.909420013427734
1702072415908226800,20.566226806640625,4.002023696899414,16.71273422241211,24.908842086791992
1702072415925221600,20.5832216796875,2.3810291290283203,13.513544082641602,33.693504333496094
1702072415942209000,20.600208984375,3.3378701210021973,6.644176006317139,34.83472442626953
1702072415959198700,20.61719873046875,5.850555896759033,2.0655899047851562,29.23462677001953
1702072415976190200,20.634190185546874,7.115041732788086,-3.964587688446045,24.769014358520508
1702072415993176600,20.651176513671874,5.608762741088867,-8.169573783874512,18.265439987182617
1702072416010167800,20.668167724609376,4.705550670623779,-11.74964427947998,11.996910095214844
1702072416027147000,20.68514697265625,4.398881435394287,-15.231149673461914,7.666594982147217
1702072416044147500,20.7021474609375,5.273599624633789,-19.09202003479004,4.497757434844971
1702072416061137400,20.719137451171875,6.523318290710449,-23.409976959228516,1.078341007232666
1702072416078127000,20.736127197265624,8.104595184326172,-26.238914489746094,-3.2724316120147705
1702072416095117000,20.753116943359377,9.353433609008789,-28.2446346282959,-7.506350994110107
1702072416112107000,20.77010693359375,9.930485725402832,-28.634830474853516,-10.79835319519043
1702072416129094400,20.787094482421875,10.393200874328613,-27.084030151367188,-11.941463470458984
1702072416146088700,20.804088623046876,10.432086944580078,-24.61948013305664,-8.497541427612305
1702072416163076000,20.821076171875,10.26865005493164,-22.708097457885742,-0.8399457931518555
1702072416180065800,20.838065673828126,8.478387832641602,-21.731834411621094,7.80418062210083
1702072416197045200,20.855045166015625,4.306614875793457,-19.831327438354492,10.007891654968262
1702072416214034700,20.87203466796875,0.08457183837890625,-17.430076599121094,6.873952388763428
1702072416231031300,20.88903125,-2.981752872467041,-13.961908340454102,5.002066612243652
1702072416248029200,20.906029296875,-3.2898316383361816,-9.86127758026123,13.996479034423828
1702072416265014800,20.923014892578124,-1.7901453971862793,-6.051212310791016,31.90012550354004
1702072416282002200,20.940002197265624,5.480543613433838,0.46585333347320557,43.58790969848633
1702072416298996700,20.956996826171874,11.117205619812012,11.298097610473633,38.19051742553711
1702072416315984100,20.973984130859375,10.67812442779541,17.357460021972656,28.75059700012207
1702072416332974000,20.99097412109375,5.117286682128906,18.111572265625,21.85873031616211
1702072416349963800,21.0079638671875,1.8654365539550781,16.783689498901367,12.619281768798828
1702072416366953500,21.024953369140626,4.265140533447266,15.99374771118164,1.4932518005371094
1702072416383943200,21.041943115234375,7.790193557739258,16.642807006835938,-6.478499412536621
1702072416400933000,21.05893310546875,6.905597686767578,18.834260940551758,-10.762163162231445
1702072416417922800,21.0759228515625,4.680659294128418,20.977888107299805,-10.467957496643066
1702072416434912500,21.09291259765625,0.9934005737304688,21.106016159057617,-8.49770736694336
1702072416451902500,21.10990234375,-3.5416975021362305,20.009063720703125,-7.896404266357422
1702072416468892200,21.12689208984375,-4.026618003845215,18.53414535522461,-7.688465118408203
1702072416485882000,21.143882080078125,-0.3268256187438965,16.817241668701172,-5.7990312576293945
1702072416502871800,21.160871826171874,3.5244462490081787,15.407530784606934,-0.5457248687744141
1702072416519861500,21.177861572265623,5.5133562088012695,13.745620727539062,5.529538154602051
1702072416536851200,21.194851318359376,6.89178466796875,12.232414245605469,10.248891830444336
1702072416553841000,21.2118408203125,6.624354839324951,9.198257446289062,17.002342224121094
1702072416570830600,21.22883056640625,8.184782028198242,9.050783157348633,21.965131759643555
1702072416587809800,21.245809814453125,11.83072280883789,7.511097431182861,28.18834686279297
1702072416604810500,21.262810546875,13.72518539428711,1.6780424118041992,32.34090042114258
1702072416621800200,21.27980029296875,15.086545944213867,-2.7854983806610107,29.393085479736328
1702072416638790000,21.296789794921875,12.054309844970703,-6.438175678253174,25.27657127380371
1702072416655779600,21.313779541015624,6.973690032958984,-9.382240295410156,20.633634567260742
1702072416672759000,21.330759033203126,4.509339332580566,-12.981735229492188,14.638484954833984
1702072416689749000,21.3477490234375,6.696841239929199,-17.305095672607422,7.445582389831543
1702072416706749000,21.3647490234375,11.571771621704102,-21.373640060424805,0.9347424507141113
1702072416723739000,21.38173876953125,12.598245620727539,-25.422271728515625,-2.8588032722473145
1702072416740728300,21.398728271484377,9.381799697875977,-27.197683334350586,-6.032990455627441
1702072416757718000,21.415718017578126,5.155243396759033,-27.534582138061523,-7.321991443634033
1702072416774708000,21.4327080078125,3.8320586681365967,-28.38633155822754,-7.087602615356445
1702072416791698000,21.449697998046876,5.939740180969238,-28.094526290893555,-7.763220310211182
1702072416808687600,21.4666875,7.931890487670898,-26.68984603881836,-5.950003623962402
1702072416825677600,21.483677490234374,8.818927764892578,-24.746349334716797,-0.46727657318115234
1702072416842667000,21.5006669921875,8.284871101379395,-22.53146743774414,8.101475715637207
1702072416859657000,21.517656982421876,5.043698787689209,-19.75127410888672,15.355630874633789
1702072416876642600,21.534642578125,-2.400371551513672,-15.133975982666016,16.40944480895996
1702072416893625900,21.5516259765625,-9.126299858093262,-5.657571792602539,13.09644889831543
1702072416910611500,21.568611572265624,-7.913090705871582,0.9393937587738037,20.73295783996582
1702072416927620600,21.58562060546875,0.7953381538391113,5.203529357910156,36.462127685546875
1702072416944606000,21.60260595703125,5.943582534790039,9.779043197631836,45.11595916748047
1702072416961595400,21.619595458984374,10.969834327697754,16.932302474975586,31.77131462097168
1702072416978581800,21.636581787109375,12.808109283447266,18.91863250732422,15.925021171569824
1702072416995575000,21.653574951171876,6.766390800476074,17.32089614868164,7.691160202026367
1702072417012578600,21.67057861328125,2.072740077972412,16.226886749267578,1.6138505935668945
1702072417029554700,21.6875546875,-0.7250094413757324,16.0773983001709,-5.491924285888672
1702072417046544400,21.70454443359375,-0.6208896636962891,16.59721565246582,-9.513749122619629
1702072417063534000,21.7215341796875,1.6248533725738525,17.431594848632812,-8.564642906188965
1702072417080523800,21.738523681640626,2.5382137298583984,18.105321884155273,-8.759407043457031
1702072417097513500,21.755513427734375,1.1889371871948242,17.1398983001709,-8.996477127075195
1702072417114500900,21.7725009765625,0.9154891967773438,15.494288444519043,-8.281190872192383
